"view_history","rt","trial_type","trial_index","time_elapsed","internal_node_id","block_order","chunk_order","stimulus","key_press","state","test_part","correct_response","correct","responses","question_order","bonus"
"[{""page_index"":0,""viewing_time"":1713},{""page_index"":1,""viewing_time"":614.0999999996275},{""page_index"":2,""viewing_time"":573.8000000007451},{""page_index"":3,""viewing_time"":1102.199999999255},{""page_index"":4,""viewing_time"":972.2000000001863},{""page_index"":5,""viewing_time"":8605.700000000186},{""page_index"":6,""viewing_time"":904}]","14485.5","instructions","0","14488","0.0-0.0","structured_load,random,structured_incentive,structured_normal","3,4,2,1,2,3","","","","","","","","",""
"[{""page_index"":0,""viewing_time"":1616.5999999996275}]","1617","instructions","1","16107","0.0-1.0","structured_load,random,structured_incentive,structured_normal","3,4,2,1,2,3","","","","","","","","",""
"[{""page_index"":0,""viewing_time"":2010.5},{""page_index"":1,""viewing_time"":1433.9000000003725}]","3444.800000000745","instructions","2","19553","0.0-2.0","structured_load,random,structured_incentive,structured_normal","3,4,2,1,2,3","","","","","","","","",""
"","1797.1000000005588","image-keyboard-response","3","21353","0.0-3.0","structured_load,random,structured_incentive,structured_normal","3,4,2,1,2,3","img/set1/S1.jpg","83","1","structured_load","83","true","","",""
"","null","html-keyboard-response","4","21710","0.0-4.0","structured_load,random,structured_incentive,structured_normal","3,4,2,1,2,3","<img src=""img/set1/S1.jpg"" width=""540"" height = ""360"" style=""border:16px solid orange"">","null","","","","","","",""
"","null","html-keyboard-response","5","21912","0.0-5.0","structured_load,random,structured_incentive,structured_normal","3,4,2,1,2,3","","null","","","","","","",""
"","2167.2000000001863","image-keyboard-response","6","24081","0.0-6.0","structured_load,random,structured_incentive,structured_normal","3,4,2,1,2,3","img/set1/S2.jpg","72","2","structured_load","68","false","","",""
"","null","html-keyboard-response","7","24438","0.0-7.0","structured_load,random,structured_incentive,structured_normal","3,4,2,1,2,3","<img src=""img/set1/S2.jpg"" width=""540"" height = ""360"">","null","","","","","","",""
"","null","html-keyboard-response","8","24641","0.0-8.0","structured_load,random,structured_incentive,structured_normal","3,4,2,1,2,3","","null","","","","","","",""
"","597.6000000005588","image-keyboard-response","9","25240","0.0-9.0","structured_load,random,structured_incentive,structured_normal","3,4,2,1,2,3","img/set1/S3.jpg","74","3","structured_load","72","false","","",""
"","null","html-keyboard-response","10","25598","0.0-10.0","structured_load,random,structured_incentive,structured_normal","3,4,2,1,2,3","<img src=""img/set1/S3.jpg"" width=""540"" height = ""360"">","null","","","","","","",""
"","null","html-keyboard-response","11","25804","0.0-11.0","structured_load,random,structured_incentive,structured_normal","3,4,2,1,2,3","","null","","","","","","",""
"","1091.0999999996275","image-keyboard-response","12","26896","0.0-12.0","structured_load,random,structured_incentive,structured_normal","3,4,2,1,2,3","img/set1/S4.jpg","72","4","structured_load","74","false","","",""
"","null","html-keyboard-response","13","27253","0.0-13.0","structured_load,random,structured_incentive,structured_normal","3,4,2,1,2,3","<img src=""img/set1/S4.jpg"" width=""540"" height = ""360"">","null","","","","","","",""
"","null","html-keyboard-response","14","27459","0.0-14.0","structured_load,random,structured_incentive,structured_normal","3,4,2,1,2,3","","null","","","","","","",""
"","771.7999999998137","image-keyboard-response","15","28232","0.0-15.0","structured_load,random,structured_incentive,structured_normal","3,4,2,1,2,3","img/set1/S1.jpg","83","1","structured_load","83","true","","",""
"","null","html-keyboard-response","16","28589","0.0-16.0","structured_load,random,structured_incentive,structured_normal","3,4,2,1,2,3","<img src=""img/set1/S1.jpg"" width=""540"" height = ""360"" style=""border:16px solid orange"">","null","","","","","","",""
"","null","html-keyboard-response","17","28793","0.0-17.0","structured_load,random,structured_incentive,structured_normal","3,4,2,1,2,3","","null","","","","","","",""
"","942.3999999994412","image-keyboard-response","18","29737","0.0-18.0","structured_load,random,structured_incentive,structured_normal","3,4,2,1,2,3","img/set1/S2.jpg","72","2","structured_load","68","false","","",""
"","null","html-keyboard-response","19","30093","0.0-19.0","structured_load,random,structured_incentive,structured_normal","3,4,2,1,2,3","<img src=""img/set1/S2.jpg"" width=""540"" height = ""360"">","null","","","","","","",""
"","null","html-keyboard-response","20","30299","0.0-20.0","structured_load,random,structured_incentive,structured_normal","3,4,2,1,2,3","","null","","","","","","",""
"","1547.5","image-keyboard-response","21","31848","0.0-21.0","structured_load,random,structured_incentive,structured_normal","3,4,2,1,2,3","img/set1/S3.jpg","74","3","structured_load","72","false","","",""
"","null","html-keyboard-response","22","32204","0.0-22.0","structured_load,random,structured_incentive,structured_normal","3,4,2,1,2,3","<img src=""img/set1/S3.jpg"" width=""540"" height = ""360"">","null","","","","","","",""
"","null","html-keyboard-response","23","32410","0.0-23.0","structured_load,random,structured_incentive,structured_normal","3,4,2,1,2,3","","null","","","","","","",""
"","1907.5","image-keyboard-response","24","34319","0.0-24.0","structured_load,random,structured_incentive,structured_normal","3,4,2,1,2,3","img/set1/S4.jpg","68","4","structured_load","74","false","","",""
"","null","html-keyboard-response","25","34675","0.0-25.0","structured_load,random,structured_incentive,structured_normal","3,4,2,1,2,3","<img src=""img/set1/S4.jpg"" width=""540"" height = ""360"">","null","","","","","","",""
"","null","html-keyboard-response","26","34881","0.0-26.0","structured_load,random,structured_incentive,structured_normal","3,4,2,1,2,3","","null","","","","","","",""
"","573.3999999994412","image-keyboard-response","27","35456","0.0-27.0","structured_load,random,structured_incentive,structured_normal","3,4,2,1,2,3","img/set1/S3.jpg","74","3","structured_load","72","false","","",""
"","null","html-keyboard-response","28","35812","0.0-28.0","structured_load,random,structured_incentive,structured_normal","3,4,2,1,2,3","<img src=""img/set1/S3.jpg"" width=""540"" height = ""360"">","null","","","","","","",""
"","null","html-keyboard-response","29","36018","0.0-29.0","structured_load,random,structured_incentive,structured_normal","3,4,2,1,2,3","","null","","","","","","",""
"","1436.2000000001863","image-keyboard-response","30","37456","0.0-30.0","structured_load,random,structured_incentive,structured_normal","3,4,2,1,2,3","img/set1/S4.jpg","83","4","structured_load","74","false","","",""
"","null","html-keyboard-response","31","37811","0.0-31.0","structured_load,random,structured_incentive,structured_normal","3,4,2,1,2,3","<img src=""img/set1/S4.jpg"" width=""540"" height = ""360"">","null","","","","","","",""
"","null","html-keyboard-response","32","38012","0.0-32.0","structured_load,random,structured_incentive,structured_normal","3,4,2,1,2,3","","null","","","","","","",""
"","810.5","image-keyboard-response","33","38824","0.0-33.0","structured_load,random,structured_incentive,structured_normal","3,4,2,1,2,3","img/set1/S3.jpg","74","3","structured_load","72","false","","",""
"","null","html-keyboard-response","34","39181","0.0-34.0","structured_load,random,structured_incentive,structured_normal","3,4,2,1,2,3","<img src=""img/set1/S3.jpg"" width=""540"" height = ""360"">","null","","","","","","",""
"","null","html-keyboard-response","35","39387","0.0-35.0","structured_load,random,structured_incentive,structured_normal","3,4,2,1,2,3","","null","","","","","","",""
"","1259.7000000001863","image-keyboard-response","36","40648","0.0-36.0","structured_load,random,structured_incentive,structured_normal","3,4,2,1,2,3","img/set1/S4.jpg","74","4","structured_load","74","true","","",""
"","null","html-keyboard-response","37","41003","0.0-37.0","structured_load,random,structured_incentive,structured_normal","3,4,2,1,2,3","<img src=""img/set1/S4.jpg"" width=""540"" height = ""360"" style=""border:16px solid orange"">","null","","","","","","",""
"","null","html-keyboard-response","38","41209","0.0-38.0","structured_load,random,structured_incentive,structured_normal","3,4,2,1,2,3","","null","","","","","","",""
"","421.90000000037253","image-keyboard-response","39","41632","0.0-39.0","structured_load,random,structured_incentive,structured_normal","3,4,2,1,2,3","img/set1/S3.jpg","72","3","structured_load","72","true","","",""
"","null","html-keyboard-response","40","41985","0.0-40.0","structured_load,random,structured_incentive,structured_normal","3,4,2,1,2,3","<img src=""img/set1/S3.jpg"" width=""540"" height = ""360"" style=""border:16px solid orange"">","null","","","","","","",""
"","null","html-keyboard-response","41","42188","0.0-41.0","structured_load,random,structured_incentive,structured_normal","3,4,2,1,2,3","","null","","","","","","",""
"","875","image-keyboard-response","42","43064","0.0-42.0","structured_load,random,structured_incentive,structured_normal","3,4,2,1,2,3","img/set1/S4.jpg","74","4","structured_load","74","true","","",""
"","null","html-keyboard-response","43","43421","0.0-43.0","structured_load,random,structured_incentive,structured_normal","3,4,2,1,2,3","<img src=""img/set1/S4.jpg"" width=""540"" height = ""360"" style=""border:16px solid orange"">","null","","","","","","",""
"","null","html-keyboard-response","44","43627","0.0-44.0","structured_load,random,structured_incentive,structured_normal","3,4,2,1,2,3","","null","","","","","","",""
"","972.4000000003725","image-keyboard-response","45","44600","0.0-45.0","structured_load,random,structured_incentive,structured_normal","3,4,2,1,2,3","img/set1/S2.jpg","83","2","structured_load","68","false","","",""
"","null","html-keyboard-response","46","44957","0.0-46.0","structured_load,random,structured_incentive,structured_normal","3,4,2,1,2,3","<img src=""img/set1/S2.jpg"" width=""540"" height = ""360"">","null","","","","","","",""
"","null","html-keyboard-response","47","45163","0.0-47.0","structured_load,random,structured_incentive,structured_normal","3,4,2,1,2,3","","null","","","","","","",""
"","1923.800000000745","image-keyboard-response","48","47088","0.0-48.0","structured_load,random,structured_incentive,structured_normal","3,4,2,1,2,3","img/set1/S1.jpg","72","1","structured_load","83","false","","",""
"","null","html-keyboard-response","49","47444","0.0-49.0","structured_load,random,structured_incentive,structured_normal","3,4,2,1,2,3","<img src=""img/set1/S1.jpg"" width=""540"" height = ""360"">","null","","","","","","",""
"","null","html-keyboard-response","50","47651","0.0-50.0","structured_load,random,structured_incentive,structured_normal","3,4,2,1,2,3","","null","","","","","","",""
"","876.2000000001863","image-keyboard-response","51","48528","0.0-51.0","structured_load,random,structured_incentive,structured_normal","3,4,2,1,2,3","img/set1/S1.jpg","68","1","structured_load","83","false","","",""
"","null","html-keyboard-response","52","48885","0.0-52.0","structured_load,random,structured_incentive,structured_normal","3,4,2,1,2,3","<img src=""img/set1/S1.jpg"" width=""540"" height = ""360"">","null","","","","","","",""
"","null","html-keyboard-response","53","49087","0.0-53.0","structured_load,random,structured_incentive,structured_normal","3,4,2,1,2,3","","null","","","","","","",""
"","567.5","image-keyboard-response","54","49656","0.0-54.0","structured_load,random,structured_incentive,structured_normal","3,4,2,1,2,3","img/set1/S3.jpg","74","3","structured_load","72","false","","",""
"","null","html-keyboard-response","55","50011","0.0-55.0","structured_load,random,structured_incentive,structured_normal","3,4,2,1,2,3","<img src=""img/set1/S3.jpg"" width=""540"" height = ""360"">","null","","","","","","",""
"","null","html-keyboard-response","56","50213","0.0-56.0","structured_load,random,structured_incentive,structured_normal","3,4,2,1,2,3","","null","","","","","","",""
"","897.2000000001863","image-keyboard-response","57","51112","0.0-57.0","structured_load,random,structured_incentive,structured_normal","3,4,2,1,2,3","img/set1/S4.jpg","72","4","structured_load","74","false","","",""
"","null","html-keyboard-response","58","51469","0.0-58.0","structured_load,random,structured_incentive,structured_normal","3,4,2,1,2,3","<img src=""img/set1/S4.jpg"" width=""540"" height = ""360"">","null","","","","","","",""
"","null","html-keyboard-response","59","51675","0.0-59.0","structured_load,random,structured_incentive,structured_normal","3,4,2,1,2,3","","null","","","","","","",""
"","1787.800000000745","image-keyboard-response","60","53464","0.0-60.0","structured_load,random,structured_incentive,structured_normal","3,4,2,1,2,3","img/set1/S2.jpg","68","2","structured_load","68","true","","",""
"","null","html-keyboard-response","61","53821","0.0-61.0","structured_load,random,structured_incentive,structured_normal","3,4,2,1,2,3","<img src=""img/set1/S2.jpg"" width=""540"" height = ""360"" style=""border:16px solid orange"">","null","","","","","","",""
"","null","html-keyboard-response","62","54027","0.0-62.0","structured_load,random,structured_incentive,structured_normal","3,4,2,1,2,3","","null","","","","","","",""
"","1091.9000000003725","image-keyboard-response","63","55120","0.0-63.0","structured_load,random,structured_incentive,structured_normal","3,4,2,1,2,3","img/set1/S3.jpg","74","3","structured_load","72","false","","",""
"","null","html-keyboard-response","64","55474","0.0-64.0","structured_load,random,structured_incentive,structured_normal","3,4,2,1,2,3","<img src=""img/set1/S3.jpg"" width=""540"" height = ""360"">","null","","","","","","",""
"","null","html-keyboard-response","65","55681","0.0-65.0","structured_load,random,structured_incentive,structured_normal","3,4,2,1,2,3","","null","","","","","","",""
"","1742.0999999996275","image-keyboard-response","66","57424","0.0-66.0","structured_load,random,structured_incentive,structured_normal","3,4,2,1,2,3","img/set1/S4.jpg","74","4","structured_load","74","true","","",""
"","null","html-keyboard-response","67","57777","0.0-67.0","structured_load,random,structured_incentive,structured_normal","3,4,2,1,2,3","<img src=""img/set1/S4.jpg"" width=""540"" height = ""360"" style=""border:16px solid orange"">","null","","","","","","",""
"","null","html-keyboard-response","68","57983","0.0-68.0","structured_load,random,structured_incentive,structured_normal","3,4,2,1,2,3","","null","","","","","","",""
"","1271.7000000001863","image-keyboard-response","69","59256","0.0-69.0","structured_load,random,structured_incentive,structured_normal","3,4,2,1,2,3","img/set1/S1.jpg","83","1","structured_load","83","true","","",""
"","null","html-keyboard-response","70","59613","0.0-70.0","structured_load,random,structured_incentive,structured_normal","3,4,2,1,2,3","<img src=""img/set1/S1.jpg"" width=""540"" height = ""360"" style=""border:16px solid orange"">","null","","","","","","",""
"","null","html-keyboard-response","71","59814","0.0-71.0","structured_load,random,structured_incentive,structured_normal","3,4,2,1,2,3","","null","","","","","","",""
"","1568.9000000003725","image-keyboard-response","72","61384","0.0-72.0","structured_load,random,structured_incentive,structured_normal","3,4,2,1,2,3","img/set1/S2.jpg","68","2","structured_load","68","true","","",""
"","null","html-keyboard-response","73","61741","0.0-73.0","structured_load,random,structured_incentive,structured_normal","3,4,2,1,2,3","<img src=""img/set1/S2.jpg"" width=""540"" height = ""360"" style=""border:16px solid orange"">","null","","","","","","",""
"","null","html-keyboard-response","74","61942","0.0-74.0","structured_load,random,structured_incentive,structured_normal","3,4,2,1,2,3","","null","","","","","","",""
"","913.2000000001863","image-keyboard-response","75","62856","0.0-75.0","structured_load,random,structured_incentive,structured_normal","3,4,2,1,2,3","img/set1/S3.jpg","74","3","structured_load","72","false","","",""
"","null","html-keyboard-response","76","63212","0.0-76.0","structured_load,random,structured_incentive,structured_normal","3,4,2,1,2,3","<img src=""img/set1/S3.jpg"" width=""540"" height = ""360"">","null","","","","","","",""
"","null","html-keyboard-response","77","63418","0.0-77.0","structured_load,random,structured_incentive,structured_normal","3,4,2,1,2,3","","null","","","","","","",""
"","877","image-keyboard-response","78","64296","0.0-78.0","structured_load,random,structured_incentive,structured_normal","3,4,2,1,2,3","img/set1/S4.jpg","72","4","structured_load","74","false","","",""
"","null","html-keyboard-response","79","64653","0.0-79.0","structured_load,random,structured_incentive,structured_normal","3,4,2,1,2,3","<img src=""img/set1/S4.jpg"" width=""540"" height = ""360"">","null","","","","","","",""
"","null","html-keyboard-response","80","64859","0.0-80.0","structured_load,random,structured_incentive,structured_normal","3,4,2,1,2,3","","null","","","","","","",""
"","1812.199999999255","image-keyboard-response","81","66672","0.0-81.0","structured_load,random,structured_incentive,structured_normal","3,4,2,1,2,3","img/set1/S3.jpg","72","3","structured_load","72","true","","",""
"","null","html-keyboard-response","82","67029","0.0-82.0","structured_load,random,structured_incentive,structured_normal","3,4,2,1,2,3","<img src=""img/set1/S3.jpg"" width=""540"" height = ""360"" style=""border:16px solid orange"">","null","","","","","","",""
"","null","html-keyboard-response","83","67235","0.0-83.0","structured_load,random,structured_incentive,structured_normal","3,4,2,1,2,3","","null","","","","","","",""
"","451.6000000005588","image-keyboard-response","84","67688","0.0-84.0","structured_load,random,structured_incentive,structured_normal","3,4,2,1,2,3","img/set1/S4.jpg","74","4","structured_load","74","true","","",""
"","null","html-keyboard-response","85","68044","0.0-85.0","structured_load,random,structured_incentive,structured_normal","3,4,2,1,2,3","<img src=""img/set1/S4.jpg"" width=""540"" height = ""360"" style=""border:16px solid orange"">","null","","","","","","",""
"","null","html-keyboard-response","86","68250","0.0-86.0","structured_load,random,structured_incentive,structured_normal","3,4,2,1,2,3","","null","","","","","","",""
"","541.2000000001863","image-keyboard-response","87","68792","0.0-87.0","structured_load,random,structured_incentive,structured_normal","3,4,2,1,2,3","img/set1/S3.jpg","72","3","structured_load","72","true","","",""
"","null","html-keyboard-response","88","69148","0.0-88.0","structured_load,random,structured_incentive,structured_normal","3,4,2,1,2,3","<img src=""img/set1/S3.jpg"" width=""540"" height = ""360"" style=""border:16px solid orange"">","null","","","","","","",""
"","null","html-keyboard-response","89","69354","0.0-89.0","structured_load,random,structured_incentive,structured_normal","3,4,2,1,2,3","","null","","","","","","",""
"","484.5","image-keyboard-response","90","69840","0.0-90.0","structured_load,random,structured_incentive,structured_normal","3,4,2,1,2,3","img/set1/S4.jpg","74","4","structured_load","74","true","","",""
"","null","html-keyboard-response","91","70195","0.0-91.0","structured_load,random,structured_incentive,structured_normal","3,4,2,1,2,3","<img src=""img/set1/S4.jpg"" width=""540"" height = ""360"" style=""border:16px solid orange"">","null","","","","","","",""
"","null","html-keyboard-response","92","70396","0.0-92.0","structured_load,random,structured_incentive,structured_normal","3,4,2,1,2,3","","null","","","","","","",""
"","752.8999999994412","image-keyboard-response","93","71150","0.0-93.0","structured_load,random,structured_incentive,structured_normal","3,4,2,1,2,3","img/set1/S1.jpg","83","1","structured_load","83","true","","",""
"","null","html-keyboard-response","94","71507","0.0-94.0","structured_load,random,structured_incentive,structured_normal","3,4,2,1,2,3","<img src=""img/set1/S1.jpg"" width=""540"" height = ""360"" style=""border:16px solid orange"">","null","","","","","","",""
"","null","html-keyboard-response","95","71713","0.0-95.0","structured_load,random,structured_incentive,structured_normal","3,4,2,1,2,3","","null","","","","","","",""
"","542.4000000003725","image-keyboard-response","96","72256","0.0-96.0","structured_load,random,structured_incentive,structured_normal","3,4,2,1,2,3","img/set1/S2.jpg","68","2","structured_load","68","true","","",""
"","null","html-keyboard-response","97","72611","0.0-97.0","structured_load,random,structured_incentive,structured_normal","3,4,2,1,2,3","<img src=""img/set1/S2.jpg"" width=""540"" height = ""360"" style=""border:16px solid orange"">","null","","","","","","",""
"","null","html-keyboard-response","98","72817","0.0-98.0","structured_load,random,structured_incentive,structured_normal","3,4,2,1,2,3","","null","","","","","","",""
"","534.1000000005588","image-keyboard-response","99","73352","0.0-99.0","structured_load,random,structured_incentive,structured_normal","3,4,2,1,2,3","img/set1/S1.jpg","83","1","structured_load","83","true","","",""
"","null","html-keyboard-response","100","73706","0.0-100.0","structured_load,random,structured_incentive,structured_normal","3,4,2,1,2,3","<img src=""img/set1/S1.jpg"" width=""540"" height = ""360"" style=""border:16px solid orange"">","null","","","","","","",""
"","null","html-keyboard-response","101","73912","0.0-101.0","structured_load,random,structured_incentive,structured_normal","3,4,2,1,2,3","","null","","","","","","",""
"","679.1000000005588","image-keyboard-response","102","74592","0.0-102.0","structured_load,random,structured_incentive,structured_normal","3,4,2,1,2,3","img/set1/S1.jpg","83","1","structured_load","83","true","","",""
"","null","html-keyboard-response","103","74949","0.0-103.0","structured_load,random,structured_incentive,structured_normal","3,4,2,1,2,3","<img src=""img/set1/S1.jpg"" width=""540"" height = ""360"" style=""border:16px solid orange"">","null","","","","","","",""
"","null","html-keyboard-response","104","75155","0.0-104.0","structured_load,random,structured_incentive,structured_normal","3,4,2,1,2,3","","null","","","","","","",""
"","507.79999999981374","image-keyboard-response","105","75664","0.0-105.0","structured_load,random,structured_incentive,structured_normal","3,4,2,1,2,3","img/set1/S1.jpg","83","1","structured_load","83","true","","",""
"","null","html-keyboard-response","106","76018","0.0-106.0","structured_load,random,structured_incentive,structured_normal","3,4,2,1,2,3","<img src=""img/set1/S1.jpg"" width=""540"" height = ""360"" style=""border:16px solid orange"">","null","","","","","","",""
"","null","html-keyboard-response","107","76219","0.0-107.0","structured_load,random,structured_incentive,structured_normal","3,4,2,1,2,3","","null","","","","","","",""
"","1276.2000000001863","image-keyboard-response","108","77496","0.0-108.0","structured_load,random,structured_incentive,structured_normal","3,4,2,1,2,3","img/set1/S3.jpg","72","3","structured_load","72","true","","",""
"","null","html-keyboard-response","109","77853","0.0-109.0","structured_load,random,structured_incentive,structured_normal","3,4,2,1,2,3","<img src=""img/set1/S3.jpg"" width=""540"" height = ""360"" style=""border:16px solid orange"">","null","","","","","","",""
"","null","html-keyboard-response","110","78059","0.0-110.0","structured_load,random,structured_incentive,structured_normal","3,4,2,1,2,3","","null","","","","","","",""
"","443.3999999994412","image-keyboard-response","111","78504","0.0-111.0","structured_load,random,structured_incentive,structured_normal","3,4,2,1,2,3","img/set1/S4.jpg","74","4","structured_load","74","true","","",""
"","null","html-keyboard-response","112","78861","0.0-112.0","structured_load,random,structured_incentive,structured_normal","3,4,2,1,2,3","<img src=""img/set1/S4.jpg"" width=""540"" height = ""360"" style=""border:16px solid orange"">","null","","","","","","",""
"","null","html-keyboard-response","113","79062","0.0-113.0","structured_load,random,structured_incentive,structured_normal","3,4,2,1,2,3","","null","","","","","","",""
"","489","image-keyboard-response","114","79552","0.0-114.0","structured_load,random,structured_incentive,structured_normal","3,4,2,1,2,3","img/set1/S1.jpg","83","1","structured_load","83","true","","",""
"","null","html-keyboard-response","115","79904","0.0-115.0","structured_load,random,structured_incentive,structured_normal","3,4,2,1,2,3","<img src=""img/set1/S1.jpg"" width=""540"" height = ""360"" style=""border:16px solid orange"">","null","","","","","","",""
"","null","html-keyboard-response","116","80108","0.0-116.0","structured_load,random,structured_incentive,structured_normal","3,4,2,1,2,3","","null","","","","","","",""
"","962.3999999994412","image-keyboard-response","117","81072","0.0-117.0","structured_load,random,structured_incentive,structured_normal","3,4,2,1,2,3","img/set1/S3.jpg","72","3","structured_load","72","true","","",""
"","null","html-keyboard-response","118","81429","0.0-118.0","structured_load,random,structured_incentive,structured_normal","3,4,2,1,2,3","<img src=""img/set1/S3.jpg"" width=""540"" height = ""360"" style=""border:16px solid orange"">","null","","","","","","",""
"","null","html-keyboard-response","119","81635","0.0-119.0","structured_load,random,structured_incentive,structured_normal","3,4,2,1,2,3","","null","","","","","","",""
"","1156.2000000001863","image-keyboard-response","120","82792","0.0-120.0","structured_load,random,structured_incentive,structured_normal","3,4,2,1,2,3","img/set1/S4.jpg","74","4","structured_load","74","true","","",""
"","null","html-keyboard-response","121","83145","0.0-121.0","structured_load,random,structured_incentive,structured_normal","3,4,2,1,2,3","<img src=""img/set1/S4.jpg"" width=""540"" height = ""360"" style=""border:16px solid orange"">","null","","","","","","",""
"","null","html-keyboard-response","122","83349","0.0-122.0","structured_load,random,structured_incentive,structured_normal","3,4,2,1,2,3","","null","","","","","","",""
"","586.4000000003725","image-keyboard-response","123","83936","0.0-123.0","structured_load,random,structured_incentive,structured_normal","3,4,2,1,2,3","img/set1/S3.jpg","72","3","structured_load","72","true","","",""
"","null","html-keyboard-response","124","84290","0.0-124.0","structured_load,random,structured_incentive,structured_normal","3,4,2,1,2,3","<img src=""img/set1/S3.jpg"" width=""540"" height = ""360"" style=""border:16px solid orange"">","null","","","","","","",""
"","null","html-keyboard-response","125","84492","0.0-125.0","structured_load,random,structured_incentive,structured_normal","3,4,2,1,2,3","","null","","","","","","",""
"","530.8000000007451","image-keyboard-response","126","85024","0.0-126.0","structured_load,random,structured_incentive,structured_normal","3,4,2,1,2,3","img/set1/S4.jpg","74","4","structured_load","74","true","","",""
"","null","html-keyboard-response","127","85379","0.0-127.0","structured_load,random,structured_incentive,structured_normal","3,4,2,1,2,3","<img src=""img/set1/S4.jpg"" width=""540"" height = ""360"" style=""border:16px solid orange"">","null","","","","","","",""
"","null","html-keyboard-response","128","85580","0.0-128.0","structured_load,random,structured_incentive,structured_normal","3,4,2,1,2,3","","null","","","","","","",""
"","690","image-keyboard-response","129","86272","0.0-129.0","structured_load,random,structured_incentive,structured_normal","3,4,2,1,2,3","img/set1/S2.jpg","83","2","structured_load","68","false","","",""
"","null","html-keyboard-response","130","86629","0.0-130.0","structured_load,random,structured_incentive,structured_normal","3,4,2,1,2,3","<img src=""img/set1/S2.jpg"" width=""540"" height = ""360"">","null","","","","","","",""
"","null","html-keyboard-response","131","86834","0.0-131.0","structured_load,random,structured_incentive,structured_normal","3,4,2,1,2,3","","null","","","","","","",""
"","781.0999999996275","image-keyboard-response","132","87616","0.0-132.0","structured_load,random,structured_incentive,structured_normal","3,4,2,1,2,3","img/set1/S2.jpg","68","2","structured_load","68","true","","",""
"","null","html-keyboard-response","133","87973","0.0-133.0","structured_load,random,structured_incentive,structured_normal","3,4,2,1,2,3","<img src=""img/set1/S2.jpg"" width=""540"" height = ""360"" style=""border:16px solid orange"">","null","","","","","","",""
"","null","html-keyboard-response","134","88176","0.0-134.0","structured_load,random,structured_incentive,structured_normal","3,4,2,1,2,3","","null","","","","","","",""
"","470.3999999994412","image-keyboard-response","135","88648","0.0-135.0","structured_load,random,structured_incentive,structured_normal","3,4,2,1,2,3","img/set1/S2.jpg","68","2","structured_load","68","true","","",""
"","null","html-keyboard-response","136","89003","0.0-136.0","structured_load,random,structured_incentive,structured_normal","3,4,2,1,2,3","<img src=""img/set1/S2.jpg"" width=""540"" height = ""360"" style=""border:16px solid orange"">","null","","","","","","",""
"","null","html-keyboard-response","137","89209","0.0-137.0","structured_load,random,structured_incentive,structured_normal","3,4,2,1,2,3","","null","","","","","","",""
"","557.7000000001863","image-keyboard-response","138","89768","0.0-138.0","structured_load,random,structured_incentive,structured_normal","3,4,2,1,2,3","img/set1/S1.jpg","83","1","structured_load","83","true","","",""
"","null","html-keyboard-response","139","90125","0.0-139.0","structured_load,random,structured_incentive,structured_normal","3,4,2,1,2,3","<img src=""img/set1/S1.jpg"" width=""540"" height = ""360"" style=""border:16px solid orange"">","null","","","","","","",""
"","null","html-keyboard-response","140","90330","0.0-140.0","structured_load,random,structured_incentive,structured_normal","3,4,2,1,2,3","","null","","","","","","",""
"","1053.0999999996275","image-keyboard-response","141","91384","0.0-141.0","structured_load,random,structured_incentive,structured_normal","3,4,2,1,2,3","img/set1/S3.jpg","72","3","structured_load","72","true","","",""
"","null","html-keyboard-response","142","91739","0.0-142.0","structured_load,random,structured_incentive,structured_normal","3,4,2,1,2,3","<img src=""img/set1/S3.jpg"" width=""540"" height = ""360"" style=""border:16px solid orange"">","null","","","","","","",""
"","null","html-keyboard-response","143","91945","0.0-143.0","structured_load,random,structured_incentive,structured_normal","3,4,2,1,2,3","","null","","","","","","",""
"","589.8000000007451","image-keyboard-response","144","92536","0.0-144.0","structured_load,random,structured_incentive,structured_normal","3,4,2,1,2,3","img/set1/S4.jpg","74","4","structured_load","74","true","","",""
"","null","html-keyboard-response","145","92893","0.0-145.0","structured_load,random,structured_incentive,structured_normal","3,4,2,1,2,3","<img src=""img/set1/S4.jpg"" width=""540"" height = ""360"" style=""border:16px solid orange"">","null","","","","","","",""
"","null","html-keyboard-response","146","93099","0.0-146.0","structured_load,random,structured_incentive,structured_normal","3,4,2,1,2,3","","null","","","","","","",""
"","883.8000000007451","image-keyboard-response","147","93984","0.0-147.0","structured_load,random,structured_incentive,structured_normal","3,4,2,1,2,3","img/set1/S2.jpg","83","2","structured_load","68","false","","",""
"","null","html-keyboard-response","148","94341","0.0-148.0","structured_load,random,structured_incentive,structured_normal","3,4,2,1,2,3","<img src=""img/set1/S2.jpg"" width=""540"" height = ""360"">","null","","","","","","",""
"","null","html-keyboard-response","149","94547","0.0-149.0","structured_load,random,structured_incentive,structured_normal","3,4,2,1,2,3","","null","","","","","","",""
"","628.2999999998137","image-keyboard-response","150","95176","0.0-150.0","structured_load,random,structured_incentive,structured_normal","3,4,2,1,2,3","img/set1/S1.jpg","68","1","structured_load","83","false","","",""
"","null","html-keyboard-response","151","95533","0.0-151.0","structured_load,random,structured_incentive,structured_normal","3,4,2,1,2,3","<img src=""img/set1/S1.jpg"" width=""540"" height = ""360"">","null","","","","","","",""
"","null","html-keyboard-response","152","95739","0.0-152.0","structured_load,random,structured_incentive,structured_normal","3,4,2,1,2,3","","null","","","","","","",""
"","1243.5","image-keyboard-response","153","96984","0.0-153.0","structured_load,random,structured_incentive,structured_normal","3,4,2,1,2,3","img/set1/S3.jpg","72","3","structured_load","72","true","","",""
"","null","html-keyboard-response","154","97342","0.0-154.0","structured_load,random,structured_incentive,structured_normal","3,4,2,1,2,3","<img src=""img/set1/S3.jpg"" width=""540"" height = ""360"" style=""border:16px solid orange"">","null","","","","","","",""
"","null","html-keyboard-response","155","97548","0.0-155.0","structured_load,random,structured_incentive,structured_normal","3,4,2,1,2,3","","null","","","","","","",""
"","523.2999999998137","image-keyboard-response","156","98073","0.0-156.0","structured_load,random,structured_incentive,structured_normal","3,4,2,1,2,3","img/set1/S4.jpg","74","4","structured_load","74","true","","",""
"","null","html-keyboard-response","157","98429","0.0-157.0","structured_load,random,structured_incentive,structured_normal","3,4,2,1,2,3","<img src=""img/set1/S4.jpg"" width=""540"" height = ""360"" style=""border:16px solid orange"">","null","","","","","","",""
"","null","html-keyboard-response","158","98634","0.0-158.0","structured_load,random,structured_incentive,structured_normal","3,4,2,1,2,3","","null","","","","","","",""
"","1149.300000000745","image-keyboard-response","159","99784","0.0-159.0","structured_load,random,structured_incentive,structured_normal","3,4,2,1,2,3","img/set1/S1.jpg","83","1","structured_load","83","true","","",""
"","null","html-keyboard-response","160","100138","0.0-160.0","structured_load,random,structured_incentive,structured_normal","3,4,2,1,2,3","<img src=""img/set1/S1.jpg"" width=""540"" height = ""360"" style=""border:16px solid orange"">","null","","","","","","",""
"","null","html-keyboard-response","161","100340","0.0-161.0","structured_load,random,structured_incentive,structured_normal","3,4,2,1,2,3","","null","","","","","","",""
"","739.2000000001863","image-keyboard-response","162","101080","0.0-162.0","structured_load,random,structured_incentive,structured_normal","3,4,2,1,2,3","img/set1/S1.jpg","83","1","structured_load","83","true","","",""
"","null","html-keyboard-response","163","101434","0.0-163.0","structured_load,random,structured_incentive,structured_normal","3,4,2,1,2,3","<img src=""img/set1/S1.jpg"" width=""540"" height = ""360"" style=""border:16px solid orange"">","null","","","","","","",""
"","null","html-keyboard-response","164","101640","0.0-164.0","structured_load,random,structured_incentive,structured_normal","3,4,2,1,2,3","","null","","","","","","",""
"","526.7999999998137","image-keyboard-response","165","102168","0.0-165.0","structured_load,random,structured_incentive,structured_normal","3,4,2,1,2,3","img/set1/S1.jpg","83","1","structured_load","83","true","","",""
"","null","html-keyboard-response","166","102525","0.0-166.0","structured_load,random,structured_incentive,structured_normal","3,4,2,1,2,3","<img src=""img/set1/S1.jpg"" width=""540"" height = ""360"" style=""border:16px solid orange"">","null","","","","","","",""
"","null","html-keyboard-response","167","102730","0.0-167.0","structured_load,random,structured_incentive,structured_normal","3,4,2,1,2,3","","null","","","","","","",""
"","668.9000000003725","image-keyboard-response","168","103400","0.0-168.0","structured_load,random,structured_incentive,structured_normal","3,4,2,1,2,3","img/set1/S2.jpg","68","2","structured_load","68","true","","",""
"","null","html-keyboard-response","169","103752","0.0-169.0","structured_load,random,structured_incentive,structured_normal","3,4,2,1,2,3","<img src=""img/set1/S2.jpg"" width=""540"" height = ""360"" style=""border:16px solid orange"">","null","","","","","","",""
"","null","html-keyboard-response","170","103954","0.0-170.0","structured_load,random,structured_incentive,structured_normal","3,4,2,1,2,3","","null","","","","","","",""
"","556.7999999998137","image-keyboard-response","171","104512","0.0-171.0","structured_load,random,structured_incentive,structured_normal","3,4,2,1,2,3","img/set1/S3.jpg","72","3","structured_load","72","true","","",""
"","null","html-keyboard-response","172","104867","0.0-172.0","structured_load,random,structured_incentive,structured_normal","3,4,2,1,2,3","<img src=""img/set1/S3.jpg"" width=""540"" height = ""360"" style=""border:16px solid orange"">","null","","","","","","",""
"","null","html-keyboard-response","173","105069","0.0-173.0","structured_load,random,structured_incentive,structured_normal","3,4,2,1,2,3","","null","","","","","","",""
"","610.4000000003725","image-keyboard-response","174","105680","0.0-174.0","structured_load,random,structured_incentive,structured_normal","3,4,2,1,2,3","img/set1/S4.jpg","74","4","structured_load","74","true","","",""
"","null","html-keyboard-response","175","106035","0.0-175.0","structured_load,random,structured_incentive,structured_normal","3,4,2,1,2,3","<img src=""img/set1/S4.jpg"" width=""540"" height = ""360"" style=""border:16px solid orange"">","null","","","","","","",""
"","null","html-keyboard-response","176","106241","0.0-176.0","structured_load,random,structured_incentive,structured_normal","3,4,2,1,2,3","","null","","","","","","",""
"","781.5","image-keyboard-response","177","107024","0.0-177.0","structured_load,random,structured_incentive,structured_normal","3,4,2,1,2,3","img/set1/S2.jpg","72","2","structured_load","68","false","","",""
"","null","html-keyboard-response","178","107380","0.0-178.0","structured_load,random,structured_incentive,structured_normal","3,4,2,1,2,3","<img src=""img/set1/S2.jpg"" width=""540"" height = ""360"">","null","","","","","","",""
"","null","html-keyboard-response","179","107586","0.0-179.0","structured_load,random,structured_incentive,structured_normal","3,4,2,1,2,3","","null","","","","","","",""
"","573.2000000001863","image-keyboard-response","180","108161","0.0-180.0","structured_load,random,structured_incentive,structured_normal","3,4,2,1,2,3","img/set1/S1.jpg","83","1","structured_load","83","true","","",""
"","null","html-keyboard-response","181","108513","0.0-181.0","structured_load,random,structured_incentive,structured_normal","3,4,2,1,2,3","<img src=""img/set1/S1.jpg"" width=""540"" height = ""360"" style=""border:16px solid orange"">","null","","","","","","",""
"","null","html-keyboard-response","182","108717","0.0-182.0","structured_load,random,structured_incentive,structured_normal","3,4,2,1,2,3","","null","","","","","","",""
"","394.5","image-keyboard-response","183","109112","0.0-183.0","structured_load,random,structured_incentive,structured_normal","3,4,2,1,2,3","img/set1/S2.jpg","68","2","structured_load","68","true","","",""
"","null","html-keyboard-response","184","109467","0.0-184.0","structured_load,random,structured_incentive,structured_normal","3,4,2,1,2,3","<img src=""img/set1/S2.jpg"" width=""540"" height = ""360"" style=""border:16px solid orange"">","null","","","","","","",""
"","null","html-keyboard-response","185","109671","0.0-185.0","structured_load,random,structured_incentive,structured_normal","3,4,2,1,2,3","","null","","","","","","",""
"","887.3999999994412","image-keyboard-response","186","110560","0.0-186.0","structured_load,random,structured_incentive,structured_normal","3,4,2,1,2,3","img/set1/S3.jpg","72","3","structured_load","72","true","","",""
"","null","html-keyboard-response","187","110917","0.0-187.0","structured_load,random,structured_incentive,structured_normal","3,4,2,1,2,3","<img src=""img/set1/S3.jpg"" width=""540"" height = ""360"" style=""border:16px solid orange"">","null","","","","","","",""
"","null","html-keyboard-response","188","111123","0.0-188.0","structured_load,random,structured_incentive,structured_normal","3,4,2,1,2,3","","null","","","","","","",""
"","524.2000000001863","image-keyboard-response","189","111648","0.0-189.0","structured_load,random,structured_incentive,structured_normal","3,4,2,1,2,3","img/set1/S4.jpg","74","4","structured_load","74","true","","",""
"","null","html-keyboard-response","190","112005","0.0-190.0","structured_load,random,structured_incentive,structured_normal","3,4,2,1,2,3","<img src=""img/set1/S4.jpg"" width=""540"" height = ""360"" style=""border:16px solid orange"">","null","","","","","","",""
"","null","html-keyboard-response","191","112210","0.0-191.0","structured_load,random,structured_incentive,structured_normal","3,4,2,1,2,3","","null","","","","","","",""
"","533.1000000005588","image-keyboard-response","192","112744","0.0-192.0","structured_load,random,structured_incentive,structured_normal","3,4,2,1,2,3","img/set1/S2.jpg","72","2","structured_load","68","false","","",""
"","null","html-keyboard-response","193","113096","0.0-193.0","structured_load,random,structured_incentive,structured_normal","3,4,2,1,2,3","<img src=""img/set1/S2.jpg"" width=""540"" height = ""360"">","null","","","","","","",""
"","null","html-keyboard-response","194","113302","0.0-194.0","structured_load,random,structured_incentive,structured_normal","3,4,2,1,2,3","","null","","","","","","",""
"","865.3000000007451","image-keyboard-response","195","114168","0.0-195.0","structured_load,random,structured_incentive,structured_normal","3,4,2,1,2,3","img/set1/S1.jpg","68","1","structured_load","83","false","","",""
"","null","html-keyboard-response","196","114525","0.0-196.0","structured_load,random,structured_incentive,structured_normal","3,4,2,1,2,3","<img src=""img/set1/S1.jpg"" width=""540"" height = ""360"">","null","","","","","","",""
"","null","html-keyboard-response","197","114731","0.0-197.0","structured_load,random,structured_incentive,structured_normal","3,4,2,1,2,3","","null","","","","","","",""
"","484.30000000074506","image-keyboard-response","198","115216","0.0-198.0","structured_load,random,structured_incentive,structured_normal","3,4,2,1,2,3","img/set1/S3.jpg","72","3","structured_load","72","true","","",""
"","null","html-keyboard-response","199","115573","0.0-199.0","structured_load,random,structured_incentive,structured_normal","3,4,2,1,2,3","<img src=""img/set1/S3.jpg"" width=""540"" height = ""360"" style=""border:16px solid orange"">","null","","","","","","",""
"","null","html-keyboard-response","200","115779","0.0-200.0","structured_load,random,structured_incentive,structured_normal","3,4,2,1,2,3","","null","","","","","","",""
"","235.8999999994412","image-keyboard-response","201","116016","0.0-201.0","structured_load,random,structured_incentive,structured_normal","3,4,2,1,2,3","img/set1/S4.jpg","74","4","structured_load","74","true","","",""
"","null","html-keyboard-response","202","116369","0.0-202.0","structured_load,random,structured_incentive,structured_normal","3,4,2,1,2,3","<img src=""img/set1/S4.jpg"" width=""540"" height = ""360"" style=""border:16px solid orange"">","null","","","","","","",""
"","null","html-keyboard-response","203","116572","0.0-203.0","structured_load,random,structured_incentive,structured_normal","3,4,2,1,2,3","","null","","","","","","",""
"","458.40000000037253","image-keyboard-response","204","117032","0.0-204.0","structured_load,random,structured_incentive,structured_normal","3,4,2,1,2,3","img/set1/S3.jpg","72","3","structured_load","72","true","","",""
"","null","html-keyboard-response","205","117388","0.0-205.0","structured_load,random,structured_incentive,structured_normal","3,4,2,1,2,3","<img src=""img/set1/S3.jpg"" width=""540"" height = ""360"" style=""border:16px solid orange"">","null","","","","","","",""
"","null","html-keyboard-response","206","117591","0.0-206.0","structured_load,random,structured_incentive,structured_normal","3,4,2,1,2,3","","null","","","","","","",""
"","303.29999999981374","image-keyboard-response","207","117895","0.0-207.0","structured_load,random,structured_incentive,structured_normal","3,4,2,1,2,3","img/set1/S4.jpg","74","4","structured_load","74","true","","",""
"","null","html-keyboard-response","208","118252","0.0-208.0","structured_load,random,structured_incentive,structured_normal","3,4,2,1,2,3","<img src=""img/set1/S4.jpg"" width=""540"" height = ""360"" style=""border:16px solid orange"">","null","","","","","","",""
"","null","html-keyboard-response","209","118455","0.0-209.0","structured_load,random,structured_incentive,structured_normal","3,4,2,1,2,3","","null","","","","","","",""
"","544.7000000001863","image-keyboard-response","210","119001","0.0-210.0","structured_load,random,structured_incentive,structured_normal","3,4,2,1,2,3","img/set1/S3.jpg","72","3","structured_load","72","true","","",""
"","null","html-keyboard-response","211","119355","0.0-211.0","structured_load,random,structured_incentive,structured_normal","3,4,2,1,2,3","<img src=""img/set1/S3.jpg"" width=""540"" height = ""360"" style=""border:16px solid orange"">","null","","","","","","",""
"","null","html-keyboard-response","212","119557","0.0-212.0","structured_load,random,structured_incentive,structured_normal","3,4,2,1,2,3","","null","","","","","","",""
"","250.09999999962747","image-keyboard-response","213","119808","0.0-213.0","structured_load,random,structured_incentive,structured_normal","3,4,2,1,2,3","img/set1/S4.jpg","74","4","structured_load","74","true","","",""
"","null","html-keyboard-response","214","120165","0.0-214.0","structured_load,random,structured_incentive,structured_normal","3,4,2,1,2,3","<img src=""img/set1/S4.jpg"" width=""540"" height = ""360"" style=""border:16px solid orange"">","null","","","","","","",""
"","null","html-keyboard-response","215","120371","0.0-215.0","structured_load,random,structured_incentive,structured_normal","3,4,2,1,2,3","","null","","","","","","",""
"","363.79999999981374","image-keyboard-response","216","120736","0.0-216.0","structured_load,random,structured_incentive,structured_normal","3,4,2,1,2,3","img/set1/S2.jpg","72","2","structured_load","68","false","","",""
"","null","html-keyboard-response","217","121093","0.0-217.0","structured_load,random,structured_incentive,structured_normal","3,4,2,1,2,3","<img src=""img/set1/S2.jpg"" width=""540"" height = ""360"">","null","","","","","","",""
"","null","html-keyboard-response","218","121299","0.0-218.0","structured_load,random,structured_incentive,structured_normal","3,4,2,1,2,3","","null","","","","","","",""
"","235.79999999981374","image-keyboard-response","219","121536","0.0-219.0","structured_load,random,structured_incentive,structured_normal","3,4,2,1,2,3","img/set1/S1.jpg","83","1","structured_load","83","true","","",""
"","null","html-keyboard-response","220","121893","0.0-220.0","structured_load,random,structured_incentive,structured_normal","3,4,2,1,2,3","<img src=""img/set1/S1.jpg"" width=""540"" height = ""360"" style=""border:16px solid orange"">","null","","","","","","",""
"","null","html-keyboard-response","221","122099","0.0-221.0","structured_load,random,structured_incentive,structured_normal","3,4,2,1,2,3","","null","","","","","","",""
"","236.20000000018626","image-keyboard-response","222","122336","0.0-222.0","structured_load,random,structured_incentive,structured_normal","3,4,2,1,2,3","img/set1/S1.jpg","68","1","structured_load","83","false","","",""
"","null","html-keyboard-response","223","122693","0.0-223.0","structured_load,random,structured_incentive,structured_normal","3,4,2,1,2,3","<img src=""img/set1/S1.jpg"" width=""540"" height = ""360"">","null","","","","","","",""
"","null","html-keyboard-response","224","122897","0.0-224.0","structured_load,random,structured_incentive,structured_normal","3,4,2,1,2,3","","null","","","","","","",""
"","221.5","image-keyboard-response","225","123120","0.0-225.0","structured_load,random,structured_incentive,structured_normal","3,4,2,1,2,3","img/set1/S2.jpg","83","2","structured_load","68","false","","",""
"","null","html-keyboard-response","226","123477","0.0-226.0","structured_load,random,structured_incentive,structured_normal","3,4,2,1,2,3","<img src=""img/set1/S2.jpg"" width=""540"" height = ""360"">","null","","","","","","",""
"","null","html-keyboard-response","227","123682","0.0-227.0","structured_load,random,structured_incentive,structured_normal","3,4,2,1,2,3","","null","","","","","","",""
"","324.8999999994412","image-keyboard-response","228","124008","0.0-228.0","structured_load,random,structured_incentive,structured_normal","3,4,2,1,2,3","img/set1/S2.jpg","68","2","structured_load","68","true","","",""
"","null","html-keyboard-response","229","124365","0.0-229.0","structured_load,random,structured_incentive,structured_normal","3,4,2,1,2,3","<img src=""img/set1/S2.jpg"" width=""540"" height = ""360"" style=""border:16px solid orange"">","null","","","","","","",""
"","null","html-keyboard-response","230","124568","0.0-230.0","structured_load,random,structured_incentive,structured_normal","3,4,2,1,2,3","","null","","","","","","",""
"","727.3000000007451","image-keyboard-response","231","125296","0.0-231.0","structured_load,random,structured_incentive,structured_normal","3,4,2,1,2,3","img/set1/S3.jpg","72","3","structured_load","72","true","","",""
"","null","html-keyboard-response","232","125648","0.0-232.0","structured_load,random,structured_incentive,structured_normal","3,4,2,1,2,3","<img src=""img/set1/S3.jpg"" width=""540"" height = ""360"" style=""border:16px solid orange"">","null","","","","","","",""
"","null","html-keyboard-response","233","125854","0.0-233.0","structured_load,random,structured_incentive,structured_normal","3,4,2,1,2,3","","null","","","","","","",""
"","616.7000000001863","image-keyboard-response","234","126472","0.0-234.0","structured_load,random,structured_incentive,structured_normal","3,4,2,1,2,3","img/set1/S4.jpg","74","4","structured_load","74","true","","",""
"","null","html-keyboard-response","235","126828","0.0-235.0","structured_load,random,structured_incentive,structured_normal","3,4,2,1,2,3","<img src=""img/set1/S4.jpg"" width=""540"" height = ""360"" style=""border:16px solid orange"">","null","","","","","","",""
"","null","html-keyboard-response","236","127034","0.0-236.0","structured_load,random,structured_incentive,structured_normal","3,4,2,1,2,3","","null","","","","","","",""
"","597.1000000005588","image-keyboard-response","237","127632","0.0-237.0","structured_load,random,structured_incentive,structured_normal","3,4,2,1,2,3","img/set1/S3.jpg","72","3","structured_load","72","true","","",""
"","null","html-keyboard-response","238","127989","0.0-238.0","structured_load,random,structured_incentive,structured_normal","3,4,2,1,2,3","<img src=""img/set1/S3.jpg"" width=""540"" height = ""360"" style=""border:16px solid orange"">","null","","","","","","",""
"","null","html-keyboard-response","239","128192","0.0-239.0","structured_load,random,structured_incentive,structured_normal","3,4,2,1,2,3","","null","","","","","","",""
"","350.40000000037253","image-keyboard-response","240","128544","0.0-240.0","structured_load,random,structured_incentive,structured_normal","3,4,2,1,2,3","img/set1/S4.jpg","74","4","structured_load","74","true","","",""
"","null","html-keyboard-response","241","128901","0.0-241.0","structured_load,random,structured_incentive,structured_normal","3,4,2,1,2,3","<img src=""img/set1/S4.jpg"" width=""540"" height = ""360"" style=""border:16px solid orange"">","null","","","","","","",""
"","null","html-keyboard-response","242","129106","0.0-242.0","structured_load,random,structured_incentive,structured_normal","3,4,2,1,2,3","","null","","","","","","",""
"","956.9000000003725","image-keyboard-response","243","130065","0.0-243.0","structured_load,random,structured_incentive,structured_normal","3,4,2,1,2,3","img/set1/S1.jpg","83","1","structured_load","83","true","","",""
"","null","html-keyboard-response","244","130421","0.0-244.0","structured_load,random,structured_incentive,structured_normal","3,4,2,1,2,3","<img src=""img/set1/S1.jpg"" width=""540"" height = ""360"" style=""border:16px solid orange"">","null","","","","","","",""
"","null","html-keyboard-response","245","130627","0.0-245.0","structured_load,random,structured_incentive,structured_normal","3,4,2,1,2,3","","null","","","","","","",""
"","764.3000000007451","image-keyboard-response","246","131392","0.0-246.0","structured_load,random,structured_incentive,structured_normal","3,4,2,1,2,3","img/set1/S3.jpg","68","3","structured_load","72","false","","",""
"","null","html-keyboard-response","247","131744","0.0-247.0","structured_load,random,structured_incentive,structured_normal","3,4,2,1,2,3","<img src=""img/set1/S3.jpg"" width=""540"" height = ""360"">","null","","","","","","",""
"","null","html-keyboard-response","248","131949","0.0-248.0","structured_load,random,structured_incentive,structured_normal","3,4,2,1,2,3","","null","","","","","","",""
"","1089.9000000003725","image-keyboard-response","249","133040","0.0-249.0","structured_load,random,structured_incentive,structured_normal","3,4,2,1,2,3","img/set1/S4.jpg","83","4","structured_load","74","false","","",""
"","null","html-keyboard-response","250","133397","0.0-250.0","structured_load,random,structured_incentive,structured_normal","3,4,2,1,2,3","<img src=""img/set1/S4.jpg"" width=""540"" height = ""360"">","null","","","","","","",""
"","null","html-keyboard-response","251","133603","0.0-251.0","structured_load,random,structured_incentive,structured_normal","3,4,2,1,2,3","","null","","","","","","",""
"","811.8999999994412","image-keyboard-response","252","134416","0.0-252.0","structured_load,random,structured_incentive,structured_normal","3,4,2,1,2,3","img/set1/S3.jpg","72","3","structured_load","72","true","","",""
"","null","html-keyboard-response","253","134769","0.0-253.0","structured_load,random,structured_incentive,structured_normal","3,4,2,1,2,3","<img src=""img/set1/S3.jpg"" width=""540"" height = ""360"" style=""border:16px solid orange"">","null","","","","","","",""
"","null","html-keyboard-response","254","134975","0.0-254.0","structured_load,random,structured_incentive,structured_normal","3,4,2,1,2,3","","null","","","","","","",""
"","591.9000000003725","image-keyboard-response","255","135568","0.0-255.0","structured_load,random,structured_incentive,structured_normal","3,4,2,1,2,3","img/set1/S4.jpg","72","4","structured_load","74","false","","",""
"","null","html-keyboard-response","256","135925","0.0-256.0","structured_load,random,structured_incentive,structured_normal","3,4,2,1,2,3","<img src=""img/set1/S4.jpg"" width=""540"" height = ""360"">","null","","","","","","",""
"","null","html-keyboard-response","257","136130","0.0-257.0","structured_load,random,structured_incentive,structured_normal","3,4,2,1,2,3","","null","","","","","","",""
"","1108","image-keyboard-response","258","137240","0.0-258.0","structured_load,random,structured_incentive,structured_normal","3,4,2,1,2,3","img/set1/S1.jpg","83","1","structured_load","83","true","","",""
"","null","html-keyboard-response","259","137597","0.0-259.0","structured_load,random,structured_incentive,structured_normal","3,4,2,1,2,3","<img src=""img/set1/S1.jpg"" width=""540"" height = ""360"" style=""border:16px solid orange"">","null","","","","","","",""
"","null","html-keyboard-response","260","137799","0.0-260.0","structured_load,random,structured_incentive,structured_normal","3,4,2,1,2,3","","null","","","","","","",""
"","544.2000000001863","image-keyboard-response","261","138344","0.0-261.0","structured_load,random,structured_incentive,structured_normal","3,4,2,1,2,3","img/set1/S2.jpg","68","2","structured_load","68","true","","",""
"","null","html-keyboard-response","262","138700","0.0-262.0","structured_load,random,structured_incentive,structured_normal","3,4,2,1,2,3","<img src=""img/set1/S2.jpg"" width=""540"" height = ""360"" style=""border:16px solid orange"">","null","","","","","","",""
"","null","html-keyboard-response","263","138904","0.0-263.0","structured_load,random,structured_incentive,structured_normal","3,4,2,1,2,3","","null","","","","","","",""
"","647.0999999996275","image-keyboard-response","264","139552","0.0-264.0","structured_load,random,structured_incentive,structured_normal","3,4,2,1,2,3","img/set1/S3.jpg","72","3","structured_load","72","true","","",""
"","null","html-keyboard-response","265","139909","0.0-265.0","structured_load,random,structured_incentive,structured_normal","3,4,2,1,2,3","<img src=""img/set1/S3.jpg"" width=""540"" height = ""360"" style=""border:16px solid orange"">","null","","","","","","",""
"","null","html-keyboard-response","266","140111","0.0-266.0","structured_load,random,structured_incentive,structured_normal","3,4,2,1,2,3","","null","","","","","","",""
"","144.6000000005588","image-keyboard-response","267","140257","0.0-267.0","structured_load,random,structured_incentive,structured_normal","3,4,2,1,2,3","img/set1/S4.jpg","74","4","structured_load","74","true","","",""
"","null","html-keyboard-response","268","140612","0.0-268.0","structured_load,random,structured_incentive,structured_normal","3,4,2,1,2,3","<img src=""img/set1/S4.jpg"" width=""540"" height = ""360"" style=""border:16px solid orange"">","null","","","","","","",""
"","null","html-keyboard-response","269","140815","0.0-269.0","structured_load,random,structured_incentive,structured_normal","3,4,2,1,2,3","","null","","","","","","",""
"","488","image-keyboard-response","270","141304","0.0-270.0","structured_load,random,structured_incentive,structured_normal","3,4,2,1,2,3","img/set1/S1.jpg","83","1","structured_load","83","true","","",""
"","null","html-keyboard-response","271","141660","0.0-271.0","structured_load,random,structured_incentive,structured_normal","3,4,2,1,2,3","<img src=""img/set1/S1.jpg"" width=""540"" height = ""360"" style=""border:16px solid orange"">","null","","","","","","",""
"","null","html-keyboard-response","272","141866","0.0-272.0","structured_load,random,structured_incentive,structured_normal","3,4,2,1,2,3","","null","","","","","","",""
"","484.70000000018626","image-keyboard-response","273","142352","0.0-273.0","structured_load,random,structured_incentive,structured_normal","3,4,2,1,2,3","img/set1/S2.jpg","68","2","structured_load","68","true","","",""
"","null","html-keyboard-response","274","142705","0.0-274.0","structured_load,random,structured_incentive,structured_normal","3,4,2,1,2,3","<img src=""img/set1/S2.jpg"" width=""540"" height = ""360"" style=""border:16px solid orange"">","null","","","","","","",""
"","null","html-keyboard-response","275","142909","0.0-275.0","structured_load,random,structured_incentive,structured_normal","3,4,2,1,2,3","","null","","","","","","",""
"","602.2999999998137","image-keyboard-response","276","143512","0.0-276.0","structured_load,random,structured_incentive,structured_normal","3,4,2,1,2,3","img/set1/S2.jpg","68","2","structured_load","68","true","","",""
"","null","html-keyboard-response","277","143867","0.0-277.0","structured_load,random,structured_incentive,structured_normal","3,4,2,1,2,3","<img src=""img/set1/S2.jpg"" width=""540"" height = ""360"" style=""border:16px solid orange"">","null","","","","","","",""
"","null","html-keyboard-response","278","144070","0.0-278.0","structured_load,random,structured_incentive,structured_normal","3,4,2,1,2,3","","null","","","","","","",""
"","639.2999999998137","image-keyboard-response","279","144711","0.0-279.0","structured_load,random,structured_incentive,structured_normal","3,4,2,1,2,3","img/set1/S1.jpg","83","1","structured_load","83","true","","",""
"","null","html-keyboard-response","280","145065","0.0-280.0","structured_load,random,structured_incentive,structured_normal","3,4,2,1,2,3","<img src=""img/set1/S1.jpg"" width=""540"" height = ""360"" style=""border:16px solid orange"">","null","","","","","","",""
"","null","html-keyboard-response","281","145271","0.0-281.0","structured_load,random,structured_incentive,structured_normal","3,4,2,1,2,3","","null","","","","","","",""
"","704.2000000001863","image-keyboard-response","282","145976","0.0-282.0","structured_load,random,structured_incentive,structured_normal","3,4,2,1,2,3","img/set1/S3.jpg","72","3","structured_load","72","true","","",""
"","null","html-keyboard-response","283","146332","0.0-283.0","structured_load,random,structured_incentive,structured_normal","3,4,2,1,2,3","<img src=""img/set1/S3.jpg"" width=""540"" height = ""360"" style=""border:16px solid orange"">","null","","","","","","",""
"","null","html-keyboard-response","284","146536","0.0-284.0","structured_load,random,structured_incentive,structured_normal","3,4,2,1,2,3","","null","","","","","","",""
"","150.20000000018626","image-keyboard-response","285","146687","0.0-285.0","structured_load,random,structured_incentive,structured_normal","3,4,2,1,2,3","img/set1/S4.jpg","74","4","structured_load","74","true","","",""
"","null","html-keyboard-response","286","147041","0.0-286.0","structured_load,random,structured_incentive,structured_normal","3,4,2,1,2,3","<img src=""img/set1/S4.jpg"" width=""540"" height = ""360"" style=""border:16px solid orange"">","null","","","","","","",""
"","null","html-keyboard-response","287","147245","0.0-287.0","structured_load,random,structured_incentive,structured_normal","3,4,2,1,2,3","","null","","","","","","",""
"","434.29999999981374","image-keyboard-response","288","147680","0.0-288.0","structured_load,random,structured_incentive,structured_normal","3,4,2,1,2,3","img/set1/S1.jpg","83","1","structured_load","83","true","","",""
"","null","html-keyboard-response","289","148037","0.0-289.0","structured_load,random,structured_incentive,structured_normal","3,4,2,1,2,3","<img src=""img/set1/S1.jpg"" width=""540"" height = ""360"" style=""border:16px solid orange"">","null","","","","","","",""
"","null","html-keyboard-response","290","148239","0.0-290.0","structured_load,random,structured_incentive,structured_normal","3,4,2,1,2,3","","null","","","","","","",""
"","432.1000000005588","image-keyboard-response","291","148672","0.0-291.0","structured_load,random,structured_incentive,structured_normal","3,4,2,1,2,3","img/set1/S2.jpg","68","2","structured_load","68","true","","",""
"","null","html-keyboard-response","292","149025","0.0-292.0","structured_load,random,structured_incentive,structured_normal","3,4,2,1,2,3","<img src=""img/set1/S2.jpg"" width=""540"" height = ""360"" style=""border:16px solid orange"">","null","","","","","","",""
"","null","html-keyboard-response","293","149229","0.0-293.0","structured_load,random,structured_incentive,structured_normal","3,4,2,1,2,3","","null","","","","","","",""
"","714.2000000001863","image-keyboard-response","294","149944","0.0-294.0","structured_load,random,structured_incentive,structured_normal","3,4,2,1,2,3","img/set1/S2.jpg","83","2","structured_load","68","false","","",""
"","null","html-keyboard-response","295","150296","0.0-295.0","structured_load,random,structured_incentive,structured_normal","3,4,2,1,2,3","<img src=""img/set1/S2.jpg"" width=""540"" height = ""360"">","null","","","","","","",""
"","null","html-keyboard-response","296","150501","0.0-296.0","structured_load,random,structured_incentive,structured_normal","3,4,2,1,2,3","","null","","","","","","",""
"","442.1000000005588","image-keyboard-response","297","150945","0.0-297.0","structured_load,random,structured_incentive,structured_normal","3,4,2,1,2,3","img/set1/S3.jpg","72","3","structured_load","72","true","","",""
"","null","html-keyboard-response","298","151301","0.0-298.0","structured_load,random,structured_incentive,structured_normal","3,4,2,1,2,3","<img src=""img/set1/S3.jpg"" width=""540"" height = ""360"" style=""border:16px solid orange"">","null","","","","","","",""
"","null","html-keyboard-response","299","151504","0.0-299.0","structured_load,random,structured_incentive,structured_normal","3,4,2,1,2,3","","null","","","","","","",""
"","239.29999999981374","image-keyboard-response","300","151744","0.0-300.0","structured_load,random,structured_incentive,structured_normal","3,4,2,1,2,3","img/set1/S4.jpg","74","4","structured_load","74","true","","",""
"","null","html-keyboard-response","301","152101","0.0-301.0","structured_load,random,structured_incentive,structured_normal","3,4,2,1,2,3","<img src=""img/set1/S4.jpg"" width=""540"" height = ""360"" style=""border:16px solid orange"">","null","","","","","","",""
"","null","html-keyboard-response","302","152307","0.0-302.0","structured_load,random,structured_incentive,structured_normal","3,4,2,1,2,3","","null","","","","","","",""
"","660.0999999996275","image-keyboard-response","303","152968","0.0-303.0","structured_load,random,structured_incentive,structured_normal","3,4,2,1,2,3","img/set1/S2.jpg","83","2","structured_load","68","false","","",""
"","null","html-keyboard-response","304","153321","0.0-304.0","structured_load,random,structured_incentive,structured_normal","3,4,2,1,2,3","<img src=""img/set1/S2.jpg"" width=""540"" height = ""360"">","null","","","","","","",""
"","null","html-keyboard-response","305","153527","0.0-305.0","structured_load,random,structured_incentive,structured_normal","3,4,2,1,2,3","","null","","","","","","",""
"","479.90000000037253","image-keyboard-response","306","154008","0.0-306.0","structured_load,random,structured_incentive,structured_normal","3,4,2,1,2,3","img/set1/S2.jpg","68","2","structured_load","68","true","","",""
"","null","html-keyboard-response","307","154364","0.0-307.0","structured_load,random,structured_incentive,structured_normal","3,4,2,1,2,3","<img src=""img/set1/S2.jpg"" width=""540"" height = ""360"" style=""border:16px solid orange"">","null","","","","","","",""
"","null","html-keyboard-response","308","154565","0.0-308.0","structured_load,random,structured_incentive,structured_normal","3,4,2,1,2,3","","null","","","","","","",""
"","1594.300000000745","image-keyboard-response","309","156160","0.0-309.0","structured_load,random,structured_incentive,structured_normal","3,4,2,1,2,3","img/set1/S1.jpg","83","1","structured_load","83","true","","",""
"","null","html-keyboard-response","310","156516","0.0-310.0","structured_load,random,structured_incentive,structured_normal","3,4,2,1,2,3","<img src=""img/set1/S1.jpg"" width=""540"" height = ""360"" style=""border:16px solid orange"">","null","","","","","","",""
"","null","html-keyboard-response","311","156720","0.0-311.0","structured_load,random,structured_incentive,structured_normal","3,4,2,1,2,3","","null","","","","","","",""
"","695.1000000005588","image-keyboard-response","312","157416","0.0-312.0","structured_load,random,structured_incentive,structured_normal","3,4,2,1,2,3","img/set1/S1.jpg","83","1","structured_load","83","true","","",""
"","null","html-keyboard-response","313","157773","0.0-313.0","structured_load,random,structured_incentive,structured_normal","3,4,2,1,2,3","<img src=""img/set1/S1.jpg"" width=""540"" height = ""360"" style=""border:16px solid orange"">","null","","","","","","",""
"","null","html-keyboard-response","314","157979","0.0-314.0","structured_load,random,structured_incentive,structured_normal","3,4,2,1,2,3","","null","","","","","","",""
"","571.3999999994412","image-keyboard-response","315","158552","0.0-315.0","structured_load,random,structured_incentive,structured_normal","3,4,2,1,2,3","img/set1/S1.jpg","83","1","structured_load","83","true","","",""
"","null","html-keyboard-response","316","158905","0.0-316.0","structured_load,random,structured_incentive,structured_normal","3,4,2,1,2,3","<img src=""img/set1/S1.jpg"" width=""540"" height = ""360"" style=""border:16px solid orange"">","null","","","","","","",""
"","null","html-keyboard-response","317","159110","0.0-317.0","structured_load,random,structured_incentive,structured_normal","3,4,2,1,2,3","","null","","","","","","",""
"","792.7000000001863","image-keyboard-response","318","159904","0.0-318.0","structured_load,random,structured_incentive,structured_normal","3,4,2,1,2,3","img/set1/S1.jpg","83","1","structured_load","83","true","","",""
"","null","html-keyboard-response","319","160257","0.0-319.0","structured_load,random,structured_incentive,structured_normal","3,4,2,1,2,3","<img src=""img/set1/S1.jpg"" width=""540"" height = ""360"" style=""border:16px solid orange"">","null","","","","","","",""
"","null","html-keyboard-response","320","160462","0.0-320.0","structured_load,random,structured_incentive,structured_normal","3,4,2,1,2,3","","null","","","","","","",""
"","1081.7999999998137","image-keyboard-response","321","161545","0.0-321.0","structured_load,random,structured_incentive,structured_normal","3,4,2,1,2,3","img/set1/S2.jpg","72","2","structured_load","68","false","","",""
"","null","html-keyboard-response","322","161898","0.0-322.0","structured_load,random,structured_incentive,structured_normal","3,4,2,1,2,3","<img src=""img/set1/S2.jpg"" width=""540"" height = ""360"">","null","","","","","","",""
"","null","html-keyboard-response","323","162099","0.0-323.0","structured_load,random,structured_incentive,structured_normal","3,4,2,1,2,3","","null","","","","","","",""
"","780.8000000007451","image-keyboard-response","324","162880","0.0-324.0","structured_load,random,structured_incentive,structured_normal","3,4,2,1,2,3","img/set1/S2.jpg","74","2","structured_load","68","false","","",""
"","null","html-keyboard-response","325","163237","0.0-325.0","structured_load,random,structured_incentive,structured_normal","3,4,2,1,2,3","<img src=""img/set1/S2.jpg"" width=""540"" height = ""360"">","null","","","","","","",""
"","null","html-keyboard-response","326","163442","0.0-326.0","structured_load,random,structured_incentive,structured_normal","3,4,2,1,2,3","","null","","","","","","",""
"","805.3000000007451","image-keyboard-response","327","164248","0.0-327.0","structured_load,random,structured_incentive,structured_normal","3,4,2,1,2,3","img/set1/S2.jpg","74","2","structured_load","68","false","","",""
"","null","html-keyboard-response","328","164605","0.0-328.0","structured_load,random,structured_incentive,structured_normal","3,4,2,1,2,3","<img src=""img/set1/S2.jpg"" width=""540"" height = ""360"">","null","","","","","","",""
"","null","html-keyboard-response","329","164810","0.0-329.0","structured_load,random,structured_incentive,structured_normal","3,4,2,1,2,3","","null","","","","","","",""
"","804.9000000003725","image-keyboard-response","330","165616","0.0-330.0","structured_load,random,structured_incentive,structured_normal","3,4,2,1,2,3","img/set1/S1.jpg","83","1","structured_load","83","true","","",""
"","null","html-keyboard-response","331","165973","0.0-331.0","structured_load,random,structured_incentive,structured_normal","3,4,2,1,2,3","<img src=""img/set1/S1.jpg"" width=""540"" height = ""360"" style=""border:16px solid orange"">","null","","","","","","",""
"","null","html-keyboard-response","332","166178","0.0-332.0","structured_load,random,structured_incentive,structured_normal","3,4,2,1,2,3","","null","","","","","","",""
"","773.2000000001863","image-keyboard-response","333","166952","0.0-333.0","structured_load,random,structured_incentive,structured_normal","3,4,2,1,2,3","img/set1/S3.jpg","72","3","structured_load","72","true","","",""
"","null","html-keyboard-response","334","167304","0.0-334.0","structured_load,random,structured_incentive,structured_normal","3,4,2,1,2,3","<img src=""img/set1/S3.jpg"" width=""540"" height = ""360"" style=""border:16px solid orange"">","null","","","","","","",""
"","null","html-keyboard-response","335","167509","0.0-335.0","structured_load,random,structured_incentive,structured_normal","3,4,2,1,2,3","","null","","","","","","",""
"","345.5","image-keyboard-response","336","167856","0.0-336.0","structured_load,random,structured_incentive,structured_normal","3,4,2,1,2,3","img/set1/S4.jpg","74","4","structured_load","74","true","","",""
"","null","html-keyboard-response","337","168212","0.0-337.0","structured_load,random,structured_incentive,structured_normal","3,4,2,1,2,3","<img src=""img/set1/S4.jpg"" width=""540"" height = ""360"" style=""border:16px solid orange"">","null","","","","","","",""
"","null","html-keyboard-response","338","168414","0.0-338.0","structured_load,random,structured_incentive,structured_normal","3,4,2,1,2,3","","null","","","","","","",""
"","481","image-keyboard-response","339","168896","0.0-339.0","structured_load,random,structured_incentive,structured_normal","3,4,2,1,2,3","img/set1/S2.jpg","72","2","structured_load","68","false","","",""
"","null","html-keyboard-response","340","169253","0.0-340.0","structured_load,random,structured_incentive,structured_normal","3,4,2,1,2,3","<img src=""img/set1/S2.jpg"" width=""540"" height = ""360"">","null","","","","","","",""
"","null","html-keyboard-response","341","169458","0.0-341.0","structured_load,random,structured_incentive,structured_normal","3,4,2,1,2,3","","null","","","","","","",""
"","909.4000000003725","image-keyboard-response","342","170369","0.0-342.0","structured_load,random,structured_incentive,structured_normal","3,4,2,1,2,3","img/set1/S2.jpg","83","2","structured_load","68","false","","",""
"","null","html-keyboard-response","343","170726","0.0-343.0","structured_load,random,structured_incentive,structured_normal","3,4,2,1,2,3","<img src=""img/set1/S2.jpg"" width=""540"" height = ""360"">","null","","","","","","",""
"","null","html-keyboard-response","344","170930","0.0-344.0","structured_load,random,structured_incentive,structured_normal","3,4,2,1,2,3","","null","","","","","","",""
"","917.5","image-keyboard-response","345","171849","0.0-345.0","structured_load,random,structured_incentive,structured_normal","3,4,2,1,2,3","img/set1/S3.jpg","74","3","structured_load","72","false","","",""
"","null","html-keyboard-response","346","172205","0.0-346.0","structured_load,random,structured_incentive,structured_normal","3,4,2,1,2,3","<img src=""img/set1/S3.jpg"" width=""540"" height = ""360"">","null","","","","","","",""
"","null","html-keyboard-response","347","172410","0.0-347.0","structured_load,random,structured_incentive,structured_normal","3,4,2,1,2,3","","null","","","","","","",""
"","1253.4000000003725","image-keyboard-response","348","173664","0.0-348.0","structured_load,random,structured_incentive,structured_normal","3,4,2,1,2,3","img/set1/S4.jpg","83","4","structured_load","74","false","","",""
"","null","html-keyboard-response","349","174021","0.0-349.0","structured_load,random,structured_incentive,structured_normal","3,4,2,1,2,3","<img src=""img/set1/S4.jpg"" width=""540"" height = ""360"">","null","","","","","","",""
"","null","html-keyboard-response","350","174227","0.0-350.0","structured_load,random,structured_incentive,structured_normal","3,4,2,1,2,3","","null","","","","","","",""
"","1012.1000000005588","image-keyboard-response","351","175240","0.0-351.0","structured_load,random,structured_incentive,structured_normal","3,4,2,1,2,3","img/set1/S2.jpg","68","2","structured_load","68","true","","",""
"","null","html-keyboard-response","352","175597","0.0-352.0","structured_load,random,structured_incentive,structured_normal","3,4,2,1,2,3","<img src=""img/set1/S2.jpg"" width=""540"" height = ""360"" style=""border:16px solid orange"">","null","","","","","","",""
"","null","html-keyboard-response","353","175804","0.0-353.0","structured_load,random,structured_incentive,structured_normal","3,4,2,1,2,3","","null","","","","","","",""
"","963.3999999994412","image-keyboard-response","354","176768","0.0-354.0","structured_load,random,structured_incentive,structured_normal","3,4,2,1,2,3","img/set1/S3.jpg","72","3","structured_load","72","true","","",""
"","null","html-keyboard-response","355","177125","0.0-355.0","structured_load,random,structured_incentive,structured_normal","3,4,2,1,2,3","<img src=""img/set1/S3.jpg"" width=""540"" height = ""360"" style=""border:16px solid orange"">","null","","","","","","",""
"","null","html-keyboard-response","356","177331","0.0-356.0","structured_load,random,structured_incentive,structured_normal","3,4,2,1,2,3","","null","","","","","","",""
"","515.6000000005588","image-keyboard-response","357","177848","0.0-357.0","structured_load,random,structured_incentive,structured_normal","3,4,2,1,2,3","img/set1/S4.jpg","74","4","structured_load","74","true","","",""
"","null","html-keyboard-response","358","178205","0.0-358.0","structured_load,random,structured_incentive,structured_normal","3,4,2,1,2,3","<img src=""img/set1/S4.jpg"" width=""540"" height = ""360"" style=""border:16px solid orange"">","null","","","","","","",""
"","null","html-keyboard-response","359","178411","0.0-359.0","structured_load,random,structured_incentive,structured_normal","3,4,2,1,2,3","","null","","","","","","",""
"","755.6000000005588","image-keyboard-response","360","179168","0.0-360.0","structured_load,random,structured_incentive,structured_normal","3,4,2,1,2,3","img/set1/S1.jpg","83","1","structured_load","83","true","","",""
"","null","html-keyboard-response","361","179525","0.0-361.0","structured_load,random,structured_incentive,structured_normal","3,4,2,1,2,3","<img src=""img/set1/S1.jpg"" width=""540"" height = ""360"" style=""border:16px solid orange"">","null","","","","","","",""
"","null","html-keyboard-response","362","179730","0.0-362.0","structured_load,random,structured_incentive,structured_normal","3,4,2,1,2,3","","null","","","","","","",""
"","5169.200000000186","survey-multi-choice","363","184904","0.0-363.0","structured_load,random,structured_incentive,structured_normal","3,4,2,1,2,3","","","","","","","{""Q0"":""They had the same number of occurences""}","[0]",""
"","1871.2000000001863","html-keyboard-response","364","186777","0.0-364.0","structured_load,random,structured_incentive,structured_normal","3,4,2,1,2,3","<p class=""center-content"">You have completed a block! </p><p class=""center-content"">Press any key on the keyboard to continue, </p><p class=""center-content"">or wait for the automatic progression to the next block after one minute.</p>","32","","","","","","",""
"[{""page_index"":0,""viewing_time"":1395.2999999998137}]","1395.8999999994412","instructions","365","188174","0.0-365.0","structured_load,random,structured_incentive,structured_normal","3,4,2,1,2,3","","","","","","","","",""
"[{""page_index"":0,""viewing_time"":932.4000000003725}]","932.7999999998137","instructions","366","189107","0.0-366.0","structured_load,random,structured_incentive,structured_normal","3,4,2,1,2,3","","","","","","","","",""
"","1411.3999999994412","image-keyboard-response","367","190521","0.0-367.0","structured_load,random,structured_incentive,structured_normal","3,4,2,1,2,3","img/set2/S4.jpg","72","4","random","74","false","","",""
"","null","html-keyboard-response","368","190878","0.0-368.0","structured_load,random,structured_incentive,structured_normal","3,4,2,1,2,3","<img src=""img/set2/S4.jpg"" width=""540"" height = ""360"">","null","","","","","","",""
"","null","html-keyboard-response","369","191084","0.0-369.0","structured_load,random,structured_incentive,structured_normal","3,4,2,1,2,3","","null","","","","","","",""
"","2370.7999999998137","image-keyboard-response","370","193457","0.0-370.0","structured_load,random,structured_incentive,structured_normal","3,4,2,1,2,3","img/set2/S3.jpg","74","3","random","72","false","","",""
"","null","html-keyboard-response","371","193812","0.0-371.0","structured_load,random,structured_incentive,structured_normal","3,4,2,1,2,3","<img src=""img/set2/S3.jpg"" width=""540"" height = ""360"">","null","","","","","","",""
"","null","html-keyboard-response","372","194018","0.0-372.0","structured_load,random,structured_incentive,structured_normal","3,4,2,1,2,3","","null","","","","","","",""
"","293.29999999981374","image-keyboard-response","373","194312","0.0-373.0","structured_load,random,structured_incentive,structured_normal","3,4,2,1,2,3","img/set2/S3.jpg","74","3","random","72","false","","",""
"","null","html-keyboard-response","374","194670","0.0-374.0","structured_load,random,structured_incentive,structured_normal","3,4,2,1,2,3","<img src=""img/set2/S3.jpg"" width=""540"" height = ""360"">","null","","","","","","",""
"","null","html-keyboard-response","375","194871","0.0-375.0","structured_load,random,structured_incentive,structured_normal","3,4,2,1,2,3","","null","","","","","","",""
"","1431.7000000001863","image-keyboard-response","376","196304","0.0-376.0","structured_load,random,structured_incentive,structured_normal","3,4,2,1,2,3","img/set2/S1.jpg","68","1","random","83","false","","",""
"","null","html-keyboard-response","377","196661","0.0-377.0","structured_load,random,structured_incentive,structured_normal","3,4,2,1,2,3","<img src=""img/set2/S1.jpg"" width=""540"" height = ""360"">","null","","","","","","",""
"","null","html-keyboard-response","378","196864","0.0-378.0","structured_load,random,structured_incentive,structured_normal","3,4,2,1,2,3","","null","","","","","","",""
"","null","image-keyboard-response","379","199369","0.0-379.0","structured_load,random,structured_incentive,structured_normal","3,4,2,1,2,3","img/set2/S3.jpg","null","3","random","72","false","","",""
"","null","html-keyboard-response","380","199722","0.0-380.0","structured_load,random,structured_incentive,structured_normal","3,4,2,1,2,3","<img src=""img/set2/S3.jpg"" width=""540"" height = ""360"">","null","","","","","","",""
"","null","html-keyboard-response","381","199926","0.0-381.0","structured_load,random,structured_incentive,structured_normal","3,4,2,1,2,3","","null","","","","","","",""
"","48.40000000037253","image-keyboard-response","382","199976","0.0-382.0","structured_load,random,structured_incentive,structured_normal","3,4,2,1,2,3","img/set2/S4.jpg","74","4","random","74","true","","",""
"","null","html-keyboard-response","383","200333","0.0-383.0","structured_load,random,structured_incentive,structured_normal","3,4,2,1,2,3","<img src=""img/set2/S4.jpg"" width=""540"" height = ""360"" style=""border:16px solid orange"">","null","","","","","","",""
"","null","html-keyboard-response","384","200539","0.0-384.0","structured_load,random,structured_incentive,structured_normal","3,4,2,1,2,3","","null","","","","","","",""
"","2331.9000000003725","image-keyboard-response","385","202873","0.0-385.0","structured_load,random,structured_incentive,structured_normal","3,4,2,1,2,3","img/set2/S2.jpg","83","2","random","68","false","","",""
"","null","html-keyboard-response","386","203225","0.0-386.0","structured_load,random,structured_incentive,structured_normal","3,4,2,1,2,3","<img src=""img/set2/S2.jpg"" width=""540"" height = ""360"">","null","","","","","","",""
"","null","html-keyboard-response","387","203431","0.0-387.0","structured_load,random,structured_incentive,structured_normal","3,4,2,1,2,3","","null","","","","","","",""
"","319.8999999994412","image-keyboard-response","388","203753","0.0-388.0","structured_load,random,structured_incentive,structured_normal","3,4,2,1,2,3","img/set2/S3.jpg","68","3","random","72","false","","",""
"","null","html-keyboard-response","389","204105","0.0-389.0","structured_load,random,structured_incentive,structured_normal","3,4,2,1,2,3","<img src=""img/set2/S3.jpg"" width=""540"" height = ""360"">","null","","","","","","",""
"","null","html-keyboard-response","390","204309","0.0-390.0","structured_load,random,structured_incentive,structured_normal","3,4,2,1,2,3","","null","","","","","","",""
"","274.30000000074506","image-keyboard-response","391","204584","0.0-391.0","structured_load,random,structured_incentive,structured_normal","3,4,2,1,2,3","img/set2/S4.jpg","74","4","random","74","true","","",""
"","null","html-keyboard-response","392","204942","0.0-392.0","structured_load,random,structured_incentive,structured_normal","3,4,2,1,2,3","<img src=""img/set2/S4.jpg"" width=""540"" height = ""360"" style=""border:16px solid orange"">","null","","","","","","",""
"","null","html-keyboard-response","393","205143","0.0-393.0","structured_load,random,structured_incentive,structured_normal","3,4,2,1,2,3","","null","","","","","","",""
"","1360.6000000005588","image-keyboard-response","394","206504","0.0-394.0","structured_load,random,structured_incentive,structured_normal","3,4,2,1,2,3","img/set2/S2.jpg","68","2","random","68","true","","",""
"","null","html-keyboard-response","395","206861","0.0-395.0","structured_load,random,structured_incentive,structured_normal","3,4,2,1,2,3","<img src=""img/set2/S2.jpg"" width=""540"" height = ""360"" style=""border:16px solid orange"">","null","","","","","","",""
"","null","html-keyboard-response","396","207068","0.0-396.0","structured_load,random,structured_incentive,structured_normal","3,4,2,1,2,3","","null","","","","","","",""
"","307.29999999981374","image-keyboard-response","397","207377","0.0-397.0","structured_load,random,structured_incentive,structured_normal","3,4,2,1,2,3","img/set2/S3.jpg","83","3","random","72","false","","",""
"","null","html-keyboard-response","398","207729","0.0-398.0","structured_load,random,structured_incentive,structured_normal","3,4,2,1,2,3","<img src=""img/set2/S3.jpg"" width=""540"" height = ""360"">","null","","","","","","",""
"","null","html-keyboard-response","399","207935","0.0-399.0","structured_load,random,structured_incentive,structured_normal","3,4,2,1,2,3","","null","","","","","","",""
"","79.70000000018626","image-keyboard-response","400","208016","0.0-400.0","structured_load,random,structured_incentive,structured_normal","3,4,2,1,2,3","img/set2/S4.jpg","68","4","random","74","false","","",""
"","null","html-keyboard-response","401","208374","0.0-401.0","structured_load,random,structured_incentive,structured_normal","3,4,2,1,2,3","<img src=""img/set2/S4.jpg"" width=""540"" height = ""360"">","null","","","","","","",""
"","null","html-keyboard-response","402","208579","0.0-402.0","structured_load,random,structured_incentive,structured_normal","3,4,2,1,2,3","","null","","","","","","",""
"","196.09999999962747","image-keyboard-response","403","208776","0.0-403.0","structured_load,random,structured_incentive,structured_normal","3,4,2,1,2,3","img/set2/S1.jpg","74","1","random","83","false","","",""
"","null","html-keyboard-response","404","209133","0.0-404.0","structured_load,random,structured_incentive,structured_normal","3,4,2,1,2,3","<img src=""img/set2/S1.jpg"" width=""540"" height = ""360"">","null","","","","","","",""
"","null","html-keyboard-response","405","209339","0.0-405.0","structured_load,random,structured_incentive,structured_normal","3,4,2,1,2,3","","null","","","","","","",""
"","null","image-keyboard-response","406","211841","0.0-406.0","structured_load,random,structured_incentive,structured_normal","3,4,2,1,2,3","img/set2/S4.jpg","null","4","random","74","false","","",""
"","null","html-keyboard-response","407","212195","0.0-407.0","structured_load,random,structured_incentive,structured_normal","3,4,2,1,2,3","<img src=""img/set2/S4.jpg"" width=""540"" height = ""360"">","null","","","","","","",""
"","null","html-keyboard-response","408","212397","0.0-408.0","structured_load,random,structured_incentive,structured_normal","3,4,2,1,2,3","","null","","","","","","",""
"","null","image-keyboard-response","409","214899","0.0-409.0","structured_load,random,structured_incentive,structured_normal","3,4,2,1,2,3","img/set2/S4.jpg","null","4","random","74","false","","",""
"","null","html-keyboard-response","410","215251","0.0-410.0","structured_load,random,structured_incentive,structured_normal","3,4,2,1,2,3","<img src=""img/set2/S4.jpg"" width=""540"" height = ""360"">","null","","","","","","",""
"","null","html-keyboard-response","411","215455","0.0-411.0","structured_load,random,structured_incentive,structured_normal","3,4,2,1,2,3","","null","","","","","","",""
"","null","image-keyboard-response","412","217957","0.0-412.0","structured_load,random,structured_incentive,structured_normal","3,4,2,1,2,3","img/set2/S3.jpg","null","3","random","72","false","","",""
"","null","html-keyboard-response","413","218309","0.0-413.0","structured_load,random,structured_incentive,structured_normal","3,4,2,1,2,3","<img src=""img/set2/S3.jpg"" width=""540"" height = ""360"">","null","","","","","","",""
"","null","html-keyboard-response","414","218512","0.0-414.0","structured_load,random,structured_incentive,structured_normal","3,4,2,1,2,3","","null","","","","","","",""
"","null","image-keyboard-response","415","221231","0.0-415.0","structured_load,random,structured_incentive,structured_normal","3,4,2,1,2,3","img/set2/S4.jpg","null","4","random","74","false","","",""
"","null","html-keyboard-response","416","222208","0.0-416.0","structured_load,random,structured_incentive,structured_normal","3,4,2,1,2,3","<img src=""img/set2/S4.jpg"" width=""540"" height = ""360"">","null","","","","","","",""
"","null","html-keyboard-response","417","223322","0.0-417.0","structured_load,random,structured_incentive,structured_normal","3,4,2,1,2,3","","null","","","","","","",""
"","null","image-keyboard-response","418","226259","0.0-418.0","structured_load,random,structured_incentive,structured_normal","3,4,2,1,2,3","img/set2/S4.jpg","null","4","random","74","false","","",""
"","null","html-keyboard-response","419","227208","0.0-419.0","structured_load,random,structured_incentive,structured_normal","3,4,2,1,2,3","<img src=""img/set2/S4.jpg"" width=""540"" height = ""360"">","null","","","","","","",""
"","null","html-keyboard-response","420","228208","0.0-420.0","structured_load,random,structured_incentive,structured_normal","3,4,2,1,2,3","","null","","","","","","",""
"","null","image-keyboard-response","421","231208","0.0-421.0","structured_load,random,structured_incentive,structured_normal","3,4,2,1,2,3","img/set2/S3.jpg","null","3","random","72","false","","",""
"","null","html-keyboard-response","422","232208","0.0-422.0","structured_load,random,structured_incentive,structured_normal","3,4,2,1,2,3","<img src=""img/set2/S3.jpg"" width=""540"" height = ""360"">","null","","","","","","",""
"","null","html-keyboard-response","423","233278","0.0-423.0","structured_load,random,structured_incentive,structured_normal","3,4,2,1,2,3","","null","","","","","","",""
"","null","image-keyboard-response","424","236208","0.0-424.0","structured_load,random,structured_incentive,structured_normal","3,4,2,1,2,3","img/set2/S4.jpg","null","4","random","74","false","","",""
"","null","html-keyboard-response","425","237364","0.0-425.0","structured_load,random,structured_incentive,structured_normal","3,4,2,1,2,3","<img src=""img/set2/S4.jpg"" width=""540"" height = ""360"">","null","","","","","","",""
"","null","html-keyboard-response","426","238208","0.0-426.0","structured_load,random,structured_incentive,structured_normal","3,4,2,1,2,3","","null","","","","","","",""
"","null","image-keyboard-response","427","240714","0.0-427.0","structured_load,random,structured_incentive,structured_normal","3,4,2,1,2,3","img/set2/S4.jpg","null","4","random","74","false","","",""
"","null","html-keyboard-response","428","241069","0.0-428.0","structured_load,random,structured_incentive,structured_normal","3,4,2,1,2,3","<img src=""img/set2/S4.jpg"" width=""540"" height = ""360"">","null","","","","","","",""
"","null","html-keyboard-response","429","241276","0.0-429.0","structured_load,random,structured_incentive,structured_normal","3,4,2,1,2,3","","null","","","","","","",""
"","null","image-keyboard-response","430","243778","0.0-430.0","structured_load,random,structured_incentive,structured_normal","3,4,2,1,2,3","img/set2/S2.jpg","null","2","random","68","false","","",""
"","null","html-keyboard-response","431","244136","0.0-431.0","structured_load,random,structured_incentive,structured_normal","3,4,2,1,2,3","<img src=""img/set2/S2.jpg"" width=""540"" height = ""360"">","null","","","","","","",""
"","null","html-keyboard-response","432","244339","0.0-432.0","structured_load,random,structured_incentive,structured_normal","3,4,2,1,2,3","","null","","","","","","",""
"","276.5","image-keyboard-response","433","244617","0.0-433.0","structured_load,random,structured_incentive,structured_normal","3,4,2,1,2,3","img/set2/S1.jpg","83","1","random","83","true","","",""
"","null","html-keyboard-response","434","244971","0.0-434.0","structured_load,random,structured_incentive,structured_normal","3,4,2,1,2,3","<img src=""img/set2/S1.jpg"" width=""540"" height = ""360"" style=""border:16px solid orange"">","null","","","","","","",""
"","null","html-keyboard-response","435","245174","0.0-435.0","structured_load,random,structured_incentive,structured_normal","3,4,2,1,2,3","","null","","","","","","",""
"","88.8999999994412","image-keyboard-response","436","245264","0.0-436.0","structured_load,random,structured_incentive,structured_normal","3,4,2,1,2,3","img/set2/S1.jpg","68","1","random","83","false","","",""
"","null","html-keyboard-response","437","245621","0.0-437.0","structured_load,random,structured_incentive,structured_normal","3,4,2,1,2,3","<img src=""img/set2/S1.jpg"" width=""540"" height = ""360"">","null","","","","","","",""
"","null","html-keyboard-response","438","245824","0.0-438.0","structured_load,random,structured_incentive,structured_normal","3,4,2,1,2,3","","null","","","","","","",""
"","63.200000000186265","image-keyboard-response","439","245888","0.0-439.0","structured_load,random,structured_incentive,structured_normal","3,4,2,1,2,3","img/set2/S2.jpg","83","2","random","68","false","","",""
"","null","html-keyboard-response","440","246240","0.0-440.0","structured_load,random,structured_incentive,structured_normal","3,4,2,1,2,3","<img src=""img/set2/S2.jpg"" width=""540"" height = ""360"">","null","","","","","","",""
"","null","html-keyboard-response","441","246446","0.0-441.0","structured_load,random,structured_incentive,structured_normal","3,4,2,1,2,3","","null","","","","","","",""
"","40","image-keyboard-response","442","246487","0.0-442.0","structured_load,random,structured_incentive,structured_normal","3,4,2,1,2,3","img/set2/S3.jpg","74","3","random","72","false","","",""
"","null","html-keyboard-response","443","246842","0.0-443.0","structured_load,random,structured_incentive,structured_normal","3,4,2,1,2,3","<img src=""img/set2/S3.jpg"" width=""540"" height = ""360"">","null","","","","","","",""
"","null","html-keyboard-response","444","247045","0.0-444.0","structured_load,random,structured_incentive,structured_normal","3,4,2,1,2,3","","null","","","","","","",""
"","41.700000000186265","image-keyboard-response","445","247088","0.0-445.0","structured_load,random,structured_incentive,structured_normal","3,4,2,1,2,3","img/set2/S3.jpg","74","3","random","72","false","","",""
"","null","html-keyboard-response","446","247441","0.0-446.0","structured_load,random,structured_incentive,structured_normal","3,4,2,1,2,3","<img src=""img/set2/S3.jpg"" width=""540"" height = ""360"">","null","","","","","","",""
"","null","html-keyboard-response","447","247642","0.0-447.0","structured_load,random,structured_incentive,structured_normal","3,4,2,1,2,3","","null","","","","","","",""
"","124.5","image-keyboard-response","448","247768","0.0-448.0","structured_load,random,structured_incentive,structured_normal","3,4,2,1,2,3","img/set2/S4.jpg","68","4","random","74","false","","",""
"","null","html-keyboard-response","449","248125","0.0-449.0","structured_load,random,structured_incentive,structured_normal","3,4,2,1,2,3","<img src=""img/set2/S4.jpg"" width=""540"" height = ""360"">","null","","","","","","",""
"","null","html-keyboard-response","450","248331","0.0-450.0","structured_load,random,structured_incentive,structured_normal","3,4,2,1,2,3","","null","","","","","","",""
"","67.70000000018626","image-keyboard-response","451","248401","0.0-451.0","structured_load,random,structured_incentive,structured_normal","3,4,2,1,2,3","img/set2/S4.jpg","74","4","random","74","true","","",""
"","null","html-keyboard-response","452","248754","0.0-452.0","structured_load,random,structured_incentive,structured_normal","3,4,2,1,2,3","<img src=""img/set2/S4.jpg"" width=""540"" height = ""360"" style=""border:16px solid orange"">","null","","","","","","",""
"","null","html-keyboard-response","453","248955","0.0-453.0","structured_load,random,structured_incentive,structured_normal","3,4,2,1,2,3","","null","","","","","","",""
"","227.8999999994412","image-keyboard-response","454","249184","0.0-454.0","structured_load,random,structured_incentive,structured_normal","3,4,2,1,2,3","img/set2/S4.jpg","68","4","random","74","false","","",""
"","null","html-keyboard-response","455","249541","0.0-455.0","structured_load,random,structured_incentive,structured_normal","3,4,2,1,2,3","<img src=""img/set2/S4.jpg"" width=""540"" height = ""360"">","null","","","","","","",""
"","null","html-keyboard-response","456","249747","0.0-456.0","structured_load,random,structured_incentive,structured_normal","3,4,2,1,2,3","","null","","","","","","",""
"","123.70000000018626","image-keyboard-response","457","249872","0.0-457.0","structured_load,random,structured_incentive,structured_normal","3,4,2,1,2,3","img/set2/S3.jpg","74","3","random","72","false","","",""
"","null","html-keyboard-response","458","250229","0.0-458.0","structured_load,random,structured_incentive,structured_normal","3,4,2,1,2,3","<img src=""img/set2/S3.jpg"" width=""540"" height = ""360"">","null","","","","","","",""
"","null","html-keyboard-response","459","250436","0.0-459.0","structured_load,random,structured_incentive,structured_normal","3,4,2,1,2,3","","null","","","","","","",""
"","194.79999999981374","image-keyboard-response","460","250632","0.0-460.0","structured_load,random,structured_incentive,structured_normal","3,4,2,1,2,3","img/set2/S1.jpg","83","1","random","83","true","","",""
"","null","html-keyboard-response","461","250989","0.0-461.0","structured_load,random,structured_incentive,structured_normal","3,4,2,1,2,3","<img src=""img/set2/S1.jpg"" width=""540"" height = ""360"" style=""border:16px solid orange"">","null","","","","","","",""
"","null","html-keyboard-response","462","251192","0.0-462.0","structured_load,random,structured_incentive,structured_normal","3,4,2,1,2,3","","null","","","","","","",""
"","55.30000000074506","image-keyboard-response","463","251249","0.0-463.0","structured_load,random,structured_incentive,structured_normal","3,4,2,1,2,3","img/set2/S4.jpg","68","4","random","74","false","","",""
"","null","html-keyboard-response","464","251601","0.0-464.0","structured_load,random,structured_incentive,structured_normal","3,4,2,1,2,3","<img src=""img/set2/S4.jpg"" width=""540"" height = ""360"">","null","","","","","","",""
