"rt","url","trial_type","trial_index","time_elapsed","internal_node_id","assignmentID","mturkID","hitID","view_history","stimulus","key_press","state","test_part","correct_response","order_block","order_chunk","order_freq","correct","responses","question_order","bonus"
"28698.099999964237","consent.html","external-html","0","28802","0.0-0.0","3LYA37P8IR9EB4RP0OBPST01YVGBKQ","A10249252O9I20MRSOBVF","3GVPRXWRPHGYHD0HW29VLS36FVC7I4","","","","","","","","","","","","",""
"76485.80000001192","","instructions","1","105289","0.0-1.0","3LYA37P8IR9EB4RP0OBPST01YVGBKQ","A10249252O9I20MRSOBVF","3GVPRXWRPHGYHD0HW29VLS36FVC7I4","[{""page_index"":0,""viewing_time"":2975.099999964237},{""page_index"":1,""viewing_time"":5662.700000047684},{""page_index"":2,""viewing_time"":6863},{""page_index"":3,""viewing_time"":36606.69999998808},{""page_index"":4,""viewing_time"":4655.399999976158},{""page_index"":5,""viewing_time"":13126},{""page_index"":6,""viewing_time"":6596}]","","","","","","","","","","","",""
"7919.900000035763","","instructions","2","113211","0.0-2.0","3LYA37P8IR9EB4RP0OBPST01YVGBKQ","A10249252O9I20MRSOBVF","3GVPRXWRPHGYHD0HW29VLS36FVC7I4","[{""page_index"":0,""viewing_time"":7919.5}]","","","","","","","","","","","",""
"4641.300000011921","","instructions","3","117853","0.0-3.0","3LYA37P8IR9EB4RP0OBPST01YVGBKQ","A10249252O9I20MRSOBVF","3GVPRXWRPHGYHD0HW29VLS36FVC7I4","[{""page_index"":0,""viewing_time"":4641}]","","","","","","","","","","","",""
"null","","image-keyboard-response","4","120360","0.0-4.0","3LYA37P8IR9EB4RP0OBPST01YVGBKQ","A10249252O9I20MRSOBVF","3GVPRXWRPHGYHD0HW29VLS36FVC7I4","","img/set1/S3.jpg","null","3","random","72","random,structured_incentive,structured_load,structured_normal","1,2,2,3,4,2","2,1,4,3","false","","",""
"null","","html-keyboard-response","5","120729","0.0-5.0","3LYA37P8IR9EB4RP0OBPST01YVGBKQ","A10249252O9I20MRSOBVF","3GVPRXWRPHGYHD0HW29VLS36FVC7I4","","<img src=""img/set1/S3.jpg"" width=""540"" height = ""360"">","null","","","","","","","","","",""
"null","","html-keyboard-response","6","120937","0.0-6.0","3LYA37P8IR9EB4RP0OBPST01YVGBKQ","A10249252O9I20MRSOBVF","3GVPRXWRPHGYHD0HW29VLS36FVC7I4","","","null","","","","","","","","","",""
"1150.3999999761581","","image-keyboard-response","7","122091","0.0-7.0","3LYA37P8IR9EB4RP0OBPST01YVGBKQ","A10249252O9I20MRSOBVF","3GVPRXWRPHGYHD0HW29VLS36FVC7I4","","img/set1/S2.jpg","72","2","random","68","random,structured_incentive,structured_load,structured_normal","1,2,2,3,4,2","2,1,4,3","false","","",""
"null","","html-keyboard-response","8","122463","0.0-8.0","3LYA37P8IR9EB4RP0OBPST01YVGBKQ","A10249252O9I20MRSOBVF","3GVPRXWRPHGYHD0HW29VLS36FVC7I4","","<img src=""img/set1/S2.jpg"" width=""540"" height = ""360"">","null","","","","","","","","","",""
"null","","html-keyboard-response","9","122678","0.0-9.0","3LYA37P8IR9EB4RP0OBPST01YVGBKQ","A10249252O9I20MRSOBVF","3GVPRXWRPHGYHD0HW29VLS36FVC7I4","","","null","","","","","","","","","",""
"1198.699999988079","","image-keyboard-response","10","123879","0.0-10.0","3LYA37P8IR9EB4RP0OBPST01YVGBKQ","A10249252O9I20MRSOBVF","3GVPRXWRPHGYHD0HW29VLS36FVC7I4","","img/set1/S3.jpg","68","3","random","72","random,structured_incentive,structured_load,structured_normal","1,2,2,3,4,2","2,1,4,3","false","","",""
"null","","html-keyboard-response","11","124247","0.0-11.0","3LYA37P8IR9EB4RP0OBPST01YVGBKQ","A10249252O9I20MRSOBVF","3GVPRXWRPHGYHD0HW29VLS36FVC7I4","","<img src=""img/set1/S3.jpg"" width=""540"" height = ""360"">","null","","","","","","","","","",""
"null","","html-keyboard-response","12","124462","0.0-12.0","3LYA37P8IR9EB4RP0OBPST01YVGBKQ","A10249252O9I20MRSOBVF","3GVPRXWRPHGYHD0HW29VLS36FVC7I4","","","null","","","","","","","","","",""
"1231.300000011921","","image-keyboard-response","13","125695","0.0-13.0","3LYA37P8IR9EB4RP0OBPST01YVGBKQ","A10249252O9I20MRSOBVF","3GVPRXWRPHGYHD0HW29VLS36FVC7I4","","img/set1/S1.jpg","74","1","random","83","random,structured_incentive,structured_load,structured_normal","1,2,2,3,4,2","2,1,4,3","false","","",""
"null","","html-keyboard-response","14","126059","0.0-14.0","3LYA37P8IR9EB4RP0OBPST01YVGBKQ","A10249252O9I20MRSOBVF","3GVPRXWRPHGYHD0HW29VLS36FVC7I4","","<img src=""img/set1/S1.jpg"" width=""540"" height = ""360"">","null","","","","","","","","","",""
"null","","html-keyboard-response","15","126261","0.0-15.0","3LYA37P8IR9EB4RP0OBPST01YVGBKQ","A10249252O9I20MRSOBVF","3GVPRXWRPHGYHD0HW29VLS36FVC7I4","","","null","","","","","","","","","",""
"958.4000000357628","","image-keyboard-response","16","127222","0.0-16.0","3LYA37P8IR9EB4RP0OBPST01YVGBKQ","A10249252O9I20MRSOBVF","3GVPRXWRPHGYHD0HW29VLS36FVC7I4","","img/set1/S3.jpg","83","3","random","72","random,structured_incentive,structured_load,structured_normal","1,2,2,3,4,2","2,1,4,3","false","","",""
"null","","html-keyboard-response","17","127583","0.0-17.0","3LYA37P8IR9EB4RP0OBPST01YVGBKQ","A10249252O9I20MRSOBVF","3GVPRXWRPHGYHD0HW29VLS36FVC7I4","","<img src=""img/set1/S3.jpg"" width=""540"" height = ""360"">","null","","","","","","","","","",""
"null","","html-keyboard-response","18","127788","0.0-18.0","3LYA37P8IR9EB4RP0OBPST01YVGBKQ","A10249252O9I20MRSOBVF","3GVPRXWRPHGYHD0HW29VLS36FVC7I4","","","null","","","","","","","","","",""
"824.8999999761581","","image-keyboard-response","19","128616","0.0-19.0","3LYA37P8IR9EB4RP0OBPST01YVGBKQ","A10249252O9I20MRSOBVF","3GVPRXWRPHGYHD0HW29VLS36FVC7I4","","img/set1/S1.jpg","68","1","random","83","random,structured_incentive,structured_load,structured_normal","1,2,2,3,4,2","2,1,4,3","false","","",""
"null","","html-keyboard-response","20","128976","0.0-20.0","3LYA37P8IR9EB4RP0OBPST01YVGBKQ","A10249252O9I20MRSOBVF","3GVPRXWRPHGYHD0HW29VLS36FVC7I4","","<img src=""img/set1/S1.jpg"" width=""540"" height = ""360"">","null","","","","","","","","","",""
"null","","html-keyboard-response","21","129182","0.0-21.0","3LYA37P8IR9EB4RP0OBPST01YVGBKQ","A10249252O9I20MRSOBVF","3GVPRXWRPHGYHD0HW29VLS36FVC7I4","","","null","","","","","","","","","",""
"855.1999999880791","","image-keyboard-response","22","130040","0.0-22.0","3LYA37P8IR9EB4RP0OBPST01YVGBKQ","A10249252O9I20MRSOBVF","3GVPRXWRPHGYHD0HW29VLS36FVC7I4","","img/set1/S3.jpg","74","3","random","72","random,structured_incentive,structured_load,structured_normal","1,2,2,3,4,2","2,1,4,3","false","","",""
"null","","html-keyboard-response","23","130399","0.0-23.0","3LYA37P8IR9EB4RP0OBPST01YVGBKQ","A10249252O9I20MRSOBVF","3GVPRXWRPHGYHD0HW29VLS36FVC7I4","","<img src=""img/set1/S3.jpg"" width=""540"" height = ""360"">","null","","","","","","","","","",""
"null","","html-keyboard-response","24","130610","0.0-24.0","3LYA37P8IR9EB4RP0OBPST01YVGBKQ","A10249252O9I20MRSOBVF","3GVPRXWRPHGYHD0HW29VLS36FVC7I4","","","null","","","","","","","","","",""
"1034.6000000238419","","image-keyboard-response","25","131647","0.0-25.0","3LYA37P8IR9EB4RP0OBPST01YVGBKQ","A10249252O9I20MRSOBVF","3GVPRXWRPHGYHD0HW29VLS36FVC7I4","","img/set1/S4.jpg","83","4","random","74","random,structured_incentive,structured_load,structured_normal","1,2,2,3,4,2","2,1,4,3","false","","",""
"null","","html-keyboard-response","26","132005","0.0-26.0","3LYA37P8IR9EB4RP0OBPST01YVGBKQ","A10249252O9I20MRSOBVF","3GVPRXWRPHGYHD0HW29VLS36FVC7I4","","<img src=""img/set1/S4.jpg"" width=""540"" height = ""360"">","null","","","","","","","","","",""
"null","","html-keyboard-response","27","132216","0.0-27.0","3LYA37P8IR9EB4RP0OBPST01YVGBKQ","A10249252O9I20MRSOBVF","3GVPRXWRPHGYHD0HW29VLS36FVC7I4","","","null","","","","","","","","","",""
"1049.8999999761581","","image-keyboard-response","28","133269","0.0-28.0","3LYA37P8IR9EB4RP0OBPST01YVGBKQ","A10249252O9I20MRSOBVF","3GVPRXWRPHGYHD0HW29VLS36FVC7I4","","img/set1/S3.jpg","83","3","random","72","random,structured_incentive,structured_load,structured_normal","1,2,2,3,4,2","2,1,4,3","false","","",""
"null","","html-keyboard-response","29","133622","0.0-29.0","3LYA37P8IR9EB4RP0OBPST01YVGBKQ","A10249252O9I20MRSOBVF","3GVPRXWRPHGYHD0HW29VLS36FVC7I4","","<img src=""img/set1/S3.jpg"" width=""540"" height = ""360"">","null","","","","","","","","","",""
"null","","html-keyboard-response","30","133826","0.0-30.0","3LYA37P8IR9EB4RP0OBPST01YVGBKQ","A10249252O9I20MRSOBVF","3GVPRXWRPHGYHD0HW29VLS36FVC7I4","","","null","","","","","","","","","",""
"1470.6000000238419","","image-keyboard-response","31","135299","0.0-31.0","3LYA37P8IR9EB4RP0OBPST01YVGBKQ","A10249252O9I20MRSOBVF","3GVPRXWRPHGYHD0HW29VLS36FVC7I4","","img/set1/S1.jpg","83","1","random","83","random,structured_incentive,structured_load,structured_normal","1,2,2,3,4,2","2,1,4,3","true","","",""
"null","","html-keyboard-response","32","135665","0.0-32.0","3LYA37P8IR9EB4RP0OBPST01YVGBKQ","A10249252O9I20MRSOBVF","3GVPRXWRPHGYHD0HW29VLS36FVC7I4","","<img src=""img/set1/S1.jpg"" width=""540"" height = ""360"" style=""border:16px solid orange"">","null","","","","","","","","","",""
"null","","html-keyboard-response","33","135876","0.0-33.0","3LYA37P8IR9EB4RP0OBPST01YVGBKQ","A10249252O9I20MRSOBVF","3GVPRXWRPHGYHD0HW29VLS36FVC7I4","","","null","","","","","","","","","",""
"1597.800000011921","","image-keyboard-response","34","137478","0.0-34.0","3LYA37P8IR9EB4RP0OBPST01YVGBKQ","A10249252O9I20MRSOBVF","3GVPRXWRPHGYHD0HW29VLS36FVC7I4","","img/set1/S4.jpg","68","4","random","74","random,structured_incentive,structured_load,structured_normal","1,2,2,3,4,2","2,1,4,3","false","","",""
"null","","html-keyboard-response","35","137840","0.0-35.0","3LYA37P8IR9EB4RP0OBPST01YVGBKQ","A10249252O9I20MRSOBVF","3GVPRXWRPHGYHD0HW29VLS36FVC7I4","","<img src=""img/set1/S4.jpg"" width=""540"" height = ""360"">","null","","","","","","","","","",""
"null","","html-keyboard-response","36","138045","0.0-36.0","3LYA37P8IR9EB4RP0OBPST01YVGBKQ","A10249252O9I20MRSOBVF","3GVPRXWRPHGYHD0HW29VLS36FVC7I4","","","null","","","","","","","","","",""
"887.1000000238419","","image-keyboard-response","37","138935","0.0-37.0","3LYA37P8IR9EB4RP0OBPST01YVGBKQ","A10249252O9I20MRSOBVF","3GVPRXWRPHGYHD0HW29VLS36FVC7I4","","img/set1/S3.jpg","83","3","random","72","random,structured_incentive,structured_load,structured_normal","1,2,2,3,4,2","2,1,4,3","false","","",""
"null","","html-keyboard-response","38","139289","0.0-38.0","3LYA37P8IR9EB4RP0OBPST01YVGBKQ","A10249252O9I20MRSOBVF","3GVPRXWRPHGYHD0HW29VLS36FVC7I4","","<img src=""img/set1/S3.jpg"" width=""540"" height = ""360"">","null","","","","","","","","","",""
"null","","html-keyboard-response","39","139499","0.0-39.0","3LYA37P8IR9EB4RP0OBPST01YVGBKQ","A10249252O9I20MRSOBVF","3GVPRXWRPHGYHD0HW29VLS36FVC7I4","","","null","","","","","","","","","",""
"990.9000000357628","","image-keyboard-response","40","140491","0.0-40.0","3LYA37P8IR9EB4RP0OBPST01YVGBKQ","A10249252O9I20MRSOBVF","3GVPRXWRPHGYHD0HW29VLS36FVC7I4","","img/set1/S3.jpg","72","3","random","72","random,structured_incentive,structured_load,structured_normal","1,2,2,3,4,2","2,1,4,3","true","","",""
"null","","html-keyboard-response","41","140853","0.0-41.0","3LYA37P8IR9EB4RP0OBPST01YVGBKQ","A10249252O9I20MRSOBVF","3GVPRXWRPHGYHD0HW29VLS36FVC7I4","","<img src=""img/set1/S3.jpg"" width=""540"" height = ""360"" style=""border:16px solid orange"">","null","","","","","","","","","",""
"null","","html-keyboard-response","42","141077","0.0-42.0","3LYA37P8IR9EB4RP0OBPST01YVGBKQ","A10249252O9I20MRSOBVF","3GVPRXWRPHGYHD0HW29VLS36FVC7I4","","","null","","","","","","","","","",""
"978.8000000119209","","image-keyboard-response","43","142058","0.0-43.0","3LYA37P8IR9EB4RP0OBPST01YVGBKQ","A10249252O9I20MRSOBVF","3GVPRXWRPHGYHD0HW29VLS36FVC7I4","","img/set1/S2.jpg","68","2","random","68","random,structured_incentive,structured_load,structured_normal","1,2,2,3,4,2","2,1,4,3","true","","",""
"null","","html-keyboard-response","44","142415","0.0-44.0","3LYA37P8IR9EB4RP0OBPST01YVGBKQ","A10249252O9I20MRSOBVF","3GVPRXWRPHGYHD0HW29VLS36FVC7I4","","<img src=""img/set1/S2.jpg"" width=""540"" height = ""360"" style=""border:16px solid orange"">","null","","","","","","","","","",""
"null","","html-keyboard-response","45","142624","0.0-45.0","3LYA37P8IR9EB4RP0OBPST01YVGBKQ","A10249252O9I20MRSOBVF","3GVPRXWRPHGYHD0HW29VLS36FVC7I4","","","null","","","","","","","","","",""
"924.5","","image-keyboard-response","46","143551","0.0-46.0","3LYA37P8IR9EB4RP0OBPST01YVGBKQ","A10249252O9I20MRSOBVF","3GVPRXWRPHGYHD0HW29VLS36FVC7I4","","img/set1/S1.jpg","74","1","random","83","random,structured_incentive,structured_load,structured_normal","1,2,2,3,4,2","2,1,4,3","false","","",""
"null","","html-keyboard-response","47","143910","0.0-47.0","3LYA37P8IR9EB4RP0OBPST01YVGBKQ","A10249252O9I20MRSOBVF","3GVPRXWRPHGYHD0HW29VLS36FVC7I4","","<img src=""img/set1/S1.jpg"" width=""540"" height = ""360"">","null","","","","","","","","","",""
"null","","html-keyboard-response","48","144120","0.0-48.0","3LYA37P8IR9EB4RP0OBPST01YVGBKQ","A10249252O9I20MRSOBVF","3GVPRXWRPHGYHD0HW29VLS36FVC7I4","","","null","","","","","","","","","",""
"1540.0999999642372","","image-keyboard-response","49","145662","0.0-49.0","3LYA37P8IR9EB4RP0OBPST01YVGBKQ","A10249252O9I20MRSOBVF","3GVPRXWRPHGYHD0HW29VLS36FVC7I4","","img/set1/S4.jpg","68","4","random","74","random,structured_incentive,structured_load,structured_normal","1,2,2,3,4,2","2,1,4,3","false","","",""
"null","","html-keyboard-response","50","146017","0.0-50.0","3LYA37P8IR9EB4RP0OBPST01YVGBKQ","A10249252O9I20MRSOBVF","3GVPRXWRPHGYHD0HW29VLS36FVC7I4","","<img src=""img/set1/S4.jpg"" width=""540"" height = ""360"">","null","","","","","","","","","",""
"null","","html-keyboard-response","51","146220","0.0-51.0","3LYA37P8IR9EB4RP0OBPST01YVGBKQ","A10249252O9I20MRSOBVF","3GVPRXWRPHGYHD0HW29VLS36FVC7I4","","","null","","","","","","","","","",""
"948.5","","image-keyboard-response","52","147171","0.0-52.0","3LYA37P8IR9EB4RP0OBPST01YVGBKQ","A10249252O9I20MRSOBVF","3GVPRXWRPHGYHD0HW29VLS36FVC7I4","","img/set1/S1.jpg","68","1","random","83","random,structured_incentive,structured_load,structured_normal","1,2,2,3,4,2","2,1,4,3","false","","",""
"null","","html-keyboard-response","53","147531","0.0-53.0","3LYA37P8IR9EB4RP0OBPST01YVGBKQ","A10249252O9I20MRSOBVF","3GVPRXWRPHGYHD0HW29VLS36FVC7I4","","<img src=""img/set1/S1.jpg"" width=""540"" height = ""360"">","null","","","","","","","","","",""
"null","","html-keyboard-response","54","147736","0.0-54.0","3LYA37P8IR9EB4RP0OBPST01YVGBKQ","A10249252O9I20MRSOBVF","3GVPRXWRPHGYHD0HW29VLS36FVC7I4","","","null","","","","","","","","","",""
"953.2999999523163","","image-keyboard-response","55","148691","0.0-55.0","3LYA37P8IR9EB4RP0OBPST01YVGBKQ","A10249252O9I20MRSOBVF","3GVPRXWRPHGYHD0HW29VLS36FVC7I4","","img/set1/S2.jpg","72","2","random","68","random,structured_incentive,structured_load,structured_normal","1,2,2,3,4,2","2,1,4,3","false","","",""
"null","","html-keyboard-response","56","149060","0.0-56.0","3LYA37P8IR9EB4RP0OBPST01YVGBKQ","A10249252O9I20MRSOBVF","3GVPRXWRPHGYHD0HW29VLS36FVC7I4","","<img src=""img/set1/S2.jpg"" width=""540"" height = ""360"">","null","","","","","","","","","",""
"null","","html-keyboard-response","57","149277","0.0-57.0","3LYA37P8IR9EB4RP0OBPST01YVGBKQ","A10249252O9I20MRSOBVF","3GVPRXWRPHGYHD0HW29VLS36FVC7I4","","","null","","","","","","","","","",""
"920.5","","image-keyboard-response","58","150200","0.0-58.0","3LYA37P8IR9EB4RP0OBPST01YVGBKQ","A10249252O9I20MRSOBVF","3GVPRXWRPHGYHD0HW29VLS36FVC7I4","","img/set1/S2.jpg","74","2","random","68","random,structured_incentive,structured_load,structured_normal","1,2,2,3,4,2","2,1,4,3","false","","",""
"null","","html-keyboard-response","59","150554","0.0-59.0","3LYA37P8IR9EB4RP0OBPST01YVGBKQ","A10249252O9I20MRSOBVF","3GVPRXWRPHGYHD0HW29VLS36FVC7I4","","<img src=""img/set1/S2.jpg"" width=""540"" height = ""360"">","null","","","","","","","","","",""
"null","","html-keyboard-response","60","150758","0.0-60.0","3LYA37P8IR9EB4RP0OBPST01YVGBKQ","A10249252O9I20MRSOBVF","3GVPRXWRPHGYHD0HW29VLS36FVC7I4","","","null","","","","","","","","","",""
"721.1999999880791","","image-keyboard-response","61","151482","0.0-61.0","3LYA37P8IR9EB4RP0OBPST01YVGBKQ","A10249252O9I20MRSOBVF","3GVPRXWRPHGYHD0HW29VLS36FVC7I4","","img/set1/S2.jpg","83","2","random","68","random,structured_incentive,structured_load,structured_normal","1,2,2,3,4,2","2,1,4,3","false","","",""
"null","","html-keyboard-response","62","151844","0.0-62.0","3LYA37P8IR9EB4RP0OBPST01YVGBKQ","A10249252O9I20MRSOBVF","3GVPRXWRPHGYHD0HW29VLS36FVC7I4","","<img src=""img/set1/S2.jpg"" width=""540"" height = ""360"">","null","","","","","","","","","",""
"null","","html-keyboard-response","63","152049","0.0-63.0","3LYA37P8IR9EB4RP0OBPST01YVGBKQ","A10249252O9I20MRSOBVF","3GVPRXWRPHGYHD0HW29VLS36FVC7I4","","","null","","","","","","","","","",""
"1373.300000011921","","image-keyboard-response","64","153424","0.0-64.0","3LYA37P8IR9EB4RP0OBPST01YVGBKQ","A10249252O9I20MRSOBVF","3GVPRXWRPHGYHD0HW29VLS36FVC7I4","","img/set1/S3.jpg","83","3","random","72","random,structured_incentive,structured_load,structured_normal","1,2,2,3,4,2","2,1,4,3","false","","",""
"null","","html-keyboard-response","65","153786","0.0-65.0","3LYA37P8IR9EB4RP0OBPST01YVGBKQ","A10249252O9I20MRSOBVF","3GVPRXWRPHGYHD0HW29VLS36FVC7I4","","<img src=""img/set1/S3.jpg"" width=""540"" height = ""360"">","null","","","","","","","","","",""
"null","","html-keyboard-response","66","154000","0.0-66.0","3LYA37P8IR9EB4RP0OBPST01YVGBKQ","A10249252O9I20MRSOBVF","3GVPRXWRPHGYHD0HW29VLS36FVC7I4","","","null","","","","","","","","","",""
"990.8999999761581","","image-keyboard-response","67","154992","0.0-67.0","3LYA37P8IR9EB4RP0OBPST01YVGBKQ","A10249252O9I20MRSOBVF","3GVPRXWRPHGYHD0HW29VLS36FVC7I4","","img/set1/S3.jpg","68","3","random","72","random,structured_incentive,structured_load,structured_normal","1,2,2,3,4,2","2,1,4,3","false","","",""
"null","","html-keyboard-response","68","155352","0.0-68.0","3LYA37P8IR9EB4RP0OBPST01YVGBKQ","A10249252O9I20MRSOBVF","3GVPRXWRPHGYHD0HW29VLS36FVC7I4","","<img src=""img/set1/S3.jpg"" width=""540"" height = ""360"">","null","","","","","","","","","",""
"null","","html-keyboard-response","69","155560","0.0-69.0","3LYA37P8IR9EB4RP0OBPST01YVGBKQ","A10249252O9I20MRSOBVF","3GVPRXWRPHGYHD0HW29VLS36FVC7I4","","","null","","","","","","","","","",""
"1386.5999999642372","","image-keyboard-response","70","156953","0.0-70.0","3LYA37P8IR9EB4RP0OBPST01YVGBKQ","A10249252O9I20MRSOBVF","3GVPRXWRPHGYHD0HW29VLS36FVC7I4","","img/set1/S1.jpg","74","1","random","83","random,structured_incentive,structured_load,structured_normal","1,2,2,3,4,2","2,1,4,3","false","","",""
"null","","html-keyboard-response","71","157314","0.0-71.0","3LYA37P8IR9EB4RP0OBPST01YVGBKQ","A10249252O9I20MRSOBVF","3GVPRXWRPHGYHD0HW29VLS36FVC7I4","","<img src=""img/set1/S1.jpg"" width=""540"" height = ""360"">","null","","","","","","","","","",""
"null","","html-keyboard-response","72","157522","0.0-72.0","3LYA37P8IR9EB4RP0OBPST01YVGBKQ","A10249252O9I20MRSOBVF","3GVPRXWRPHGYHD0HW29VLS36FVC7I4","","","null","","","","","","","","","",""
"1733.1000000238419","","image-keyboard-response","73","159258","0.0-73.0","3LYA37P8IR9EB4RP0OBPST01YVGBKQ","A10249252O9I20MRSOBVF","3GVPRXWRPHGYHD0HW29VLS36FVC7I4","","img/set1/S4.jpg","83","4","random","74","random,structured_incentive,structured_load,structured_normal","1,2,2,3,4,2","2,1,4,3","false","","",""
"null","","html-keyboard-response","74","159616","0.0-74.0","3LYA37P8IR9EB4RP0OBPST01YVGBKQ","A10249252O9I20MRSOBVF","3GVPRXWRPHGYHD0HW29VLS36FVC7I4","","<img src=""img/set1/S4.jpg"" width=""540"" height = ""360"">","null","","","","","","","","","",""
"null","","html-keyboard-response","75","159821","0.0-75.0","3LYA37P8IR9EB4RP0OBPST01YVGBKQ","A10249252O9I20MRSOBVF","3GVPRXWRPHGYHD0HW29VLS36FVC7I4","","","null","","","","","","","","","",""
"1200.2999999523163","","image-keyboard-response","76","161023","0.0-76.0","3LYA37P8IR9EB4RP0OBPST01YVGBKQ","A10249252O9I20MRSOBVF","3GVPRXWRPHGYHD0HW29VLS36FVC7I4","","img/set1/S2.jpg","68","2","random","68","random,structured_incentive,structured_load,structured_normal","1,2,2,3,4,2","2,1,4,3","true","","",""
"null","","html-keyboard-response","77","161384","0.0-77.0","3LYA37P8IR9EB4RP0OBPST01YVGBKQ","A10249252O9I20MRSOBVF","3GVPRXWRPHGYHD0HW29VLS36FVC7I4","","<img src=""img/set1/S2.jpg"" width=""540"" height = ""360"" style=""border:16px solid orange"">","null","","","","","","","","","",""
"null","","html-keyboard-response","78","161587","0.0-78.0","3LYA37P8IR9EB4RP0OBPST01YVGBKQ","A10249252O9I20MRSOBVF","3GVPRXWRPHGYHD0HW29VLS36FVC7I4","","","null","","","","","","","","","",""
"1806.3999999761581","","image-keyboard-response","79","163396","0.0-79.0","3LYA37P8IR9EB4RP0OBPST01YVGBKQ","A10249252O9I20MRSOBVF","3GVPRXWRPHGYHD0HW29VLS36FVC7I4","","img/set1/S3.jpg","74","3","random","72","random,structured_incentive,structured_load,structured_normal","1,2,2,3,4,2","2,1,4,3","false","","",""
"null","","html-keyboard-response","80","163757","0.0-80.0","3LYA37P8IR9EB4RP0OBPST01YVGBKQ","A10249252O9I20MRSOBVF","3GVPRXWRPHGYHD0HW29VLS36FVC7I4","","<img src=""img/set1/S3.jpg"" width=""540"" height = ""360"">","null","","","","","","","","","",""
"null","","html-keyboard-response","81","163972","0.0-81.0","3LYA37P8IR9EB4RP0OBPST01YVGBKQ","A10249252O9I20MRSOBVF","3GVPRXWRPHGYHD0HW29VLS36FVC7I4","","","null","","","","","","","","","",""
"966.1000000238419","","image-keyboard-response","82","164940","0.0-82.0","3LYA37P8IR9EB4RP0OBPST01YVGBKQ","A10249252O9I20MRSOBVF","3GVPRXWRPHGYHD0HW29VLS36FVC7I4","","img/set1/S2.jpg","68","2","random","68","random,structured_incentive,structured_load,structured_normal","1,2,2,3,4,2","2,1,4,3","true","","",""
"null","","html-keyboard-response","83","165296","0.0-83.0","3LYA37P8IR9EB4RP0OBPST01YVGBKQ","A10249252O9I20MRSOBVF","3GVPRXWRPHGYHD0HW29VLS36FVC7I4","","<img src=""img/set1/S2.jpg"" width=""540"" height = ""360"" style=""border:16px solid orange"">","null","","","","","","","","","",""
"null","","html-keyboard-response","84","165500","0.0-84.0","3LYA37P8IR9EB4RP0OBPST01YVGBKQ","A10249252O9I20MRSOBVF","3GVPRXWRPHGYHD0HW29VLS36FVC7I4","","","null","","","","","","","","","",""
"705.3000000119209","","image-keyboard-response","85","166206","0.0-85.0","3LYA37P8IR9EB4RP0OBPST01YVGBKQ","A10249252O9I20MRSOBVF","3GVPRXWRPHGYHD0HW29VLS36FVC7I4","","img/set1/S4.jpg","83","4","random","74","random,structured_incentive,structured_load,structured_normal","1,2,2,3,4,2","2,1,4,3","false","","",""
"null","","html-keyboard-response","86","166566","0.0-86.0","3LYA37P8IR9EB4RP0OBPST01YVGBKQ","A10249252O9I20MRSOBVF","3GVPRXWRPHGYHD0HW29VLS36FVC7I4","","<img src=""img/set1/S4.jpg"" width=""540"" height = ""360"">","null","","","","","","","","","",""
"null","","html-keyboard-response","87","166772","0.0-87.0","3LYA37P8IR9EB4RP0OBPST01YVGBKQ","A10249252O9I20MRSOBVF","3GVPRXWRPHGYHD0HW29VLS36FVC7I4","","","null","","","","","","","","","",""
"954.1000000238419","","image-keyboard-response","88","167729","0.0-88.0","3LYA37P8IR9EB4RP0OBPST01YVGBKQ","A10249252O9I20MRSOBVF","3GVPRXWRPHGYHD0HW29VLS36FVC7I4","","img/set1/S2.jpg","68","2","random","68","random,structured_incentive,structured_load,structured_normal","1,2,2,3,4,2","2,1,4,3","true","","",""
"null","","html-keyboard-response","89","168091","0.0-89.0","3LYA37P8IR9EB4RP0OBPST01YVGBKQ","A10249252O9I20MRSOBVF","3GVPRXWRPHGYHD0HW29VLS36FVC7I4","","<img src=""img/set1/S2.jpg"" width=""540"" height = ""360"" style=""border:16px solid orange"">","null","","","","","","","","","",""
"null","","html-keyboard-response","90","168297","0.0-90.0","3LYA37P8IR9EB4RP0OBPST01YVGBKQ","A10249252O9I20MRSOBVF","3GVPRXWRPHGYHD0HW29VLS36FVC7I4","","","null","","","","","","","","","",""
"721.0999999642372","","image-keyboard-response","91","169020","0.0-91.0","3LYA37P8IR9EB4RP0OBPST01YVGBKQ","A10249252O9I20MRSOBVF","3GVPRXWRPHGYHD0HW29VLS36FVC7I4","","img/set1/S3.jpg","72","3","random","72","random,structured_incentive,structured_load,structured_normal","1,2,2,3,4,2","2,1,4,3","true","","",""
"null","","html-keyboard-response","92","169378","0.0-92.0","3LYA37P8IR9EB4RP0OBPST01YVGBKQ","A10249252O9I20MRSOBVF","3GVPRXWRPHGYHD0HW29VLS36FVC7I4","","<img src=""img/set1/S3.jpg"" width=""540"" height = ""360"" style=""border:16px solid orange"">","null","","","","","","","","","",""
"null","","html-keyboard-response","93","169588","0.0-93.0","3LYA37P8IR9EB4RP0OBPST01YVGBKQ","A10249252O9I20MRSOBVF","3GVPRXWRPHGYHD0HW29VLS36FVC7I4","","","null","","","","","","","","","",""
"1203.6000000238419","","image-keyboard-response","94","170794","0.0-94.0","3LYA37P8IR9EB4RP0OBPST01YVGBKQ","A10249252O9I20MRSOBVF","3GVPRXWRPHGYHD0HW29VLS36FVC7I4","","img/set1/S1.jpg","74","1","random","83","random,structured_incentive,structured_load,structured_normal","1,2,2,3,4,2","2,1,4,3","false","","",""
"null","","html-keyboard-response","95","171156","0.0-95.0","3LYA37P8IR9EB4RP0OBPST01YVGBKQ","A10249252O9I20MRSOBVF","3GVPRXWRPHGYHD0HW29VLS36FVC7I4","","<img src=""img/set1/S1.jpg"" width=""540"" height = ""360"">","null","","","","","","","","","",""
"null","","html-keyboard-response","96","171360","0.0-96.0","3LYA37P8IR9EB4RP0OBPST01YVGBKQ","A10249252O9I20MRSOBVF","3GVPRXWRPHGYHD0HW29VLS36FVC7I4","","","null","","","","","","","","","",""
"1382","","image-keyboard-response","97","172744","0.0-97.0","3LYA37P8IR9EB4RP0OBPST01YVGBKQ","A10249252O9I20MRSOBVF","3GVPRXWRPHGYHD0HW29VLS36FVC7I4","","img/set1/S4.jpg","72","4","random","74","random,structured_incentive,structured_load,structured_normal","1,2,2,3,4,2","2,1,4,3","false","","",""
"null","","html-keyboard-response","98","173108","0.0-98.0","3LYA37P8IR9EB4RP0OBPST01YVGBKQ","A10249252O9I20MRSOBVF","3GVPRXWRPHGYHD0HW29VLS36FVC7I4","","<img src=""img/set1/S4.jpg"" width=""540"" height = ""360"">","null","","","","","","","","","",""
"null","","html-keyboard-response","99","173317","0.0-99.0","3LYA37P8IR9EB4RP0OBPST01YVGBKQ","A10249252O9I20MRSOBVF","3GVPRXWRPHGYHD0HW29VLS36FVC7I4","","","null","","","","","","","","","",""
"1104.199999988079","","image-keyboard-response","100","174425","0.0-100.0","3LYA37P8IR9EB4RP0OBPST01YVGBKQ","A10249252O9I20MRSOBVF","3GVPRXWRPHGYHD0HW29VLS36FVC7I4","","img/set1/S2.jpg","68","2","random","68","random,structured_incentive,structured_load,structured_normal","1,2,2,3,4,2","2,1,4,3","true","","",""
"null","","html-keyboard-response","101","174790","0.0-101.0","3LYA37P8IR9EB4RP0OBPST01YVGBKQ","A10249252O9I20MRSOBVF","3GVPRXWRPHGYHD0HW29VLS36FVC7I4","","<img src=""img/set1/S2.jpg"" width=""540"" height = ""360"" style=""border:16px solid orange"">","null","","","","","","","","","",""
"null","","html-keyboard-response","102","175000","0.0-102.0","3LYA37P8IR9EB4RP0OBPST01YVGBKQ","A10249252O9I20MRSOBVF","3GVPRXWRPHGYHD0HW29VLS36FVC7I4","","","null","","","","","","","","","",""
"921.5999999642372","","image-keyboard-response","103","175925","0.0-103.0","3LYA37P8IR9EB4RP0OBPST01YVGBKQ","A10249252O9I20MRSOBVF","3GVPRXWRPHGYHD0HW29VLS36FVC7I4","","img/set1/S3.jpg","72","3","random","72","random,structured_incentive,structured_load,structured_normal","1,2,2,3,4,2","2,1,4,3","true","","",""
"null","","html-keyboard-response","104","176287","0.0-104.0","3LYA37P8IR9EB4RP0OBPST01YVGBKQ","A10249252O9I20MRSOBVF","3GVPRXWRPHGYHD0HW29VLS36FVC7I4","","<img src=""img/set1/S3.jpg"" width=""540"" height = ""360"" style=""border:16px solid orange"">","null","","","","","","","","","",""
"null","","html-keyboard-response","105","176493","0.0-105.0","3LYA37P8IR9EB4RP0OBPST01YVGBKQ","A10249252O9I20MRSOBVF","3GVPRXWRPHGYHD0HW29VLS36FVC7I4","","","null","","","","","","","","","",""
"1015.8000000119209","","image-keyboard-response","106","177510","0.0-106.0","3LYA37P8IR9EB4RP0OBPST01YVGBKQ","A10249252O9I20MRSOBVF","3GVPRXWRPHGYHD0HW29VLS36FVC7I4","","img/set1/S1.jpg","83","1","random","83","random,structured_incentive,structured_load,structured_normal","1,2,2,3,4,2","2,1,4,3","true","","",""
"null","","html-keyboard-response","107","177871","0.0-107.0","3LYA37P8IR9EB4RP0OBPST01YVGBKQ","A10249252O9I20MRSOBVF","3GVPRXWRPHGYHD0HW29VLS36FVC7I4","","<img src=""img/set1/S1.jpg"" width=""540"" height = ""360"" style=""border:16px solid orange"">","null","","","","","","","","","",""
"null","","html-keyboard-response","108","178085","0.0-108.0","3LYA37P8IR9EB4RP0OBPST01YVGBKQ","A10249252O9I20MRSOBVF","3GVPRXWRPHGYHD0HW29VLS36FVC7I4","","","null","","","","","","","","","",""
"811.6999999880791","","image-keyboard-response","109","178899","0.0-109.0","3LYA37P8IR9EB4RP0OBPST01YVGBKQ","A10249252O9I20MRSOBVF","3GVPRXWRPHGYHD0HW29VLS36FVC7I4","","img/set1/S4.jpg","74","4","random","74","random,structured_incentive,structured_load,structured_normal","1,2,2,3,4,2","2,1,4,3","true","","",""
"null","","html-keyboard-response","110","179257","0.0-110.0","3LYA37P8IR9EB4RP0OBPST01YVGBKQ","A10249252O9I20MRSOBVF","3GVPRXWRPHGYHD0HW29VLS36FVC7I4","","<img src=""img/set1/S4.jpg"" width=""540"" height = ""360"" style=""border:16px solid orange"">","null","","","","","","","","","",""
"null","","html-keyboard-response","111","179463","0.0-111.0","3LYA37P8IR9EB4RP0OBPST01YVGBKQ","A10249252O9I20MRSOBVF","3GVPRXWRPHGYHD0HW29VLS36FVC7I4","","","null","","","","","","","","","",""
"928.8000000119209","","image-keyboard-response","112","180394","0.0-112.0","3LYA37P8IR9EB4RP0OBPST01YVGBKQ","A10249252O9I20MRSOBVF","3GVPRXWRPHGYHD0HW29VLS36FVC7I4","","img/set1/S2.jpg","68","2","random","68","random,structured_incentive,structured_load,structured_normal","1,2,2,3,4,2","2,1,4,3","true","","",""
"null","","html-keyboard-response","113","180755","0.0-113.0","3LYA37P8IR9EB4RP0OBPST01YVGBKQ","A10249252O9I20MRSOBVF","3GVPRXWRPHGYHD0HW29VLS36FVC7I4","","<img src=""img/set1/S2.jpg"" width=""540"" height = ""360"" style=""border:16px solid orange"">","null","","","","","","","","","",""
"null","","html-keyboard-response","114","180959","0.0-114.0","3LYA37P8IR9EB4RP0OBPST01YVGBKQ","A10249252O9I20MRSOBVF","3GVPRXWRPHGYHD0HW29VLS36FVC7I4","","","null","","","","","","","","","",""
"961.8000000119209","","image-keyboard-response","115","181923","0.0-115.0","3LYA37P8IR9EB4RP0OBPST01YVGBKQ","A10249252O9I20MRSOBVF","3GVPRXWRPHGYHD0HW29VLS36FVC7I4","","img/set1/S1.jpg","83","1","random","83","random,structured_incentive,structured_load,structured_normal","1,2,2,3,4,2","2,1,4,3","true","","",""
"null","","html-keyboard-response","116","182280","0.0-116.0","3LYA37P8IR9EB4RP0OBPST01YVGBKQ","A10249252O9I20MRSOBVF","3GVPRXWRPHGYHD0HW29VLS36FVC7I4","","<img src=""img/set1/S1.jpg"" width=""540"" height = ""360"" style=""border:16px solid orange"">","null","","","","","","","","","",""
"null","","html-keyboard-response","117","182490","0.0-117.0","3LYA37P8IR9EB4RP0OBPST01YVGBKQ","A10249252O9I20MRSOBVF","3GVPRXWRPHGYHD0HW29VLS36FVC7I4","","","null","","","","","","","","","",""
"917.1999999880791","","image-keyboard-response","118","183408","0.0-118.0","3LYA37P8IR9EB4RP0OBPST01YVGBKQ","A10249252O9I20MRSOBVF","3GVPRXWRPHGYHD0HW29VLS36FVC7I4","","img/set1/S3.jpg","72","3","random","72","random,structured_incentive,structured_load,structured_normal","1,2,2,3,4,2","2,1,4,3","true","","",""
"null","","html-keyboard-response","119","183767","0.0-119.0","3LYA37P8IR9EB4RP0OBPST01YVGBKQ","A10249252O9I20MRSOBVF","3GVPRXWRPHGYHD0HW29VLS36FVC7I4","","<img src=""img/set1/S3.jpg"" width=""540"" height = ""360"" style=""border:16px solid orange"">","null","","","","","","","","","",""
"null","","html-keyboard-response","120","183974","0.0-120.0","3LYA37P8IR9EB4RP0OBPST01YVGBKQ","A10249252O9I20MRSOBVF","3GVPRXWRPHGYHD0HW29VLS36FVC7I4","","","null","","","","","","","","","",""
"887.9000000357628","","image-keyboard-response","121","184864","0.0-121.0","3LYA37P8IR9EB4RP0OBPST01YVGBKQ","A10249252O9I20MRSOBVF","3GVPRXWRPHGYHD0HW29VLS36FVC7I4","","img/set1/S1.jpg","83","1","random","83","random,structured_incentive,structured_load,structured_normal","1,2,2,3,4,2","2,1,4,3","true","","",""
"null","","html-keyboard-response","122","185224","0.0-122.0","3LYA37P8IR9EB4RP0OBPST01YVGBKQ","A10249252O9I20MRSOBVF","3GVPRXWRPHGYHD0HW29VLS36FVC7I4","","<img src=""img/set1/S1.jpg"" width=""540"" height = ""360"" style=""border:16px solid orange"">","null","","","","","","","","","",""
"null","","html-keyboard-response","123","185434","0.0-123.0","3LYA37P8IR9EB4RP0OBPST01YVGBKQ","A10249252O9I20MRSOBVF","3GVPRXWRPHGYHD0HW29VLS36FVC7I4","","","null","","","","","","","","","",""
"902.0999999642372","","image-keyboard-response","124","186339","0.0-124.0","3LYA37P8IR9EB4RP0OBPST01YVGBKQ","A10249252O9I20MRSOBVF","3GVPRXWRPHGYHD0HW29VLS36FVC7I4","","img/set1/S4.jpg","74","4","random","74","random,structured_incentive,structured_load,structured_normal","1,2,2,3,4,2","2,1,4,3","true","","",""
"null","","html-keyboard-response","125","186693","0.0-125.0","3LYA37P8IR9EB4RP0OBPST01YVGBKQ","A10249252O9I20MRSOBVF","3GVPRXWRPHGYHD0HW29VLS36FVC7I4","","<img src=""img/set1/S4.jpg"" width=""540"" height = ""360"" style=""border:16px solid orange"">","null","","","","","","","","","",""
"null","","html-keyboard-response","126","186901","0.0-126.0","3LYA37P8IR9EB4RP0OBPST01YVGBKQ","A10249252O9I20MRSOBVF","3GVPRXWRPHGYHD0HW29VLS36FVC7I4","","","null","","","","","","","","","",""
"712.9000000357628","","image-keyboard-response","127","187617","0.0-127.0","3LYA37P8IR9EB4RP0OBPST01YVGBKQ","A10249252O9I20MRSOBVF","3GVPRXWRPHGYHD0HW29VLS36FVC7I4","","img/set1/S2.jpg","68","2","random","68","random,structured_incentive,structured_load,structured_normal","1,2,2,3,4,2","2,1,4,3","true","","",""
"null","","html-keyboard-response","128","187981","0.0-128.0","3LYA37P8IR9EB4RP0OBPST01YVGBKQ","A10249252O9I20MRSOBVF","3GVPRXWRPHGYHD0HW29VLS36FVC7I4","","<img src=""img/set1/S2.jpg"" width=""540"" height = ""360"" style=""border:16px solid orange"">","null","","","","","","","","","",""
"null","","html-keyboard-response","129","188186","0.0-129.0","3LYA37P8IR9EB4RP0OBPST01YVGBKQ","A10249252O9I20MRSOBVF","3GVPRXWRPHGYHD0HW29VLS36FVC7I4","","","null","","","","","","","","","",""
"1693.300000011921","","image-keyboard-response","130","189882","0.0-130.0","3LYA37P8IR9EB4RP0OBPST01YVGBKQ","A10249252O9I20MRSOBVF","3GVPRXWRPHGYHD0HW29VLS36FVC7I4","","img/set1/S3.jpg","83","3","random","72","random,structured_incentive,structured_load,structured_normal","1,2,2,3,4,2","2,1,4,3","false","","",""
"null","","html-keyboard-response","131","190239","0.0-131.0","3LYA37P8IR9EB4RP0OBPST01YVGBKQ","A10249252O9I20MRSOBVF","3GVPRXWRPHGYHD0HW29VLS36FVC7I4","","<img src=""img/set1/S3.jpg"" width=""540"" height = ""360"">","null","","","","","","","","","",""
"null","","html-keyboard-response","132","190448","0.0-132.0","3LYA37P8IR9EB4RP0OBPST01YVGBKQ","A10249252O9I20MRSOBVF","3GVPRXWRPHGYHD0HW29VLS36FVC7I4","","","null","","","","","","","","","",""
"1110.5","","image-keyboard-response","133","191560","0.0-133.0","3LYA37P8IR9EB4RP0OBPST01YVGBKQ","A10249252O9I20MRSOBVF","3GVPRXWRPHGYHD0HW29VLS36FVC7I4","","img/set1/S3.jpg","74","3","random","72","random,structured_incentive,structured_load,structured_normal","1,2,2,3,4,2","2,1,4,3","false","","",""
"null","","html-keyboard-response","134","191918","0.0-134.0","3LYA37P8IR9EB4RP0OBPST01YVGBKQ","A10249252O9I20MRSOBVF","3GVPRXWRPHGYHD0HW29VLS36FVC7I4","","<img src=""img/set1/S3.jpg"" width=""540"" height = ""360"">","null","","","","","","","","","",""
"null","","html-keyboard-response","135","192129","0.0-135.0","3LYA37P8IR9EB4RP0OBPST01YVGBKQ","A10249252O9I20MRSOBVF","3GVPRXWRPHGYHD0HW29VLS36FVC7I4","","","null","","","","","","","","","",""
"915.1000000238419","","image-keyboard-response","136","193046","0.0-136.0","3LYA37P8IR9EB4RP0OBPST01YVGBKQ","A10249252O9I20MRSOBVF","3GVPRXWRPHGYHD0HW29VLS36FVC7I4","","img/set1/S1.jpg","83","1","random","83","random,structured_incentive,structured_load,structured_normal","1,2,2,3,4,2","2,1,4,3","true","","",""
"null","","html-keyboard-response","137","193408","0.0-137.0","3LYA37P8IR9EB4RP0OBPST01YVGBKQ","A10249252O9I20MRSOBVF","3GVPRXWRPHGYHD0HW29VLS36FVC7I4","","<img src=""img/set1/S1.jpg"" width=""540"" height = ""360"" style=""border:16px solid orange"">","null","","","","","","","","","",""
"null","","html-keyboard-response","138","193616","0.0-138.0","3LYA37P8IR9EB4RP0OBPST01YVGBKQ","A10249252O9I20MRSOBVF","3GVPRXWRPHGYHD0HW29VLS36FVC7I4","","","null","","","","","","","","","",""
"766.1999999880791","","image-keyboard-response","139","194384","0.0-139.0","3LYA37P8IR9EB4RP0OBPST01YVGBKQ","A10249252O9I20MRSOBVF","3GVPRXWRPHGYHD0HW29VLS36FVC7I4","","img/set1/S4.jpg","72","4","random","74","random,structured_incentive,structured_load,structured_normal","1,2,2,3,4,2","2,1,4,3","false","","",""
"null","","html-keyboard-response","140","194741","0.0-140.0","3LYA37P8IR9EB4RP0OBPST01YVGBKQ","A10249252O9I20MRSOBVF","3GVPRXWRPHGYHD0HW29VLS36FVC7I4","","<img src=""img/set1/S4.jpg"" width=""540"" height = ""360"">","null","","","","","","","","","",""
"null","","html-keyboard-response","141","194952","0.0-141.0","3LYA37P8IR9EB4RP0OBPST01YVGBKQ","A10249252O9I20MRSOBVF","3GVPRXWRPHGYHD0HW29VLS36FVC7I4","","","null","","","","","","","","","",""
"801.6999999880791","","image-keyboard-response","142","195756","0.0-142.0","3LYA37P8IR9EB4RP0OBPST01YVGBKQ","A10249252O9I20MRSOBVF","3GVPRXWRPHGYHD0HW29VLS36FVC7I4","","img/set1/S4.jpg","74","4","random","74","random,structured_incentive,structured_load,structured_normal","1,2,2,3,4,2","2,1,4,3","true","","",""
"null","","html-keyboard-response","143","196115","0.0-143.0","3LYA37P8IR9EB4RP0OBPST01YVGBKQ","A10249252O9I20MRSOBVF","3GVPRXWRPHGYHD0HW29VLS36FVC7I4","","<img src=""img/set1/S4.jpg"" width=""540"" height = ""360"" style=""border:16px solid orange"">","null","","","","","","","","","",""
"null","","html-keyboard-response","144","196325","0.0-144.0","3LYA37P8IR9EB4RP0OBPST01YVGBKQ","A10249252O9I20MRSOBVF","3GVPRXWRPHGYHD0HW29VLS36FVC7I4","","","null","","","","","","","","","",""
"748.1000000238419","","image-keyboard-response","145","197075","0.0-145.0","3LYA37P8IR9EB4RP0OBPST01YVGBKQ","A10249252O9I20MRSOBVF","3GVPRXWRPHGYHD0HW29VLS36FVC7I4","","img/set1/S2.jpg","68","2","random","68","random,structured_incentive,structured_load,structured_normal","1,2,2,3,4,2","2,1,4,3","true","","",""
"null","","html-keyboard-response","146","197431","0.0-146.0","3LYA37P8IR9EB4RP0OBPST01YVGBKQ","A10249252O9I20MRSOBVF","3GVPRXWRPHGYHD0HW29VLS36FVC7I4","","<img src=""img/set1/S2.jpg"" width=""540"" height = ""360"" style=""border:16px solid orange"">","null","","","","","","","","","",""
"null","","html-keyboard-response","147","197639","0.0-147.0","3LYA37P8IR9EB4RP0OBPST01YVGBKQ","A10249252O9I20MRSOBVF","3GVPRXWRPHGYHD0HW29VLS36FVC7I4","","","null","","","","","","","","","",""
"817.2999999523163","","image-keyboard-response","148","198458","0.0-148.0","3LYA37P8IR9EB4RP0OBPST01YVGBKQ","A10249252O9I20MRSOBVF","3GVPRXWRPHGYHD0HW29VLS36FVC7I4","","img/set1/S3.jpg","72","3","random","72","random,structured_incentive,structured_load,structured_normal","1,2,2,3,4,2","2,1,4,3","true","","",""
"null","","html-keyboard-response","149","198820","0.0-149.0","3LYA37P8IR9EB4RP0OBPST01YVGBKQ","A10249252O9I20MRSOBVF","3GVPRXWRPHGYHD0HW29VLS36FVC7I4","","<img src=""img/set1/S3.jpg"" width=""540"" height = ""360"" style=""border:16px solid orange"">","null","","","","","","","","","",""
"null","","html-keyboard-response","150","199033","0.0-150.0","3LYA37P8IR9EB4RP0OBPST01YVGBKQ","A10249252O9I20MRSOBVF","3GVPRXWRPHGYHD0HW29VLS36FVC7I4","","","null","","","","","","","","","",""
"748.5","","image-keyboard-response","151","199784","0.0-151.0","3LYA37P8IR9EB4RP0OBPST01YVGBKQ","A10249252O9I20MRSOBVF","3GVPRXWRPHGYHD0HW29VLS36FVC7I4","","img/set1/S3.jpg","72","3","random","72","random,structured_incentive,structured_load,structured_normal","1,2,2,3,4,2","2,1,4,3","true","","",""
"null","","html-keyboard-response","152","200142","0.0-152.0","3LYA37P8IR9EB4RP0OBPST01YVGBKQ","A10249252O9I20MRSOBVF","3GVPRXWRPHGYHD0HW29VLS36FVC7I4","","<img src=""img/set1/S3.jpg"" width=""540"" height = ""360"" style=""border:16px solid orange"">","null","","","","","","","","","",""
"null","","html-keyboard-response","153","200345","0.0-153.0","3LYA37P8IR9EB4RP0OBPST01YVGBKQ","A10249252O9I20MRSOBVF","3GVPRXWRPHGYHD0HW29VLS36FVC7I4","","","null","","","","","","","","","",""
"774.1000000238419","","image-keyboard-response","154","201123","0.0-154.0","3LYA37P8IR9EB4RP0OBPST01YVGBKQ","A10249252O9I20MRSOBVF","3GVPRXWRPHGYHD0HW29VLS36FVC7I4","","img/set1/S2.jpg","68","2","random","68","random,structured_incentive,structured_load,structured_normal","1,2,2,3,4,2","2,1,4,3","true","","",""
"null","","html-keyboard-response","155","201493","0.0-155.0","3LYA37P8IR9EB4RP0OBPST01YVGBKQ","A10249252O9I20MRSOBVF","3GVPRXWRPHGYHD0HW29VLS36FVC7I4","","<img src=""img/set1/S2.jpg"" width=""540"" height = ""360"" style=""border:16px solid orange"">","null","","","","","","","","","",""
"null","","html-keyboard-response","156","201706","0.0-156.0","3LYA37P8IR9EB4RP0OBPST01YVGBKQ","A10249252O9I20MRSOBVF","3GVPRXWRPHGYHD0HW29VLS36FVC7I4","","","null","","","","","","","","","",""
"790","","image-keyboard-response","157","202498","0.0-157.0","3LYA37P8IR9EB4RP0OBPST01YVGBKQ","A10249252O9I20MRSOBVF","3GVPRXWRPHGYHD0HW29VLS36FVC7I4","","img/set1/S4.jpg","74","4","random","74","random,structured_incentive,structured_load,structured_normal","1,2,2,3,4,2","2,1,4,3","true","","",""
"null","","html-keyboard-response","158","202853","0.0-158.0","3LYA37P8IR9EB4RP0OBPST01YVGBKQ","A10249252O9I20MRSOBVF","3GVPRXWRPHGYHD0HW29VLS36FVC7I4","","<img src=""img/set1/S4.jpg"" width=""540"" height = ""360"" style=""border:16px solid orange"">","null","","","","","","","","","",""
"null","","html-keyboard-response","159","203063","0.0-159.0","3LYA37P8IR9EB4RP0OBPST01YVGBKQ","A10249252O9I20MRSOBVF","3GVPRXWRPHGYHD0HW29VLS36FVC7I4","","","null","","","","","","","","","",""
"893.3000000119209","","image-keyboard-response","160","203958","0.0-160.0","3LYA37P8IR9EB4RP0OBPST01YVGBKQ","A10249252O9I20MRSOBVF","3GVPRXWRPHGYHD0HW29VLS36FVC7I4","","img/set1/S1.jpg","83","1","random","83","random,structured_incentive,structured_load,structured_normal","1,2,2,3,4,2","2,1,4,3","true","","",""
"null","","html-keyboard-response","161","204313","0.0-161.0","3LYA37P8IR9EB4RP0OBPST01YVGBKQ","A10249252O9I20MRSOBVF","3GVPRXWRPHGYHD0HW29VLS36FVC7I4","","<img src=""img/set1/S1.jpg"" width=""540"" height = ""360"" style=""border:16px solid orange"">","null","","","","","","","","","",""
"null","","html-keyboard-response","162","204520","0.0-162.0","3LYA37P8IR9EB4RP0OBPST01YVGBKQ","A10249252O9I20MRSOBVF","3GVPRXWRPHGYHD0HW29VLS36FVC7I4","","","null","","","","","","","","","",""
"1586.7999999523163","","image-keyboard-response","163","206110","0.0-163.0","3LYA37P8IR9EB4RP0OBPST01YVGBKQ","A10249252O9I20MRSOBVF","3GVPRXWRPHGYHD0HW29VLS36FVC7I4","","img/set1/S3.jpg","72","3","random","72","random,structured_incentive,structured_load,structured_normal","1,2,2,3,4,2","2,1,4,3","true","","",""
"null","","html-keyboard-response","164","206471","0.0-164.0","3LYA37P8IR9EB4RP0OBPST01YVGBKQ","A10249252O9I20MRSOBVF","3GVPRXWRPHGYHD0HW29VLS36FVC7I4","","<img src=""img/set1/S3.jpg"" width=""540"" height = ""360"" style=""border:16px solid orange"">","null","","","","","","","","","",""
"null","","html-keyboard-response","165","206675","0.0-165.0","3LYA37P8IR9EB4RP0OBPST01YVGBKQ","A10249252O9I20MRSOBVF","3GVPRXWRPHGYHD0HW29VLS36FVC7I4","","","null","","","","","","","","","",""
"670.1000000238419","","image-keyboard-response","166","207347","0.0-166.0","3LYA37P8IR9EB4RP0OBPST01YVGBKQ","A10249252O9I20MRSOBVF","3GVPRXWRPHGYHD0HW29VLS36FVC7I4","","img/set1/S2.jpg","68","2","random","68","random,structured_incentive,structured_load,structured_normal","1,2,2,3,4,2","2,1,4,3","true","","",""
"null","","html-keyboard-response","167","207701","0.0-167.0","3LYA37P8IR9EB4RP0OBPST01YVGBKQ","A10249252O9I20MRSOBVF","3GVPRXWRPHGYHD0HW29VLS36FVC7I4","","<img src=""img/set1/S2.jpg"" width=""540"" height = ""360"" style=""border:16px solid orange"">","null","","","","","","","","","",""
"null","","html-keyboard-response","168","207909","0.0-168.0","3LYA37P8IR9EB4RP0OBPST01YVGBKQ","A10249252O9I20MRSOBVF","3GVPRXWRPHGYHD0HW29VLS36FVC7I4","","","null","","","","","","","","","",""
"751","","image-keyboard-response","169","208663","0.0-169.0","3LYA37P8IR9EB4RP0OBPST01YVGBKQ","A10249252O9I20MRSOBVF","3GVPRXWRPHGYHD0HW29VLS36FVC7I4","","img/set1/S4.jpg","74","4","random","74","random,structured_incentive,structured_load,structured_normal","1,2,2,3,4,2","2,1,4,3","true","","",""
"null","","html-keyboard-response","170","209023","0.0-170.0","3LYA37P8IR9EB4RP0OBPST01YVGBKQ","A10249252O9I20MRSOBVF","3GVPRXWRPHGYHD0HW29VLS36FVC7I4","","<img src=""img/set1/S4.jpg"" width=""540"" height = ""360"" style=""border:16px solid orange"">","null","","","","","","","","","",""
"null","","html-keyboard-response","171","209236","0.0-171.0","3LYA37P8IR9EB4RP0OBPST01YVGBKQ","A10249252O9I20MRSOBVF","3GVPRXWRPHGYHD0HW29VLS36FVC7I4","","","null","","","","","","","","","",""
"1282.199999988079","","image-keyboard-response","172","210520","0.0-172.0","3LYA37P8IR9EB4RP0OBPST01YVGBKQ","A10249252O9I20MRSOBVF","3GVPRXWRPHGYHD0HW29VLS36FVC7I4","","img/set1/S3.jpg","72","3","random","72","random,structured_incentive,structured_load,structured_normal","1,2,2,3,4,2","2,1,4,3","true","","",""
"null","","html-keyboard-response","173","210880","0.0-173.0","3LYA37P8IR9EB4RP0OBPST01YVGBKQ","A10249252O9I20MRSOBVF","3GVPRXWRPHGYHD0HW29VLS36FVC7I4","","<img src=""img/set1/S3.jpg"" width=""540"" height = ""360"" style=""border:16px solid orange"">","null","","","","","","","","","",""
"null","","html-keyboard-response","174","211097","0.0-174.0","3LYA37P8IR9EB4RP0OBPST01YVGBKQ","A10249252O9I20MRSOBVF","3GVPRXWRPHGYHD0HW29VLS36FVC7I4","","","null","","","","","","","","","",""
"1115.7000000476837","","image-keyboard-response","175","212215","0.0-175.0","3LYA37P8IR9EB4RP0OBPST01YVGBKQ","A10249252O9I20MRSOBVF","3GVPRXWRPHGYHD0HW29VLS36FVC7I4","","img/set1/S2.jpg","68","2","random","68","random,structured_incentive,structured_load,structured_normal","1,2,2,3,4,2","2,1,4,3","true","","",""
"null","","html-keyboard-response","176","212569","0.0-176.0","3LYA37P8IR9EB4RP0OBPST01YVGBKQ","A10249252O9I20MRSOBVF","3GVPRXWRPHGYHD0HW29VLS36FVC7I4","","<img src=""img/set1/S2.jpg"" width=""540"" height = ""360"" style=""border:16px solid orange"">","null","","","","","","","","","",""
"null","","html-keyboard-response","177","212774","0.0-177.0","3LYA37P8IR9EB4RP0OBPST01YVGBKQ","A10249252O9I20MRSOBVF","3GVPRXWRPHGYHD0HW29VLS36FVC7I4","","","null","","","","","","","","","",""
"1216.8999999761581","","image-keyboard-response","178","213993","0.0-178.0","3LYA37P8IR9EB4RP0OBPST01YVGBKQ","A10249252O9I20MRSOBVF","3GVPRXWRPHGYHD0HW29VLS36FVC7I4","","img/set1/S1.jpg","83","1","random","83","random,structured_incentive,structured_load,structured_normal","1,2,2,3,4,2","2,1,4,3","true","","",""
"null","","html-keyboard-response","179","214350","0.0-179.0","3LYA37P8IR9EB4RP0OBPST01YVGBKQ","A10249252O9I20MRSOBVF","3GVPRXWRPHGYHD0HW29VLS36FVC7I4","","<img src=""img/set1/S1.jpg"" width=""540"" height = ""360"" style=""border:16px solid orange"">","null","","","","","","","","","",""
"null","","html-keyboard-response","180","214566","0.0-180.0","3LYA37P8IR9EB4RP0OBPST01YVGBKQ","A10249252O9I20MRSOBVF","3GVPRXWRPHGYHD0HW29VLS36FVC7I4","","","null","","","","","","","","","",""
"820","","image-keyboard-response","181","215388","0.0-181.0","3LYA37P8IR9EB4RP0OBPST01YVGBKQ","A10249252O9I20MRSOBVF","3GVPRXWRPHGYHD0HW29VLS36FVC7I4","","img/set1/S2.jpg","68","2","random","68","random,structured_incentive,structured_load,structured_normal","1,2,2,3,4,2","2,1,4,3","true","","",""
"null","","html-keyboard-response","182","215743","0.0-182.0","3LYA37P8IR9EB4RP0OBPST01YVGBKQ","A10249252O9I20MRSOBVF","3GVPRXWRPHGYHD0HW29VLS36FVC7I4","","<img src=""img/set1/S2.jpg"" width=""540"" height = ""360"" style=""border:16px solid orange"">","null","","","","","","","","","",""
"null","","html-keyboard-response","183","215958","0.0-183.0","3LYA37P8IR9EB4RP0OBPST01YVGBKQ","A10249252O9I20MRSOBVF","3GVPRXWRPHGYHD0HW29VLS36FVC7I4","","","null","","","","","","","","","",""
"799.1000000238419","","image-keyboard-response","184","216760","0.0-184.0","3LYA37P8IR9EB4RP0OBPST01YVGBKQ","A10249252O9I20MRSOBVF","3GVPRXWRPHGYHD0HW29VLS36FVC7I4","","img/set1/S3.jpg","72","3","random","72","random,structured_incentive,structured_load,structured_normal","1,2,2,3,4,2","2,1,4,3","true","","",""
"null","","html-keyboard-response","185","217126","0.0-185.0","3LYA37P8IR9EB4RP0OBPST01YVGBKQ","A10249252O9I20MRSOBVF","3GVPRXWRPHGYHD0HW29VLS36FVC7I4","","<img src=""img/set1/S3.jpg"" width=""540"" height = ""360"" style=""border:16px solid orange"">","null","","","","","","","","","",""
"null","","html-keyboard-response","186","217342","0.0-186.0","3LYA37P8IR9EB4RP0OBPST01YVGBKQ","A10249252O9I20MRSOBVF","3GVPRXWRPHGYHD0HW29VLS36FVC7I4","","","null","","","","","","","","","",""
"731.6999999880791","","image-keyboard-response","187","218075","0.0-187.0","3LYA37P8IR9EB4RP0OBPST01YVGBKQ","A10249252O9I20MRSOBVF","3GVPRXWRPHGYHD0HW29VLS36FVC7I4","","img/set1/S2.jpg","68","2","random","68","random,structured_incentive,structured_load,structured_normal","1,2,2,3,4,2","2,1,4,3","true","","",""
"null","","html-keyboard-response","188","218430","0.0-188.0","3LYA37P8IR9EB4RP0OBPST01YVGBKQ","A10249252O9I20MRSOBVF","3GVPRXWRPHGYHD0HW29VLS36FVC7I4","","<img src=""img/set1/S2.jpg"" width=""540"" height = ""360"" style=""border:16px solid orange"">","null","","","","","","","","","",""
"null","","html-keyboard-response","189","218639","0.0-189.0","3LYA37P8IR9EB4RP0OBPST01YVGBKQ","A10249252O9I20MRSOBVF","3GVPRXWRPHGYHD0HW29VLS36FVC7I4","","","null","","","","","","","","","",""
"990.3000000119209","","image-keyboard-response","190","219632","0.0-190.0","3LYA37P8IR9EB4RP0OBPST01YVGBKQ","A10249252O9I20MRSOBVF","3GVPRXWRPHGYHD0HW29VLS36FVC7I4","","img/set1/S1.jpg","83","1","random","83","random,structured_incentive,structured_load,structured_normal","1,2,2,3,4,2","2,1,4,3","true","","",""
"null","","html-keyboard-response","191","219996","0.0-191.0","3LYA37P8IR9EB4RP0OBPST01YVGBKQ","A10249252O9I20MRSOBVF","3GVPRXWRPHGYHD0HW29VLS36FVC7I4","","<img src=""img/set1/S1.jpg"" width=""540"" height = ""360"" style=""border:16px solid orange"">","null","","","","","","","","","",""
"null","","html-keyboard-response","192","220202","0.0-192.0","3LYA37P8IR9EB4RP0OBPST01YVGBKQ","A10249252O9I20MRSOBVF","3GVPRXWRPHGYHD0HW29VLS36FVC7I4","","","null","","","","","","","","","",""
"718.5999999642372","","image-keyboard-response","193","220923","0.0-193.0","3LYA37P8IR9EB4RP0OBPST01YVGBKQ","A10249252O9I20MRSOBVF","3GVPRXWRPHGYHD0HW29VLS36FVC7I4","","img/set1/S1.jpg","83","1","random","83","random,structured_incentive,structured_load,structured_normal","1,2,2,3,4,2","2,1,4,3","true","","",""
"null","","html-keyboard-response","194","221286","0.0-194.0","3LYA37P8IR9EB4RP0OBPST01YVGBKQ","A10249252O9I20MRSOBVF","3GVPRXWRPHGYHD0HW29VLS36FVC7I4","","<img src=""img/set1/S1.jpg"" width=""540"" height = ""360"" style=""border:16px solid orange"">","null","","","","","","","","","",""
"null","","html-keyboard-response","195","221490","0.0-195.0","3LYA37P8IR9EB4RP0OBPST01YVGBKQ","A10249252O9I20MRSOBVF","3GVPRXWRPHGYHD0HW29VLS36FVC7I4","","","null","","","","","","","","","",""
"1129.8999999761581","","image-keyboard-response","196","222622","0.0-196.0","3LYA37P8IR9EB4RP0OBPST01YVGBKQ","A10249252O9I20MRSOBVF","3GVPRXWRPHGYHD0HW29VLS36FVC7I4","","img/set1/S4.jpg","74","4","random","74","random,structured_incentive,structured_load,structured_normal","1,2,2,3,4,2","2,1,4,3","true","","",""
"null","","html-keyboard-response","197","222981","0.0-197.0","3LYA37P8IR9EB4RP0OBPST01YVGBKQ","A10249252O9I20MRSOBVF","3GVPRXWRPHGYHD0HW29VLS36FVC7I4","","<img src=""img/set1/S4.jpg"" width=""540"" height = ""360"" style=""border:16px solid orange"">","null","","","","","","","","","",""
"null","","html-keyboard-response","198","223184","0.0-198.0","3LYA37P8IR9EB4RP0OBPST01YVGBKQ","A10249252O9I20MRSOBVF","3GVPRXWRPHGYHD0HW29VLS36FVC7I4","","","null","","","","","","","","","",""
"1316.5999999642372","","image-keyboard-response","199","224504","0.0-199.0","3LYA37P8IR9EB4RP0OBPST01YVGBKQ","A10249252O9I20MRSOBVF","3GVPRXWRPHGYHD0HW29VLS36FVC7I4","","img/set1/S3.jpg","72","3","random","72","random,structured_incentive,structured_load,structured_normal","1,2,2,3,4,2","2,1,4,3","true","","",""
"null","","html-keyboard-response","200","224862","0.0-200.0","3LYA37P8IR9EB4RP0OBPST01YVGBKQ","A10249252O9I20MRSOBVF","3GVPRXWRPHGYHD0HW29VLS36FVC7I4","","<img src=""img/set1/S3.jpg"" width=""540"" height = ""360"" style=""border:16px solid orange"">","null","","","","","","","","","",""
"null","","html-keyboard-response","201","225080","0.0-201.0","3LYA37P8IR9EB4RP0OBPST01YVGBKQ","A10249252O9I20MRSOBVF","3GVPRXWRPHGYHD0HW29VLS36FVC7I4","","","null","","","","","","","","","",""
"599.0999999642372","","image-keyboard-response","202","225681","0.0-202.0","3LYA37P8IR9EB4RP0OBPST01YVGBKQ","A10249252O9I20MRSOBVF","3GVPRXWRPHGYHD0HW29VLS36FVC7I4","","img/set1/S2.jpg","68","2","random","68","random,structured_incentive,structured_load,structured_normal","1,2,2,3,4,2","2,1,4,3","true","","",""
"null","","html-keyboard-response","203","226040","0.0-203.0","3LYA37P8IR9EB4RP0OBPST01YVGBKQ","A10249252O9I20MRSOBVF","3GVPRXWRPHGYHD0HW29VLS36FVC7I4","","<img src=""img/set1/S2.jpg"" width=""540"" height = ""360"" style=""border:16px solid orange"">","null","","","","","","","","","",""
"null","","html-keyboard-response","204","226243","0.0-204.0","3LYA37P8IR9EB4RP0OBPST01YVGBKQ","A10249252O9I20MRSOBVF","3GVPRXWRPHGYHD0HW29VLS36FVC7I4","","","null","","","","","","","","","",""
"621.9000000357628","","image-keyboard-response","205","226867","0.0-205.0","3LYA37P8IR9EB4RP0OBPST01YVGBKQ","A10249252O9I20MRSOBVF","3GVPRXWRPHGYHD0HW29VLS36FVC7I4","","img/set1/S2.jpg","68","2","random","68","random,structured_incentive,structured_load,structured_normal","1,2,2,3,4,2","2,1,4,3","true","","",""
"null","","html-keyboard-response","206","227225","0.0-206.0","3LYA37P8IR9EB4RP0OBPST01YVGBKQ","A10249252O9I20MRSOBVF","3GVPRXWRPHGYHD0HW29VLS36FVC7I4","","<img src=""img/set1/S2.jpg"" width=""540"" height = ""360"" style=""border:16px solid orange"">","null","","","","","","","","","",""
"null","","html-keyboard-response","207","227435","0.0-207.0","3LYA37P8IR9EB4RP0OBPST01YVGBKQ","A10249252O9I20MRSOBVF","3GVPRXWRPHGYHD0HW29VLS36FVC7I4","","","null","","","","","","","","","",""
"850.8999999761581","","image-keyboard-response","208","228290","0.0-208.0","3LYA37P8IR9EB4RP0OBPST01YVGBKQ","A10249252O9I20MRSOBVF","3GVPRXWRPHGYHD0HW29VLS36FVC7I4","","img/set1/S1.jpg","83","1","random","83","random,structured_incentive,structured_load,structured_normal","1,2,2,3,4,2","2,1,4,3","true","","",""
"null","","html-keyboard-response","209","228647","0.0-209.0","3LYA37P8IR9EB4RP0OBPST01YVGBKQ","A10249252O9I20MRSOBVF","3GVPRXWRPHGYHD0HW29VLS36FVC7I4","","<img src=""img/set1/S1.jpg"" width=""540"" height = ""360"" style=""border:16px solid orange"">","null","","","","","","","","","",""
"null","","html-keyboard-response","210","228856","0.0-210.0","3LYA37P8IR9EB4RP0OBPST01YVGBKQ","A10249252O9I20MRSOBVF","3GVPRXWRPHGYHD0HW29VLS36FVC7I4","","","null","","","","","","","","","",""
"684.8000000119209","","image-keyboard-response","211","229543","0.0-211.0","3LYA37P8IR9EB4RP0OBPST01YVGBKQ","A10249252O9I20MRSOBVF","3GVPRXWRPHGYHD0HW29VLS36FVC7I4","","img/set1/S2.jpg","68","2","random","68","random,structured_incentive,structured_load,structured_normal","1,2,2,3,4,2","2,1,4,3","true","","",""
"null","","html-keyboard-response","212","229905","0.0-212.0","3LYA37P8IR9EB4RP0OBPST01YVGBKQ","A10249252O9I20MRSOBVF","3GVPRXWRPHGYHD0HW29VLS36FVC7I4","","<img src=""img/set1/S2.jpg"" width=""540"" height = ""360"" style=""border:16px solid orange"">","null","","","","","","","","","",""
"null","","html-keyboard-response","213","230115","0.0-213.0","3LYA37P8IR9EB4RP0OBPST01YVGBKQ","A10249252O9I20MRSOBVF","3GVPRXWRPHGYHD0HW29VLS36FVC7I4","","","null","","","","","","","","","",""
"739.3000000119209","","image-keyboard-response","214","230856","0.0-214.0","3LYA37P8IR9EB4RP0OBPST01YVGBKQ","A10249252O9I20MRSOBVF","3GVPRXWRPHGYHD0HW29VLS36FVC7I4","","img/set1/S4.jpg","74","4","random","74","random,structured_incentive,structured_load,structured_normal","1,2,2,3,4,2","2,1,4,3","true","","",""
"null","","html-keyboard-response","215","231220","0.0-215.0","3LYA37P8IR9EB4RP0OBPST01YVGBKQ","A10249252O9I20MRSOBVF","3GVPRXWRPHGYHD0HW29VLS36FVC7I4","","<img src=""img/set1/S4.jpg"" width=""540"" height = ""360"" style=""border:16px solid orange"">","null","","","","","","","","","",""
"null","","html-keyboard-response","216","231433","0.0-216.0","3LYA37P8IR9EB4RP0OBPST01YVGBKQ","A10249252O9I20MRSOBVF","3GVPRXWRPHGYHD0HW29VLS36FVC7I4","","","null","","","","","","","","","",""
"614.0999999642372","","image-keyboard-response","217","232050","0.0-217.0","3LYA37P8IR9EB4RP0OBPST01YVGBKQ","A10249252O9I20MRSOBVF","3GVPRXWRPHGYHD0HW29VLS36FVC7I4","","img/set1/S3.jpg","72","3","random","72","random,structured_incentive,structured_load,structured_normal","1,2,2,3,4,2","2,1,4,3","true","","",""
"null","","html-keyboard-response","218","232408","0.0-218.0","3LYA37P8IR9EB4RP0OBPST01YVGBKQ","A10249252O9I20MRSOBVF","3GVPRXWRPHGYHD0HW29VLS36FVC7I4","","<img src=""img/set1/S3.jpg"" width=""540"" height = ""360"" style=""border:16px solid orange"">","null","","","","","","","","","",""
"null","","html-keyboard-response","219","232618","0.0-219.0","3LYA37P8IR9EB4RP0OBPST01YVGBKQ","A10249252O9I20MRSOBVF","3GVPRXWRPHGYHD0HW29VLS36FVC7I4","","","null","","","","","","","","","",""
"897.9000000357628","","image-keyboard-response","220","233518","0.0-220.0","3LYA37P8IR9EB4RP0OBPST01YVGBKQ","A10249252O9I20MRSOBVF","3GVPRXWRPHGYHD0HW29VLS36FVC7I4","","img/set1/S4.jpg","74","4","random","74","random,structured_incentive,structured_load,structured_normal","1,2,2,3,4,2","2,1,4,3","true","","",""
"null","","html-keyboard-response","221","233871","0.0-221.0","3LYA37P8IR9EB4RP0OBPST01YVGBKQ","A10249252O9I20MRSOBVF","3GVPRXWRPHGYHD0HW29VLS36FVC7I4","","<img src=""img/set1/S4.jpg"" width=""540"" height = ""360"" style=""border:16px solid orange"">","null","","","","","","","","","",""
"null","","html-keyboard-response","222","234073","0.0-222.0","3LYA37P8IR9EB4RP0OBPST01YVGBKQ","A10249252O9I20MRSOBVF","3GVPRXWRPHGYHD0HW29VLS36FVC7I4","","","null","","","","","","","","","",""
"827.5","","image-keyboard-response","223","234903","0.0-223.0","3LYA37P8IR9EB4RP0OBPST01YVGBKQ","A10249252O9I20MRSOBVF","3GVPRXWRPHGYHD0HW29VLS36FVC7I4","","img/set1/S1.jpg","83","1","random","83","random,structured_incentive,structured_load,structured_normal","1,2,2,3,4,2","2,1,4,3","true","","",""
"null","","html-keyboard-response","224","235265","0.0-224.0","3LYA37P8IR9EB4RP0OBPST01YVGBKQ","A10249252O9I20MRSOBVF","3GVPRXWRPHGYHD0HW29VLS36FVC7I4","","<img src=""img/set1/S1.jpg"" width=""540"" height = ""360"" style=""border:16px solid orange"">","null","","","","","","","","","",""
"null","","html-keyboard-response","225","235472","0.0-225.0","3LYA37P8IR9EB4RP0OBPST01YVGBKQ","A10249252O9I20MRSOBVF","3GVPRXWRPHGYHD0HW29VLS36FVC7I4","","","null","","","","","","","","","",""
"1463.2999999523163","","image-keyboard-response","226","236938","0.0-226.0","3LYA37P8IR9EB4RP0OBPST01YVGBKQ","A10249252O9I20MRSOBVF","3GVPRXWRPHGYHD0HW29VLS36FVC7I4","","img/set1/S3.jpg","72","3","random","72","random,structured_incentive,structured_load,structured_normal","1,2,2,3,4,2","2,1,4,3","true","","",""
"null","","html-keyboard-response","227","237297","0.0-227.0","3LYA37P8IR9EB4RP0OBPST01YVGBKQ","A10249252O9I20MRSOBVF","3GVPRXWRPHGYHD0HW29VLS36FVC7I4","","<img src=""img/set1/S3.jpg"" width=""540"" height = ""360"" style=""border:16px solid orange"">","null","","","","","","","","","",""
"null","","html-keyboard-response","228","237513","0.0-228.0","3LYA37P8IR9EB4RP0OBPST01YVGBKQ","A10249252O9I20MRSOBVF","3GVPRXWRPHGYHD0HW29VLS36FVC7I4","","","null","","","","","","","","","",""
"1424.8999999761581","","image-keyboard-response","229","238942","0.0-229.0","3LYA37P8IR9EB4RP0OBPST01YVGBKQ","A10249252O9I20MRSOBVF","3GVPRXWRPHGYHD0HW29VLS36FVC7I4","","img/set1/S4.jpg","74","4","random","74","random,structured_incentive,structured_load,structured_normal","1,2,2,3,4,2","2,1,4,3","true","","",""
"null","","html-keyboard-response","230","239305","0.0-230.0","3LYA37P8IR9EB4RP0OBPST01YVGBKQ","A10249252O9I20MRSOBVF","3GVPRXWRPHGYHD0HW29VLS36FVC7I4","","<img src=""img/set1/S4.jpg"" width=""540"" height = ""360"" style=""border:16px solid orange"">","null","","","","","","","","","",""
"null","","html-keyboard-response","231","239525","0.0-231.0","3LYA37P8IR9EB4RP0OBPST01YVGBKQ","A10249252O9I20MRSOBVF","3GVPRXWRPHGYHD0HW29VLS36FVC7I4","","","null","","","","","","","","","",""
"948.6000000238419","","image-keyboard-response","232","240476","0.0-232.0","3LYA37P8IR9EB4RP0OBPST01YVGBKQ","A10249252O9I20MRSOBVF","3GVPRXWRPHGYHD0HW29VLS36FVC7I4","","img/set1/S3.jpg","72","3","random","72","random,structured_incentive,structured_load,structured_normal","1,2,2,3,4,2","2,1,4,3","true","","",""
"null","","html-keyboard-response","233","240839","0.0-233.0","3LYA37P8IR9EB4RP0OBPST01YVGBKQ","A10249252O9I20MRSOBVF","3GVPRXWRPHGYHD0HW29VLS36FVC7I4","","<img src=""img/set1/S3.jpg"" width=""540"" height = ""360"" style=""border:16px solid orange"">","null","","","","","","","","","",""
"null","","html-keyboard-response","234","241046","0.0-234.0","3LYA37P8IR9EB4RP0OBPST01YVGBKQ","A10249252O9I20MRSOBVF","3GVPRXWRPHGYHD0HW29VLS36FVC7I4","","","null","","","","","","","","","",""
"686.5","","image-keyboard-response","235","241736","0.0-235.0","3LYA37P8IR9EB4RP0OBPST01YVGBKQ","A10249252O9I20MRSOBVF","3GVPRXWRPHGYHD0HW29VLS36FVC7I4","","img/set1/S2.jpg","68","2","random","68","random,structured_incentive,structured_load,structured_normal","1,2,2,3,4,2","2,1,4,3","true","","",""
"null","","html-keyboard-response","236","242095","0.0-236.0","3LYA37P8IR9EB4RP0OBPST01YVGBKQ","A10249252O9I20MRSOBVF","3GVPRXWRPHGYHD0HW29VLS36FVC7I4","","<img src=""img/set1/S2.jpg"" width=""540"" height = ""360"" style=""border:16px solid orange"">","null","","","","","","","","","",""
"null","","html-keyboard-response","237","242305","0.0-237.0","3LYA37P8IR9EB4RP0OBPST01YVGBKQ","A10249252O9I20MRSOBVF","3GVPRXWRPHGYHD0HW29VLS36FVC7I4","","","null","","","","","","","","","",""
"704.5","","image-keyboard-response","238","243012","0.0-238.0","3LYA37P8IR9EB4RP0OBPST01YVGBKQ","A10249252O9I20MRSOBVF","3GVPRXWRPHGYHD0HW29VLS36FVC7I4","","img/set1/S4.jpg","74","4","random","74","random,structured_incentive,structured_load,structured_normal","1,2,2,3,4,2","2,1,4,3","true","","",""
"null","","html-keyboard-response","239","243382","0.0-239.0","3LYA37P8IR9EB4RP0OBPST01YVGBKQ","A10249252O9I20MRSOBVF","3GVPRXWRPHGYHD0HW29VLS36FVC7I4","","<img src=""img/set1/S4.jpg"" width=""540"" height = ""360"" style=""border:16px solid orange"">","null","","","","","","","","","",""
"null","","html-keyboard-response","240","243586","0.0-240.0","3LYA37P8IR9EB4RP0OBPST01YVGBKQ","A10249252O9I20MRSOBVF","3GVPRXWRPHGYHD0HW29VLS36FVC7I4","","","null","","","","","","","","","",""
"669.3000000119209","","image-keyboard-response","241","244257","0.0-241.0","3LYA37P8IR9EB4RP0OBPST01YVGBKQ","A10249252O9I20MRSOBVF","3GVPRXWRPHGYHD0HW29VLS36FVC7I4","","img/set1/S4.jpg","74","4","random","74","random,structured_incentive,structured_load,structured_normal","1,2,2,3,4,2","2,1,4,3","true","","",""
"null","","html-keyboard-response","242","244621","0.0-242.0","3LYA37P8IR9EB4RP0OBPST01YVGBKQ","A10249252O9I20MRSOBVF","3GVPRXWRPHGYHD0HW29VLS36FVC7I4","","<img src=""img/set1/S4.jpg"" width=""540"" height = ""360"" style=""border:16px solid orange"">","null","","","","","","","","","",""
"null","","html-keyboard-response","243","244824","0.0-243.0","3LYA37P8IR9EB4RP0OBPST01YVGBKQ","A10249252O9I20MRSOBVF","3GVPRXWRPHGYHD0HW29VLS36FVC7I4","","","null","","","","","","","","","",""
"566.8000000119209","","image-keyboard-response","244","245393","0.0-244.0","3LYA37P8IR9EB4RP0OBPST01YVGBKQ","A10249252O9I20MRSOBVF","3GVPRXWRPHGYHD0HW29VLS36FVC7I4","","img/set1/S4.jpg","74","4","random","74","random,structured_incentive,structured_load,structured_normal","1,2,2,3,4,2","2,1,4,3","true","","",""
"null","","html-keyboard-response","245","245754","0.0-245.0","3LYA37P8IR9EB4RP0OBPST01YVGBKQ","A10249252O9I20MRSOBVF","3GVPRXWRPHGYHD0HW29VLS36FVC7I4","","<img src=""img/set1/S4.jpg"" width=""540"" height = ""360"" style=""border:16px solid orange"">","null","","","","","","","","","",""
"null","","html-keyboard-response","246","245957","0.0-246.0","3LYA37P8IR9EB4RP0OBPST01YVGBKQ","A10249252O9I20MRSOBVF","3GVPRXWRPHGYHD0HW29VLS36FVC7I4","","","null","","","","","","","","","",""
"618.6999999880791","","image-keyboard-response","247","246579","0.0-247.0","3LYA37P8IR9EB4RP0OBPST01YVGBKQ","A10249252O9I20MRSOBVF","3GVPRXWRPHGYHD0HW29VLS36FVC7I4","","img/set1/S4.jpg","74","4","random","74","random,structured_incentive,structured_load,structured_normal","1,2,2,3,4,2","2,1,4,3","true","","",""
"null","","html-keyboard-response","248","246944","0.0-248.0","3LYA37P8IR9EB4RP0OBPST01YVGBKQ","A10249252O9I20MRSOBVF","3GVPRXWRPHGYHD0HW29VLS36FVC7I4","","<img src=""img/set1/S4.jpg"" width=""540"" height = ""360"" style=""border:16px solid orange"">","null","","","","","","","","","",""
"null","","html-keyboard-response","249","247149","0.0-249.0","3LYA37P8IR9EB4RP0OBPST01YVGBKQ","A10249252O9I20MRSOBVF","3GVPRXWRPHGYHD0HW29VLS36FVC7I4","","","null","","","","","","","","","",""
"717.2999999523163","","image-keyboard-response","250","247869","0.0-250.0","3LYA37P8IR9EB4RP0OBPST01YVGBKQ","A10249252O9I20MRSOBVF","3GVPRXWRPHGYHD0HW29VLS36FVC7I4","","img/set1/S1.jpg","83","1","random","83","random,structured_incentive,structured_load,structured_normal","1,2,2,3,4,2","2,1,4,3","true","","",""
"null","","html-keyboard-response","251","248238","0.0-251.0","3LYA37P8IR9EB4RP0OBPST01YVGBKQ","A10249252O9I20MRSOBVF","3GVPRXWRPHGYHD0HW29VLS36FVC7I4","","<img src=""img/set1/S1.jpg"" width=""540"" height = ""360"" style=""border:16px solid orange"">","null","","","","","","","","","",""
"null","","html-keyboard-response","252","248450","0.0-252.0","3LYA37P8IR9EB4RP0OBPST01YVGBKQ","A10249252O9I20MRSOBVF","3GVPRXWRPHGYHD0HW29VLS36FVC7I4","","","null","","","","","","","","","",""
"514.8000000119209","","image-keyboard-response","253","248967","0.0-253.0","3LYA37P8IR9EB4RP0OBPST01YVGBKQ","A10249252O9I20MRSOBVF","3GVPRXWRPHGYHD0HW29VLS36FVC7I4","","img/set1/S1.jpg","83","1","random","83","random,structured_incentive,structured_load,structured_normal","1,2,2,3,4,2","2,1,4,3","true","","",""
"null","","html-keyboard-response","254","249322","0.0-254.0","3LYA37P8IR9EB4RP0OBPST01YVGBKQ","A10249252O9I20MRSOBVF","3GVPRXWRPHGYHD0HW29VLS36FVC7I4","","<img src=""img/set1/S1.jpg"" width=""540"" height = ""360"" style=""border:16px solid orange"">","null","","","","","","","","","",""
"null","","html-keyboard-response","255","249539","0.0-255.0","3LYA37P8IR9EB4RP0OBPST01YVGBKQ","A10249252O9I20MRSOBVF","3GVPRXWRPHGYHD0HW29VLS36FVC7I4","","","null","","","","","","","","","",""
"710.3000000119209","","image-keyboard-response","256","250252","0.0-256.0","3LYA37P8IR9EB4RP0OBPST01YVGBKQ","A10249252O9I20MRSOBVF","3GVPRXWRPHGYHD0HW29VLS36FVC7I4","","img/set1/S3.jpg","72","3","random","72","random,structured_incentive,structured_load,structured_normal","1,2,2,3,4,2","2,1,4,3","true","","",""
"null","","html-keyboard-response","257","250614","0.0-257.0","3LYA37P8IR9EB4RP0OBPST01YVGBKQ","A10249252O9I20MRSOBVF","3GVPRXWRPHGYHD0HW29VLS36FVC7I4","","<img src=""img/set1/S3.jpg"" width=""540"" height = ""360"" style=""border:16px solid orange"">","null","","","","","","","","","",""
"null","","html-keyboard-response","258","250828","0.0-258.0","3LYA37P8IR9EB4RP0OBPST01YVGBKQ","A10249252O9I20MRSOBVF","3GVPRXWRPHGYHD0HW29VLS36FVC7I4","","","null","","","","","","","","","",""
"523.9000000357628","","image-keyboard-response","259","251355","0.0-259.0","3LYA37P8IR9EB4RP0OBPST01YVGBKQ","A10249252O9I20MRSOBVF","3GVPRXWRPHGYHD0HW29VLS36FVC7I4","","img/set1/S3.jpg","72","3","random","72","random,structured_incentive,structured_load,structured_normal","1,2,2,3,4,2","2,1,4,3","true","","",""
"null","","html-keyboard-response","260","251716","0.0-260.0","3LYA37P8IR9EB4RP0OBPST01YVGBKQ","A10249252O9I20MRSOBVF","3GVPRXWRPHGYHD0HW29VLS36FVC7I4","","<img src=""img/set1/S3.jpg"" width=""540"" height = ""360"" style=""border:16px solid orange"">","null","","","","","","","","","",""
"null","","html-keyboard-response","261","251931","0.0-261.0","3LYA37P8IR9EB4RP0OBPST01YVGBKQ","A10249252O9I20MRSOBVF","3GVPRXWRPHGYHD0HW29VLS36FVC7I4","","","null","","","","","","","","","",""
"741","","image-keyboard-response","262","252675","0.0-262.0","3LYA37P8IR9EB4RP0OBPST01YVGBKQ","A10249252O9I20MRSOBVF","3GVPRXWRPHGYHD0HW29VLS36FVC7I4","","img/set1/S4.jpg","74","4","random","74","random,structured_incentive,structured_load,structured_normal","1,2,2,3,4,2","2,1,4,3","true","","",""
"null","","html-keyboard-response","263","253034","0.0-263.0","3LYA37P8IR9EB4RP0OBPST01YVGBKQ","A10249252O9I20MRSOBVF","3GVPRXWRPHGYHD0HW29VLS36FVC7I4","","<img src=""img/set1/S4.jpg"" width=""540"" height = ""360"" style=""border:16px solid orange"">","null","","","","","","","","","",""
"null","","html-keyboard-response","264","253243","0.0-264.0","3LYA37P8IR9EB4RP0OBPST01YVGBKQ","A10249252O9I20MRSOBVF","3GVPRXWRPHGYHD0HW29VLS36FVC7I4","","","null","","","","","","","","","",""
"489.5","","image-keyboard-response","265","253735","0.0-265.0","3LYA37P8IR9EB4RP0OBPST01YVGBKQ","A10249252O9I20MRSOBVF","3GVPRXWRPHGYHD0HW29VLS36FVC7I4","","img/set1/S4.jpg","74","4","random","74","random,structured_incentive,structured_load,structured_normal","1,2,2,3,4,2","2,1,4,3","true","","",""
"null","","html-keyboard-response","266","254090","0.0-266.0","3LYA37P8IR9EB4RP0OBPST01YVGBKQ","A10249252O9I20MRSOBVF","3GVPRXWRPHGYHD0HW29VLS36FVC7I4","","<img src=""img/set1/S4.jpg"" width=""540"" height = ""360"" style=""border:16px solid orange"">","null","","","","","","","","","",""
"null","","html-keyboard-response","267","254294","0.0-267.0","3LYA37P8IR9EB4RP0OBPST01YVGBKQ","A10249252O9I20MRSOBVF","3GVPRXWRPHGYHD0HW29VLS36FVC7I4","","","null","","","","","","","","","",""
"597.1000000238419","","image-keyboard-response","268","254894","0.0-268.0","3LYA37P8IR9EB4RP0OBPST01YVGBKQ","A10249252O9I20MRSOBVF","3GVPRXWRPHGYHD0HW29VLS36FVC7I4","","img/set1/S2.jpg","68","2","random","68","random,structured_incentive,structured_load,structured_normal","1,2,2,3,4,2","2,1,4,3","true","","",""
"null","","html-keyboard-response","269","255252","0.0-269.0","3LYA37P8IR9EB4RP0OBPST01YVGBKQ","A10249252O9I20MRSOBVF","3GVPRXWRPHGYHD0HW29VLS36FVC7I4","","<img src=""img/set1/S2.jpg"" width=""540"" height = ""360"" style=""border:16px solid orange"">","null","","","","","","","","","",""
"null","","html-keyboard-response","270","255462","0.0-270.0","3LYA37P8IR9EB4RP0OBPST01YVGBKQ","A10249252O9I20MRSOBVF","3GVPRXWRPHGYHD0HW29VLS36FVC7I4","","","null","","","","","","","","","",""
"703","","image-keyboard-response","271","256167","0.0-271.0","3LYA37P8IR9EB4RP0OBPST01YVGBKQ","A10249252O9I20MRSOBVF","3GVPRXWRPHGYHD0HW29VLS36FVC7I4","","img/set1/S1.jpg","83","1","random","83","random,structured_incentive,structured_load,structured_normal","1,2,2,3,4,2","2,1,4,3","true","","",""
"null","","html-keyboard-response","272","256526","0.0-272.0","3LYA37P8IR9EB4RP0OBPST01YVGBKQ","A10249252O9I20MRSOBVF","3GVPRXWRPHGYHD0HW29VLS36FVC7I4","","<img src=""img/set1/S1.jpg"" width=""540"" height = ""360"" style=""border:16px solid orange"">","null","","","","","","","","","",""
"null","","html-keyboard-response","273","256730","0.0-273.0","3LYA37P8IR9EB4RP0OBPST01YVGBKQ","A10249252O9I20MRSOBVF","3GVPRXWRPHGYHD0HW29VLS36FVC7I4","","","null","","","","","","","","","",""
"749.6999999880791","","image-keyboard-response","274","257482","0.0-274.0","3LYA37P8IR9EB4RP0OBPST01YVGBKQ","A10249252O9I20MRSOBVF","3GVPRXWRPHGYHD0HW29VLS36FVC7I4","","img/set1/S4.jpg","74","4","random","74","random,structured_incentive,structured_load,structured_normal","1,2,2,3,4,2","2,1,4,3","true","","",""
"null","","html-keyboard-response","275","257843","0.0-275.0","3LYA37P8IR9EB4RP0OBPST01YVGBKQ","A10249252O9I20MRSOBVF","3GVPRXWRPHGYHD0HW29VLS36FVC7I4","","<img src=""img/set1/S4.jpg"" width=""540"" height = ""360"" style=""border:16px solid orange"">","null","","","","","","","","","",""
"null","","html-keyboard-response","276","258050","0.0-276.0","3LYA37P8IR9EB4RP0OBPST01YVGBKQ","A10249252O9I20MRSOBVF","3GVPRXWRPHGYHD0HW29VLS36FVC7I4","","","null","","","","","","","","","",""
"659.1000000238419","","image-keyboard-response","277","258712","0.0-277.0","3LYA37P8IR9EB4RP0OBPST01YVGBKQ","A10249252O9I20MRSOBVF","3GVPRXWRPHGYHD0HW29VLS36FVC7I4","","img/set1/S3.jpg","72","3","random","72","random,structured_incentive,structured_load,structured_normal","1,2,2,3,4,2","2,1,4,3","true","","",""
"null","","html-keyboard-response","278","259076","0.0-278.0","3LYA37P8IR9EB4RP0OBPST01YVGBKQ","A10249252O9I20MRSOBVF","3GVPRXWRPHGYHD0HW29VLS36FVC7I4","","<img src=""img/set1/S3.jpg"" width=""540"" height = ""360"" style=""border:16px solid orange"">","null","","","","","","","","","",""
"null","","html-keyboard-response","279","259280","0.0-279.0","3LYA37P8IR9EB4RP0OBPST01YVGBKQ","A10249252O9I20MRSOBVF","3GVPRXWRPHGYHD0HW29VLS36FVC7I4","","","null","","","","","","","","","",""
"548","","image-keyboard-response","280","259830","0.0-280.0","3LYA37P8IR9EB4RP0OBPST01YVGBKQ","A10249252O9I20MRSOBVF","3GVPRXWRPHGYHD0HW29VLS36FVC7I4","","img/set1/S3.jpg","72","3","random","72","random,structured_incentive,structured_load,structured_normal","1,2,2,3,4,2","2,1,4,3","true","","",""
"null","","html-keyboard-response","281","260184","0.0-281.0","3LYA37P8IR9EB4RP0OBPST01YVGBKQ","A10249252O9I20MRSOBVF","3GVPRXWRPHGYHD0HW29VLS36FVC7I4","","<img src=""img/set1/S3.jpg"" width=""540"" height = ""360"" style=""border:16px solid orange"">","null","","","","","","","","","",""
"null","","html-keyboard-response","282","260393","0.0-282.0","3LYA37P8IR9EB4RP0OBPST01YVGBKQ","A10249252O9I20MRSOBVF","3GVPRXWRPHGYHD0HW29VLS36FVC7I4","","","null","","","","","","","","","",""
"834.8999999761581","","image-keyboard-response","283","261231","0.0-283.0","3LYA37P8IR9EB4RP0OBPST01YVGBKQ","A10249252O9I20MRSOBVF","3GVPRXWRPHGYHD0HW29VLS36FVC7I4","","img/set1/S4.jpg","74","4","random","74","random,structured_incentive,structured_load,structured_normal","1,2,2,3,4,2","2,1,4,3","true","","",""
"null","","html-keyboard-response","284","261588","0.0-284.0","3LYA37P8IR9EB4RP0OBPST01YVGBKQ","A10249252O9I20MRSOBVF","3GVPRXWRPHGYHD0HW29VLS36FVC7I4","","<img src=""img/set1/S4.jpg"" width=""540"" height = ""360"" style=""border:16px solid orange"">","null","","","","","","","","","",""
"null","","html-keyboard-response","285","261806","0.0-285.0","3LYA37P8IR9EB4RP0OBPST01YVGBKQ","A10249252O9I20MRSOBVF","3GVPRXWRPHGYHD0HW29VLS36FVC7I4","","","null","","","","","","","","","",""
"744.6000000238419","","image-keyboard-response","286","262553","0.0-286.0","3LYA37P8IR9EB4RP0OBPST01YVGBKQ","A10249252O9I20MRSOBVF","3GVPRXWRPHGYHD0HW29VLS36FVC7I4","","img/set1/S2.jpg","68","2","random","68","random,structured_incentive,structured_load,structured_normal","1,2,2,3,4,2","2,1,4,3","true","","",""
"null","","html-keyboard-response","287","262911","0.0-287.0","3LYA37P8IR9EB4RP0OBPST01YVGBKQ","A10249252O9I20MRSOBVF","3GVPRXWRPHGYHD0HW29VLS36FVC7I4","","<img src=""img/set1/S2.jpg"" width=""540"" height = ""360"" style=""border:16px solid orange"">","null","","","","","","","","","",""
"null","","html-keyboard-response","288","263122","0.0-288.0","3LYA37P8IR9EB4RP0OBPST01YVGBKQ","A10249252O9I20MRSOBVF","3GVPRXWRPHGYHD0HW29VLS36FVC7I4","","","null","","","","","","","","","",""
"752.3000000119209","","image-keyboard-response","289","263876","0.0-289.0","3LYA37P8IR9EB4RP0OBPST01YVGBKQ","A10249252O9I20MRSOBVF","3GVPRXWRPHGYHD0HW29VLS36FVC7I4","","img/set1/S1.jpg","83","1","random","83","random,structured_incentive,structured_load,structured_normal","1,2,2,3,4,2","2,1,4,3","true","","",""
"null","","html-keyboard-response","290","264246","0.0-290.0","3LYA37P8IR9EB4RP0OBPST01YVGBKQ","A10249252O9I20MRSOBVF","3GVPRXWRPHGYHD0HW29VLS36FVC7I4","","<img src=""img/set1/S1.jpg"" width=""540"" height = ""360"" style=""border:16px solid orange"">","null","","","","","","","","","",""
"null","","html-keyboard-response","291","264450","0.0-291.0","3LYA37P8IR9EB4RP0OBPST01YVGBKQ","A10249252O9I20MRSOBVF","3GVPRXWRPHGYHD0HW29VLS36FVC7I4","","","null","","","","","","","","","",""
"621.6999999880791","","image-keyboard-response","292","265074","0.0-292.0","3LYA37P8IR9EB4RP0OBPST01YVGBKQ","A10249252O9I20MRSOBVF","3GVPRXWRPHGYHD0HW29VLS36FVC7I4","","img/set1/S4.jpg","74","4","random","74","random,structured_incentive,structured_load,structured_normal","1,2,2,3,4,2","2,1,4,3","true","","",""
"null","","html-keyboard-response","293","265436","0.0-293.0","3LYA37P8IR9EB4RP0OBPST01YVGBKQ","A10249252O9I20MRSOBVF","3GVPRXWRPHGYHD0HW29VLS36FVC7I4","","<img src=""img/set1/S4.jpg"" width=""540"" height = ""360"" style=""border:16px solid orange"">","null","","","","","","","","","",""
"null","","html-keyboard-response","294","265641","0.0-294.0","3LYA37P8IR9EB4RP0OBPST01YVGBKQ","A10249252O9I20MRSOBVF","3GVPRXWRPHGYHD0HW29VLS36FVC7I4","","","null","","","","","","","","","",""
"483.19999998807907","","image-keyboard-response","295","266128","0.0-295.0","3LYA37P8IR9EB4RP0OBPST01YVGBKQ","A10249252O9I20MRSOBVF","3GVPRXWRPHGYHD0HW29VLS36FVC7I4","","img/set1/S4.jpg","74","4","random","74","random,structured_incentive,structured_load,structured_normal","1,2,2,3,4,2","2,1,4,3","true","","",""
"null","","html-keyboard-response","296","266486","0.0-296.0","3LYA37P8IR9EB4RP0OBPST01YVGBKQ","A10249252O9I20MRSOBVF","3GVPRXWRPHGYHD0HW29VLS36FVC7I4","","<img src=""img/set1/S4.jpg"" width=""540"" height = ""360"" style=""border:16px solid orange"">","null","","","","","","","","","",""
"null","","html-keyboard-response","297","266693","0.0-297.0","3LYA37P8IR9EB4RP0OBPST01YVGBKQ","A10249252O9I20MRSOBVF","3GVPRXWRPHGYHD0HW29VLS36FVC7I4","","","null","","","","","","","","","",""
"681.1999999880791","","image-keyboard-response","298","267378","0.0-298.0","3LYA37P8IR9EB4RP0OBPST01YVGBKQ","A10249252O9I20MRSOBVF","3GVPRXWRPHGYHD0HW29VLS36FVC7I4","","img/set1/S3.jpg","72","3","random","72","random,structured_incentive,structured_load,structured_normal","1,2,2,3,4,2","2,1,4,3","true","","",""
"null","","html-keyboard-response","299","267743","0.0-299.0","3LYA37P8IR9EB4RP0OBPST01YVGBKQ","A10249252O9I20MRSOBVF","3GVPRXWRPHGYHD0HW29VLS36FVC7I4","","<img src=""img/set1/S3.jpg"" width=""540"" height = ""360"" style=""border:16px solid orange"">","null","","","","","","","","","",""
"null","","html-keyboard-response","300","267952","0.0-300.0","3LYA37P8IR9EB4RP0OBPST01YVGBKQ","A10249252O9I20MRSOBVF","3GVPRXWRPHGYHD0HW29VLS36FVC7I4","","","null","","","","","","","","","",""
"726.8999999761581","","image-keyboard-response","301","268680","0.0-301.0","3LYA37P8IR9EB4RP0OBPST01YVGBKQ","A10249252O9I20MRSOBVF","3GVPRXWRPHGYHD0HW29VLS36FVC7I4","","img/set1/S4.jpg","74","4","random","74","random,structured_incentive,structured_load,structured_normal","1,2,2,3,4,2","2,1,4,3","true","","",""
"null","","html-keyboard-response","302","269037","0.0-302.0","3LYA37P8IR9EB4RP0OBPST01YVGBKQ","A10249252O9I20MRSOBVF","3GVPRXWRPHGYHD0HW29VLS36FVC7I4","","<img src=""img/set1/S4.jpg"" width=""540"" height = ""360"" style=""border:16px solid orange"">","null","","","","","","","","","",""
"null","","html-keyboard-response","303","269251","0.0-303.0","3LYA37P8IR9EB4RP0OBPST01YVGBKQ","A10249252O9I20MRSOBVF","3GVPRXWRPHGYHD0HW29VLS36FVC7I4","","","null","","","","","","","","","",""
"463.2000000476837","","image-keyboard-response","304","269717","0.0-304.0","3LYA37P8IR9EB4RP0OBPST01YVGBKQ","A10249252O9I20MRSOBVF","3GVPRXWRPHGYHD0HW29VLS36FVC7I4","","img/set1/S4.jpg","74","4","random","74","random,structured_incentive,structured_load,structured_normal","1,2,2,3,4,2","2,1,4,3","true","","",""
"null","","html-keyboard-response","305","270081","0.0-305.0","3LYA37P8IR9EB4RP0OBPST01YVGBKQ","A10249252O9I20MRSOBVF","3GVPRXWRPHGYHD0HW29VLS36FVC7I4","","<img src=""img/set1/S4.jpg"" width=""540"" height = ""360"" style=""border:16px solid orange"">","null","","","","","","","","","",""
"null","","html-keyboard-response","306","270286","0.0-306.0","3LYA37P8IR9EB4RP0OBPST01YVGBKQ","A10249252O9I20MRSOBVF","3GVPRXWRPHGYHD0HW29VLS36FVC7I4","","","null","","","","","","","","","",""
"624.9000000357628","","image-keyboard-response","307","270913","0.0-307.0","3LYA37P8IR9EB4RP0OBPST01YVGBKQ","A10249252O9I20MRSOBVF","3GVPRXWRPHGYHD0HW29VLS36FVC7I4","","img/set1/S3.jpg","72","3","random","72","random,structured_incentive,structured_load,structured_normal","1,2,2,3,4,2","2,1,4,3","true","","",""
"null","","html-keyboard-response","308","271273","0.0-308.0","3LYA37P8IR9EB4RP0OBPST01YVGBKQ","A10249252O9I20MRSOBVF","3GVPRXWRPHGYHD0HW29VLS36FVC7I4","","<img src=""img/set1/S3.jpg"" width=""540"" height = ""360"" style=""border:16px solid orange"">","null","","","","","","","","","",""
"null","","html-keyboard-response","309","271477","0.0-309.0","3LYA37P8IR9EB4RP0OBPST01YVGBKQ","A10249252O9I20MRSOBVF","3GVPRXWRPHGYHD0HW29VLS36FVC7I4","","","null","","","","","","","","","",""
"643.6999999880791","","image-keyboard-response","310","272123","0.0-310.0","3LYA37P8IR9EB4RP0OBPST01YVGBKQ","A10249252O9I20MRSOBVF","3GVPRXWRPHGYHD0HW29VLS36FVC7I4","","img/set1/S2.jpg","68","2","random","68","random,structured_incentive,structured_load,structured_normal","1,2,2,3,4,2","2,1,4,3","true","","",""
"null","","html-keyboard-response","311","272489","0.0-311.0","3LYA37P8IR9EB4RP0OBPST01YVGBKQ","A10249252O9I20MRSOBVF","3GVPRXWRPHGYHD0HW29VLS36FVC7I4","","<img src=""img/set1/S2.jpg"" width=""540"" height = ""360"" style=""border:16px solid orange"">","null","","","","","","","","","",""
"null","","html-keyboard-response","312","272700","0.0-312.0","3LYA37P8IR9EB4RP0OBPST01YVGBKQ","A10249252O9I20MRSOBVF","3GVPRXWRPHGYHD0HW29VLS36FVC7I4","","","null","","","","","","","","","",""
"712.0999999642372","","image-keyboard-response","313","273416","0.0-313.0","3LYA37P8IR9EB4RP0OBPST01YVGBKQ","A10249252O9I20MRSOBVF","3GVPRXWRPHGYHD0HW29VLS36FVC7I4","","img/set1/S4.jpg","74","4","random","74","random,structured_incentive,structured_load,structured_normal","1,2,2,3,4,2","2,1,4,3","true","","",""
"null","","html-keyboard-response","314","273783","0.0-314.0","3LYA37P8IR9EB4RP0OBPST01YVGBKQ","A10249252O9I20MRSOBVF","3GVPRXWRPHGYHD0HW29VLS36FVC7I4","","<img src=""img/set1/S4.jpg"" width=""540"" height = ""360"" style=""border:16px solid orange"">","null","","","","","","","","","",""
"null","","html-keyboard-response","315","273986","0.0-315.0","3LYA37P8IR9EB4RP0OBPST01YVGBKQ","A10249252O9I20MRSOBVF","3GVPRXWRPHGYHD0HW29VLS36FVC7I4","","","null","","","","","","","","","",""
"658.6000000238419","","image-keyboard-response","316","274647","0.0-316.0","3LYA37P8IR9EB4RP0OBPST01YVGBKQ","A10249252O9I20MRSOBVF","3GVPRXWRPHGYHD0HW29VLS36FVC7I4","","img/set1/S1.jpg","83","1","random","83","random,structured_incentive,structured_load,structured_normal","1,2,2,3,4,2","2,1,4,3","true","","",""
"null","","html-keyboard-response","317","275009","0.0-317.0","3LYA37P8IR9EB4RP0OBPST01YVGBKQ","A10249252O9I20MRSOBVF","3GVPRXWRPHGYHD0HW29VLS36FVC7I4","","<img src=""img/set1/S1.jpg"" width=""540"" height = ""360"" style=""border:16px solid orange"">","null","","","","","","","","","",""
"null","","html-keyboard-response","318","275215","0.0-318.0","3LYA37P8IR9EB4RP0OBPST01YVGBKQ","A10249252O9I20MRSOBVF","3GVPRXWRPHGYHD0HW29VLS36FVC7I4","","","null","","","","","","","","","",""
"684.0999999642372","","image-keyboard-response","319","275901","0.0-319.0","3LYA37P8IR9EB4RP0OBPST01YVGBKQ","A10249252O9I20MRSOBVF","3GVPRXWRPHGYHD0HW29VLS36FVC7I4","","img/set1/S2.jpg","68","2","random","68","random,structured_incentive,structured_load,structured_normal","1,2,2,3,4,2","2,1,4,3","true","","",""
"null","","html-keyboard-response","320","276261","0.0-320.0","3LYA37P8IR9EB4RP0OBPST01YVGBKQ","A10249252O9I20MRSOBVF","3GVPRXWRPHGYHD0HW29VLS36FVC7I4","","<img src=""img/set1/S2.jpg"" width=""540"" height = ""360"" style=""border:16px solid orange"">","null","","","","","","","","","",""
"null","","html-keyboard-response","321","276471","0.0-321.0","3LYA37P8IR9EB4RP0OBPST01YVGBKQ","A10249252O9I20MRSOBVF","3GVPRXWRPHGYHD0HW29VLS36FVC7I4","","","null","","","","","","","","","",""
"657.3000000119209","","image-keyboard-response","322","277130","0.0-322.0","3LYA37P8IR9EB4RP0OBPST01YVGBKQ","A10249252O9I20MRSOBVF","3GVPRXWRPHGYHD0HW29VLS36FVC7I4","","img/set1/S4.jpg","74","4","random","74","random,structured_incentive,structured_load,structured_normal","1,2,2,3,4,2","2,1,4,3","true","","",""
"null","","html-keyboard-response","323","277486","0.0-323.0","3LYA37P8IR9EB4RP0OBPST01YVGBKQ","A10249252O9I20MRSOBVF","3GVPRXWRPHGYHD0HW29VLS36FVC7I4","","<img src=""img/set1/S4.jpg"" width=""540"" height = ""360"" style=""border:16px solid orange"">","null","","","","","","","","","",""
"null","","html-keyboard-response","324","277689","0.0-324.0","3LYA37P8IR9EB4RP0OBPST01YVGBKQ","A10249252O9I20MRSOBVF","3GVPRXWRPHGYHD0HW29VLS36FVC7I4","","","null","","","","","","","","","",""
"627","","image-keyboard-response","325","278319","0.0-325.0","3LYA37P8IR9EB4RP0OBPST01YVGBKQ","A10249252O9I20MRSOBVF","3GVPRXWRPHGYHD0HW29VLS36FVC7I4","","img/set1/S2.jpg","83","2","random","68","random,structured_incentive,structured_load,structured_normal","1,2,2,3,4,2","2,1,4,3","false","","",""
"null","","html-keyboard-response","326","278674","0.0-326.0","3LYA37P8IR9EB4RP0OBPST01YVGBKQ","A10249252O9I20MRSOBVF","3GVPRXWRPHGYHD0HW29VLS36FVC7I4","","<img src=""img/set1/S2.jpg"" width=""540"" height = ""360"">","null","","","","","","","","","",""
"null","","html-keyboard-response","327","278877","0.0-327.0","3LYA37P8IR9EB4RP0OBPST01YVGBKQ","A10249252O9I20MRSOBVF","3GVPRXWRPHGYHD0HW29VLS36FVC7I4","","","null","","","","","","","","","",""
"757","","image-keyboard-response","328","279636","0.0-328.0","3LYA37P8IR9EB4RP0OBPST01YVGBKQ","A10249252O9I20MRSOBVF","3GVPRXWRPHGYHD0HW29VLS36FVC7I4","","img/set1/S4.jpg","74","4","random","74","random,structured_incentive,structured_load,structured_normal","1,2,2,3,4,2","2,1,4,3","true","","",""
"null","","html-keyboard-response","329","280000","0.0-329.0","3LYA37P8IR9EB4RP0OBPST01YVGBKQ","A10249252O9I20MRSOBVF","3GVPRXWRPHGYHD0HW29VLS36FVC7I4","","<img src=""img/set1/S4.jpg"" width=""540"" height = ""360"" style=""border:16px solid orange"">","null","","","","","","","","","",""
"null","","html-keyboard-response","330","280211","0.0-330.0","3LYA37P8IR9EB4RP0OBPST01YVGBKQ","A10249252O9I20MRSOBVF","3GVPRXWRPHGYHD0HW29VLS36FVC7I4","","","null","","","","","","","","","",""
"686.3000000119209","","image-keyboard-response","331","280900","0.0-331.0","3LYA37P8IR9EB4RP0OBPST01YVGBKQ","A10249252O9I20MRSOBVF","3GVPRXWRPHGYHD0HW29VLS36FVC7I4","","img/set1/S1.jpg","83","1","random","83","random,structured_incentive,structured_load,structured_normal","1,2,2,3,4,2","2,1,4,3","true","","",""
"null","","html-keyboard-response","332","281261","0.0-332.0","3LYA37P8IR9EB4RP0OBPST01YVGBKQ","A10249252O9I20MRSOBVF","3GVPRXWRPHGYHD0HW29VLS36FVC7I4","","<img src=""img/set1/S1.jpg"" width=""540"" height = ""360"" style=""border:16px solid orange"">","null","","","","","","","","","",""
"null","","html-keyboard-response","333","281475","0.0-333.0","3LYA37P8IR9EB4RP0OBPST01YVGBKQ","A10249252O9I20MRSOBVF","3GVPRXWRPHGYHD0HW29VLS36FVC7I4","","","null","","","","","","","","","",""
"598.3999999761581","","image-keyboard-response","334","282076","0.0-334.0","3LYA37P8IR9EB4RP0OBPST01YVGBKQ","A10249252O9I20MRSOBVF","3GVPRXWRPHGYHD0HW29VLS36FVC7I4","","img/set1/S1.jpg","83","1","random","83","random,structured_incentive,structured_load,structured_normal","1,2,2,3,4,2","2,1,4,3","true","","",""
"null","","html-keyboard-response","335","282443","0.0-335.0","3LYA37P8IR9EB4RP0OBPST01YVGBKQ","A10249252O9I20MRSOBVF","3GVPRXWRPHGYHD0HW29VLS36FVC7I4","","<img src=""img/set1/S1.jpg"" width=""540"" height = ""360"" style=""border:16px solid orange"">","null","","","","","","","","","",""
"null","","html-keyboard-response","336","282651","0.0-336.0","3LYA37P8IR9EB4RP0OBPST01YVGBKQ","A10249252O9I20MRSOBVF","3GVPRXWRPHGYHD0HW29VLS36FVC7I4","","","null","","","","","","","","","",""
"587.1000000238419","","image-keyboard-response","337","283240","0.0-337.0","3LYA37P8IR9EB4RP0OBPST01YVGBKQ","A10249252O9I20MRSOBVF","3GVPRXWRPHGYHD0HW29VLS36FVC7I4","","img/set1/S1.jpg","83","1","random","83","random,structured_incentive,structured_load,structured_normal","1,2,2,3,4,2","2,1,4,3","true","","",""
"null","","html-keyboard-response","338","283599","0.0-338.0","3LYA37P8IR9EB4RP0OBPST01YVGBKQ","A10249252O9I20MRSOBVF","3GVPRXWRPHGYHD0HW29VLS36FVC7I4","","<img src=""img/set1/S1.jpg"" width=""540"" height = ""360"" style=""border:16px solid orange"">","null","","","","","","","","","",""
"null","","html-keyboard-response","339","283810","0.0-339.0","3LYA37P8IR9EB4RP0OBPST01YVGBKQ","A10249252O9I20MRSOBVF","3GVPRXWRPHGYHD0HW29VLS36FVC7I4","","","null","","","","","","","","","",""
"553.5","","image-keyboard-response","340","284366","0.0-340.0","3LYA37P8IR9EB4RP0OBPST01YVGBKQ","A10249252O9I20MRSOBVF","3GVPRXWRPHGYHD0HW29VLS36FVC7I4","","img/set1/S1.jpg","83","1","random","83","random,structured_incentive,structured_load,structured_normal","1,2,2,3,4,2","2,1,4,3","true","","",""
"null","","html-keyboard-response","341","284721","0.0-341.0","3LYA37P8IR9EB4RP0OBPST01YVGBKQ","A10249252O9I20MRSOBVF","3GVPRXWRPHGYHD0HW29VLS36FVC7I4","","<img src=""img/set1/S1.jpg"" width=""540"" height = ""360"" style=""border:16px solid orange"">","null","","","","","","","","","",""
"null","","html-keyboard-response","342","284928","0.0-342.0","3LYA37P8IR9EB4RP0OBPST01YVGBKQ","A10249252O9I20MRSOBVF","3GVPRXWRPHGYHD0HW29VLS36FVC7I4","","","null","","","","","","","","","",""
"646.6000000238419","","image-keyboard-response","343","285577","0.0-343.0","3LYA37P8IR9EB4RP0OBPST01YVGBKQ","A10249252O9I20MRSOBVF","3GVPRXWRPHGYHD0HW29VLS36FVC7I4","","img/set1/S3.jpg","72","3","random","72","random,structured_incentive,structured_load,structured_normal","1,2,2,3,4,2","2,1,4,3","true","","",""
"null","","html-keyboard-response","344","285936","0.0-344.0","3LYA37P8IR9EB4RP0OBPST01YVGBKQ","A10249252O9I20MRSOBVF","3GVPRXWRPHGYHD0HW29VLS36FVC7I4","","<img src=""img/set1/S3.jpg"" width=""540"" height = ""360"" style=""border:16px solid orange"">","null","","","","","","","","","",""
"null","","html-keyboard-response","345","286140","0.0-345.0","3LYA37P8IR9EB4RP0OBPST01YVGBKQ","A10249252O9I20MRSOBVF","3GVPRXWRPHGYHD0HW29VLS36FVC7I4","","","null","","","","","","","","","",""
"590.3000000119209","","image-keyboard-response","346","286733","0.0-346.0","3LYA37P8IR9EB4RP0OBPST01YVGBKQ","A10249252O9I20MRSOBVF","3GVPRXWRPHGYHD0HW29VLS36FVC7I4","","img/set1/S4.jpg","74","4","random","74","random,structured_incentive,structured_load,structured_normal","1,2,2,3,4,2","2,1,4,3","true","","",""
"null","","html-keyboard-response","347","287094","0.0-347.0","3LYA37P8IR9EB4RP0OBPST01YVGBKQ","A10249252O9I20MRSOBVF","3GVPRXWRPHGYHD0HW29VLS36FVC7I4","","<img src=""img/set1/S4.jpg"" width=""540"" height = ""360"" style=""border:16px solid orange"">","null","","","","","","","","","",""
"null","","html-keyboard-response","348","287299","0.0-348.0","3LYA37P8IR9EB4RP0OBPST01YVGBKQ","A10249252O9I20MRSOBVF","3GVPRXWRPHGYHD0HW29VLS36FVC7I4","","","null","","","","","","","","","",""
"502.19999998807907","","image-keyboard-response","349","287804","0.0-349.0","3LYA37P8IR9EB4RP0OBPST01YVGBKQ","A10249252O9I20MRSOBVF","3GVPRXWRPHGYHD0HW29VLS36FVC7I4","","img/set1/S4.jpg","74","4","random","74","random,structured_incentive,structured_load,structured_normal","1,2,2,3,4,2","2,1,4,3","true","","",""
"null","","html-keyboard-response","350","288173","0.0-350.0","3LYA37P8IR9EB4RP0OBPST01YVGBKQ","A10249252O9I20MRSOBVF","3GVPRXWRPHGYHD0HW29VLS36FVC7I4","","<img src=""img/set1/S4.jpg"" width=""540"" height = ""360"" style=""border:16px solid orange"">","null","","","","","","","","","",""
"null","","html-keyboard-response","351","288375","0.0-351.0","3LYA37P8IR9EB4RP0OBPST01YVGBKQ","A10249252O9I20MRSOBVF","3GVPRXWRPHGYHD0HW29VLS36FVC7I4","","","null","","","","","","","","","",""
"585.3999999761581","","image-keyboard-response","352","288963","0.0-352.0","3LYA37P8IR9EB4RP0OBPST01YVGBKQ","A10249252O9I20MRSOBVF","3GVPRXWRPHGYHD0HW29VLS36FVC7I4","","img/set1/S2.jpg","68","2","random","68","random,structured_incentive,structured_load,structured_normal","1,2,2,3,4,2","2,1,4,3","true","","",""
"null","","html-keyboard-response","353","289324","0.0-353.0","3LYA37P8IR9EB4RP0OBPST01YVGBKQ","A10249252O9I20MRSOBVF","3GVPRXWRPHGYHD0HW29VLS36FVC7I4","","<img src=""img/set1/S2.jpg"" width=""540"" height = ""360"" style=""border:16px solid orange"">","null","","","","","","","","","",""
"null","","html-keyboard-response","354","289535","0.0-354.0","3LYA37P8IR9EB4RP0OBPST01YVGBKQ","A10249252O9I20MRSOBVF","3GVPRXWRPHGYHD0HW29VLS36FVC7I4","","","null","","","","","","","","","",""
"692.8000000119209","","image-keyboard-response","355","290231","0.0-355.0","3LYA37P8IR9EB4RP0OBPST01YVGBKQ","A10249252O9I20MRSOBVF","3GVPRXWRPHGYHD0HW29VLS36FVC7I4","","img/set1/S3.jpg","72","3","random","72","random,structured_incentive,structured_load,structured_normal","1,2,2,3,4,2","2,1,4,3","true","","",""
"null","","html-keyboard-response","356","290590","0.0-356.0","3LYA37P8IR9EB4RP0OBPST01YVGBKQ","A10249252O9I20MRSOBVF","3GVPRXWRPHGYHD0HW29VLS36FVC7I4","","<img src=""img/set1/S3.jpg"" width=""540"" height = ""360"" style=""border:16px solid orange"">","null","","","","","","","","","",""
"null","","html-keyboard-response","357","290802","0.0-357.0","3LYA37P8IR9EB4RP0OBPST01YVGBKQ","A10249252O9I20MRSOBVF","3GVPRXWRPHGYHD0HW29VLS36FVC7I4","","","null","","","","","","","","","",""
"899.1999999880791","","image-keyboard-response","358","291704","0.0-358.0","3LYA37P8IR9EB4RP0OBPST01YVGBKQ","A10249252O9I20MRSOBVF","3GVPRXWRPHGYHD0HW29VLS36FVC7I4","","img/set1/S1.jpg","83","1","random","83","random,structured_incentive,structured_load,structured_normal","1,2,2,3,4,2","2,1,4,3","true","","",""
"null","","html-keyboard-response","359","292069","0.0-359.0","3LYA37P8IR9EB4RP0OBPST01YVGBKQ","A10249252O9I20MRSOBVF","3GVPRXWRPHGYHD0HW29VLS36FVC7I4","","<img src=""img/set1/S1.jpg"" width=""540"" height = ""360"" style=""border:16px solid orange"">","null","","","","","","","","","",""
"null","","html-keyboard-response","360","292277","0.0-360.0","3LYA37P8IR9EB4RP0OBPST01YVGBKQ","A10249252O9I20MRSOBVF","3GVPRXWRPHGYHD0HW29VLS36FVC7I4","","","null","","","","","","","","","",""
"943.5","","image-keyboard-response","361","293223","0.0-361.0","3LYA37P8IR9EB4RP0OBPST01YVGBKQ","A10249252O9I20MRSOBVF","3GVPRXWRPHGYHD0HW29VLS36FVC7I4","","img/set1/S2.jpg","68","2","random","68","random,structured_incentive,structured_load,structured_normal","1,2,2,3,4,2","2,1,4,3","true","","",""
"null","","html-keyboard-response","362","293586","0.0-362.0","3LYA37P8IR9EB4RP0OBPST01YVGBKQ","A10249252O9I20MRSOBVF","3GVPRXWRPHGYHD0HW29VLS36FVC7I4","","<img src=""img/set1/S2.jpg"" width=""540"" height = ""360"" style=""border:16px solid orange"">","null","","","","","","","","","",""
"null","","html-keyboard-response","363","293796","0.0-363.0","3LYA37P8IR9EB4RP0OBPST01YVGBKQ","A10249252O9I20MRSOBVF","3GVPRXWRPHGYHD0HW29VLS36FVC7I4","","","null","","","","","","","","","",""
"607.5","","image-keyboard-response","364","294406","0.0-364.0","3LYA37P8IR9EB4RP0OBPST01YVGBKQ","A10249252O9I20MRSOBVF","3GVPRXWRPHGYHD0HW29VLS36FVC7I4","","img/set1/S2.jpg","68","2","random","68","random,structured_incentive,structured_load,structured_normal","1,2,2,3,4,2","2,1,4,3","true","","",""
"null","","html-keyboard-response","365","294761","0.0-365.0","3LYA37P8IR9EB4RP0OBPST01YVGBKQ","A10249252O9I20MRSOBVF","3GVPRXWRPHGYHD0HW29VLS36FVC7I4","","<img src=""img/set1/S2.jpg"" width=""540"" height = ""360"" style=""border:16px solid orange"">","null","","","","","","","","","",""
"null","","html-keyboard-response","366","294970","0.0-366.0","3LYA37P8IR9EB4RP0OBPST01YVGBKQ","A10249252O9I20MRSOBVF","3GVPRXWRPHGYHD0HW29VLS36FVC7I4","","","null","","","","","","","","","",""
"1202.5","","image-keyboard-response","367","296177","0.0-367.0","3LYA37P8IR9EB4RP0OBPST01YVGBKQ","A10249252O9I20MRSOBVF","3GVPRXWRPHGYHD0HW29VLS36FVC7I4","","img/set1/S3.jpg","72","3","random","72","random,structured_incentive,structured_load,structured_normal","1,2,2,3,4,2","2,1,4,3","true","","",""
"null","","html-keyboard-response","368","296539","0.0-368.0","3LYA37P8IR9EB4RP0OBPST01YVGBKQ","A10249252O9I20MRSOBVF","3GVPRXWRPHGYHD0HW29VLS36FVC7I4","","<img src=""img/set1/S3.jpg"" width=""540"" height = ""360"" style=""border:16px solid orange"">","null","","","","","","","","","",""
"null","","html-keyboard-response","369","296747","0.0-369.0","3LYA37P8IR9EB4RP0OBPST01YVGBKQ","A10249252O9I20MRSOBVF","3GVPRXWRPHGYHD0HW29VLS36FVC7I4","","","null","","","","","","","","","",""
"480","","image-keyboard-response","370","297229","0.0-370.0","3LYA37P8IR9EB4RP0OBPST01YVGBKQ","A10249252O9I20MRSOBVF","3GVPRXWRPHGYHD0HW29VLS36FVC7I4","","img/set1/S4.jpg","74","4","random","74","random,structured_incentive,structured_load,structured_normal","1,2,2,3,4,2","2,1,4,3","true","","",""
"null","","html-keyboard-response","371","297590","0.0-371.0","3LYA37P8IR9EB4RP0OBPST01YVGBKQ","A10249252O9I20MRSOBVF","3GVPRXWRPHGYHD0HW29VLS36FVC7I4","","<img src=""img/set1/S4.jpg"" width=""540"" height = ""360"" style=""border:16px solid orange"">","null","","","","","","","","","",""
"null","","html-keyboard-response","372","297801","0.0-372.0","3LYA37P8IR9EB4RP0OBPST01YVGBKQ","A10249252O9I20MRSOBVF","3GVPRXWRPHGYHD0HW29VLS36FVC7I4","","","null","","","","","","","","","",""
"653","","image-keyboard-response","373","298457","0.0-373.0","3LYA37P8IR9EB4RP0OBPST01YVGBKQ","A10249252O9I20MRSOBVF","3GVPRXWRPHGYHD0HW29VLS36FVC7I4","","img/set1/S3.jpg","72","3","random","72","random,structured_incentive,structured_load,structured_normal","1,2,2,3,4,2","2,1,4,3","true","","",""
"null","","html-keyboard-response","374","298820","0.0-374.0","3LYA37P8IR9EB4RP0OBPST01YVGBKQ","A10249252O9I20MRSOBVF","3GVPRXWRPHGYHD0HW29VLS36FVC7I4","","<img src=""img/set1/S3.jpg"" width=""540"" height = ""360"" style=""border:16px solid orange"">","null","","","","","","","","","",""
"null","","html-keyboard-response","375","299027","0.0-375.0","3LYA37P8IR9EB4RP0OBPST01YVGBKQ","A10249252O9I20MRSOBVF","3GVPRXWRPHGYHD0HW29VLS36FVC7I4","","","null","","","","","","","","","",""
"1334.699999988079","","image-keyboard-response","376","300364","0.0-376.0","3LYA37P8IR9EB4RP0OBPST01YVGBKQ","A10249252O9I20MRSOBVF","3GVPRXWRPHGYHD0HW29VLS36FVC7I4","","img/set1/S2.jpg","68","2","random","68","random,structured_incentive,structured_load,structured_normal","1,2,2,3,4,2","2,1,4,3","true","","",""
