"rt","url","trial_type","trial_index","time_elapsed","internal_node_id","assignmentID","mturkID","hitID","view_history","stimulus","key_press","state","test_part","correct_response","order_block","order_chunk","order_freq","correct","responses","question_order","bonus"
"184064","consent.html","external-html","0","184136","0.0-0.0","3AWETUDC93EJN74H6Z6G1VSRWFJZIK","A11Q8U6QTT8KGF","3WUVMVA7OBP2V5NP3991VE8MBDEZA7","","","","","","","","","","","","",""
"377164.2999999523","","instructions","1","561304","0.0-1.0","3AWETUDC93EJN74H6Z6G1VSRWFJZIK","A11Q8U6QTT8KGF","3WUVMVA7OBP2V5NP3991VE8MBDEZA7","[{""page_index"":0,""viewing_time"":200285.39999997616},{""page_index"":1,""viewing_time"":13349.699999928474},{""page_index"":2,""viewing_time"":13588.200000047684},{""page_index"":3,""viewing_time"":25867.200000047684},{""page_index"":4,""viewing_time"":6988.099999904633},{""page_index"":5,""viewing_time"":18018.100000023842},{""page_index"":6,""viewing_time"":99066.20000004768}]","","","","","","","","","","","",""
"10272.800000071526","","instructions","2","571578","0.0-2.0","3AWETUDC93EJN74H6Z6G1VSRWFJZIK","A11Q8U6QTT8KGF","3WUVMVA7OBP2V5NP3991VE8MBDEZA7","[{""page_index"":0,""viewing_time"":10272.399999976158}]","","","","","","","","","","","",""
"8048.700000047684","","instructions","3","579628","0.0-3.0","3AWETUDC93EJN74H6Z6G1VSRWFJZIK","A11Q8U6QTT8KGF","3WUVMVA7OBP2V5NP3991VE8MBDEZA7","[{""page_index"":0,""viewing_time"":8048.400000095367}]","","","","","","","","","","","",""
"1390.5","","image-keyboard-response","4","581021","0.0-4.0","3AWETUDC93EJN74H6Z6G1VSRWFJZIK","A11Q8U6QTT8KGF","3WUVMVA7OBP2V5NP3991VE8MBDEZA7","","img/set1/S2.jpg","83","2","structured_normal","68","structured_normal,structured_load,structured_incentive,random","2,3,4,2,1,2","3,4,1,2","false","","",""
"null","","html-keyboard-response","5","581374","0.0-5.0","3AWETUDC93EJN74H6Z6G1VSRWFJZIK","A11Q8U6QTT8KGF","3WUVMVA7OBP2V5NP3991VE8MBDEZA7","","<img src=""img/set1/S2.jpg"" width=""540"" height = ""360"">","null","","","","","","","","","",""
"null","","html-keyboard-response","6","581587","0.0-6.0","3AWETUDC93EJN74H6Z6G1VSRWFJZIK","A11Q8U6QTT8KGF","3WUVMVA7OBP2V5NP3991VE8MBDEZA7","","","null","","","","","","","","","",""
"906.9000000953674","","image-keyboard-response","7","582497","0.0-7.0","3AWETUDC93EJN74H6Z6G1VSRWFJZIK","A11Q8U6QTT8KGF","3WUVMVA7OBP2V5NP3991VE8MBDEZA7","","img/set1/S3.jpg","72","3","structured_normal","72","structured_normal,structured_load,structured_incentive,random","2,3,4,2,1,2","3,4,1,2","true","","",""
"null","","html-keyboard-response","8","582850","0.0-8.0","3AWETUDC93EJN74H6Z6G1VSRWFJZIK","A11Q8U6QTT8KGF","3WUVMVA7OBP2V5NP3991VE8MBDEZA7","","<img src=""img/set1/S3.jpg"" width=""540"" height = ""360"" style=""border:16px solid orange"">","null","","","","","","","","","",""
"null","","html-keyboard-response","9","583052","0.0-9.0","3AWETUDC93EJN74H6Z6G1VSRWFJZIK","A11Q8U6QTT8KGF","3WUVMVA7OBP2V5NP3991VE8MBDEZA7","","","null","","","","","","","","","",""
"927.7999999523163","","image-keyboard-response","10","583981","0.0-10.0","3AWETUDC93EJN74H6Z6G1VSRWFJZIK","A11Q8U6QTT8KGF","3WUVMVA7OBP2V5NP3991VE8MBDEZA7","","img/set1/S1.jpg","74","1","structured_normal","83","structured_normal,structured_load,structured_incentive,random","2,3,4,2,1,2","3,4,1,2","false","","",""
"null","","html-keyboard-response","11","584334","0.0-11.0","3AWETUDC93EJN74H6Z6G1VSRWFJZIK","A11Q8U6QTT8KGF","3WUVMVA7OBP2V5NP3991VE8MBDEZA7","","<img src=""img/set1/S1.jpg"" width=""540"" height = ""360"">","null","","","","","","","","","",""
"null","","html-keyboard-response","12","584536","0.0-12.0","3AWETUDC93EJN74H6Z6G1VSRWFJZIK","A11Q8U6QTT8KGF","3WUVMVA7OBP2V5NP3991VE8MBDEZA7","","","null","","","","","","","","","",""
"843.5","","image-keyboard-response","13","585380","0.0-13.0","3AWETUDC93EJN74H6Z6G1VSRWFJZIK","A11Q8U6QTT8KGF","3WUVMVA7OBP2V5NP3991VE8MBDEZA7","","img/set1/S2.jpg","68","2","structured_normal","68","structured_normal,structured_load,structured_incentive,random","2,3,4,2,1,2","3,4,1,2","true","","",""
"null","","html-keyboard-response","14","585732","0.0-14.0","3AWETUDC93EJN74H6Z6G1VSRWFJZIK","A11Q8U6QTT8KGF","3WUVMVA7OBP2V5NP3991VE8MBDEZA7","","<img src=""img/set1/S2.jpg"" width=""540"" height = ""360"" style=""border:16px solid orange"">","null","","","","","","","","","",""
"null","","html-keyboard-response","15","585934","0.0-15.0","3AWETUDC93EJN74H6Z6G1VSRWFJZIK","A11Q8U6QTT8KGF","3WUVMVA7OBP2V5NP3991VE8MBDEZA7","","","null","","","","","","","","","",""
"1089.1999999284744","","image-keyboard-response","16","587025","0.0-16.0","3AWETUDC93EJN74H6Z6G1VSRWFJZIK","A11Q8U6QTT8KGF","3WUVMVA7OBP2V5NP3991VE8MBDEZA7","","img/set1/S3.jpg","83","3","structured_normal","72","structured_normal,structured_load,structured_incentive,random","2,3,4,2,1,2","3,4,1,2","false","","",""
"null","","html-keyboard-response","17","587377","0.0-17.0","3AWETUDC93EJN74H6Z6G1VSRWFJZIK","A11Q8U6QTT8KGF","3WUVMVA7OBP2V5NP3991VE8MBDEZA7","","<img src=""img/set1/S3.jpg"" width=""540"" height = ""360"">","null","","","","","","","","","",""
"null","","html-keyboard-response","18","587579","0.0-18.0","3AWETUDC93EJN74H6Z6G1VSRWFJZIK","A11Q8U6QTT8KGF","3WUVMVA7OBP2V5NP3991VE8MBDEZA7","","","null","","","","","","","","","",""
"816.6000000238419","","image-keyboard-response","19","588397","0.0-19.0","3AWETUDC93EJN74H6Z6G1VSRWFJZIK","A11Q8U6QTT8KGF","3WUVMVA7OBP2V5NP3991VE8MBDEZA7","","img/set1/S2.jpg","72","2","structured_normal","68","structured_normal,structured_load,structured_incentive,random","2,3,4,2,1,2","3,4,1,2","false","","",""
"null","","html-keyboard-response","20","588784","0.0-20.0","3AWETUDC93EJN74H6Z6G1VSRWFJZIK","A11Q8U6QTT8KGF","3WUVMVA7OBP2V5NP3991VE8MBDEZA7","","<img src=""img/set1/S2.jpg"" width=""540"" height = ""360"">","null","","","","","","","","","",""
"null","","html-keyboard-response","21","588985","0.0-21.0","3AWETUDC93EJN74H6Z6G1VSRWFJZIK","A11Q8U6QTT8KGF","3WUVMVA7OBP2V5NP3991VE8MBDEZA7","","","null","","","","","","","","","",""
"850.7999999523163","","image-keyboard-response","22","589837","0.0-22.0","3AWETUDC93EJN74H6Z6G1VSRWFJZIK","A11Q8U6QTT8KGF","3WUVMVA7OBP2V5NP3991VE8MBDEZA7","","img/set1/S3.jpg","68","3","structured_normal","72","structured_normal,structured_load,structured_incentive,random","2,3,4,2,1,2","3,4,1,2","false","","",""
"null","","html-keyboard-response","23","590190","0.0-23.0","3AWETUDC93EJN74H6Z6G1VSRWFJZIK","A11Q8U6QTT8KGF","3WUVMVA7OBP2V5NP3991VE8MBDEZA7","","<img src=""img/set1/S3.jpg"" width=""540"" height = ""360"">","null","","","","","","","","","",""
"null","","html-keyboard-response","24","590391","0.0-24.0","3AWETUDC93EJN74H6Z6G1VSRWFJZIK","A11Q8U6QTT8KGF","3WUVMVA7OBP2V5NP3991VE8MBDEZA7","","","null","","","","","","","","","",""
"947.2999999523163","","image-keyboard-response","25","591340","0.0-25.0","3AWETUDC93EJN74H6Z6G1VSRWFJZIK","A11Q8U6QTT8KGF","3WUVMVA7OBP2V5NP3991VE8MBDEZA7","","img/set1/S2.jpg","68","2","structured_normal","68","structured_normal,structured_load,structured_incentive,random","2,3,4,2,1,2","3,4,1,2","true","","",""
"null","","html-keyboard-response","26","591693","0.0-26.0","3AWETUDC93EJN74H6Z6G1VSRWFJZIK","A11Q8U6QTT8KGF","3WUVMVA7OBP2V5NP3991VE8MBDEZA7","","<img src=""img/set1/S2.jpg"" width=""540"" height = ""360"" style=""border:16px solid orange"">","null","","","","","","","","","",""
"null","","html-keyboard-response","27","591896","0.0-27.0","3AWETUDC93EJN74H6Z6G1VSRWFJZIK","A11Q8U6QTT8KGF","3WUVMVA7OBP2V5NP3991VE8MBDEZA7","","","null","","","","","","","","","",""
"891.1000000238419","","image-keyboard-response","28","592789","0.0-28.0","3AWETUDC93EJN74H6Z6G1VSRWFJZIK","A11Q8U6QTT8KGF","3WUVMVA7OBP2V5NP3991VE8MBDEZA7","","img/set1/S3.jpg","74","3","structured_normal","72","structured_normal,structured_load,structured_incentive,random","2,3,4,2,1,2","3,4,1,2","false","","",""
"null","","html-keyboard-response","29","593141","0.0-29.0","3AWETUDC93EJN74H6Z6G1VSRWFJZIK","A11Q8U6QTT8KGF","3WUVMVA7OBP2V5NP3991VE8MBDEZA7","","<img src=""img/set1/S3.jpg"" width=""540"" height = ""360"">","null","","","","","","","","","",""
"null","","html-keyboard-response","30","593343","0.0-30.0","3AWETUDC93EJN74H6Z6G1VSRWFJZIK","A11Q8U6QTT8KGF","3WUVMVA7OBP2V5NP3991VE8MBDEZA7","","","null","","","","","","","","","",""
"1019.8000000715256","","image-keyboard-response","31","594364","0.0-31.0","3AWETUDC93EJN74H6Z6G1VSRWFJZIK","A11Q8U6QTT8KGF","3WUVMVA7OBP2V5NP3991VE8MBDEZA7","","img/set1/S4.jpg","72","4","structured_normal","74","structured_normal,structured_load,structured_incentive,random","2,3,4,2,1,2","3,4,1,2","false","","",""
"null","","html-keyboard-response","32","594716","0.0-32.0","3AWETUDC93EJN74H6Z6G1VSRWFJZIK","A11Q8U6QTT8KGF","3WUVMVA7OBP2V5NP3991VE8MBDEZA7","","<img src=""img/set1/S4.jpg"" width=""540"" height = ""360"">","null","","","","","","","","","",""
"null","","html-keyboard-response","33","594918","0.0-33.0","3AWETUDC93EJN74H6Z6G1VSRWFJZIK","A11Q8U6QTT8KGF","3WUVMVA7OBP2V5NP3991VE8MBDEZA7","","","null","","","","","","","","","",""
"1013.5","","image-keyboard-response","34","595933","0.0-34.0","3AWETUDC93EJN74H6Z6G1VSRWFJZIK","A11Q8U6QTT8KGF","3WUVMVA7OBP2V5NP3991VE8MBDEZA7","","img/set1/S2.jpg","68","2","structured_normal","68","structured_normal,structured_load,structured_incentive,random","2,3,4,2,1,2","3,4,1,2","true","","",""
"null","","html-keyboard-response","35","596316","0.0-35.0","3AWETUDC93EJN74H6Z6G1VSRWFJZIK","A11Q8U6QTT8KGF","3WUVMVA7OBP2V5NP3991VE8MBDEZA7","","<img src=""img/set1/S2.jpg"" width=""540"" height = ""360"" style=""border:16px solid orange"">","null","","","","","","","","","",""
"null","","html-keyboard-response","36","596518","0.0-36.0","3AWETUDC93EJN74H6Z6G1VSRWFJZIK","A11Q8U6QTT8KGF","3WUVMVA7OBP2V5NP3991VE8MBDEZA7","","","null","","","","","","","","","",""
"685.3999999761581","","image-keyboard-response","37","597204","0.0-37.0","3AWETUDC93EJN74H6Z6G1VSRWFJZIK","A11Q8U6QTT8KGF","3WUVMVA7OBP2V5NP3991VE8MBDEZA7","","img/set1/S3.jpg","83","3","structured_normal","72","structured_normal,structured_load,structured_incentive,random","2,3,4,2,1,2","3,4,1,2","false","","",""
"null","","html-keyboard-response","38","597559","0.0-38.0","3AWETUDC93EJN74H6Z6G1VSRWFJZIK","A11Q8U6QTT8KGF","3WUVMVA7OBP2V5NP3991VE8MBDEZA7","","<img src=""img/set1/S3.jpg"" width=""540"" height = ""360"">","null","","","","","","","","","",""
"null","","html-keyboard-response","39","597761","0.0-39.0","3AWETUDC93EJN74H6Z6G1VSRWFJZIK","A11Q8U6QTT8KGF","3WUVMVA7OBP2V5NP3991VE8MBDEZA7","","","null","","","","","","","","","",""
"930.6999999284744","","image-keyboard-response","40","598693","0.0-40.0","3AWETUDC93EJN74H6Z6G1VSRWFJZIK","A11Q8U6QTT8KGF","3WUVMVA7OBP2V5NP3991VE8MBDEZA7","","img/set1/S1.jpg","72","1","structured_normal","83","structured_normal,structured_load,structured_incentive,random","2,3,4,2,1,2","3,4,1,2","false","","",""
"null","","html-keyboard-response","41","599057","0.0-41.0","3AWETUDC93EJN74H6Z6G1VSRWFJZIK","A11Q8U6QTT8KGF","3WUVMVA7OBP2V5NP3991VE8MBDEZA7","","<img src=""img/set1/S1.jpg"" width=""540"" height = ""360"">","null","","","","","","","","","",""
"null","","html-keyboard-response","42","599258","0.0-42.0","3AWETUDC93EJN74H6Z6G1VSRWFJZIK","A11Q8U6QTT8KGF","3WUVMVA7OBP2V5NP3991VE8MBDEZA7","","","null","","","","","","","","","",""
"734.2999999523163","","image-keyboard-response","43","599994","0.0-43.0","3AWETUDC93EJN74H6Z6G1VSRWFJZIK","A11Q8U6QTT8KGF","3WUVMVA7OBP2V5NP3991VE8MBDEZA7","","img/set1/S2.jpg","74","2","structured_normal","68","structured_normal,structured_load,structured_incentive,random","2,3,4,2,1,2","3,4,1,2","false","","",""
"null","","html-keyboard-response","44","600346","0.0-44.0","3AWETUDC93EJN74H6Z6G1VSRWFJZIK","A11Q8U6QTT8KGF","3WUVMVA7OBP2V5NP3991VE8MBDEZA7","","<img src=""img/set1/S2.jpg"" width=""540"" height = ""360"">","null","","","","","","","","","",""
"null","","html-keyboard-response","45","600547","0.0-45.0","3AWETUDC93EJN74H6Z6G1VSRWFJZIK","A11Q8U6QTT8KGF","3WUVMVA7OBP2V5NP3991VE8MBDEZA7","","","null","","","","","","","","","",""
"699.1999999284744","","image-keyboard-response","46","601248","0.0-46.0","3AWETUDC93EJN74H6Z6G1VSRWFJZIK","A11Q8U6QTT8KGF","3WUVMVA7OBP2V5NP3991VE8MBDEZA7","","img/set1/S3.jpg","72","3","structured_normal","72","structured_normal,structured_load,structured_incentive,random","2,3,4,2,1,2","3,4,1,2","true","","",""
"null","","html-keyboard-response","47","601600","0.0-47.0","3AWETUDC93EJN74H6Z6G1VSRWFJZIK","A11Q8U6QTT8KGF","3WUVMVA7OBP2V5NP3991VE8MBDEZA7","","<img src=""img/set1/S3.jpg"" width=""540"" height = ""360"" style=""border:16px solid orange"">","null","","","","","","","","","",""
"null","","html-keyboard-response","48","601802","0.0-48.0","3AWETUDC93EJN74H6Z6G1VSRWFJZIK","A11Q8U6QTT8KGF","3WUVMVA7OBP2V5NP3991VE8MBDEZA7","","","null","","","","","","","","","",""
"812.1000000238419","","image-keyboard-response","49","602617","0.0-49.0","3AWETUDC93EJN74H6Z6G1VSRWFJZIK","A11Q8U6QTT8KGF","3WUVMVA7OBP2V5NP3991VE8MBDEZA7","","img/set1/S2.jpg","68","2","structured_normal","68","structured_normal,structured_load,structured_incentive,random","2,3,4,2,1,2","3,4,1,2","true","","",""
"null","","html-keyboard-response","50","602971","0.0-50.0","3AWETUDC93EJN74H6Z6G1VSRWFJZIK","A11Q8U6QTT8KGF","3WUVMVA7OBP2V5NP3991VE8MBDEZA7","","<img src=""img/set1/S2.jpg"" width=""540"" height = ""360"" style=""border:16px solid orange"">","null","","","","","","","","","",""
"null","","html-keyboard-response","51","603172","0.0-51.0","3AWETUDC93EJN74H6Z6G1VSRWFJZIK","A11Q8U6QTT8KGF","3WUVMVA7OBP2V5NP3991VE8MBDEZA7","","","null","","","","","","","","","",""
"642.7999999523163","","image-keyboard-response","52","603816","0.0-52.0","3AWETUDC93EJN74H6Z6G1VSRWFJZIK","A11Q8U6QTT8KGF","3WUVMVA7OBP2V5NP3991VE8MBDEZA7","","img/set1/S3.jpg","72","3","structured_normal","72","structured_normal,structured_load,structured_incentive,random","2,3,4,2,1,2","3,4,1,2","true","","",""
"null","","html-keyboard-response","53","604169","0.0-53.0","3AWETUDC93EJN74H6Z6G1VSRWFJZIK","A11Q8U6QTT8KGF","3WUVMVA7OBP2V5NP3991VE8MBDEZA7","","<img src=""img/set1/S3.jpg"" width=""540"" height = ""360"" style=""border:16px solid orange"">","null","","","","","","","","","",""
"null","","html-keyboard-response","54","604370","0.0-54.0","3AWETUDC93EJN74H6Z6G1VSRWFJZIK","A11Q8U6QTT8KGF","3WUVMVA7OBP2V5NP3991VE8MBDEZA7","","","null","","","","","","","","","",""
"572.3999999761581","","image-keyboard-response","55","604944","0.0-55.0","3AWETUDC93EJN74H6Z6G1VSRWFJZIK","A11Q8U6QTT8KGF","3WUVMVA7OBP2V5NP3991VE8MBDEZA7","","img/set1/S3.jpg","72","3","structured_normal","72","structured_normal,structured_load,structured_incentive,random","2,3,4,2,1,2","3,4,1,2","true","","",""
"null","","html-keyboard-response","56","605297","0.0-56.0","3AWETUDC93EJN74H6Z6G1VSRWFJZIK","A11Q8U6QTT8KGF","3WUVMVA7OBP2V5NP3991VE8MBDEZA7","","<img src=""img/set1/S3.jpg"" width=""540"" height = ""360"" style=""border:16px solid orange"">","null","","","","","","","","","",""
"null","","html-keyboard-response","57","605499","0.0-57.0","3AWETUDC93EJN74H6Z6G1VSRWFJZIK","A11Q8U6QTT8KGF","3WUVMVA7OBP2V5NP3991VE8MBDEZA7","","","null","","","","","","","","","",""
"667.2000000476837","","image-keyboard-response","58","606168","0.0-58.0","3AWETUDC93EJN74H6Z6G1VSRWFJZIK","A11Q8U6QTT8KGF","3WUVMVA7OBP2V5NP3991VE8MBDEZA7","","img/set1/S1.jpg","74","1","structured_normal","83","structured_normal,structured_load,structured_incentive,random","2,3,4,2,1,2","3,4,1,2","false","","",""
"null","","html-keyboard-response","59","606520","0.0-59.0","3AWETUDC93EJN74H6Z6G1VSRWFJZIK","A11Q8U6QTT8KGF","3WUVMVA7OBP2V5NP3991VE8MBDEZA7","","<img src=""img/set1/S1.jpg"" width=""540"" height = ""360"">","null","","","","","","","","","",""
"null","","html-keyboard-response","60","606722","0.0-60.0","3AWETUDC93EJN74H6Z6G1VSRWFJZIK","A11Q8U6QTT8KGF","3WUVMVA7OBP2V5NP3991VE8MBDEZA7","","","null","","","","","","","","","",""
"653.1000000238419","","image-keyboard-response","61","607376","0.0-61.0","3AWETUDC93EJN74H6Z6G1VSRWFJZIK","A11Q8U6QTT8KGF","3WUVMVA7OBP2V5NP3991VE8MBDEZA7","","img/set1/S1.jpg","68","1","structured_normal","83","structured_normal,structured_load,structured_incentive,random","2,3,4,2,1,2","3,4,1,2","false","","",""
"null","","html-keyboard-response","62","607729","0.0-62.0","3AWETUDC93EJN74H6Z6G1VSRWFJZIK","A11Q8U6QTT8KGF","3WUVMVA7OBP2V5NP3991VE8MBDEZA7","","<img src=""img/set1/S1.jpg"" width=""540"" height = ""360"">","null","","","","","","","","","",""
"null","","html-keyboard-response","63","607931","0.0-63.0","3AWETUDC93EJN74H6Z6G1VSRWFJZIK","A11Q8U6QTT8KGF","3WUVMVA7OBP2V5NP3991VE8MBDEZA7","","","null","","","","","","","","","",""
"875.3999999761581","","image-keyboard-response","64","608808","0.0-64.0","3AWETUDC93EJN74H6Z6G1VSRWFJZIK","A11Q8U6QTT8KGF","3WUVMVA7OBP2V5NP3991VE8MBDEZA7","","img/set1/S2.jpg","72","2","structured_normal","68","structured_normal,structured_load,structured_incentive,random","2,3,4,2,1,2","3,4,1,2","false","","",""
"null","","html-keyboard-response","65","609164","0.0-65.0","3AWETUDC93EJN74H6Z6G1VSRWFJZIK","A11Q8U6QTT8KGF","3WUVMVA7OBP2V5NP3991VE8MBDEZA7","","<img src=""img/set1/S2.jpg"" width=""540"" height = ""360"">","null","","","","","","","","","",""
"null","","html-keyboard-response","66","609365","0.0-66.0","3AWETUDC93EJN74H6Z6G1VSRWFJZIK","A11Q8U6QTT8KGF","3WUVMVA7OBP2V5NP3991VE8MBDEZA7","","","null","","","","","","","","","",""
"645.0999999046326","","image-keyboard-response","67","610012","0.0-67.0","3AWETUDC93EJN74H6Z6G1VSRWFJZIK","A11Q8U6QTT8KGF","3WUVMVA7OBP2V5NP3991VE8MBDEZA7","","img/set1/S3.jpg","72","3","structured_normal","72","structured_normal,structured_load,structured_incentive,random","2,3,4,2,1,2","3,4,1,2","true","","",""
"null","","html-keyboard-response","68","610365","0.0-68.0","3AWETUDC93EJN74H6Z6G1VSRWFJZIK","A11Q8U6QTT8KGF","3WUVMVA7OBP2V5NP3991VE8MBDEZA7","","<img src=""img/set1/S3.jpg"" width=""540"" height = ""360"" style=""border:16px solid orange"">","null","","","","","","","","","",""
"null","","html-keyboard-response","69","610566","0.0-69.0","3AWETUDC93EJN74H6Z6G1VSRWFJZIK","A11Q8U6QTT8KGF","3WUVMVA7OBP2V5NP3991VE8MBDEZA7","","","null","","","","","","","","","",""
"894.2000000476837","","image-keyboard-response","70","611464","0.0-70.0","3AWETUDC93EJN74H6Z6G1VSRWFJZIK","A11Q8U6QTT8KGF","3WUVMVA7OBP2V5NP3991VE8MBDEZA7","","img/set1/S1.jpg","83","1","structured_normal","83","structured_normal,structured_load,structured_incentive,random","2,3,4,2,1,2","3,4,1,2","true","","",""
"null","","html-keyboard-response","71","611818","0.0-71.0","3AWETUDC93EJN74H6Z6G1VSRWFJZIK","A11Q8U6QTT8KGF","3WUVMVA7OBP2V5NP3991VE8MBDEZA7","","<img src=""img/set1/S1.jpg"" width=""540"" height = ""360"" style=""border:16px solid orange"">","null","","","","","","","","","",""
"null","","html-keyboard-response","72","612020","0.0-72.0","3AWETUDC93EJN74H6Z6G1VSRWFJZIK","A11Q8U6QTT8KGF","3WUVMVA7OBP2V5NP3991VE8MBDEZA7","","","null","","","","","","","","","",""
"514.8999999761581","","image-keyboard-response","73","612536","0.0-73.0","3AWETUDC93EJN74H6Z6G1VSRWFJZIK","A11Q8U6QTT8KGF","3WUVMVA7OBP2V5NP3991VE8MBDEZA7","","img/set1/S1.jpg","83","1","structured_normal","83","structured_normal,structured_load,structured_incentive,random","2,3,4,2,1,2","3,4,1,2","true","","",""
"null","","html-keyboard-response","74","612888","0.0-74.0","3AWETUDC93EJN74H6Z6G1VSRWFJZIK","A11Q8U6QTT8KGF","3WUVMVA7OBP2V5NP3991VE8MBDEZA7","","<img src=""img/set1/S1.jpg"" width=""540"" height = ""360"" style=""border:16px solid orange"">","null","","","","","","","","","",""
"null","","html-keyboard-response","75","613090","0.0-75.0","3AWETUDC93EJN74H6Z6G1VSRWFJZIK","A11Q8U6QTT8KGF","3WUVMVA7OBP2V5NP3991VE8MBDEZA7","","","null","","","","","","","","","",""
"668.5","","image-keyboard-response","76","613760","0.0-76.0","3AWETUDC93EJN74H6Z6G1VSRWFJZIK","A11Q8U6QTT8KGF","3WUVMVA7OBP2V5NP3991VE8MBDEZA7","","img/set1/S4.jpg","74","4","structured_normal","74","structured_normal,structured_load,structured_incentive,random","2,3,4,2,1,2","3,4,1,2","true","","",""
"null","","html-keyboard-response","77","614113","0.0-77.0","3AWETUDC93EJN74H6Z6G1VSRWFJZIK","A11Q8U6QTT8KGF","3WUVMVA7OBP2V5NP3991VE8MBDEZA7","","<img src=""img/set1/S4.jpg"" width=""540"" height = ""360"" style=""border:16px solid orange"">","null","","","","","","","","","",""
"null","","html-keyboard-response","78","614313","0.0-78.0","3AWETUDC93EJN74H6Z6G1VSRWFJZIK","A11Q8U6QTT8KGF","3WUVMVA7OBP2V5NP3991VE8MBDEZA7","","","null","","","","","","","","","",""
"653.2000000476837","","image-keyboard-response","79","614968","0.0-79.0","3AWETUDC93EJN74H6Z6G1VSRWFJZIK","A11Q8U6QTT8KGF","3WUVMVA7OBP2V5NP3991VE8MBDEZA7","","img/set1/S1.jpg","83","1","structured_normal","83","structured_normal,structured_load,structured_incentive,random","2,3,4,2,1,2","3,4,1,2","true","","",""
"null","","html-keyboard-response","80","615321","0.0-80.0","3AWETUDC93EJN74H6Z6G1VSRWFJZIK","A11Q8U6QTT8KGF","3WUVMVA7OBP2V5NP3991VE8MBDEZA7","","<img src=""img/set1/S1.jpg"" width=""540"" height = ""360"" style=""border:16px solid orange"">","null","","","","","","","","","",""
"null","","html-keyboard-response","81","615523","0.0-81.0","3AWETUDC93EJN74H6Z6G1VSRWFJZIK","A11Q8U6QTT8KGF","3WUVMVA7OBP2V5NP3991VE8MBDEZA7","","","null","","","","","","","","","",""
"608.3999999761581","","image-keyboard-response","82","616132","0.0-82.0","3AWETUDC93EJN74H6Z6G1VSRWFJZIK","A11Q8U6QTT8KGF","3WUVMVA7OBP2V5NP3991VE8MBDEZA7","","img/set1/S2.jpg","68","2","structured_normal","68","structured_normal,structured_load,structured_incentive,random","2,3,4,2,1,2","3,4,1,2","true","","",""
"null","","html-keyboard-response","83","616487","0.0-83.0","3AWETUDC93EJN74H6Z6G1VSRWFJZIK","A11Q8U6QTT8KGF","3WUVMVA7OBP2V5NP3991VE8MBDEZA7","","<img src=""img/set1/S2.jpg"" width=""540"" height = ""360"" style=""border:16px solid orange"">","null","","","","","","","","","",""
"null","","html-keyboard-response","84","616689","0.0-84.0","3AWETUDC93EJN74H6Z6G1VSRWFJZIK","A11Q8U6QTT8KGF","3WUVMVA7OBP2V5NP3991VE8MBDEZA7","","","null","","","","","","","","","",""
"529.5999999046326","","image-keyboard-response","85","617220","0.0-85.0","3AWETUDC93EJN74H6Z6G1VSRWFJZIK","A11Q8U6QTT8KGF","3WUVMVA7OBP2V5NP3991VE8MBDEZA7","","img/set1/S3.jpg","72","3","structured_normal","72","structured_normal,structured_load,structured_incentive,random","2,3,4,2,1,2","3,4,1,2","true","","",""
"null","","html-keyboard-response","86","617573","0.0-86.0","3AWETUDC93EJN74H6Z6G1VSRWFJZIK","A11Q8U6QTT8KGF","3WUVMVA7OBP2V5NP3991VE8MBDEZA7","","<img src=""img/set1/S3.jpg"" width=""540"" height = ""360"" style=""border:16px solid orange"">","null","","","","","","","","","",""
"null","","html-keyboard-response","87","617774","0.0-87.0","3AWETUDC93EJN74H6Z6G1VSRWFJZIK","A11Q8U6QTT8KGF","3WUVMVA7OBP2V5NP3991VE8MBDEZA7","","","null","","","","","","","","","",""
"672.4000000953674","","image-keyboard-response","88","618448","0.0-88.0","3AWETUDC93EJN74H6Z6G1VSRWFJZIK","A11Q8U6QTT8KGF","3WUVMVA7OBP2V5NP3991VE8MBDEZA7","","img/set1/S1.jpg","83","1","structured_normal","83","structured_normal,structured_load,structured_incentive,random","2,3,4,2,1,2","3,4,1,2","true","","",""
"null","","html-keyboard-response","89","618800","0.0-89.0","3AWETUDC93EJN74H6Z6G1VSRWFJZIK","A11Q8U6QTT8KGF","3WUVMVA7OBP2V5NP3991VE8MBDEZA7","","<img src=""img/set1/S1.jpg"" width=""540"" height = ""360"" style=""border:16px solid orange"">","null","","","","","","","","","",""
"null","","html-keyboard-response","90","619002","0.0-90.0","3AWETUDC93EJN74H6Z6G1VSRWFJZIK","A11Q8U6QTT8KGF","3WUVMVA7OBP2V5NP3991VE8MBDEZA7","","","null","","","","","","","","","",""
"637.3000000715256","","image-keyboard-response","91","619641","0.0-91.0","3AWETUDC93EJN74H6Z6G1VSRWFJZIK","A11Q8U6QTT8KGF","3WUVMVA7OBP2V5NP3991VE8MBDEZA7","","img/set1/S2.jpg","68","2","structured_normal","68","structured_normal,structured_load,structured_incentive,random","2,3,4,2,1,2","3,4,1,2","true","","",""
"null","","html-keyboard-response","92","619994","0.0-92.0","3AWETUDC93EJN74H6Z6G1VSRWFJZIK","A11Q8U6QTT8KGF","3WUVMVA7OBP2V5NP3991VE8MBDEZA7","","<img src=""img/set1/S2.jpg"" width=""540"" height = ""360"" style=""border:16px solid orange"">","null","","","","","","","","","",""
"null","","html-keyboard-response","93","620195","0.0-93.0","3AWETUDC93EJN74H6Z6G1VSRWFJZIK","A11Q8U6QTT8KGF","3WUVMVA7OBP2V5NP3991VE8MBDEZA7","","","null","","","","","","","","","",""
"547.4000000953674","","image-keyboard-response","94","620744","0.0-94.0","3AWETUDC93EJN74H6Z6G1VSRWFJZIK","A11Q8U6QTT8KGF","3WUVMVA7OBP2V5NP3991VE8MBDEZA7","","img/set1/S3.jpg","72","3","structured_normal","72","structured_normal,structured_load,structured_incentive,random","2,3,4,2,1,2","3,4,1,2","true","","",""
"null","","html-keyboard-response","95","621096","0.0-95.0","3AWETUDC93EJN74H6Z6G1VSRWFJZIK","A11Q8U6QTT8KGF","3WUVMVA7OBP2V5NP3991VE8MBDEZA7","","<img src=""img/set1/S3.jpg"" width=""540"" height = ""360"" style=""border:16px solid orange"">","null","","","","","","","","","",""
"null","","html-keyboard-response","96","621300","0.0-96.0","3AWETUDC93EJN74H6Z6G1VSRWFJZIK","A11Q8U6QTT8KGF","3WUVMVA7OBP2V5NP3991VE8MBDEZA7","","","null","","","","","","","","","",""
"622.6000000238419","","image-keyboard-response","97","621924","0.0-97.0","3AWETUDC93EJN74H6Z6G1VSRWFJZIK","A11Q8U6QTT8KGF","3WUVMVA7OBP2V5NP3991VE8MBDEZA7","","img/set1/S2.jpg","68","2","structured_normal","68","structured_normal,structured_load,structured_incentive,random","2,3,4,2,1,2","3,4,1,2","true","","",""
"null","","html-keyboard-response","98","622307","0.0-98.0","3AWETUDC93EJN74H6Z6G1VSRWFJZIK","A11Q8U6QTT8KGF","3WUVMVA7OBP2V5NP3991VE8MBDEZA7","","<img src=""img/set1/S2.jpg"" width=""540"" height = ""360"" style=""border:16px solid orange"">","null","","","","","","","","","",""
"null","","html-keyboard-response","99","622508","0.0-99.0","3AWETUDC93EJN74H6Z6G1VSRWFJZIK","A11Q8U6QTT8KGF","3WUVMVA7OBP2V5NP3991VE8MBDEZA7","","","null","","","","","","","","","",""
"526.7000000476837","","image-keyboard-response","100","623036","0.0-100.0","3AWETUDC93EJN74H6Z6G1VSRWFJZIK","A11Q8U6QTT8KGF","3WUVMVA7OBP2V5NP3991VE8MBDEZA7","","img/set1/S3.jpg","72","3","structured_normal","72","structured_normal,structured_load,structured_incentive,random","2,3,4,2,1,2","3,4,1,2","true","","",""
"null","","html-keyboard-response","101","623389","0.0-101.0","3AWETUDC93EJN74H6Z6G1VSRWFJZIK","A11Q8U6QTT8KGF","3WUVMVA7OBP2V5NP3991VE8MBDEZA7","","<img src=""img/set1/S3.jpg"" width=""540"" height = ""360"" style=""border:16px solid orange"">","null","","","","","","","","","",""
"null","","html-keyboard-response","102","623592","0.0-102.0","3AWETUDC93EJN74H6Z6G1VSRWFJZIK","A11Q8U6QTT8KGF","3WUVMVA7OBP2V5NP3991VE8MBDEZA7","","","null","","","","","","","","","",""
"582.5","","image-keyboard-response","103","624177","0.0-103.0","3AWETUDC93EJN74H6Z6G1VSRWFJZIK","A11Q8U6QTT8KGF","3WUVMVA7OBP2V5NP3991VE8MBDEZA7","","img/set1/S2.jpg","72","2","structured_normal","68","structured_normal,structured_load,structured_incentive,random","2,3,4,2,1,2","3,4,1,2","false","","",""
"null","","html-keyboard-response","104","624531","0.0-104.0","3AWETUDC93EJN74H6Z6G1VSRWFJZIK","A11Q8U6QTT8KGF","3WUVMVA7OBP2V5NP3991VE8MBDEZA7","","<img src=""img/set1/S2.jpg"" width=""540"" height = ""360"">","null","","","","","","","","","",""
"null","","html-keyboard-response","105","624732","0.0-105.0","3AWETUDC93EJN74H6Z6G1VSRWFJZIK","A11Q8U6QTT8KGF","3WUVMVA7OBP2V5NP3991VE8MBDEZA7","","","null","","","","","","","","","",""
"542.8999999761581","","image-keyboard-response","106","625277","0.0-106.0","3AWETUDC93EJN74H6Z6G1VSRWFJZIK","A11Q8U6QTT8KGF","3WUVMVA7OBP2V5NP3991VE8MBDEZA7","","img/set1/S3.jpg","72","3","structured_normal","72","structured_normal,structured_load,structured_incentive,random","2,3,4,2,1,2","3,4,1,2","true","","",""
"null","","html-keyboard-response","107","625629","0.0-107.0","3AWETUDC93EJN74H6Z6G1VSRWFJZIK","A11Q8U6QTT8KGF","3WUVMVA7OBP2V5NP3991VE8MBDEZA7","","<img src=""img/set1/S3.jpg"" width=""540"" height = ""360"" style=""border:16px solid orange"">","null","","","","","","","","","",""
"null","","html-keyboard-response","108","625841","0.0-108.0","3AWETUDC93EJN74H6Z6G1VSRWFJZIK","A11Q8U6QTT8KGF","3WUVMVA7OBP2V5NP3991VE8MBDEZA7","","","null","","","","","","","","","",""
"561.2000000476837","","image-keyboard-response","109","626404","0.0-109.0","3AWETUDC93EJN74H6Z6G1VSRWFJZIK","A11Q8U6QTT8KGF","3WUVMVA7OBP2V5NP3991VE8MBDEZA7","","img/set1/S4.jpg","74","4","structured_normal","74","structured_normal,structured_load,structured_incentive,random","2,3,4,2,1,2","3,4,1,2","true","","",""
"null","","html-keyboard-response","110","626756","0.0-110.0","3AWETUDC93EJN74H6Z6G1VSRWFJZIK","A11Q8U6QTT8KGF","3WUVMVA7OBP2V5NP3991VE8MBDEZA7","","<img src=""img/set1/S4.jpg"" width=""540"" height = ""360"" style=""border:16px solid orange"">","null","","","","","","","","","",""
"null","","html-keyboard-response","111","626958","0.0-111.0","3AWETUDC93EJN74H6Z6G1VSRWFJZIK","A11Q8U6QTT8KGF","3WUVMVA7OBP2V5NP3991VE8MBDEZA7","","","null","","","","","","","","","",""
"504.5","","image-keyboard-response","112","627464","0.0-112.0","3AWETUDC93EJN74H6Z6G1VSRWFJZIK","A11Q8U6QTT8KGF","3WUVMVA7OBP2V5NP3991VE8MBDEZA7","","img/set1/S1.jpg","83","1","structured_normal","83","structured_normal,structured_load,structured_incentive,random","2,3,4,2,1,2","3,4,1,2","true","","",""
"null","","html-keyboard-response","113","627831","0.0-113.0","3AWETUDC93EJN74H6Z6G1VSRWFJZIK","A11Q8U6QTT8KGF","3WUVMVA7OBP2V5NP3991VE8MBDEZA7","","<img src=""img/set1/S1.jpg"" width=""540"" height = ""360"" style=""border:16px solid orange"">","null","","","","","","","","","",""
"null","","html-keyboard-response","114","628033","0.0-114.0","3AWETUDC93EJN74H6Z6G1VSRWFJZIK","A11Q8U6QTT8KGF","3WUVMVA7OBP2V5NP3991VE8MBDEZA7","","","null","","","","","","","","","",""
"676.5999999046326","","image-keyboard-response","115","628712","0.0-115.0","3AWETUDC93EJN74H6Z6G1VSRWFJZIK","A11Q8U6QTT8KGF","3WUVMVA7OBP2V5NP3991VE8MBDEZA7","","img/set1/S2.jpg","68","2","structured_normal","68","structured_normal,structured_load,structured_incentive,random","2,3,4,2,1,2","3,4,1,2","true","","",""
"null","","html-keyboard-response","116","629064","0.0-116.0","3AWETUDC93EJN74H6Z6G1VSRWFJZIK","A11Q8U6QTT8KGF","3WUVMVA7OBP2V5NP3991VE8MBDEZA7","","<img src=""img/set1/S2.jpg"" width=""540"" height = ""360"" style=""border:16px solid orange"">","null","","","","","","","","","",""
"null","","html-keyboard-response","117","629266","0.0-117.0","3AWETUDC93EJN74H6Z6G1VSRWFJZIK","A11Q8U6QTT8KGF","3WUVMVA7OBP2V5NP3991VE8MBDEZA7","","","null","","","","","","","","","",""
"460.39999997615814","","image-keyboard-response","118","629728","0.0-118.0","3AWETUDC93EJN74H6Z6G1VSRWFJZIK","A11Q8U6QTT8KGF","3WUVMVA7OBP2V5NP3991VE8MBDEZA7","","img/set1/S3.jpg","72","3","structured_normal","72","structured_normal,structured_load,structured_incentive,random","2,3,4,2,1,2","3,4,1,2","true","","",""
"null","","html-keyboard-response","119","630081","0.0-119.0","3AWETUDC93EJN74H6Z6G1VSRWFJZIK","A11Q8U6QTT8KGF","3WUVMVA7OBP2V5NP3991VE8MBDEZA7","","<img src=""img/set1/S3.jpg"" width=""540"" height = ""360"" style=""border:16px solid orange"">","null","","","","","","","","","",""
"null","","html-keyboard-response","120","630283","0.0-120.0","3AWETUDC93EJN74H6Z6G1VSRWFJZIK","A11Q8U6QTT8KGF","3WUVMVA7OBP2V5NP3991VE8MBDEZA7","","","null","","","","","","","","","",""
"572.1000000238419","","image-keyboard-response","121","630856","0.0-121.0","3AWETUDC93EJN74H6Z6G1VSRWFJZIK","A11Q8U6QTT8KGF","3WUVMVA7OBP2V5NP3991VE8MBDEZA7","","img/set1/S2.jpg","83","2","structured_normal","68","structured_normal,structured_load,structured_incentive,random","2,3,4,2,1,2","3,4,1,2","false","","",""
"null","","html-keyboard-response","122","631210","0.0-122.0","3AWETUDC93EJN74H6Z6G1VSRWFJZIK","A11Q8U6QTT8KGF","3WUVMVA7OBP2V5NP3991VE8MBDEZA7","","<img src=""img/set1/S2.jpg"" width=""540"" height = ""360"">","null","","","","","","","","","",""
"null","","html-keyboard-response","123","631413","0.0-123.0","3AWETUDC93EJN74H6Z6G1VSRWFJZIK","A11Q8U6QTT8KGF","3WUVMVA7OBP2V5NP3991VE8MBDEZA7","","","null","","","","","","","","","",""
"605.5","","image-keyboard-response","124","632020","0.0-124.0","3AWETUDC93EJN74H6Z6G1VSRWFJZIK","A11Q8U6QTT8KGF","3WUVMVA7OBP2V5NP3991VE8MBDEZA7","","img/set1/S4.jpg","74","4","structured_normal","74","structured_normal,structured_load,structured_incentive,random","2,3,4,2,1,2","3,4,1,2","true","","",""
"null","","html-keyboard-response","125","632374","0.0-125.0","3AWETUDC93EJN74H6Z6G1VSRWFJZIK","A11Q8U6QTT8KGF","3WUVMVA7OBP2V5NP3991VE8MBDEZA7","","<img src=""img/set1/S4.jpg"" width=""540"" height = ""360"" style=""border:16px solid orange"">","null","","","","","","","","","",""
"null","","html-keyboard-response","126","632575","0.0-126.0","3AWETUDC93EJN74H6Z6G1VSRWFJZIK","A11Q8U6QTT8KGF","3WUVMVA7OBP2V5NP3991VE8MBDEZA7","","","null","","","","","","","","","",""
"581.2999999523163","","image-keyboard-response","127","633157","0.0-127.0","3AWETUDC93EJN74H6Z6G1VSRWFJZIK","A11Q8U6QTT8KGF","3WUVMVA7OBP2V5NP3991VE8MBDEZA7","","img/set1/S4.jpg","74","4","structured_normal","74","structured_normal,structured_load,structured_incentive,random","2,3,4,2,1,2","3,4,1,2","true","","",""
"null","","html-keyboard-response","128","633524","0.0-128.0","3AWETUDC93EJN74H6Z6G1VSRWFJZIK","A11Q8U6QTT8KGF","3WUVMVA7OBP2V5NP3991VE8MBDEZA7","","<img src=""img/set1/S4.jpg"" width=""540"" height = ""360"" style=""border:16px solid orange"">","null","","","","","","","","","",""
"null","","html-keyboard-response","129","633726","0.0-129.0","3AWETUDC93EJN74H6Z6G1VSRWFJZIK","A11Q8U6QTT8KGF","3WUVMVA7OBP2V5NP3991VE8MBDEZA7","","","null","","","","","","","","","",""
"688.1000000238419","","image-keyboard-response","130","634416","0.0-130.0","3AWETUDC93EJN74H6Z6G1VSRWFJZIK","A11Q8U6QTT8KGF","3WUVMVA7OBP2V5NP3991VE8MBDEZA7","","img/set1/S1.jpg","83","1","structured_normal","83","structured_normal,structured_load,structured_incentive,random","2,3,4,2,1,2","3,4,1,2","true","","",""
"null","","html-keyboard-response","131","634768","0.0-131.0","3AWETUDC93EJN74H6Z6G1VSRWFJZIK","A11Q8U6QTT8KGF","3WUVMVA7OBP2V5NP3991VE8MBDEZA7","","<img src=""img/set1/S1.jpg"" width=""540"" height = ""360"" style=""border:16px solid orange"">","null","","","","","","","","","",""
"null","","html-keyboard-response","132","634971","0.0-132.0","3AWETUDC93EJN74H6Z6G1VSRWFJZIK","A11Q8U6QTT8KGF","3WUVMVA7OBP2V5NP3991VE8MBDEZA7","","","null","","","","","","","","","",""
"604","","image-keyboard-response","133","635576","0.0-133.0","3AWETUDC93EJN74H6Z6G1VSRWFJZIK","A11Q8U6QTT8KGF","3WUVMVA7OBP2V5NP3991VE8MBDEZA7","","img/set1/S2.jpg","68","2","structured_normal","68","structured_normal,structured_load,structured_incentive,random","2,3,4,2,1,2","3,4,1,2","true","","",""
"null","","html-keyboard-response","134","635931","0.0-134.0","3AWETUDC93EJN74H6Z6G1VSRWFJZIK","A11Q8U6QTT8KGF","3WUVMVA7OBP2V5NP3991VE8MBDEZA7","","<img src=""img/set1/S2.jpg"" width=""540"" height = ""360"" style=""border:16px solid orange"">","null","","","","","","","","","",""
"null","","html-keyboard-response","135","636132","0.0-135.0","3AWETUDC93EJN74H6Z6G1VSRWFJZIK","A11Q8U6QTT8KGF","3WUVMVA7OBP2V5NP3991VE8MBDEZA7","","","null","","","","","","","","","",""
"434.6999999284744","","image-keyboard-response","136","636569","0.0-136.0","3AWETUDC93EJN74H6Z6G1VSRWFJZIK","A11Q8U6QTT8KGF","3WUVMVA7OBP2V5NP3991VE8MBDEZA7","","img/set1/S3.jpg","72","3","structured_normal","72","structured_normal,structured_load,structured_incentive,random","2,3,4,2,1,2","3,4,1,2","true","","",""
"null","","html-keyboard-response","137","636921","0.0-137.0","3AWETUDC93EJN74H6Z6G1VSRWFJZIK","A11Q8U6QTT8KGF","3WUVMVA7OBP2V5NP3991VE8MBDEZA7","","<img src=""img/set1/S3.jpg"" width=""540"" height = ""360"" style=""border:16px solid orange"">","null","","","","","","","","","",""
"null","","html-keyboard-response","138","637123","0.0-138.0","3AWETUDC93EJN74H6Z6G1VSRWFJZIK","A11Q8U6QTT8KGF","3WUVMVA7OBP2V5NP3991VE8MBDEZA7","","","null","","","","","","","","","",""
"439.5","","image-keyboard-response","139","637564","0.0-139.0","3AWETUDC93EJN74H6Z6G1VSRWFJZIK","A11Q8U6QTT8KGF","3WUVMVA7OBP2V5NP3991VE8MBDEZA7","","img/set1/S3.jpg","72","3","structured_normal","72","structured_normal,structured_load,structured_incentive,random","2,3,4,2,1,2","3,4,1,2","true","","",""
"null","","html-keyboard-response","140","637917","0.0-140.0","3AWETUDC93EJN74H6Z6G1VSRWFJZIK","A11Q8U6QTT8KGF","3WUVMVA7OBP2V5NP3991VE8MBDEZA7","","<img src=""img/set1/S3.jpg"" width=""540"" height = ""360"" style=""border:16px solid orange"">","null","","","","","","","","","",""
"null","","html-keyboard-response","141","638119","0.0-141.0","3AWETUDC93EJN74H6Z6G1VSRWFJZIK","A11Q8U6QTT8KGF","3WUVMVA7OBP2V5NP3991VE8MBDEZA7","","","null","","","","","","","","","",""
"503.7999999523163","","image-keyboard-response","142","638624","0.0-142.0","3AWETUDC93EJN74H6Z6G1VSRWFJZIK","A11Q8U6QTT8KGF","3WUVMVA7OBP2V5NP3991VE8MBDEZA7","","img/set1/S4.jpg","74","4","structured_normal","74","structured_normal,structured_load,structured_incentive,random","2,3,4,2,1,2","3,4,1,2","true","","",""
"null","","html-keyboard-response","143","638977","0.0-143.0","3AWETUDC93EJN74H6Z6G1VSRWFJZIK","A11Q8U6QTT8KGF","3WUVMVA7OBP2V5NP3991VE8MBDEZA7","","<img src=""img/set1/S4.jpg"" width=""540"" height = ""360"" style=""border:16px solid orange"">","null","","","","","","","","","",""
"null","","html-keyboard-response","144","639180","0.0-144.0","3AWETUDC93EJN74H6Z6G1VSRWFJZIK","A11Q8U6QTT8KGF","3WUVMVA7OBP2V5NP3991VE8MBDEZA7","","","null","","","","","","","","","",""
"578.8999999761581","","image-keyboard-response","145","639760","0.0-145.0","3AWETUDC93EJN74H6Z6G1VSRWFJZIK","A11Q8U6QTT8KGF","3WUVMVA7OBP2V5NP3991VE8MBDEZA7","","img/set1/S2.jpg","68","2","structured_normal","68","structured_normal,structured_load,structured_incentive,random","2,3,4,2,1,2","3,4,1,2","true","","",""
"null","","html-keyboard-response","146","640113","0.0-146.0","3AWETUDC93EJN74H6Z6G1VSRWFJZIK","A11Q8U6QTT8KGF","3WUVMVA7OBP2V5NP3991VE8MBDEZA7","","<img src=""img/set1/S2.jpg"" width=""540"" height = ""360"" style=""border:16px solid orange"">","null","","","","","","","","","",""
"null","","html-keyboard-response","147","640314","0.0-147.0","3AWETUDC93EJN74H6Z6G1VSRWFJZIK","A11Q8U6QTT8KGF","3WUVMVA7OBP2V5NP3991VE8MBDEZA7","","","null","","","","","","","","","",""
"524","","image-keyboard-response","148","640840","0.0-148.0","3AWETUDC93EJN74H6Z6G1VSRWFJZIK","A11Q8U6QTT8KGF","3WUVMVA7OBP2V5NP3991VE8MBDEZA7","","img/set1/S3.jpg","72","3","structured_normal","72","structured_normal,structured_load,structured_incentive,random","2,3,4,2,1,2","3,4,1,2","true","","",""
"null","","html-keyboard-response","149","641192","0.0-149.0","3AWETUDC93EJN74H6Z6G1VSRWFJZIK","A11Q8U6QTT8KGF","3WUVMVA7OBP2V5NP3991VE8MBDEZA7","","<img src=""img/set1/S3.jpg"" width=""540"" height = ""360"" style=""border:16px solid orange"">","null","","","","","","","","","",""
"null","","html-keyboard-response","150","641393","0.0-150.0","3AWETUDC93EJN74H6Z6G1VSRWFJZIK","A11Q8U6QTT8KGF","3WUVMVA7OBP2V5NP3991VE8MBDEZA7","","","null","","","","","","","","","",""
"484.10000002384186","","image-keyboard-response","151","641880","0.0-151.0","3AWETUDC93EJN74H6Z6G1VSRWFJZIK","A11Q8U6QTT8KGF","3WUVMVA7OBP2V5NP3991VE8MBDEZA7","","img/set1/S4.jpg","74","4","structured_normal","74","structured_normal,structured_load,structured_incentive,random","2,3,4,2,1,2","3,4,1,2","true","","",""
"null","","html-keyboard-response","152","642235","0.0-152.0","3AWETUDC93EJN74H6Z6G1VSRWFJZIK","A11Q8U6QTT8KGF","3WUVMVA7OBP2V5NP3991VE8MBDEZA7","","<img src=""img/set1/S4.jpg"" width=""540"" height = ""360"" style=""border:16px solid orange"">","null","","","","","","","","","",""
"null","","html-keyboard-response","153","642437","0.0-153.0","3AWETUDC93EJN74H6Z6G1VSRWFJZIK","A11Q8U6QTT8KGF","3WUVMVA7OBP2V5NP3991VE8MBDEZA7","","","null","","","","","","","","","",""
"574","","image-keyboard-response","154","643012","0.0-154.0","3AWETUDC93EJN74H6Z6G1VSRWFJZIK","A11Q8U6QTT8KGF","3WUVMVA7OBP2V5NP3991VE8MBDEZA7","","img/set1/S2.jpg","72","2","structured_normal","68","structured_normal,structured_load,structured_incentive,random","2,3,4,2,1,2","3,4,1,2","false","","",""
"null","","html-keyboard-response","155","643366","0.0-155.0","3AWETUDC93EJN74H6Z6G1VSRWFJZIK","A11Q8U6QTT8KGF","3WUVMVA7OBP2V5NP3991VE8MBDEZA7","","<img src=""img/set1/S2.jpg"" width=""540"" height = ""360"">","null","","","","","","","","","",""
"null","","html-keyboard-response","156","643568","0.0-156.0","3AWETUDC93EJN74H6Z6G1VSRWFJZIK","A11Q8U6QTT8KGF","3WUVMVA7OBP2V5NP3991VE8MBDEZA7","","","null","","","","","","","","","",""
"622.7999999523163","","image-keyboard-response","157","644192","0.0-157.0","3AWETUDC93EJN74H6Z6G1VSRWFJZIK","A11Q8U6QTT8KGF","3WUVMVA7OBP2V5NP3991VE8MBDEZA7","","img/set1/S4.jpg","74","4","structured_normal","74","structured_normal,structured_load,structured_incentive,random","2,3,4,2,1,2","3,4,1,2","true","","",""
"null","","html-keyboard-response","158","644545","0.0-158.0","3AWETUDC93EJN74H6Z6G1VSRWFJZIK","A11Q8U6QTT8KGF","3WUVMVA7OBP2V5NP3991VE8MBDEZA7","","<img src=""img/set1/S4.jpg"" width=""540"" height = ""360"" style=""border:16px solid orange"">","null","","","","","","","","","",""
"null","","html-keyboard-response","159","644746","0.0-159.0","3AWETUDC93EJN74H6Z6G1VSRWFJZIK","A11Q8U6QTT8KGF","3WUVMVA7OBP2V5NP3991VE8MBDEZA7","","","null","","","","","","","","","",""
"564.4000000953674","","image-keyboard-response","160","645312","0.0-160.0","3AWETUDC93EJN74H6Z6G1VSRWFJZIK","A11Q8U6QTT8KGF","3WUVMVA7OBP2V5NP3991VE8MBDEZA7","","img/set1/S4.jpg","74","4","structured_normal","74","structured_normal,structured_load,structured_incentive,random","2,3,4,2,1,2","3,4,1,2","true","","",""
"null","","html-keyboard-response","161","645665","0.0-161.0","3AWETUDC93EJN74H6Z6G1VSRWFJZIK","A11Q8U6QTT8KGF","3WUVMVA7OBP2V5NP3991VE8MBDEZA7","","<img src=""img/set1/S4.jpg"" width=""540"" height = ""360"" style=""border:16px solid orange"">","null","","","","","","","","","",""
"null","","html-keyboard-response","162","645868","0.0-162.0","3AWETUDC93EJN74H6Z6G1VSRWFJZIK","A11Q8U6QTT8KGF","3WUVMVA7OBP2V5NP3991VE8MBDEZA7","","","null","","","","","","","","","",""
"455.1999999284744","","image-keyboard-response","163","646325","0.0-163.0","3AWETUDC93EJN74H6Z6G1VSRWFJZIK","A11Q8U6QTT8KGF","3WUVMVA7OBP2V5NP3991VE8MBDEZA7","","img/set1/S4.jpg","74","4","structured_normal","74","structured_normal,structured_load,structured_incentive,random","2,3,4,2,1,2","3,4,1,2","true","","",""
"null","","html-keyboard-response","164","646677","0.0-164.0","3AWETUDC93EJN74H6Z6G1VSRWFJZIK","A11Q8U6QTT8KGF","3WUVMVA7OBP2V5NP3991VE8MBDEZA7","","<img src=""img/set1/S4.jpg"" width=""540"" height = ""360"" style=""border:16px solid orange"">","null","","","","","","","","","",""
"null","","html-keyboard-response","165","646879","0.0-165.0","3AWETUDC93EJN74H6Z6G1VSRWFJZIK","A11Q8U6QTT8KGF","3WUVMVA7OBP2V5NP3991VE8MBDEZA7","","","null","","","","","","","","","",""
"572.3000000715256","","image-keyboard-response","166","647452","0.0-166.0","3AWETUDC93EJN74H6Z6G1VSRWFJZIK","A11Q8U6QTT8KGF","3WUVMVA7OBP2V5NP3991VE8MBDEZA7","","img/set1/S3.jpg","68","3","structured_normal","72","structured_normal,structured_load,structured_incentive,random","2,3,4,2,1,2","3,4,1,2","false","","",""
"null","","html-keyboard-response","167","647805","0.0-167.0","3AWETUDC93EJN74H6Z6G1VSRWFJZIK","A11Q8U6QTT8KGF","3WUVMVA7OBP2V5NP3991VE8MBDEZA7","","<img src=""img/set1/S3.jpg"" width=""540"" height = ""360"">","null","","","","","","","","","",""
"null","","html-keyboard-response","168","648007","0.0-168.0","3AWETUDC93EJN74H6Z6G1VSRWFJZIK","A11Q8U6QTT8KGF","3WUVMVA7OBP2V5NP3991VE8MBDEZA7","","","null","","","","","","","","","",""
"571.6000000238419","","image-keyboard-response","169","648580","0.0-169.0","3AWETUDC93EJN74H6Z6G1VSRWFJZIK","A11Q8U6QTT8KGF","3WUVMVA7OBP2V5NP3991VE8MBDEZA7","","img/set1/S4.jpg","74","4","structured_normal","74","structured_normal,structured_load,structured_incentive,random","2,3,4,2,1,2","3,4,1,2","true","","",""
"null","","html-keyboard-response","170","648937","0.0-170.0","3AWETUDC93EJN74H6Z6G1VSRWFJZIK","A11Q8U6QTT8KGF","3WUVMVA7OBP2V5NP3991VE8MBDEZA7","","<img src=""img/set1/S4.jpg"" width=""540"" height = ""360"" style=""border:16px solid orange"">","null","","","","","","","","","",""
"null","","html-keyboard-response","171","649144","0.0-171.0","3AWETUDC93EJN74H6Z6G1VSRWFJZIK","A11Q8U6QTT8KGF","3WUVMVA7OBP2V5NP3991VE8MBDEZA7","","","null","","","","","","","","","",""
"478.7999999523163","","image-keyboard-response","172","649624","0.0-172.0","3AWETUDC93EJN74H6Z6G1VSRWFJZIK","A11Q8U6QTT8KGF","3WUVMVA7OBP2V5NP3991VE8MBDEZA7","","img/set1/S4.jpg","74","4","structured_normal","74","structured_normal,structured_load,structured_incentive,random","2,3,4,2,1,2","3,4,1,2","true","","",""
"null","","html-keyboard-response","173","649987","0.0-173.0","3AWETUDC93EJN74H6Z6G1VSRWFJZIK","A11Q8U6QTT8KGF","3WUVMVA7OBP2V5NP3991VE8MBDEZA7","","<img src=""img/set1/S4.jpg"" width=""540"" height = ""360"" style=""border:16px solid orange"">","null","","","","","","","","","",""
"null","","html-keyboard-response","174","650189","0.0-174.0","3AWETUDC93EJN74H6Z6G1VSRWFJZIK","A11Q8U6QTT8KGF","3WUVMVA7OBP2V5NP3991VE8MBDEZA7","","","null","","","","","","","","","",""
"425.1999999284744","","image-keyboard-response","175","650615","0.0-175.0","3AWETUDC93EJN74H6Z6G1VSRWFJZIK","A11Q8U6QTT8KGF","3WUVMVA7OBP2V5NP3991VE8MBDEZA7","","img/set1/S4.jpg","74","4","structured_normal","74","structured_normal,structured_load,structured_incentive,random","2,3,4,2,1,2","3,4,1,2","true","","",""
"null","","html-keyboard-response","176","650968","0.0-176.0","3AWETUDC93EJN74H6Z6G1VSRWFJZIK","A11Q8U6QTT8KGF","3WUVMVA7OBP2V5NP3991VE8MBDEZA7","","<img src=""img/set1/S4.jpg"" width=""540"" height = ""360"" style=""border:16px solid orange"">","null","","","","","","","","","",""
"null","","html-keyboard-response","177","651170","0.0-177.0","3AWETUDC93EJN74H6Z6G1VSRWFJZIK","A11Q8U6QTT8KGF","3WUVMVA7OBP2V5NP3991VE8MBDEZA7","","","null","","","","","","","","","",""
"425.10000002384186","","image-keyboard-response","178","651596","0.0-178.0","3AWETUDC93EJN74H6Z6G1VSRWFJZIK","A11Q8U6QTT8KGF","3WUVMVA7OBP2V5NP3991VE8MBDEZA7","","img/set1/S1.jpg","83","1","structured_normal","83","structured_normal,structured_load,structured_incentive,random","2,3,4,2,1,2","3,4,1,2","true","","",""
"null","","html-keyboard-response","179","651950","0.0-179.0","3AWETUDC93EJN74H6Z6G1VSRWFJZIK","A11Q8U6QTT8KGF","3WUVMVA7OBP2V5NP3991VE8MBDEZA7","","<img src=""img/set1/S1.jpg"" width=""540"" height = ""360"" style=""border:16px solid orange"">","null","","","","","","","","","",""
"null","","html-keyboard-response","180","652152","0.0-180.0","3AWETUDC93EJN74H6Z6G1VSRWFJZIK","A11Q8U6QTT8KGF","3WUVMVA7OBP2V5NP3991VE8MBDEZA7","","","null","","","","","","","","","",""
"521.5","","image-keyboard-response","181","652676","0.0-181.0","3AWETUDC93EJN74H6Z6G1VSRWFJZIK","A11Q8U6QTT8KGF","3WUVMVA7OBP2V5NP3991VE8MBDEZA7","","img/set1/S4.jpg","74","4","structured_normal","74","structured_normal,structured_load,structured_incentive,random","2,3,4,2,1,2","3,4,1,2","true","","",""
"null","","html-keyboard-response","182","653049","0.0-182.0","3AWETUDC93EJN74H6Z6G1VSRWFJZIK","A11Q8U6QTT8KGF","3WUVMVA7OBP2V5NP3991VE8MBDEZA7","","<img src=""img/set1/S4.jpg"" width=""540"" height = ""360"" style=""border:16px solid orange"">","null","","","","","","","","","",""
"null","","html-keyboard-response","183","653251","0.0-183.0","3AWETUDC93EJN74H6Z6G1VSRWFJZIK","A11Q8U6QTT8KGF","3WUVMVA7OBP2V5NP3991VE8MBDEZA7","","","null","","","","","","","","","",""
"539.3999999761581","","image-keyboard-response","184","653792","0.0-184.0","3AWETUDC93EJN74H6Z6G1VSRWFJZIK","A11Q8U6QTT8KGF","3WUVMVA7OBP2V5NP3991VE8MBDEZA7","","img/set1/S2.jpg","68","2","structured_normal","68","structured_normal,structured_load,structured_incentive,random","2,3,4,2,1,2","3,4,1,2","true","","",""
"null","","html-keyboard-response","185","654146","0.0-185.0","3AWETUDC93EJN74H6Z6G1VSRWFJZIK","A11Q8U6QTT8KGF","3WUVMVA7OBP2V5NP3991VE8MBDEZA7","","<img src=""img/set1/S2.jpg"" width=""540"" height = ""360"" style=""border:16px solid orange"">","null","","","","","","","","","",""
"null","","html-keyboard-response","186","654347","0.0-186.0","3AWETUDC93EJN74H6Z6G1VSRWFJZIK","A11Q8U6QTT8KGF","3WUVMVA7OBP2V5NP3991VE8MBDEZA7","","","null","","","","","","","","","",""
"423.90000009536743","","image-keyboard-response","187","654773","0.0-187.0","3AWETUDC93EJN74H6Z6G1VSRWFJZIK","A11Q8U6QTT8KGF","3WUVMVA7OBP2V5NP3991VE8MBDEZA7","","img/set1/S3.jpg","72","3","structured_normal","72","structured_normal,structured_load,structured_incentive,random","2,3,4,2,1,2","3,4,1,2","true","","",""
"null","","html-keyboard-response","188","655125","0.0-188.0","3AWETUDC93EJN74H6Z6G1VSRWFJZIK","A11Q8U6QTT8KGF","3WUVMVA7OBP2V5NP3991VE8MBDEZA7","","<img src=""img/set1/S3.jpg"" width=""540"" height = ""360"" style=""border:16px solid orange"">","null","","","","","","","","","",""
"null","","html-keyboard-response","189","655333","0.0-189.0","3AWETUDC93EJN74H6Z6G1VSRWFJZIK","A11Q8U6QTT8KGF","3WUVMVA7OBP2V5NP3991VE8MBDEZA7","","","null","","","","","","","","","",""
"537.6999999284744","","image-keyboard-response","190","655872","0.0-190.0","3AWETUDC93EJN74H6Z6G1VSRWFJZIK","A11Q8U6QTT8KGF","3WUVMVA7OBP2V5NP3991VE8MBDEZA7","","img/set1/S4.jpg","74","4","structured_normal","74","structured_normal,structured_load,structured_incentive,random","2,3,4,2,1,2","3,4,1,2","true","","",""
"null","","html-keyboard-response","191","656228","0.0-191.0","3AWETUDC93EJN74H6Z6G1VSRWFJZIK","A11Q8U6QTT8KGF","3WUVMVA7OBP2V5NP3991VE8MBDEZA7","","<img src=""img/set1/S4.jpg"" width=""540"" height = ""360"" style=""border:16px solid orange"">","null","","","","","","","","","",""
"null","","html-keyboard-response","192","656430","0.0-192.0","3AWETUDC93EJN74H6Z6G1VSRWFJZIK","A11Q8U6QTT8KGF","3WUVMVA7OBP2V5NP3991VE8MBDEZA7","","","null","","","","","","","","","",""
"617.1000000238419","","image-keyboard-response","193","657049","0.0-193.0","3AWETUDC93EJN74H6Z6G1VSRWFJZIK","A11Q8U6QTT8KGF","3WUVMVA7OBP2V5NP3991VE8MBDEZA7","","img/set1/S1.jpg","83","1","structured_normal","83","structured_normal,structured_load,structured_incentive,random","2,3,4,2,1,2","3,4,1,2","true","","",""
"null","","html-keyboard-response","194","657402","0.0-194.0","3AWETUDC93EJN74H6Z6G1VSRWFJZIK","A11Q8U6QTT8KGF","3WUVMVA7OBP2V5NP3991VE8MBDEZA7","","<img src=""img/set1/S1.jpg"" width=""540"" height = ""360"" style=""border:16px solid orange"">","null","","","","","","","","","",""
"null","","html-keyboard-response","195","657604","0.0-195.0","3AWETUDC93EJN74H6Z6G1VSRWFJZIK","A11Q8U6QTT8KGF","3WUVMVA7OBP2V5NP3991VE8MBDEZA7","","","null","","","","","","","","","",""
"534.2999999523163","","image-keyboard-response","196","658140","0.0-196.0","3AWETUDC93EJN74H6Z6G1VSRWFJZIK","A11Q8U6QTT8KGF","3WUVMVA7OBP2V5NP3991VE8MBDEZA7","","img/set1/S1.jpg","83","1","structured_normal","83","structured_normal,structured_load,structured_incentive,random","2,3,4,2,1,2","3,4,1,2","true","","",""
"null","","html-keyboard-response","197","658493","0.0-197.0","3AWETUDC93EJN74H6Z6G1VSRWFJZIK","A11Q8U6QTT8KGF","3WUVMVA7OBP2V5NP3991VE8MBDEZA7","","<img src=""img/set1/S1.jpg"" width=""540"" height = ""360"" style=""border:16px solid orange"">","null","","","","","","","","","",""
"null","","html-keyboard-response","198","658712","0.0-198.0","3AWETUDC93EJN74H6Z6G1VSRWFJZIK","A11Q8U6QTT8KGF","3WUVMVA7OBP2V5NP3991VE8MBDEZA7","","","null","","","","","","","","","",""
"501.8000000715256","","image-keyboard-response","199","659216","0.0-199.0","3AWETUDC93EJN74H6Z6G1VSRWFJZIK","A11Q8U6QTT8KGF","3WUVMVA7OBP2V5NP3991VE8MBDEZA7","","img/set1/S3.jpg","72","3","structured_normal","72","structured_normal,structured_load,structured_incentive,random","2,3,4,2,1,2","3,4,1,2","true","","",""
"null","","html-keyboard-response","200","659568","0.0-200.0","3AWETUDC93EJN74H6Z6G1VSRWFJZIK","A11Q8U6QTT8KGF","3WUVMVA7OBP2V5NP3991VE8MBDEZA7","","<img src=""img/set1/S3.jpg"" width=""540"" height = ""360"" style=""border:16px solid orange"">","null","","","","","","","","","",""
"null","","html-keyboard-response","201","659770","0.0-201.0","3AWETUDC93EJN74H6Z6G1VSRWFJZIK","A11Q8U6QTT8KGF","3WUVMVA7OBP2V5NP3991VE8MBDEZA7","","","null","","","","","","","","","",""
"533.1000000238419","","image-keyboard-response","202","660304","0.0-202.0","3AWETUDC93EJN74H6Z6G1VSRWFJZIK","A11Q8U6QTT8KGF","3WUVMVA7OBP2V5NP3991VE8MBDEZA7","","img/set1/S2.jpg","68","2","structured_normal","68","structured_normal,structured_load,structured_incentive,random","2,3,4,2,1,2","3,4,1,2","true","","",""
"null","","html-keyboard-response","203","660657","0.0-203.0","3AWETUDC93EJN74H6Z6G1VSRWFJZIK","A11Q8U6QTT8KGF","3WUVMVA7OBP2V5NP3991VE8MBDEZA7","","<img src=""img/set1/S2.jpg"" width=""540"" height = ""360"" style=""border:16px solid orange"">","null","","","","","","","","","",""
"null","","html-keyboard-response","204","660859","0.0-204.0","3AWETUDC93EJN74H6Z6G1VSRWFJZIK","A11Q8U6QTT8KGF","3WUVMVA7OBP2V5NP3991VE8MBDEZA7","","","null","","","","","","","","","",""
"487","","image-keyboard-response","205","661348","0.0-205.0","3AWETUDC93EJN74H6Z6G1VSRWFJZIK","A11Q8U6QTT8KGF","3WUVMVA7OBP2V5NP3991VE8MBDEZA7","","img/set1/S4.jpg","74","4","structured_normal","74","structured_normal,structured_load,structured_incentive,random","2,3,4,2,1,2","3,4,1,2","true","","",""
"null","","html-keyboard-response","206","661700","0.0-206.0","3AWETUDC93EJN74H6Z6G1VSRWFJZIK","A11Q8U6QTT8KGF","3WUVMVA7OBP2V5NP3991VE8MBDEZA7","","<img src=""img/set1/S4.jpg"" width=""540"" height = ""360"" style=""border:16px solid orange"">","null","","","","","","","","","",""
"null","","html-keyboard-response","207","661903","0.0-207.0","3AWETUDC93EJN74H6Z6G1VSRWFJZIK","A11Q8U6QTT8KGF","3WUVMVA7OBP2V5NP3991VE8MBDEZA7","","","null","","","","","","","","","",""
"567.7000000476837","","image-keyboard-response","208","662472","0.0-208.0","3AWETUDC93EJN74H6Z6G1VSRWFJZIK","A11Q8U6QTT8KGF","3WUVMVA7OBP2V5NP3991VE8MBDEZA7","","img/set1/S1.jpg","83","1","structured_normal","83","structured_normal,structured_load,structured_incentive,random","2,3,4,2,1,2","3,4,1,2","true","","",""
"null","","html-keyboard-response","209","662824","0.0-209.0","3AWETUDC93EJN74H6Z6G1VSRWFJZIK","A11Q8U6QTT8KGF","3WUVMVA7OBP2V5NP3991VE8MBDEZA7","","<img src=""img/set1/S1.jpg"" width=""540"" height = ""360"" style=""border:16px solid orange"">","null","","","","","","","","","",""
"null","","html-keyboard-response","210","663037","0.0-210.0","3AWETUDC93EJN74H6Z6G1VSRWFJZIK","A11Q8U6QTT8KGF","3WUVMVA7OBP2V5NP3991VE8MBDEZA7","","","null","","","","","","","","","",""
"577.5","","image-keyboard-response","211","663616","0.0-211.0","3AWETUDC93EJN74H6Z6G1VSRWFJZIK","A11Q8U6QTT8KGF","3WUVMVA7OBP2V5NP3991VE8MBDEZA7","","img/set1/S2.jpg","68","2","structured_normal","68","structured_normal,structured_load,structured_incentive,random","2,3,4,2,1,2","3,4,1,2","true","","",""
"null","","html-keyboard-response","212","663969","0.0-212.0","3AWETUDC93EJN74H6Z6G1VSRWFJZIK","A11Q8U6QTT8KGF","3WUVMVA7OBP2V5NP3991VE8MBDEZA7","","<img src=""img/set1/S2.jpg"" width=""540"" height = ""360"" style=""border:16px solid orange"">","null","","","","","","","","","",""
"null","","html-keyboard-response","213","664172","0.0-213.0","3AWETUDC93EJN74H6Z6G1VSRWFJZIK","A11Q8U6QTT8KGF","3WUVMVA7OBP2V5NP3991VE8MBDEZA7","","","null","","","","","","","","","",""
"602.3000000715256","","image-keyboard-response","214","664776","0.0-214.0","3AWETUDC93EJN74H6Z6G1VSRWFJZIK","A11Q8U6QTT8KGF","3WUVMVA7OBP2V5NP3991VE8MBDEZA7","","img/set1/S3.jpg","72","3","structured_normal","72","structured_normal,structured_load,structured_incentive,random","2,3,4,2,1,2","3,4,1,2","true","","",""
"null","","html-keyboard-response","215","665141","0.0-215.0","3AWETUDC93EJN74H6Z6G1VSRWFJZIK","A11Q8U6QTT8KGF","3WUVMVA7OBP2V5NP3991VE8MBDEZA7","","<img src=""img/set1/S3.jpg"" width=""540"" height = ""360"" style=""border:16px solid orange"">","null","","","","","","","","","",""
"null","","html-keyboard-response","216","665343","0.0-216.0","3AWETUDC93EJN74H6Z6G1VSRWFJZIK","A11Q8U6QTT8KGF","3WUVMVA7OBP2V5NP3991VE8MBDEZA7","","","null","","","","","","","","","",""
"583","","image-keyboard-response","217","665928","0.0-217.0","3AWETUDC93EJN74H6Z6G1VSRWFJZIK","A11Q8U6QTT8KGF","3WUVMVA7OBP2V5NP3991VE8MBDEZA7","","img/set1/S1.jpg","83","1","structured_normal","83","structured_normal,structured_load,structured_incentive,random","2,3,4,2,1,2","3,4,1,2","true","","",""
"null","","html-keyboard-response","218","666281","0.0-218.0","3AWETUDC93EJN74H6Z6G1VSRWFJZIK","A11Q8U6QTT8KGF","3WUVMVA7OBP2V5NP3991VE8MBDEZA7","","<img src=""img/set1/S1.jpg"" width=""540"" height = ""360"" style=""border:16px solid orange"">","null","","","","","","","","","",""
"null","","html-keyboard-response","219","666483","0.0-219.0","3AWETUDC93EJN74H6Z6G1VSRWFJZIK","A11Q8U6QTT8KGF","3WUVMVA7OBP2V5NP3991VE8MBDEZA7","","","null","","","","","","","","","",""
"563.7000000476837","","image-keyboard-response","220","667048","0.0-220.0","3AWETUDC93EJN74H6Z6G1VSRWFJZIK","A11Q8U6QTT8KGF","3WUVMVA7OBP2V5NP3991VE8MBDEZA7","","img/set1/S1.jpg","83","1","structured_normal","83","structured_normal,structured_load,structured_incentive,random","2,3,4,2,1,2","3,4,1,2","true","","",""
"null","","html-keyboard-response","221","667401","0.0-221.0","3AWETUDC93EJN74H6Z6G1VSRWFJZIK","A11Q8U6QTT8KGF","3WUVMVA7OBP2V5NP3991VE8MBDEZA7","","<img src=""img/set1/S1.jpg"" width=""540"" height = ""360"" style=""border:16px solid orange"">","null","","","","","","","","","",""
"null","","html-keyboard-response","222","667604","0.0-222.0","3AWETUDC93EJN74H6Z6G1VSRWFJZIK","A11Q8U6QTT8KGF","3WUVMVA7OBP2V5NP3991VE8MBDEZA7","","","null","","","","","","","","","",""
"570.8999999761581","","image-keyboard-response","223","668176","0.0-223.0","3AWETUDC93EJN74H6Z6G1VSRWFJZIK","A11Q8U6QTT8KGF","3WUVMVA7OBP2V5NP3991VE8MBDEZA7","","img/set1/S2.jpg","68","2","structured_normal","68","structured_normal,structured_load,structured_incentive,random","2,3,4,2,1,2","3,4,1,2","true","","",""
"null","","html-keyboard-response","224","668532","0.0-224.0","3AWETUDC93EJN74H6Z6G1VSRWFJZIK","A11Q8U6QTT8KGF","3WUVMVA7OBP2V5NP3991VE8MBDEZA7","","<img src=""img/set1/S2.jpg"" width=""540"" height = ""360"" style=""border:16px solid orange"">","null","","","","","","","","","",""
"null","","html-keyboard-response","225","668734","0.0-225.0","3AWETUDC93EJN74H6Z6G1VSRWFJZIK","A11Q8U6QTT8KGF","3WUVMVA7OBP2V5NP3991VE8MBDEZA7","","","null","","","","","","","","","",""
"425.2999999523163","","image-keyboard-response","226","669160","0.0-226.0","3AWETUDC93EJN74H6Z6G1VSRWFJZIK","A11Q8U6QTT8KGF","3WUVMVA7OBP2V5NP3991VE8MBDEZA7","","img/set1/S3.jpg","72","3","structured_normal","72","structured_normal,structured_load,structured_incentive,random","2,3,4,2,1,2","3,4,1,2","true","","",""
"null","","html-keyboard-response","227","669513","0.0-227.0","3AWETUDC93EJN74H6Z6G1VSRWFJZIK","A11Q8U6QTT8KGF","3WUVMVA7OBP2V5NP3991VE8MBDEZA7","","<img src=""img/set1/S3.jpg"" width=""540"" height = ""360"" style=""border:16px solid orange"">","null","","","","","","","","","",""
"null","","html-keyboard-response","228","669714","0.0-228.0","3AWETUDC93EJN74H6Z6G1VSRWFJZIK","A11Q8U6QTT8KGF","3WUVMVA7OBP2V5NP3991VE8MBDEZA7","","","null","","","","","","","","","",""
"534","","image-keyboard-response","229","670249","0.0-229.0","3AWETUDC93EJN74H6Z6G1VSRWFJZIK","A11Q8U6QTT8KGF","3WUVMVA7OBP2V5NP3991VE8MBDEZA7","","img/set1/S1.jpg","68","1","structured_normal","83","structured_normal,structured_load,structured_incentive,random","2,3,4,2,1,2","3,4,1,2","false","","",""
"null","","html-keyboard-response","230","670602","0.0-230.0","3AWETUDC93EJN74H6Z6G1VSRWFJZIK","A11Q8U6QTT8KGF","3WUVMVA7OBP2V5NP3991VE8MBDEZA7","","<img src=""img/set1/S1.jpg"" width=""540"" height = ""360"">","null","","","","","","","","","",""
"null","","html-keyboard-response","231","670803","0.0-231.0","3AWETUDC93EJN74H6Z6G1VSRWFJZIK","A11Q8U6QTT8KGF","3WUVMVA7OBP2V5NP3991VE8MBDEZA7","","","null","","","","","","","","","",""
"507","","image-keyboard-response","232","671312","0.0-232.0","3AWETUDC93EJN74H6Z6G1VSRWFJZIK","A11Q8U6QTT8KGF","3WUVMVA7OBP2V5NP3991VE8MBDEZA7","","img/set1/S1.jpg","83","1","structured_normal","83","structured_normal,structured_load,structured_incentive,random","2,3,4,2,1,2","3,4,1,2","true","","",""
"null","","html-keyboard-response","233","671665","0.0-233.0","3AWETUDC93EJN74H6Z6G1VSRWFJZIK","A11Q8U6QTT8KGF","3WUVMVA7OBP2V5NP3991VE8MBDEZA7","","<img src=""img/set1/S1.jpg"" width=""540"" height = ""360"" style=""border:16px solid orange"">","null","","","","","","","","","",""
"null","","html-keyboard-response","234","671866","0.0-234.0","3AWETUDC93EJN74H6Z6G1VSRWFJZIK","A11Q8U6QTT8KGF","3WUVMVA7OBP2V5NP3991VE8MBDEZA7","","","null","","","","","","","","","",""
"444.7999999523163","","image-keyboard-response","235","672312","0.0-235.0","3AWETUDC93EJN74H6Z6G1VSRWFJZIK","A11Q8U6QTT8KGF","3WUVMVA7OBP2V5NP3991VE8MBDEZA7","","img/set1/S1.jpg","83","1","structured_normal","83","structured_normal,structured_load,structured_incentive,random","2,3,4,2,1,2","3,4,1,2","true","","",""
"null","","html-keyboard-response","236","672664","0.0-236.0","3AWETUDC93EJN74H6Z6G1VSRWFJZIK","A11Q8U6QTT8KGF","3WUVMVA7OBP2V5NP3991VE8MBDEZA7","","<img src=""img/set1/S1.jpg"" width=""540"" height = ""360"" style=""border:16px solid orange"">","null","","","","","","","","","",""
"null","","html-keyboard-response","237","672876","0.0-237.0","3AWETUDC93EJN74H6Z6G1VSRWFJZIK","A11Q8U6QTT8KGF","3WUVMVA7OBP2V5NP3991VE8MBDEZA7","","","null","","","","","","","","","",""
"462","","image-keyboard-response","238","673340","0.0-238.0","3AWETUDC93EJN74H6Z6G1VSRWFJZIK","A11Q8U6QTT8KGF","3WUVMVA7OBP2V5NP3991VE8MBDEZA7","","img/set1/S4.jpg","74","4","structured_normal","74","structured_normal,structured_load,structured_incentive,random","2,3,4,2,1,2","3,4,1,2","true","","",""
"null","","html-keyboard-response","239","673693","0.0-239.0","3AWETUDC93EJN74H6Z6G1VSRWFJZIK","A11Q8U6QTT8KGF","3WUVMVA7OBP2V5NP3991VE8MBDEZA7","","<img src=""img/set1/S4.jpg"" width=""540"" height = ""360"" style=""border:16px solid orange"">","null","","","","","","","","","",""
"null","","html-keyboard-response","240","673895","0.0-240.0","3AWETUDC93EJN74H6Z6G1VSRWFJZIK","A11Q8U6QTT8KGF","3WUVMVA7OBP2V5NP3991VE8MBDEZA7","","","null","","","","","","","","","",""
"503.60000002384186","","image-keyboard-response","241","674400","0.0-241.0","3AWETUDC93EJN74H6Z6G1VSRWFJZIK","A11Q8U6QTT8KGF","3WUVMVA7OBP2V5NP3991VE8MBDEZA7","","img/set1/S4.jpg","74","4","structured_normal","74","structured_normal,structured_load,structured_incentive,random","2,3,4,2,1,2","3,4,1,2","true","","",""
"null","","html-keyboard-response","242","674753","0.0-242.0","3AWETUDC93EJN74H6Z6G1VSRWFJZIK","A11Q8U6QTT8KGF","3WUVMVA7OBP2V5NP3991VE8MBDEZA7","","<img src=""img/set1/S4.jpg"" width=""540"" height = ""360"" style=""border:16px solid orange"">","null","","","","","","","","","",""
"null","","html-keyboard-response","243","674954","0.0-243.0","3AWETUDC93EJN74H6Z6G1VSRWFJZIK","A11Q8U6QTT8KGF","3WUVMVA7OBP2V5NP3991VE8MBDEZA7","","","null","","","","","","","","","",""
"600.6999999284744","","image-keyboard-response","244","675556","0.0-244.0","3AWETUDC93EJN74H6Z6G1VSRWFJZIK","A11Q8U6QTT8KGF","3WUVMVA7OBP2V5NP3991VE8MBDEZA7","","img/set1/S2.jpg","68","2","structured_normal","68","structured_normal,structured_load,structured_incentive,random","2,3,4,2,1,2","3,4,1,2","true","","",""
"null","","html-keyboard-response","245","675909","0.0-245.0","3AWETUDC93EJN74H6Z6G1VSRWFJZIK","A11Q8U6QTT8KGF","3WUVMVA7OBP2V5NP3991VE8MBDEZA7","","<img src=""img/set1/S2.jpg"" width=""540"" height = ""360"" style=""border:16px solid orange"">","null","","","","","","","","","",""
"null","","html-keyboard-response","246","676113","0.0-246.0","3AWETUDC93EJN74H6Z6G1VSRWFJZIK","A11Q8U6QTT8KGF","3WUVMVA7OBP2V5NP3991VE8MBDEZA7","","","null","","","","","","","","","",""
"508.89999997615814","","image-keyboard-response","247","676624","0.0-247.0","3AWETUDC93EJN74H6Z6G1VSRWFJZIK","A11Q8U6QTT8KGF","3WUVMVA7OBP2V5NP3991VE8MBDEZA7","","img/set1/S3.jpg","72","3","structured_normal","72","structured_normal,structured_load,structured_incentive,random","2,3,4,2,1,2","3,4,1,2","true","","",""
"null","","html-keyboard-response","248","676986","0.0-248.0","3AWETUDC93EJN74H6Z6G1VSRWFJZIK","A11Q8U6QTT8KGF","3WUVMVA7OBP2V5NP3991VE8MBDEZA7","","<img src=""img/set1/S3.jpg"" width=""540"" height = ""360"" style=""border:16px solid orange"">","null","","","","","","","","","",""
"null","","html-keyboard-response","249","677188","0.0-249.0","3AWETUDC93EJN74H6Z6G1VSRWFJZIK","A11Q8U6QTT8KGF","3WUVMVA7OBP2V5NP3991VE8MBDEZA7","","","null","","","","","","","","","",""
"514.7999999523163","","image-keyboard-response","250","677704","0.0-250.0","3AWETUDC93EJN74H6Z6G1VSRWFJZIK","A11Q8U6QTT8KGF","3WUVMVA7OBP2V5NP3991VE8MBDEZA7","","img/set1/S4.jpg","74","4","structured_normal","74","structured_normal,structured_load,structured_incentive,random","2,3,4,2,1,2","3,4,1,2","true","","",""
"null","","html-keyboard-response","251","678067","0.0-251.0","3AWETUDC93EJN74H6Z6G1VSRWFJZIK","A11Q8U6QTT8KGF","3WUVMVA7OBP2V5NP3991VE8MBDEZA7","","<img src=""img/set1/S4.jpg"" width=""540"" height = ""360"" style=""border:16px solid orange"">","null","","","","","","","","","",""
"null","","html-keyboard-response","252","678273","0.0-252.0","3AWETUDC93EJN74H6Z6G1VSRWFJZIK","A11Q8U6QTT8KGF","3WUVMVA7OBP2V5NP3991VE8MBDEZA7","","","null","","","","","","","","","",""
"469.60000002384186","","image-keyboard-response","253","678744","0.0-253.0","3AWETUDC93EJN74H6Z6G1VSRWFJZIK","A11Q8U6QTT8KGF","3WUVMVA7OBP2V5NP3991VE8MBDEZA7","","img/set1/S4.jpg","74","4","structured_normal","74","structured_normal,structured_load,structured_incentive,random","2,3,4,2,1,2","3,4,1,2","true","","",""
"null","","html-keyboard-response","254","679098","0.0-254.0","3AWETUDC93EJN74H6Z6G1VSRWFJZIK","A11Q8U6QTT8KGF","3WUVMVA7OBP2V5NP3991VE8MBDEZA7","","<img src=""img/set1/S4.jpg"" width=""540"" height = ""360"" style=""border:16px solid orange"">","null","","","","","","","","","",""
"null","","html-keyboard-response","255","679300","0.0-255.0","3AWETUDC93EJN74H6Z6G1VSRWFJZIK","A11Q8U6QTT8KGF","3WUVMVA7OBP2V5NP3991VE8MBDEZA7","","","null","","","","","","","","","",""
"606.6000000238419","","image-keyboard-response","256","679908","0.0-256.0","3AWETUDC93EJN74H6Z6G1VSRWFJZIK","A11Q8U6QTT8KGF","3WUVMVA7OBP2V5NP3991VE8MBDEZA7","","img/set1/S1.jpg","83","1","structured_normal","83","structured_normal,structured_load,structured_incentive,random","2,3,4,2,1,2","3,4,1,2","true","","",""
"null","","html-keyboard-response","257","680295","0.0-257.0","3AWETUDC93EJN74H6Z6G1VSRWFJZIK","A11Q8U6QTT8KGF","3WUVMVA7OBP2V5NP3991VE8MBDEZA7","","<img src=""img/set1/S1.jpg"" width=""540"" height = ""360"" style=""border:16px solid orange"">","null","","","","","","","","","",""
"null","","html-keyboard-response","258","680496","0.0-258.0","3AWETUDC93EJN74H6Z6G1VSRWFJZIK","A11Q8U6QTT8KGF","3WUVMVA7OBP2V5NP3991VE8MBDEZA7","","","null","","","","","","","","","",""
"401.60000002384186","","image-keyboard-response","259","680899","0.0-259.0","3AWETUDC93EJN74H6Z6G1VSRWFJZIK","A11Q8U6QTT8KGF","3WUVMVA7OBP2V5NP3991VE8MBDEZA7","","img/set1/S1.jpg","83","1","structured_normal","83","structured_normal,structured_load,structured_incentive,random","2,3,4,2,1,2","3,4,1,2","true","","",""
"null","","html-keyboard-response","260","681263","0.0-260.0","3AWETUDC93EJN74H6Z6G1VSRWFJZIK","A11Q8U6QTT8KGF","3WUVMVA7OBP2V5NP3991VE8MBDEZA7","","<img src=""img/set1/S1.jpg"" width=""540"" height = ""360"" style=""border:16px solid orange"">","null","","","","","","","","","",""
"null","","html-keyboard-response","261","681464","0.0-261.0","3AWETUDC93EJN74H6Z6G1VSRWFJZIK","A11Q8U6QTT8KGF","3WUVMVA7OBP2V5NP3991VE8MBDEZA7","","","null","","","","","","","","","",""
"458.10000002384186","","image-keyboard-response","262","681924","0.0-262.0","3AWETUDC93EJN74H6Z6G1VSRWFJZIK","A11Q8U6QTT8KGF","3WUVMVA7OBP2V5NP3991VE8MBDEZA7","","img/set1/S1.jpg","83","1","structured_normal","83","structured_normal,structured_load,structured_incentive,random","2,3,4,2,1,2","3,4,1,2","true","","",""
"null","","html-keyboard-response","263","682278","0.0-263.0","3AWETUDC93EJN74H6Z6G1VSRWFJZIK","A11Q8U6QTT8KGF","3WUVMVA7OBP2V5NP3991VE8MBDEZA7","","<img src=""img/set1/S1.jpg"" width=""540"" height = ""360"" style=""border:16px solid orange"">","null","","","","","","","","","",""
"null","","html-keyboard-response","264","682479","0.0-264.0","3AWETUDC93EJN74H6Z6G1VSRWFJZIK","A11Q8U6QTT8KGF","3WUVMVA7OBP2V5NP3991VE8MBDEZA7","","","null","","","","","","","","","",""
"570.7999999523163","","image-keyboard-response","265","683051","0.0-265.0","3AWETUDC93EJN74H6Z6G1VSRWFJZIK","A11Q8U6QTT8KGF","3WUVMVA7OBP2V5NP3991VE8MBDEZA7","","img/set1/S2.jpg","68","2","structured_normal","68","structured_normal,structured_load,structured_incentive,random","2,3,4,2,1,2","3,4,1,2","true","","",""
"null","","html-keyboard-response","266","683404","0.0-266.0","3AWETUDC93EJN74H6Z6G1VSRWFJZIK","A11Q8U6QTT8KGF","3WUVMVA7OBP2V5NP3991VE8MBDEZA7","","<img src=""img/set1/S2.jpg"" width=""540"" height = ""360"" style=""border:16px solid orange"">","null","","","","","","","","","",""
"null","","html-keyboard-response","267","683606","0.0-267.0","3AWETUDC93EJN74H6Z6G1VSRWFJZIK","A11Q8U6QTT8KGF","3WUVMVA7OBP2V5NP3991VE8MBDEZA7","","","null","","","","","","","","","",""
"509.7000000476837","","image-keyboard-response","268","684117","0.0-268.0","3AWETUDC93EJN74H6Z6G1VSRWFJZIK","A11Q8U6QTT8KGF","3WUVMVA7OBP2V5NP3991VE8MBDEZA7","","img/set1/S3.jpg","72","3","structured_normal","72","structured_normal,structured_load,structured_incentive,random","2,3,4,2,1,2","3,4,1,2","true","","",""
"null","","html-keyboard-response","269","684470","0.0-269.0","3AWETUDC93EJN74H6Z6G1VSRWFJZIK","A11Q8U6QTT8KGF","3WUVMVA7OBP2V5NP3991VE8MBDEZA7","","<img src=""img/set1/S3.jpg"" width=""540"" height = ""360"" style=""border:16px solid orange"">","null","","","","","","","","","",""
"null","","html-keyboard-response","270","684673","0.0-270.0","3AWETUDC93EJN74H6Z6G1VSRWFJZIK","A11Q8U6QTT8KGF","3WUVMVA7OBP2V5NP3991VE8MBDEZA7","","","null","","","","","","","","","",""
"881.7999999523163","","image-keyboard-response","271","685556","0.0-271.0","3AWETUDC93EJN74H6Z6G1VSRWFJZIK","A11Q8U6QTT8KGF","3WUVMVA7OBP2V5NP3991VE8MBDEZA7","","img/set1/S2.jpg","68","2","structured_normal","68","structured_normal,structured_load,structured_incentive,random","2,3,4,2,1,2","3,4,1,2","true","","",""
"null","","html-keyboard-response","272","685922","0.0-272.0","3AWETUDC93EJN74H6Z6G1VSRWFJZIK","A11Q8U6QTT8KGF","3WUVMVA7OBP2V5NP3991VE8MBDEZA7","","<img src=""img/set1/S2.jpg"" width=""540"" height = ""360"" style=""border:16px solid orange"">","null","","","","","","","","","",""
"null","","html-keyboard-response","273","686125","0.0-273.0","3AWETUDC93EJN74H6Z6G1VSRWFJZIK","A11Q8U6QTT8KGF","3WUVMVA7OBP2V5NP3991VE8MBDEZA7","","","null","","","","","","","","","",""
"513.5","","image-keyboard-response","274","686641","0.0-274.0","3AWETUDC93EJN74H6Z6G1VSRWFJZIK","A11Q8U6QTT8KGF","3WUVMVA7OBP2V5NP3991VE8MBDEZA7","","img/set1/S4.jpg","74","4","structured_normal","74","structured_normal,structured_load,structured_incentive,random","2,3,4,2,1,2","3,4,1,2","true","","",""
"null","","html-keyboard-response","275","686993","0.0-275.0","3AWETUDC93EJN74H6Z6G1VSRWFJZIK","A11Q8U6QTT8KGF","3WUVMVA7OBP2V5NP3991VE8MBDEZA7","","<img src=""img/set1/S4.jpg"" width=""540"" height = ""360"" style=""border:16px solid orange"">","null","","","","","","","","","",""
"null","","html-keyboard-response","276","687195","0.0-276.0","3AWETUDC93EJN74H6Z6G1VSRWFJZIK","A11Q8U6QTT8KGF","3WUVMVA7OBP2V5NP3991VE8MBDEZA7","","","null","","","","","","","","","",""
"547.7999999523163","","image-keyboard-response","277","687745","0.0-277.0","3AWETUDC93EJN74H6Z6G1VSRWFJZIK","A11Q8U6QTT8KGF","3WUVMVA7OBP2V5NP3991VE8MBDEZA7","","img/set1/S2.jpg","68","2","structured_normal","68","structured_normal,structured_load,structured_incentive,random","2,3,4,2,1,2","3,4,1,2","true","","",""
"null","","html-keyboard-response","278","688098","0.0-278.0","3AWETUDC93EJN74H6Z6G1VSRWFJZIK","A11Q8U6QTT8KGF","3WUVMVA7OBP2V5NP3991VE8MBDEZA7","","<img src=""img/set1/S2.jpg"" width=""540"" height = ""360"" style=""border:16px solid orange"">","null","","","","","","","","","",""
"null","","html-keyboard-response","279","688299","0.0-279.0","3AWETUDC93EJN74H6Z6G1VSRWFJZIK","A11Q8U6QTT8KGF","3WUVMVA7OBP2V5NP3991VE8MBDEZA7","","","null","","","","","","","","","",""
"488.7999999523163","","image-keyboard-response","280","688789","0.0-280.0","3AWETUDC93EJN74H6Z6G1VSRWFJZIK","A11Q8U6QTT8KGF","3WUVMVA7OBP2V5NP3991VE8MBDEZA7","","img/set1/S3.jpg","72","3","structured_normal","72","structured_normal,structured_load,structured_incentive,random","2,3,4,2,1,2","3,4,1,2","true","","",""
"null","","html-keyboard-response","281","689154","0.0-281.0","3AWETUDC93EJN74H6Z6G1VSRWFJZIK","A11Q8U6QTT8KGF","3WUVMVA7OBP2V5NP3991VE8MBDEZA7","","<img src=""img/set1/S3.jpg"" width=""540"" height = ""360"" style=""border:16px solid orange"">","null","","","","","","","","","",""
"null","","html-keyboard-response","282","689355","0.0-282.0","3AWETUDC93EJN74H6Z6G1VSRWFJZIK","A11Q8U6QTT8KGF","3WUVMVA7OBP2V5NP3991VE8MBDEZA7","","","null","","","","","","","","","",""
"630.7000000476837","","image-keyboard-response","283","689988","0.0-283.0","3AWETUDC93EJN74H6Z6G1VSRWFJZIK","A11Q8U6QTT8KGF","3WUVMVA7OBP2V5NP3991VE8MBDEZA7","","img/set1/S1.jpg","83","1","structured_normal","83","structured_normal,structured_load,structured_incentive,random","2,3,4,2,1,2","3,4,1,2","true","","",""
"null","","html-keyboard-response","284","690340","0.0-284.0","3AWETUDC93EJN74H6Z6G1VSRWFJZIK","A11Q8U6QTT8KGF","3WUVMVA7OBP2V5NP3991VE8MBDEZA7","","<img src=""img/set1/S1.jpg"" width=""540"" height = ""360"" style=""border:16px solid orange"">","null","","","","","","","","","",""
"null","","html-keyboard-response","285","690541","0.0-285.0","3AWETUDC93EJN74H6Z6G1VSRWFJZIK","A11Q8U6QTT8KGF","3WUVMVA7OBP2V5NP3991VE8MBDEZA7","","","null","","","","","","","","","",""
"513.3000000715256","","image-keyboard-response","286","691056","0.0-286.0","3AWETUDC93EJN74H6Z6G1VSRWFJZIK","A11Q8U6QTT8KGF","3WUVMVA7OBP2V5NP3991VE8MBDEZA7","","img/set1/S4.jpg","74","4","structured_normal","74","structured_normal,structured_load,structured_incentive,random","2,3,4,2,1,2","3,4,1,2","true","","",""
"null","","html-keyboard-response","287","691421","0.0-287.0","3AWETUDC93EJN74H6Z6G1VSRWFJZIK","A11Q8U6QTT8KGF","3WUVMVA7OBP2V5NP3991VE8MBDEZA7","","<img src=""img/set1/S4.jpg"" width=""540"" height = ""360"" style=""border:16px solid orange"">","null","","","","","","","","","",""
"null","","html-keyboard-response","288","691622","0.0-288.0","3AWETUDC93EJN74H6Z6G1VSRWFJZIK","A11Q8U6QTT8KGF","3WUVMVA7OBP2V5NP3991VE8MBDEZA7","","","null","","","","","","","","","",""
"544.5","","image-keyboard-response","289","692169","0.0-289.0","3AWETUDC93EJN74H6Z6G1VSRWFJZIK","A11Q8U6QTT8KGF","3WUVMVA7OBP2V5NP3991VE8MBDEZA7","","img/set1/S2.jpg","68","2","structured_normal","68","structured_normal,structured_load,structured_incentive,random","2,3,4,2,1,2","3,4,1,2","true","","",""
"null","","html-keyboard-response","290","692522","0.0-290.0","3AWETUDC93EJN74H6Z6G1VSRWFJZIK","A11Q8U6QTT8KGF","3WUVMVA7OBP2V5NP3991VE8MBDEZA7","","<img src=""img/set1/S2.jpg"" width=""540"" height = ""360"" style=""border:16px solid orange"">","null","","","","","","","","","",""
"null","","html-keyboard-response","291","692724","0.0-291.0","3AWETUDC93EJN74H6Z6G1VSRWFJZIK","A11Q8U6QTT8KGF","3WUVMVA7OBP2V5NP3991VE8MBDEZA7","","","null","","","","","","","","","",""
"538.5","","image-keyboard-response","292","693263","0.0-292.0","3AWETUDC93EJN74H6Z6G1VSRWFJZIK","A11Q8U6QTT8KGF","3WUVMVA7OBP2V5NP3991VE8MBDEZA7","","img/set1/S4.jpg","72","4","structured_normal","74","structured_normal,structured_load,structured_incentive,random","2,3,4,2,1,2","3,4,1,2","false","","",""
"null","","html-keyboard-response","293","693615","0.0-293.0","3AWETUDC93EJN74H6Z6G1VSRWFJZIK","A11Q8U6QTT8KGF","3WUVMVA7OBP2V5NP3991VE8MBDEZA7","","<img src=""img/set1/S4.jpg"" width=""540"" height = ""360"">","null","","","","","","","","","",""
"null","","html-keyboard-response","294","693817","0.0-294.0","3AWETUDC93EJN74H6Z6G1VSRWFJZIK","A11Q8U6QTT8KGF","3WUVMVA7OBP2V5NP3991VE8MBDEZA7","","","null","","","","","","","","","",""
"788.1000000238419","","image-keyboard-response","295","694606","0.0-295.0","3AWETUDC93EJN74H6Z6G1VSRWFJZIK","A11Q8U6QTT8KGF","3WUVMVA7OBP2V5NP3991VE8MBDEZA7","","img/set1/S2.jpg","68","2","structured_normal","68","structured_normal,structured_load,structured_incentive,random","2,3,4,2,1,2","3,4,1,2","true","","",""
"null","","html-keyboard-response","296","694959","0.0-296.0","3AWETUDC93EJN74H6Z6G1VSRWFJZIK","A11Q8U6QTT8KGF","3WUVMVA7OBP2V5NP3991VE8MBDEZA7","","<img src=""img/set1/S2.jpg"" width=""540"" height = ""360"" style=""border:16px solid orange"">","null","","","","","","","","","",""
"null","","html-keyboard-response","297","695160","0.0-297.0","3AWETUDC93EJN74H6Z6G1VSRWFJZIK","A11Q8U6QTT8KGF","3WUVMVA7OBP2V5NP3991VE8MBDEZA7","","","null","","","","","","","","","",""
"405.2000000476837","","image-keyboard-response","298","695568","0.0-298.0","3AWETUDC93EJN74H6Z6G1VSRWFJZIK","A11Q8U6QTT8KGF","3WUVMVA7OBP2V5NP3991VE8MBDEZA7","","img/set1/S3.jpg","72","3","structured_normal","72","structured_normal,structured_load,structured_incentive,random","2,3,4,2,1,2","3,4,1,2","true","","",""
"null","","html-keyboard-response","299","695921","0.0-299.0","3AWETUDC93EJN74H6Z6G1VSRWFJZIK","A11Q8U6QTT8KGF","3WUVMVA7OBP2V5NP3991VE8MBDEZA7","","<img src=""img/set1/S3.jpg"" width=""540"" height = ""360"" style=""border:16px solid orange"">","null","","","","","","","","","",""
"null","","html-keyboard-response","300","696124","0.0-300.0","3AWETUDC93EJN74H6Z6G1VSRWFJZIK","A11Q8U6QTT8KGF","3WUVMVA7OBP2V5NP3991VE8MBDEZA7","","","null","","","","","","","","","",""
"434.5","","image-keyboard-response","301","696560","0.0-301.0","3AWETUDC93EJN74H6Z6G1VSRWFJZIK","A11Q8U6QTT8KGF","3WUVMVA7OBP2V5NP3991VE8MBDEZA7","","img/set1/S1.jpg","83","1","structured_normal","83","structured_normal,structured_load,structured_incentive,random","2,3,4,2,1,2","3,4,1,2","true","","",""
"null","","html-keyboard-response","302","696913","0.0-302.0","3AWETUDC93EJN74H6Z6G1VSRWFJZIK","A11Q8U6QTT8KGF","3WUVMVA7OBP2V5NP3991VE8MBDEZA7","","<img src=""img/set1/S1.jpg"" width=""540"" height = ""360"" style=""border:16px solid orange"">","null","","","","","","","","","",""
"null","","html-keyboard-response","303","697115","0.0-303.0","3AWETUDC93EJN74H6Z6G1VSRWFJZIK","A11Q8U6QTT8KGF","3WUVMVA7OBP2V5NP3991VE8MBDEZA7","","","null","","","","","","","","","",""
"640.6000000238419","","image-keyboard-response","304","697757","0.0-304.0","3AWETUDC93EJN74H6Z6G1VSRWFJZIK","A11Q8U6QTT8KGF","3WUVMVA7OBP2V5NP3991VE8MBDEZA7","","img/set1/S3.jpg","72","3","structured_normal","72","structured_normal,structured_load,structured_incentive,random","2,3,4,2,1,2","3,4,1,2","true","","",""
"null","","html-keyboard-response","305","698110","0.0-305.0","3AWETUDC93EJN74H6Z6G1VSRWFJZIK","A11Q8U6QTT8KGF","3WUVMVA7OBP2V5NP3991VE8MBDEZA7","","<img src=""img/set1/S3.jpg"" width=""540"" height = ""360"" style=""border:16px solid orange"">","null","","","","","","","","","",""
"null","","html-keyboard-response","306","698312","0.0-306.0","3AWETUDC93EJN74H6Z6G1VSRWFJZIK","A11Q8U6QTT8KGF","3WUVMVA7OBP2V5NP3991VE8MBDEZA7","","","null","","","","","","","","","",""
"472.5","","image-keyboard-response","307","698786","0.0-307.0","3AWETUDC93EJN74H6Z6G1VSRWFJZIK","A11Q8U6QTT8KGF","3WUVMVA7OBP2V5NP3991VE8MBDEZA7","","img/set1/S4.jpg","74","4","structured_normal","74","structured_normal,structured_load,structured_incentive,random","2,3,4,2,1,2","3,4,1,2","true","","",""
"null","","html-keyboard-response","308","699138","0.0-308.0","3AWETUDC93EJN74H6Z6G1VSRWFJZIK","A11Q8U6QTT8KGF","3WUVMVA7OBP2V5NP3991VE8MBDEZA7","","<img src=""img/set1/S4.jpg"" width=""540"" height = ""360"" style=""border:16px solid orange"">","null","","","","","","","","","",""
"null","","html-keyboard-response","309","699340","0.0-309.0","3AWETUDC93EJN74H6Z6G1VSRWFJZIK","A11Q8U6QTT8KGF","3WUVMVA7OBP2V5NP3991VE8MBDEZA7","","","null","","","","","","","","","",""
"490.10000002384186","","image-keyboard-response","310","699832","0.0-310.0","3AWETUDC93EJN74H6Z6G1VSRWFJZIK","A11Q8U6QTT8KGF","3WUVMVA7OBP2V5NP3991VE8MBDEZA7","","img/set1/S1.jpg","83","1","structured_normal","83","structured_normal,structured_load,structured_incentive,random","2,3,4,2,1,2","3,4,1,2","true","","",""
"null","","html-keyboard-response","311","700186","0.0-311.0","3AWETUDC93EJN74H6Z6G1VSRWFJZIK","A11Q8U6QTT8KGF","3WUVMVA7OBP2V5NP3991VE8MBDEZA7","","<img src=""img/set1/S1.jpg"" width=""540"" height = ""360"" style=""border:16px solid orange"">","null","","","","","","","","","",""
"null","","html-keyboard-response","312","700388","0.0-312.0","3AWETUDC93EJN74H6Z6G1VSRWFJZIK","A11Q8U6QTT8KGF","3WUVMVA7OBP2V5NP3991VE8MBDEZA7","","","null","","","","","","","","","",""
"503","","image-keyboard-response","313","700892","0.0-313.0","3AWETUDC93EJN74H6Z6G1VSRWFJZIK","A11Q8U6QTT8KGF","3WUVMVA7OBP2V5NP3991VE8MBDEZA7","","img/set1/S3.jpg","72","3","structured_normal","72","structured_normal,structured_load,structured_incentive,random","2,3,4,2,1,2","3,4,1,2","true","","",""
"null","","html-keyboard-response","314","701244","0.0-314.0","3AWETUDC93EJN74H6Z6G1VSRWFJZIK","A11Q8U6QTT8KGF","3WUVMVA7OBP2V5NP3991VE8MBDEZA7","","<img src=""img/set1/S3.jpg"" width=""540"" height = ""360"" style=""border:16px solid orange"">","null","","","","","","","","","",""
"null","","html-keyboard-response","315","701447","0.0-315.0","3AWETUDC93EJN74H6Z6G1VSRWFJZIK","A11Q8U6QTT8KGF","3WUVMVA7OBP2V5NP3991VE8MBDEZA7","","","null","","","","","","","","","",""
"507.7999999523163","","image-keyboard-response","316","701956","0.0-316.0","3AWETUDC93EJN74H6Z6G1VSRWFJZIK","A11Q8U6QTT8KGF","3WUVMVA7OBP2V5NP3991VE8MBDEZA7","","img/set1/S4.jpg","74","4","structured_normal","74","structured_normal,structured_load,structured_incentive,random","2,3,4,2,1,2","3,4,1,2","true","","",""
"null","","html-keyboard-response","317","702310","0.0-317.0","3AWETUDC93EJN74H6Z6G1VSRWFJZIK","A11Q8U6QTT8KGF","3WUVMVA7OBP2V5NP3991VE8MBDEZA7","","<img src=""img/set1/S4.jpg"" width=""540"" height = ""360"" style=""border:16px solid orange"">","null","","","","","","","","","",""
"null","","html-keyboard-response","318","702512","0.0-318.0","3AWETUDC93EJN74H6Z6G1VSRWFJZIK","A11Q8U6QTT8KGF","3WUVMVA7OBP2V5NP3991VE8MBDEZA7","","","null","","","","","","","","","",""
"489.09999990463257","","image-keyboard-response","319","703004","0.0-319.0","3AWETUDC93EJN74H6Z6G1VSRWFJZIK","A11Q8U6QTT8KGF","3WUVMVA7OBP2V5NP3991VE8MBDEZA7","","img/set1/S2.jpg","68","2","structured_normal","68","structured_normal,structured_load,structured_incentive,random","2,3,4,2,1,2","3,4,1,2","true","","",""
"null","","html-keyboard-response","320","703357","0.0-320.0","3AWETUDC93EJN74H6Z6G1VSRWFJZIK","A11Q8U6QTT8KGF","3WUVMVA7OBP2V5NP3991VE8MBDEZA7","","<img src=""img/set1/S2.jpg"" width=""540"" height = ""360"" style=""border:16px solid orange"">","null","","","","","","","","","",""
"null","","html-keyboard-response","321","703559","0.0-321.0","3AWETUDC93EJN74H6Z6G1VSRWFJZIK","A11Q8U6QTT8KGF","3WUVMVA7OBP2V5NP3991VE8MBDEZA7","","","null","","","","","","","","","",""
"587","","image-keyboard-response","322","704148","0.0-322.0","3AWETUDC93EJN74H6Z6G1VSRWFJZIK","A11Q8U6QTT8KGF","3WUVMVA7OBP2V5NP3991VE8MBDEZA7","","img/set1/S3.jpg","72","3","structured_normal","72","structured_normal,structured_load,structured_incentive,random","2,3,4,2,1,2","3,4,1,2","true","","",""
"null","","html-keyboard-response","323","704501","0.0-323.0","3AWETUDC93EJN74H6Z6G1VSRWFJZIK","A11Q8U6QTT8KGF","3WUVMVA7OBP2V5NP3991VE8MBDEZA7","","<img src=""img/set1/S3.jpg"" width=""540"" height = ""360"" style=""border:16px solid orange"">","null","","","","","","","","","",""
"null","","html-keyboard-response","324","704703","0.0-324.0","3AWETUDC93EJN74H6Z6G1VSRWFJZIK","A11Q8U6QTT8KGF","3WUVMVA7OBP2V5NP3991VE8MBDEZA7","","","null","","","","","","","","","",""
"820","","image-keyboard-response","325","705524","0.0-325.0","3AWETUDC93EJN74H6Z6G1VSRWFJZIK","A11Q8U6QTT8KGF","3WUVMVA7OBP2V5NP3991VE8MBDEZA7","","img/set1/S4.jpg","74","4","structured_normal","74","structured_normal,structured_load,structured_incentive,random","2,3,4,2,1,2","3,4,1,2","true","","",""
"null","","html-keyboard-response","326","705891","0.0-326.0","3AWETUDC93EJN74H6Z6G1VSRWFJZIK","A11Q8U6QTT8KGF","3WUVMVA7OBP2V5NP3991VE8MBDEZA7","","<img src=""img/set1/S4.jpg"" width=""540"" height = ""360"" style=""border:16px solid orange"">","null","","","","","","","","","",""
"null","","html-keyboard-response","327","706093","0.0-327.0","3AWETUDC93EJN74H6Z6G1VSRWFJZIK","A11Q8U6QTT8KGF","3WUVMVA7OBP2V5NP3991VE8MBDEZA7","","","null","","","","","","","","","",""
"625.4000000953674","","image-keyboard-response","328","706720","0.0-328.0","3AWETUDC93EJN74H6Z6G1VSRWFJZIK","A11Q8U6QTT8KGF","3WUVMVA7OBP2V5NP3991VE8MBDEZA7","","img/set1/S2.jpg","68","2","structured_normal","68","structured_normal,structured_load,structured_incentive,random","2,3,4,2,1,2","3,4,1,2","true","","",""
"null","","html-keyboard-response","329","707073","0.0-329.0","3AWETUDC93EJN74H6Z6G1VSRWFJZIK","A11Q8U6QTT8KGF","3WUVMVA7OBP2V5NP3991VE8MBDEZA7","","<img src=""img/set1/S2.jpg"" width=""540"" height = ""360"" style=""border:16px solid orange"">","null","","","","","","","","","",""
"null","","html-keyboard-response","330","707275","0.0-330.0","3AWETUDC93EJN74H6Z6G1VSRWFJZIK","A11Q8U6QTT8KGF","3WUVMVA7OBP2V5NP3991VE8MBDEZA7","","","null","","","","","","","","","",""
"463.89999997615814","","image-keyboard-response","331","707740","0.0-331.0","3AWETUDC93EJN74H6Z6G1VSRWFJZIK","A11Q8U6QTT8KGF","3WUVMVA7OBP2V5NP3991VE8MBDEZA7","","img/set1/S3.jpg","72","3","structured_normal","72","structured_normal,structured_load,structured_incentive,random","2,3,4,2,1,2","3,4,1,2","true","","",""
"null","","html-keyboard-response","332","708094","0.0-332.0","3AWETUDC93EJN74H6Z6G1VSRWFJZIK","A11Q8U6QTT8KGF","3WUVMVA7OBP2V5NP3991VE8MBDEZA7","","<img src=""img/set1/S3.jpg"" width=""540"" height = ""360"" style=""border:16px solid orange"">","null","","","","","","","","","",""
"null","","html-keyboard-response","333","708297","0.0-333.0","3AWETUDC93EJN74H6Z6G1VSRWFJZIK","A11Q8U6QTT8KGF","3WUVMVA7OBP2V5NP3991VE8MBDEZA7","","","null","","","","","","","","","",""
"510.10000002384186","","image-keyboard-response","334","708809","0.0-334.0","3AWETUDC93EJN74H6Z6G1VSRWFJZIK","A11Q8U6QTT8KGF","3WUVMVA7OBP2V5NP3991VE8MBDEZA7","","img/set1/S1.jpg","83","1","structured_normal","83","structured_normal,structured_load,structured_incentive,random","2,3,4,2,1,2","3,4,1,2","true","","",""
"null","","html-keyboard-response","335","709162","0.0-335.0","3AWETUDC93EJN74H6Z6G1VSRWFJZIK","A11Q8U6QTT8KGF","3WUVMVA7OBP2V5NP3991VE8MBDEZA7","","<img src=""img/set1/S1.jpg"" width=""540"" height = ""360"" style=""border:16px solid orange"">","null","","","","","","","","","",""
"null","","html-keyboard-response","336","709364","0.0-336.0","3AWETUDC93EJN74H6Z6G1VSRWFJZIK","A11Q8U6QTT8KGF","3WUVMVA7OBP2V5NP3991VE8MBDEZA7","","","null","","","","","","","","","",""
"469","","image-keyboard-response","337","709836","0.0-337.0","3AWETUDC93EJN74H6Z6G1VSRWFJZIK","A11Q8U6QTT8KGF","3WUVMVA7OBP2V5NP3991VE8MBDEZA7","","img/set1/S4.jpg","74","4","structured_normal","74","structured_normal,structured_load,structured_incentive,random","2,3,4,2,1,2","3,4,1,2","true","","",""
"null","","html-keyboard-response","338","710189","0.0-338.0","3AWETUDC93EJN74H6Z6G1VSRWFJZIK","A11Q8U6QTT8KGF","3WUVMVA7OBP2V5NP3991VE8MBDEZA7","","<img src=""img/set1/S4.jpg"" width=""540"" height = ""360"" style=""border:16px solid orange"">","null","","","","","","","","","",""
"null","","html-keyboard-response","339","710390","0.0-339.0","3AWETUDC93EJN74H6Z6G1VSRWFJZIK","A11Q8U6QTT8KGF","3WUVMVA7OBP2V5NP3991VE8MBDEZA7","","","null","","","","","","","","","",""
"456.7999999523163","","image-keyboard-response","340","710848","0.0-340.0","3AWETUDC93EJN74H6Z6G1VSRWFJZIK","A11Q8U6QTT8KGF","3WUVMVA7OBP2V5NP3991VE8MBDEZA7","","img/set1/S4.jpg","74","4","structured_normal","74","structured_normal,structured_load,structured_incentive,random","2,3,4,2,1,2","3,4,1,2","true","","",""
"null","","html-keyboard-response","341","711200","0.0-341.0","3AWETUDC93EJN74H6Z6G1VSRWFJZIK","A11Q8U6QTT8KGF","3WUVMVA7OBP2V5NP3991VE8MBDEZA7","","<img src=""img/set1/S4.jpg"" width=""540"" height = ""360"" style=""border:16px solid orange"">","null","","","","","","","","","",""
"null","","html-keyboard-response","342","711403","0.0-342.0","3AWETUDC93EJN74H6Z6G1VSRWFJZIK","A11Q8U6QTT8KGF","3WUVMVA7OBP2V5NP3991VE8MBDEZA7","","","null","","","","","","","","","",""
"524.1000000238419","","image-keyboard-response","343","711928","0.0-343.0","3AWETUDC93EJN74H6Z6G1VSRWFJZIK","A11Q8U6QTT8KGF","3WUVMVA7OBP2V5NP3991VE8MBDEZA7","","img/set1/S2.jpg","68","2","structured_normal","68","structured_normal,structured_load,structured_incentive,random","2,3,4,2,1,2","3,4,1,2","true","","",""
"null","","html-keyboard-response","344","712281","0.0-344.0","3AWETUDC93EJN74H6Z6G1VSRWFJZIK","A11Q8U6QTT8KGF","3WUVMVA7OBP2V5NP3991VE8MBDEZA7","","<img src=""img/set1/S2.jpg"" width=""540"" height = ""360"" style=""border:16px solid orange"">","null","","","","","","","","","",""
"null","","html-keyboard-response","345","712483","0.0-345.0","3AWETUDC93EJN74H6Z6G1VSRWFJZIK","A11Q8U6QTT8KGF","3WUVMVA7OBP2V5NP3991VE8MBDEZA7","","","null","","","","","","","","","",""
"452.5","","image-keyboard-response","346","712936","0.0-346.0","3AWETUDC93EJN74H6Z6G1VSRWFJZIK","A11Q8U6QTT8KGF","3WUVMVA7OBP2V5NP3991VE8MBDEZA7","","img/set1/S3.jpg","72","3","structured_normal","72","structured_normal,structured_load,structured_incentive,random","2,3,4,2,1,2","3,4,1,2","true","","",""
"null","","html-keyboard-response","347","713293","0.0-347.0","3AWETUDC93EJN74H6Z6G1VSRWFJZIK","A11Q8U6QTT8KGF","3WUVMVA7OBP2V5NP3991VE8MBDEZA7","","<img src=""img/set1/S3.jpg"" width=""540"" height = ""360"" style=""border:16px solid orange"">","null","","","","","","","","","",""
"null","","html-keyboard-response","348","713494","0.0-348.0","3AWETUDC93EJN74H6Z6G1VSRWFJZIK","A11Q8U6QTT8KGF","3WUVMVA7OBP2V5NP3991VE8MBDEZA7","","","null","","","","","","","","","",""
"577.1999999284744","","image-keyboard-response","349","714073","0.0-349.0","3AWETUDC93EJN74H6Z6G1VSRWFJZIK","A11Q8U6QTT8KGF","3WUVMVA7OBP2V5NP3991VE8MBDEZA7","","img/set1/S4.jpg","74","4","structured_normal","74","structured_normal,structured_load,structured_incentive,random","2,3,4,2,1,2","3,4,1,2","true","","",""
"null","","html-keyboard-response","350","714426","0.0-350.0","3AWETUDC93EJN74H6Z6G1VSRWFJZIK","A11Q8U6QTT8KGF","3WUVMVA7OBP2V5NP3991VE8MBDEZA7","","<img src=""img/set1/S4.jpg"" width=""540"" height = ""360"" style=""border:16px solid orange"">","null","","","","","","","","","",""
"null","","html-keyboard-response","351","714627","0.0-351.0","3AWETUDC93EJN74H6Z6G1VSRWFJZIK","A11Q8U6QTT8KGF","3WUVMVA7OBP2V5NP3991VE8MBDEZA7","","","null","","","","","","","","","",""
"582","","image-keyboard-response","352","715212","0.0-352.0","3AWETUDC93EJN74H6Z6G1VSRWFJZIK","A11Q8U6QTT8KGF","3WUVMVA7OBP2V5NP3991VE8MBDEZA7","","img/set1/S1.jpg","83","1","structured_normal","83","structured_normal,structured_load,structured_incentive,random","2,3,4,2,1,2","3,4,1,2","true","","",""
"null","","html-keyboard-response","353","715566","0.0-353.0","3AWETUDC93EJN74H6Z6G1VSRWFJZIK","A11Q8U6QTT8KGF","3WUVMVA7OBP2V5NP3991VE8MBDEZA7","","<img src=""img/set1/S1.jpg"" width=""540"" height = ""360"" style=""border:16px solid orange"">","null","","","","","","","","","",""
"null","","html-keyboard-response","354","715767","0.0-354.0","3AWETUDC93EJN74H6Z6G1VSRWFJZIK","A11Q8U6QTT8KGF","3WUVMVA7OBP2V5NP3991VE8MBDEZA7","","","null","","","","","","","","","",""
"503.90000009536743","","image-keyboard-response","355","716273","0.0-355.0","3AWETUDC93EJN74H6Z6G1VSRWFJZIK","A11Q8U6QTT8KGF","3WUVMVA7OBP2V5NP3991VE8MBDEZA7","","img/set1/S1.jpg","83","1","structured_normal","83","structured_normal,structured_load,structured_incentive,random","2,3,4,2,1,2","3,4,1,2","true","","",""
"null","","html-keyboard-response","356","716625","0.0-356.0","3AWETUDC93EJN74H6Z6G1VSRWFJZIK","A11Q8U6QTT8KGF","3WUVMVA7OBP2V5NP3991VE8MBDEZA7","","<img src=""img/set1/S1.jpg"" width=""540"" height = ""360"" style=""border:16px solid orange"">","null","","","","","","","","","",""
"null","","html-keyboard-response","357","716828","0.0-357.0","3AWETUDC93EJN74H6Z6G1VSRWFJZIK","A11Q8U6QTT8KGF","3WUVMVA7OBP2V5NP3991VE8MBDEZA7","","","null","","","","","","","","","",""
"510.60000002384186","","image-keyboard-response","358","717340","0.0-358.0","3AWETUDC93EJN74H6Z6G1VSRWFJZIK","A11Q8U6QTT8KGF","3WUVMVA7OBP2V5NP3991VE8MBDEZA7","","img/set1/S4.jpg","74","4","structured_normal","74","structured_normal,structured_load,structured_incentive,random","2,3,4,2,1,2","3,4,1,2","true","","",""
"null","","html-keyboard-response","359","717693","0.0-359.0","3AWETUDC93EJN74H6Z6G1VSRWFJZIK","A11Q8U6QTT8KGF","3WUVMVA7OBP2V5NP3991VE8MBDEZA7","","<img src=""img/set1/S4.jpg"" width=""540"" height = ""360"" style=""border:16px solid orange"">","null","","","","","","","","","",""
"null","","html-keyboard-response","360","717895","0.0-360.0","3AWETUDC93EJN74H6Z6G1VSRWFJZIK","A11Q8U6QTT8KGF","3WUVMVA7OBP2V5NP3991VE8MBDEZA7","","","null","","","","","","","","","",""
"515.5","","image-keyboard-response","361","718412","0.0-361.0","3AWETUDC93EJN74H6Z6G1VSRWFJZIK","A11Q8U6QTT8KGF","3WUVMVA7OBP2V5NP3991VE8MBDEZA7","","img/set1/S2.jpg","68","2","structured_normal","68","structured_normal,structured_load,structured_incentive,random","2,3,4,2,1,2","3,4,1,2","true","","",""
"null","","html-keyboard-response","362","718765","0.0-362.0","3AWETUDC93EJN74H6Z6G1VSRWFJZIK","A11Q8U6QTT8KGF","3WUVMVA7OBP2V5NP3991VE8MBDEZA7","","<img src=""img/set1/S2.jpg"" width=""540"" height = ""360"" style=""border:16px solid orange"">","null","","","","","","","","","",""
"null","","html-keyboard-response","363","718967","0.0-363.0","3AWETUDC93EJN74H6Z6G1VSRWFJZIK","A11Q8U6QTT8KGF","3WUVMVA7OBP2V5NP3991VE8MBDEZA7","","","null","","","","","","","","","",""
"655.3999999761581","","image-keyboard-response","364","719624","0.0-364.0","3AWETUDC93EJN74H6Z6G1VSRWFJZIK","A11Q8U6QTT8KGF","3WUVMVA7OBP2V5NP3991VE8MBDEZA7","","img/set1/S4.jpg","74","4","structured_normal","74","structured_normal,structured_load,structured_incentive,random","2,3,4,2,1,2","3,4,1,2","true","","",""
"null","","html-keyboard-response","365","719978","0.0-365.0","3AWETUDC93EJN74H6Z6G1VSRWFJZIK","A11Q8U6QTT8KGF","3WUVMVA7OBP2V5NP3991VE8MBDEZA7","","<img src=""img/set1/S4.jpg"" width=""540"" height = ""360"" style=""border:16px solid orange"">","null","","","","","","","","","",""
"null","","html-keyboard-response","366","720179","0.0-366.0","3AWETUDC93EJN74H6Z6G1VSRWFJZIK","A11Q8U6QTT8KGF","3WUVMVA7OBP2V5NP3991VE8MBDEZA7","","","null","","","","","","","","","",""
"561.5","","image-keyboard-response","367","720743","0.0-367.0","3AWETUDC93EJN74H6Z6G1VSRWFJZIK","A11Q8U6QTT8KGF","3WUVMVA7OBP2V5NP3991VE8MBDEZA7","","img/set1/S1.jpg","83","1","structured_normal","83","structured_normal,structured_load,structured_incentive,random","2,3,4,2,1,2","3,4,1,2","true","","",""
"null","","html-keyboard-response","368","721096","0.0-368.0","3AWETUDC93EJN74H6Z6G1VSRWFJZIK","A11Q8U6QTT8KGF","3WUVMVA7OBP2V5NP3991VE8MBDEZA7","","<img src=""img/set1/S1.jpg"" width=""540"" height = ""360"" style=""border:16px solid orange"">","null","","","","","","","","","",""
"null","","html-keyboard-response","369","721298","0.0-369.0","3AWETUDC93EJN74H6Z6G1VSRWFJZIK","A11Q8U6QTT8KGF","3WUVMVA7OBP2V5NP3991VE8MBDEZA7","","","null","","","","","","","","","",""
"490","","image-keyboard-response","370","721789","0.0-370.0","3AWETUDC93EJN74H6Z6G1VSRWFJZIK","A11Q8U6QTT8KGF","3WUVMVA7OBP2V5NP3991VE8MBDEZA7","","img/set1/S1.jpg","83","1","structured_normal","83","structured_normal,structured_load,structured_incentive,random","2,3,4,2,1,2","3,4,1,2","true","","",""
"null","","html-keyboard-response","371","722142","0.0-371.0","3AWETUDC93EJN74H6Z6G1VSRWFJZIK","A11Q8U6QTT8KGF","3WUVMVA7OBP2V5NP3991VE8MBDEZA7","","<img src=""img/set1/S1.jpg"" width=""540"" height = ""360"" style=""border:16px solid orange"">","null","","","","","","","","","",""
"null","","html-keyboard-response","372","722345","0.0-372.0","3AWETUDC93EJN74H6Z6G1VSRWFJZIK","A11Q8U6QTT8KGF","3WUVMVA7OBP2V5NP3991VE8MBDEZA7","","","null","","","","","","","","","",""
"470.5","","image-keyboard-response","373","722821","0.0-373.0","3AWETUDC93EJN74H6Z6G1VSRWFJZIK","A11Q8U6QTT8KGF","3WUVMVA7OBP2V5NP3991VE8MBDEZA7","","img/set1/S1.jpg","83","1","structured_normal","83","structured_normal,structured_load,structured_incentive,random","2,3,4,2,1,2","3,4,1,2","true","","",""
"null","","html-keyboard-response","374","723173","0.0-374.0","3AWETUDC93EJN74H6Z6G1VSRWFJZIK","A11Q8U6QTT8KGF","3WUVMVA7OBP2V5NP3991VE8MBDEZA7","","<img src=""img/set1/S1.jpg"" width=""540"" height = ""360"" style=""border:16px solid orange"">","null","","","","","","","","","",""
"null","","html-keyboard-response","375","723375","0.0-375.0","3AWETUDC93EJN74H6Z6G1VSRWFJZIK","A11Q8U6QTT8KGF","3WUVMVA7OBP2V5NP3991VE8MBDEZA7","","","null","","","","","","","","","",""
"431","","image-keyboard-response","376","723808","0.0-376.0","3AWETUDC93EJN74H6Z6G1VSRWFJZIK","A11Q8U6QTT8KGF","3WUVMVA7OBP2V5NP3991VE8MBDEZA7","","img/set1/S1.jpg","83","1","structured_normal","83","structured_normal,structured_load,structured_incentive,random","2,3,4,2,1,2","3,4,1,2","true","","",""
"null","","html-keyboard-response","377","724161","0.0-377.0","3AWETUDC93EJN74H6Z6G1VSRWFJZIK","A11Q8U6QTT8KGF","3WUVMVA7OBP2V5NP3991VE8MBDEZA7","","<img src=""img/set1/S1.jpg"" width=""540"" height = ""360"" style=""border:16px solid orange"">","null","","","","","","","","","",""
"null","","html-keyboard-response","378","724363","0.0-378.0","3AWETUDC93EJN74H6Z6G1VSRWFJZIK","A11Q8U6QTT8KGF","3WUVMVA7OBP2V5NP3991VE8MBDEZA7","","","null","","","","","","","","","",""
"492.5","","image-keyboard-response","379","724857","0.0-379.0","3AWETUDC93EJN74H6Z6G1VSRWFJZIK","A11Q8U6QTT8KGF","3WUVMVA7OBP2V5NP3991VE8MBDEZA7","","img/set1/S1.jpg","83","1","structured_normal","83","structured_normal,structured_load,structured_incentive,random","2,3,4,2,1,2","3,4,1,2","true","","",""
"null","","html-keyboard-response","380","725209","0.0-380.0","3AWETUDC93EJN74H6Z6G1VSRWFJZIK","A11Q8U6QTT8KGF","3WUVMVA7OBP2V5NP3991VE8MBDEZA7","","<img src=""img/set1/S1.jpg"" width=""540"" height = ""360"" style=""border:16px solid orange"">","null","","","","","","","","","",""
