"rt","url","trial_type","trial_index","time_elapsed","internal_node_id","view_history","stimulus","key_press","state","test_part","correct_response","order_block","order_chunk","correct","responses","bonus"
"51279.29999998212","consent.html","external-html","0","51498","0.0-0.0","","","","","","","","","","",""
"44826.79999998212","","instructions","1","96327","0.0-1.0","[{""page_index"":0,""viewing_time"":3730.2999999821186},{""page_index"":1,""viewing_time"":3920},{""page_index"":2,""viewing_time"":6192},{""page_index"":3,""viewing_time"":9159.800000011921},{""page_index"":4,""viewing_time"":3679.7999999821186},{""page_index"":5,""viewing_time"":8880.200000017881},{""page_index"":6,""viewing_time"":9263.699999988079}]","","","","","","","","","",""
"9926.199999988079","","instructions","2","106256","0.0-2.0","[{""page_index"":0,""viewing_time"":9926}]","","","","","","","","","",""
"3805.2000000178814","","instructions","3","110062","0.0-3.0","[{""page_index"":0,""viewing_time"":3804.9000000059605}]","","","","","","","","","",""
"1837.9000000059605","","image-keyboard-response","4","111901","0.0-4.0","","img/set1/S1.jpg","83","1","random","83","random,structured_normal,structured_load,structured_incentive","2,3,3,4,2,1","true","",""
"null","","html-keyboard-response","5","112261","0.0-5.0","","<img src=""img/set1/S1.jpg"" width=""540"" height = ""360"" style=""border:16px solid orange"">","null","","","","","","","",""
"null","","html-keyboard-response","6","112477","0.0-6.0","","","null","","","","","","","",""
"678.1000000238419","","image-keyboard-response","7","113156","0.0-7.0","","img/set1/S2.jpg","68","2","random","68","random,structured_normal,structured_load,structured_incentive","2,3,3,4,2,1","true","",""
"null","","html-keyboard-response","8","113512","0.0-8.0","","<img src=""img/set1/S2.jpg"" width=""540"" height = ""360"" style=""border:16px solid orange"">","null","","","","","","","",""
"null","","html-keyboard-response","9","113727","0.0-9.0","","","null","","","","","","","",""
"1012.9000000059605","","image-keyboard-response","10","114741","0.0-10.0","","img/set1/S3.jpg","72","3","random","72","random,structured_normal,structured_load,structured_incentive","2,3,3,4,2,1","true","",""
"null","","html-keyboard-response","11","115099","0.0-11.0","","<img src=""img/set1/S3.jpg"" width=""540"" height = ""360"" style=""border:16px solid orange"">","null","","","","","","","",""
"null","","html-keyboard-response","12","115314","0.0-12.0","","","null","","","","","","","",""
"521.2999999821186","","image-keyboard-response","13","115837","0.0-13.0","","img/set1/S4.jpg","74","4","random","74","random,structured_normal,structured_load,structured_incentive","2,3,3,4,2,1","true","",""
"null","","html-keyboard-response","14","116202","0.0-14.0","","<img src=""img/set1/S4.jpg"" width=""540"" height = ""360"" style=""border:16px solid orange"">","null","","","","","","","",""
"null","","html-keyboard-response","15","116418","0.0-15.0","","","null","","","","","","","",""
"1265","","image-keyboard-response","16","117684","0.0-16.0","","img/set1/S1.jpg","68","1","random","83","random,structured_normal,structured_load,structured_incentive","2,3,3,4,2,1","false","",""
"null","","html-keyboard-response","17","118037","0.0-17.0","","<img src=""img/set1/S1.jpg"" width=""540"" height = ""360"">","null","","","","","","","",""
"null","","html-keyboard-response","18","118259","0.0-18.0","","","null","","","","","","","",""
"568.3000000119209","","image-keyboard-response","19","118829","0.0-19.0","","img/set1/S3.jpg","83","3","random","72","random,structured_normal,structured_load,structured_incentive","2,3,3,4,2,1","false","",""
"null","","html-keyboard-response","20","119192","0.0-20.0","","<img src=""img/set1/S3.jpg"" width=""540"" height = ""360"">","null","","","","","","","",""
"null","","html-keyboard-response","21","119408","0.0-21.0","","","null","","","","","","","",""
"1019.9000000059605","","image-keyboard-response","22","120429","0.0-22.0","","img/set1/S1.jpg","74","1","random","83","random,structured_normal,structured_load,structured_incentive","2,3,3,4,2,1","false","",""
"null","","html-keyboard-response","23","120781","0.0-23.0","","<img src=""img/set1/S1.jpg"" width=""540"" height = ""360"">","null","","","","","","","",""
"null","","html-keyboard-response","24","121000","0.0-24.0","","","null","","","","","","","",""
"755.8000000119209","","image-keyboard-response","25","121756","0.0-25.0","","img/set1/S2.jpg","68","2","random","68","random,structured_normal,structured_load,structured_incentive","2,3,3,4,2,1","true","",""
"null","","html-keyboard-response","26","122117","0.0-26.0","","<img src=""img/set1/S2.jpg"" width=""540"" height = ""360"" style=""border:16px solid orange"">","null","","","","","","","",""
"null","","html-keyboard-response","27","122333","0.0-27.0","","","null","","","","","","","",""
"557.8000000119209","","image-keyboard-response","28","122892","0.0-28.0","","img/set1/S2.jpg","68","2","random","68","random,structured_normal,structured_load,structured_incentive","2,3,3,4,2,1","true","",""
"null","","html-keyboard-response","29","123251","0.0-29.0","","<img src=""img/set1/S2.jpg"" width=""540"" height = ""360"" style=""border:16px solid orange"">","null","","","","","","","",""
"null","","html-keyboard-response","30","123473","0.0-30.0","","","null","","","","","","","",""
"498.19999998807907","","image-keyboard-response","31","123972","0.0-31.0","","img/set1/S2.jpg","68","2","random","68","random,structured_normal,structured_load,structured_incentive","2,3,3,4,2,1","true","",""
"null","","html-keyboard-response","32","124337","0.0-32.0","","<img src=""img/set1/S2.jpg"" width=""540"" height = ""360"" style=""border:16px solid orange"">","null","","","","","","","",""
"null","","html-keyboard-response","33","124554","0.0-33.0","","","null","","","","","","","",""
"490.69999998807907","","image-keyboard-response","34","125046","0.0-34.0","","img/set1/S3.jpg","83","3","random","72","random,structured_normal,structured_load,structured_incentive","2,3,3,4,2,1","false","",""
"null","","html-keyboard-response","35","125409","0.0-35.0","","<img src=""img/set1/S3.jpg"" width=""540"" height = ""360"">","null","","","","","","","",""
"null","","html-keyboard-response","36","125625","0.0-36.0","","","null","","","","","","","",""
"1049.5","","image-keyboard-response","37","126676","0.0-37.0","","img/set1/S1.jpg","83","1","random","83","random,structured_normal,structured_load,structured_incentive","2,3,3,4,2,1","true","",""
"null","","html-keyboard-response","38","127044","0.0-38.0","","<img src=""img/set1/S1.jpg"" width=""540"" height = ""360"" style=""border:16px solid orange"">","null","","","","","","","",""
"null","","html-keyboard-response","39","127260","0.0-39.0","","","null","","","","","","","",""
"839.6000000238419","","image-keyboard-response","40","128100","0.0-40.0","","img/set1/S4.jpg","72","4","random","74","random,structured_normal,structured_load,structured_incentive","2,3,3,4,2,1","false","",""
"null","","html-keyboard-response","41","128462","0.0-41.0","","<img src=""img/set1/S4.jpg"" width=""540"" height = ""360"">","null","","","","","","","",""
"null","","html-keyboard-response","42","128685","0.0-42.0","","","null","","","","","","","",""
"614.2999999821186","","image-keyboard-response","43","129300","0.0-43.0","","img/set1/S4.jpg","74","4","random","74","random,structured_normal,structured_load,structured_incentive","2,3,3,4,2,1","true","",""
"null","","html-keyboard-response","44","129664","0.0-44.0","","<img src=""img/set1/S4.jpg"" width=""540"" height = ""360"" style=""border:16px solid orange"">","null","","","","","","","",""
"null","","html-keyboard-response","45","129887","0.0-45.0","","","null","","","","","","","",""
"932.8000000119209","","image-keyboard-response","46","130821","0.0-46.0","","img/set1/S2.jpg","83","2","random","68","random,structured_normal,structured_load,structured_incentive","2,3,3,4,2,1","false","",""
"null","","html-keyboard-response","47","131190","0.0-47.0","","<img src=""img/set1/S2.jpg"" width=""540"" height = ""360"">","null","","","","","","","",""
"null","","html-keyboard-response","48","131405","0.0-48.0","","","null","","","","","","","",""
"821.7999999821186","","image-keyboard-response","49","132228","0.0-49.0","","img/set1/S3.jpg","83","3","random","72","random,structured_normal,structured_load,structured_incentive","2,3,3,4,2,1","false","",""
"null","","html-keyboard-response","50","132593","0.0-50.0","","<img src=""img/set1/S3.jpg"" width=""540"" height = ""360"">","null","","","","","","","",""
"null","","html-keyboard-response","51","132809","0.0-51.0","","","null","","","","","","","",""
"538.0999999940395","","image-keyboard-response","52","133348","0.0-52.0","","img/set1/S3.jpg","72","3","random","72","random,structured_normal,structured_load,structured_incentive","2,3,3,4,2,1","true","",""
"null","","html-keyboard-response","53","133712","0.0-53.0","","<img src=""img/set1/S3.jpg"" width=""540"" height = ""360"" style=""border:16px solid orange"">","null","","","","","","","",""
"null","","html-keyboard-response","54","133928","0.0-54.0","","","null","","","","","","","",""
"787.3000000119209","","image-keyboard-response","55","134717","0.0-55.0","","img/set1/S1.jpg","83","1","random","83","random,structured_normal,structured_load,structured_incentive","2,3,3,4,2,1","true","",""
"null","","html-keyboard-response","56","135077","0.0-56.0","","<img src=""img/set1/S1.jpg"" width=""540"" height = ""360"" style=""border:16px solid orange"">","null","","","","","","","",""
"null","","html-keyboard-response","57","135299","0.0-57.0","","","null","","","","","","","",""
"952","","image-keyboard-response","58","136252","0.0-58.0","","img/set1/S2.jpg","74","2","random","68","random,structured_normal,structured_load,structured_incentive","2,3,3,4,2,1","false","",""
"null","","html-keyboard-response","59","136618","0.0-59.0","","<img src=""img/set1/S2.jpg"" width=""540"" height = ""360"">","null","","","","","","","",""
"null","","html-keyboard-response","60","136834","0.0-60.0","","","null","","","","","","","",""
"921.0999999940395","","image-keyboard-response","61","137756","0.0-61.0","","img/set1/S4.jpg","74","4","random","74","random,structured_normal,structured_load,structured_incentive","2,3,3,4,2,1","true","",""
"null","","html-keyboard-response","62","138122","0.0-62.0","","<img src=""img/set1/S4.jpg"" width=""540"" height = ""360"" style=""border:16px solid orange"">","null","","","","","","","",""
"null","","html-keyboard-response","63","138338","0.0-63.0","","","null","","","","","","","",""
"737.9000000059605","","image-keyboard-response","64","139077","0.0-64.0","","img/set1/S3.jpg","83","3","random","72","random,structured_normal,structured_load,structured_incentive","2,3,3,4,2,1","false","",""
"null","","html-keyboard-response","65","139440","0.0-65.0","","<img src=""img/set1/S3.jpg"" width=""540"" height = ""360"">","null","","","","","","","",""
"null","","html-keyboard-response","66","139656","0.0-66.0","","","null","","","","","","","",""
"963","","image-keyboard-response","67","140620","0.0-67.0","","img/set1/S2.jpg","83","2","random","68","random,structured_normal,structured_load,structured_incentive","2,3,3,4,2,1","false","",""
"null","","html-keyboard-response","68","140976","0.0-68.0","","<img src=""img/set1/S2.jpg"" width=""540"" height = ""360"">","null","","","","","","","",""
"null","","html-keyboard-response","69","141192","0.0-69.0","","","null","","","","","","","",""
"842.2999999821186","","image-keyboard-response","70","142036","0.0-70.0","","img/set1/S3.jpg","83","3","random","72","random,structured_normal,structured_load,structured_incentive","2,3,3,4,2,1","false","",""
"null","","html-keyboard-response","71","142395","0.0-71.0","","<img src=""img/set1/S3.jpg"" width=""540"" height = ""360"">","null","","","","","","","",""
"null","","html-keyboard-response","72","142617","0.0-72.0","","","null","","","","","","","",""
"643.3000000119209","","image-keyboard-response","73","143262","0.0-73.0","","img/set1/S2.jpg","68","2","random","68","random,structured_normal,structured_load,structured_incentive","2,3,3,4,2,1","true","",""
"null","","html-keyboard-response","74","143619","0.0-74.0","","<img src=""img/set1/S2.jpg"" width=""540"" height = ""360"" style=""border:16px solid orange"">","null","","","","","","","",""
"null","","html-keyboard-response","75","143835","0.0-75.0","","","null","","","","","","","",""
"927","","image-keyboard-response","76","144764","0.0-76.0","","img/set1/S3.jpg","83","3","random","72","random,structured_normal,structured_load,structured_incentive","2,3,3,4,2,1","false","",""
"null","","html-keyboard-response","77","145123","0.0-77.0","","<img src=""img/set1/S3.jpg"" width=""540"" height = ""360"">","null","","","","","","","",""
"null","","html-keyboard-response","78","145339","0.0-78.0","","","null","","","","","","","",""
"648.5","","image-keyboard-response","79","145988","0.0-79.0","","img/set1/S3.jpg","72","3","random","72","random,structured_normal,structured_load,structured_incentive","2,3,3,4,2,1","true","",""
"null","","html-keyboard-response","80","146341","0.0-80.0","","<img src=""img/set1/S3.jpg"" width=""540"" height = ""360"" style=""border:16px solid orange"">","null","","","","","","","",""
"null","","html-keyboard-response","81","146557","0.0-81.0","","","null","","","","","","","",""
"861.5999999940395","","image-keyboard-response","82","147420","0.0-82.0","","img/set1/S1.jpg","74","1","random","83","random,structured_normal,structured_load,structured_incentive","2,3,3,4,2,1","false","",""
"null","","html-keyboard-response","83","147776","0.0-83.0","","<img src=""img/set1/S1.jpg"" width=""540"" height = ""360"">","null","","","","","","","",""
"null","","html-keyboard-response","84","147992","0.0-84.0","","","null","","","","","","","",""
"498.80000001192093","","image-keyboard-response","85","148492","0.0-85.0","","img/set1/S1.jpg","83","1","random","83","random,structured_normal,structured_load,structured_incentive","2,3,3,4,2,1","true","",""
"null","","html-keyboard-response","86","148847","0.0-86.0","","<img src=""img/set1/S1.jpg"" width=""540"" height = ""360"" style=""border:16px solid orange"">","null","","","","","","","",""
"null","","html-keyboard-response","87","149064","0.0-87.0","","","null","","","","","","","",""
"787.1999999880791","","image-keyboard-response","88","149852","0.0-88.0","","img/set1/S3.jpg","68","3","random","72","random,structured_normal,structured_load,structured_incentive","2,3,3,4,2,1","false","",""
"null","","html-keyboard-response","89","150213","0.0-89.0","","<img src=""img/set1/S3.jpg"" width=""540"" height = ""360"">","null","","","","","","","",""
"null","","html-keyboard-response","90","150435","0.0-90.0","","","null","","","","","","","",""
"927.5999999940395","","image-keyboard-response","91","151364","0.0-91.0","","img/set1/S2.jpg","68","2","random","68","random,structured_normal,structured_load,structured_incentive","2,3,3,4,2,1","true","",""
"null","","html-keyboard-response","92","151717","0.0-92.0","","<img src=""img/set1/S2.jpg"" width=""540"" height = ""360"" style=""border:16px solid orange"">","null","","","","","","","",""
"null","","html-keyboard-response","93","151939","0.0-93.0","","","null","","","","","","","",""
"736.8000000119209","","image-keyboard-response","94","152678","0.0-94.0","","img/set1/S3.jpg","72","3","random","72","random,structured_normal,structured_load,structured_incentive","2,3,3,4,2,1","true","",""
"null","","html-keyboard-response","95","153041","0.0-95.0","","<img src=""img/set1/S3.jpg"" width=""540"" height = ""360"" style=""border:16px solid orange"">","null","","","","","","","",""
"null","","html-keyboard-response","96","153257","0.0-96.0","","","null","","","","","","","",""
"545.7000000178814","","image-keyboard-response","97","153804","0.0-97.0","","img/set1/S1.jpg","74","1","random","83","random,structured_normal,structured_load,structured_incentive","2,3,3,4,2,1","false","",""
"null","","html-keyboard-response","98","154160","0.0-98.0","","<img src=""img/set1/S1.jpg"" width=""540"" height = ""360"">","null","","","","","","","",""
"null","","html-keyboard-response","99","154376","0.0-99.0","","","null","","","","","","","",""
"834.8000000119209","","image-keyboard-response","100","155212","0.0-100.0","","img/set1/S3.jpg","72","3","random","72","random,structured_normal,structured_load,structured_incentive","2,3,3,4,2,1","true","",""
"null","","html-keyboard-response","101","155579","0.0-101.0","","<img src=""img/set1/S3.jpg"" width=""540"" height = ""360"" style=""border:16px solid orange"">","null","","","","","","","",""
"null","","html-keyboard-response","102","155795","0.0-102.0","","","null","","","","","","","",""
"688.1999999880791","","image-keyboard-response","103","156484","0.0-103.0","","img/set1/S1.jpg","83","1","random","83","random,structured_normal,structured_load,structured_incentive","2,3,3,4,2,1","true","",""
"null","","html-keyboard-response","104","156851","0.0-104.0","","<img src=""img/set1/S1.jpg"" width=""540"" height = ""360"" style=""border:16px solid orange"">","null","","","","","","","",""
"null","","html-keyboard-response","105","157067","0.0-105.0","","","null","","","","","","","",""
"743.7000000178814","","image-keyboard-response","106","157812","0.0-106.0","","img/set1/S3.jpg","72","3","random","72","random,structured_normal,structured_load,structured_incentive","2,3,3,4,2,1","true","",""
"null","","html-keyboard-response","107","158170","0.0-107.0","","<img src=""img/set1/S3.jpg"" width=""540"" height = ""360"" style=""border:16px solid orange"">","null","","","","","","","",""
"null","","html-keyboard-response","108","158386","0.0-108.0","","","null","","","","","","","",""
"617","","image-keyboard-response","109","159004","0.0-109.0","","img/set1/S1.jpg","83","1","random","83","random,structured_normal,structured_load,structured_incentive","2,3,3,4,2,1","true","",""
"null","","html-keyboard-response","110","159358","0.0-110.0","","<img src=""img/set1/S1.jpg"" width=""540"" height = ""360"" style=""border:16px solid orange"">","null","","","","","","","",""
"null","","html-keyboard-response","111","159573","0.0-111.0","","","null","","","","","","","",""
"597.4000000059605","","image-keyboard-response","112","160172","0.0-112.0","","img/set1/S2.jpg","68","2","random","68","random,structured_normal,structured_load,structured_incentive","2,3,3,4,2,1","true","",""
"null","","html-keyboard-response","113","160538","0.0-113.0","","<img src=""img/set1/S2.jpg"" width=""540"" height = ""360"" style=""border:16px solid orange"">","null","","","","","","","",""
"null","","html-keyboard-response","114","160760","0.0-114.0","","","null","","","","","","","",""
"539.6999999880791","","image-keyboard-response","115","161301","0.0-115.0","","img/set1/S4.jpg","72","4","random","74","random,structured_normal,structured_load,structured_incentive","2,3,3,4,2,1","false","",""
"null","","html-keyboard-response","116","161662","0.0-116.0","","<img src=""img/set1/S4.jpg"" width=""540"" height = ""360"">","null","","","","","","","",""
"null","","html-keyboard-response","117","161879","0.0-117.0","","","null","","","","","","","",""
"523","","image-keyboard-response","118","162404","0.0-118.0","","img/set1/S4.jpg","74","4","random","74","random,structured_normal,structured_load,structured_incentive","2,3,3,4,2,1","true","",""
"null","","html-keyboard-response","119","162765","0.0-119.0","","<img src=""img/set1/S4.jpg"" width=""540"" height = ""360"" style=""border:16px solid orange"">","null","","","","","","","",""
"null","","html-keyboard-response","120","162981","0.0-120.0","","","null","","","","","","","",""
"926.5","","image-keyboard-response","121","163908","0.0-121.0","","img/set1/S2.jpg","83","2","random","68","random,structured_normal,structured_load,structured_incentive","2,3,3,4,2,1","false","",""
"null","","html-keyboard-response","122","164268","0.0-122.0","","<img src=""img/set1/S2.jpg"" width=""540"" height = ""360"">","null","","","","","","","",""
"null","","html-keyboard-response","123","164484","0.0-123.0","","","null","","","","","","","",""
"782.7000000178814","","image-keyboard-response","124","165268","0.0-124.0","","img/set1/S4.jpg","74","4","random","74","random,structured_normal,structured_load,structured_incentive","2,3,3,4,2,1","true","",""
"null","","html-keyboard-response","125","165633","0.0-125.0","","<img src=""img/set1/S4.jpg"" width=""540"" height = ""360"" style=""border:16px solid orange"">","null","","","","","","","",""
"null","","html-keyboard-response","126","165849","0.0-126.0","","","null","","","","","","","",""
"857.2000000178814","","image-keyboard-response","127","166708","0.0-127.0","","img/set1/S2.jpg","72","2","random","68","random,structured_normal,structured_load,structured_incentive","2,3,3,4,2,1","false","",""
"null","","html-keyboard-response","128","167074","0.0-128.0","","<img src=""img/set1/S2.jpg"" width=""540"" height = ""360"">","null","","","","","","","",""
"null","","html-keyboard-response","129","167290","0.0-129.0","","","null","","","","","","","",""
"592.7000000178814","","image-keyboard-response","130","167884","0.0-130.0","","img/set1/S4.jpg","74","4","random","74","random,structured_normal,structured_load,structured_incentive","2,3,3,4,2,1","true","",""
"null","","html-keyboard-response","131","168239","0.0-131.0","","<img src=""img/set1/S4.jpg"" width=""540"" height = ""360"" style=""border:16px solid orange"">","null","","","","","","","",""
"null","","html-keyboard-response","132","168455","0.0-132.0","","","null","","","","","","","",""
"340","","image-keyboard-response","133","168796","0.0-133.0","","img/set1/S4.jpg","83","4","random","74","random,structured_normal,structured_load,structured_incentive","2,3,3,4,2,1","false","",""
"null","","html-keyboard-response","134","169156","0.0-134.0","","<img src=""img/set1/S4.jpg"" width=""540"" height = ""360"">","null","","","","","","","",""
"null","","html-keyboard-response","135","169358","0.0-135.0","","","null","","","","","","","",""
"861.5","","image-keyboard-response","136","170221","0.0-136.0","","img/set1/S3.jpg","68","3","random","72","random,structured_normal,structured_load,structured_incentive","2,3,3,4,2,1","false","",""
"null","","html-keyboard-response","137","170583","0.0-137.0","","<img src=""img/set1/S3.jpg"" width=""540"" height = ""360"">","null","","","","","","","",""
"null","","html-keyboard-response","138","170799","0.0-138.0","","","null","","","","","","","",""
"675.1999999880791","","image-keyboard-response","139","171476","0.0-139.0","","img/set1/S2.jpg","74","2","random","68","random,structured_normal,structured_load,structured_incentive","2,3,3,4,2,1","false","",""
"null","","html-keyboard-response","140","171832","0.0-140.0","","<img src=""img/set1/S2.jpg"" width=""540"" height = ""360"">","null","","","","","","","",""
"null","","html-keyboard-response","141","172048","0.0-141.0","","","null","","","","","","","",""
"1249.8999999761581","","image-keyboard-response","142","173300","0.0-142.0","","img/set1/S1.jpg","72","1","random","83","random,structured_normal,structured_load,structured_incentive","2,3,3,4,2,1","false","",""
"null","","html-keyboard-response","143","173652","0.0-143.0","","<img src=""img/set1/S1.jpg"" width=""540"" height = ""360"">","null","","","","","","","",""
"null","","html-keyboard-response","144","173869","0.0-144.0","","","null","","","","","","","",""
"558.7000000178814","","image-keyboard-response","145","174428","0.0-145.0","","img/set1/S4.jpg","74","4","random","74","random,structured_normal,structured_load,structured_incentive","2,3,3,4,2,1","true","",""
"null","","html-keyboard-response","146","174793","0.0-146.0","","<img src=""img/set1/S4.jpg"" width=""540"" height = ""360"" style=""border:16px solid orange"">","null","","","","","","","",""
"null","","html-keyboard-response","147","175009","0.0-147.0","","","null","","","","","","","",""
"601.7000000178814","","image-keyboard-response","148","175612","0.0-148.0","","img/set1/S1.jpg","74","1","random","83","random,structured_normal,structured_load,structured_incentive","2,3,3,4,2,1","false","",""
"null","","html-keyboard-response","149","175973","0.0-149.0","","<img src=""img/set1/S1.jpg"" width=""540"" height = ""360"">","null","","","","","","","",""
"null","","html-keyboard-response","150","176196","0.0-150.0","","","null","","","","","","","",""
"527.5","","image-keyboard-response","151","176724","0.0-151.0","","img/set1/S4.jpg","72","4","random","74","random,structured_normal,structured_load,structured_incentive","2,3,3,4,2,1","false","",""
"null","","html-keyboard-response","152","177097","0.0-152.0","","<img src=""img/set1/S4.jpg"" width=""540"" height = ""360"">","null","","","","","","","",""
"null","","html-keyboard-response","153","177313","0.0-153.0","","","null","","","","","","","",""
"569.8999999761581","","image-keyboard-response","154","177884","0.0-154.0","","img/set1/S3.jpg","68","3","random","72","random,structured_normal,structured_load,structured_incentive","2,3,3,4,2,1","false","",""
"null","","html-keyboard-response","155","178246","0.0-155.0","","<img src=""img/set1/S3.jpg"" width=""540"" height = ""360"">","null","","","","","","","",""
"null","","html-keyboard-response","156","178462","0.0-156.0","","","null","","","","","","","",""
"412.5","","image-keyboard-response","157","178876","0.0-157.0","","img/set1/S4.jpg","83","4","random","74","random,structured_normal,structured_load,structured_incentive","2,3,3,4,2,1","false","",""
"null","","html-keyboard-response","158","179233","0.0-158.0","","<img src=""img/set1/S4.jpg"" width=""540"" height = ""360"">","null","","","","","","","",""
"null","","html-keyboard-response","159","179449","0.0-159.0","","","null","","","","","","","",""
"729.0999999940395","","image-keyboard-response","160","180180","0.0-160.0","","img/set1/S1.jpg","83","1","random","83","random,structured_normal,structured_load,structured_incentive","2,3,3,4,2,1","true","",""
"null","","html-keyboard-response","161","180545","0.0-161.0","","<img src=""img/set1/S1.jpg"" width=""540"" height = ""360"" style=""border:16px solid orange"">","null","","","","","","","",""
"null","","html-keyboard-response","162","180753","0.0-162.0","","","null","","","","","","","",""
"961.5","","image-keyboard-response","163","181716","0.0-163.0","","img/set1/S2.jpg","68","2","random","68","random,structured_normal,structured_load,structured_incentive","2,3,3,4,2,1","true","",""
"null","","html-keyboard-response","164","182075","0.0-164.0","","<img src=""img/set1/S2.jpg"" width=""540"" height = ""360"" style=""border:16px solid orange"">","null","","","","","","","",""
"null","","html-keyboard-response","165","182282","0.0-165.0","","","null","","","","","","","",""
"592.9000000059605","","image-keyboard-response","166","182876","0.0-166.0","","img/set1/S2.jpg","68","2","random","68","random,structured_normal,structured_load,structured_incentive","2,3,3,4,2,1","true","",""
"null","","html-keyboard-response","167","183240","0.0-167.0","","<img src=""img/set1/S2.jpg"" width=""540"" height = ""360"" style=""border:16px solid orange"">","null","","","","","","","",""
"null","","html-keyboard-response","168","183448","0.0-168.0","","","null","","","","","","","",""
"699.5","","image-keyboard-response","169","184148","0.0-169.0","","img/set1/S3.jpg","72","3","random","72","random,structured_normal,structured_load,structured_incentive","2,3,3,4,2,1","true","",""
"null","","html-keyboard-response","170","184508","0.0-170.0","","<img src=""img/set1/S3.jpg"" width=""540"" height = ""360"" style=""border:16px solid orange"">","null","","","","","","","",""
"null","","html-keyboard-response","171","184714","0.0-171.0","","","null","","","","","","","",""
"665.5999999940395","","image-keyboard-response","172","185380","0.0-172.0","","img/set1/S4.jpg","74","4","random","74","random,structured_normal,structured_load,structured_incentive","2,3,3,4,2,1","true","",""
"null","","html-keyboard-response","173","185739","0.0-173.0","","<img src=""img/set1/S4.jpg"" width=""540"" height = ""360"" style=""border:16px solid orange"">","null","","","","","","","",""
"null","","html-keyboard-response","174","185943","0.0-174.0","","","null","","","","","","","",""
"708","","image-keyboard-response","175","186652","0.0-175.0","","img/set1/S1.jpg","83","1","random","83","random,structured_normal,structured_load,structured_incentive","2,3,3,4,2,1","true","",""
"null","","html-keyboard-response","176","187007","0.0-176.0","","<img src=""img/set1/S1.jpg"" width=""540"" height = ""360"" style=""border:16px solid orange"">","null","","","","","","","",""
"null","","html-keyboard-response","177","187214","0.0-177.0","","","null","","","","","","","",""
"676.9000000059605","","image-keyboard-response","178","187892","0.0-178.0","","img/set1/S4.jpg","74","4","random","74","random,structured_normal,structured_load,structured_incentive","2,3,3,4,2,1","true","",""
"null","","html-keyboard-response","179","188246","0.0-179.0","","<img src=""img/set1/S4.jpg"" width=""540"" height = ""360"" style=""border:16px solid orange"">","null","","","","","","","",""
"null","","html-keyboard-response","180","188449","0.0-180.0","","","null","","","","","","","",""
"760.8000000119209","","image-keyboard-response","181","189212","0.0-181.0","","img/set1/S3.jpg","72","3","random","72","random,structured_normal,structured_load,structured_incentive","2,3,3,4,2,1","true","",""
"null","","html-keyboard-response","182","189578","0.0-182.0","","<img src=""img/set1/S3.jpg"" width=""540"" height = ""360"" style=""border:16px solid orange"">","null","","","","","","","",""
"null","","html-keyboard-response","183","189782","0.0-183.0","","","null","","","","","","","",""
"644.6999999880791","","image-keyboard-response","184","190428","0.0-184.0","","img/set1/S1.jpg","68","1","random","83","random,structured_normal,structured_load,structured_incentive","2,3,3,4,2,1","false","",""
"null","","html-keyboard-response","185","190787","0.0-185.0","","<img src=""img/set1/S1.jpg"" width=""540"" height = ""360"">","null","","","","","","","",""
"null","","html-keyboard-response","186","190993","0.0-186.0","","","null","","","","","","","",""
"706.3000000119209","","image-keyboard-response","187","191700","0.0-187.0","","img/set1/S1.jpg","83","1","random","83","random,structured_normal,structured_load,structured_incentive","2,3,3,4,2,1","true","",""
"null","","html-keyboard-response","188","192060","0.0-188.0","","<img src=""img/set1/S1.jpg"" width=""540"" height = ""360"" style=""border:16px solid orange"">","null","","","","","","","",""
"null","","html-keyboard-response","189","192268","0.0-189.0","","","null","","","","","","","",""
"559","","image-keyboard-response","190","192828","0.0-190.0","","img/set1/S1.jpg","83","1","random","83","random,structured_normal,structured_load,structured_incentive","2,3,3,4,2,1","true","",""
"null","","html-keyboard-response","191","193190","0.0-191.0","","<img src=""img/set1/S1.jpg"" width=""540"" height = ""360"" style=""border:16px solid orange"">","null","","","","","","","",""
"null","","html-keyboard-response","192","193394","0.0-192.0","","","null","","","","","","","",""
"632.4000000059605","","image-keyboard-response","193","194028","0.0-193.0","","img/set1/S4.jpg","74","4","random","74","random,structured_normal,structured_load,structured_incentive","2,3,3,4,2,1","true","",""
"null","","html-keyboard-response","194","194392","0.0-194.0","","<img src=""img/set1/S4.jpg"" width=""540"" height = ""360"" style=""border:16px solid orange"">","null","","","","","","","",""
"null","","html-keyboard-response","195","194598","0.0-195.0","","","null","","","","","","","",""
"740.4000000059605","","image-keyboard-response","196","195340","0.0-196.0","","img/set1/S2.jpg","68","2","random","68","random,structured_normal,structured_load,structured_incentive","2,3,3,4,2,1","true","",""
"null","","html-keyboard-response","197","195702","0.0-197.0","","<img src=""img/set1/S2.jpg"" width=""540"" height = ""360"" style=""border:16px solid orange"">","null","","","","","","","",""
"null","","html-keyboard-response","198","195904","0.0-198.0","","","null","","","","","","","",""
"611.3000000119209","","image-keyboard-response","199","196516","0.0-199.0","","img/set1/S3.jpg","72","3","random","72","random,structured_normal,structured_load,structured_incentive","2,3,3,4,2,1","true","",""
"null","","html-keyboard-response","200","196883","0.0-200.0","","<img src=""img/set1/S3.jpg"" width=""540"" height = ""360"" style=""border:16px solid orange"">","null","","","","","","","",""
"null","","html-keyboard-response","201","197086","0.0-201.0","","","null","","","","","","","",""
"652.5999999940395","","image-keyboard-response","202","197741","0.0-202.0","","img/set1/S4.jpg","74","4","random","74","random,structured_normal,structured_load,structured_incentive","2,3,3,4,2,1","true","",""
"null","","html-keyboard-response","203","198100","0.0-203.0","","<img src=""img/set1/S4.jpg"" width=""540"" height = ""360"" style=""border:16px solid orange"">","null","","","","","","","",""
"null","","html-keyboard-response","204","198303","0.0-204.0","","","null","","","","","","","",""
"1076.0999999940395","","image-keyboard-response","205","199380","0.0-205.0","","img/set1/S2.jpg","68","2","random","68","random,structured_normal,structured_load,structured_incentive","2,3,3,4,2,1","true","",""
"null","","html-keyboard-response","206","199739","0.0-206.0","","<img src=""img/set1/S2.jpg"" width=""540"" height = ""360"" style=""border:16px solid orange"">","null","","","","","","","",""
"null","","html-keyboard-response","207","199944","0.0-207.0","","","null","","","","","","","",""
"643.0999999940395","","image-keyboard-response","208","200588","0.0-208.0","","img/set1/S4.jpg","74","4","random","74","random,structured_normal,structured_load,structured_incentive","2,3,3,4,2,1","true","",""
"null","","html-keyboard-response","209","200953","0.0-209.0","","<img src=""img/set1/S4.jpg"" width=""540"" height = ""360"" style=""border:16px solid orange"">","null","","","","","","","",""
"null","","html-keyboard-response","210","201158","0.0-210.0","","","null","","","","","","","",""
"565.3000000119209","","image-keyboard-response","211","201724","0.0-211.0","","img/set1/S4.jpg","74","4","random","74","random,structured_normal,structured_load,structured_incentive","2,3,3,4,2,1","true","",""
"null","","html-keyboard-response","212","202087","0.0-212.0","","<img src=""img/set1/S4.jpg"" width=""540"" height = ""360"" style=""border:16px solid orange"">","null","","","","","","","",""
"null","","html-keyboard-response","213","202291","0.0-213.0","","","null","","","","","","","",""
"575.4000000059605","","image-keyboard-response","214","202868","0.0-214.0","","img/set1/S4.jpg","74","4","random","74","random,structured_normal,structured_load,structured_incentive","2,3,3,4,2,1","true","",""
"null","","html-keyboard-response","215","203233","0.0-215.0","","<img src=""img/set1/S4.jpg"" width=""540"" height = ""360"" style=""border:16px solid orange"">","null","","","","","","","",""
"null","","html-keyboard-response","216","203436","0.0-216.0","","","null","","","","","","","",""
"743.2000000178814","","image-keyboard-response","217","204180","0.0-217.0","","img/set1/S1.jpg","68","1","random","83","random,structured_normal,structured_load,structured_incentive","2,3,3,4,2,1","false","",""
"null","","html-keyboard-response","218","204532","0.0-218.0","","<img src=""img/set1/S1.jpg"" width=""540"" height = ""360"">","null","","","","","","","",""
"null","","html-keyboard-response","219","204733","0.0-219.0","","","null","","","","","","","",""
"437.7000000178814","","image-keyboard-response","220","205172","0.0-220.0","","img/set1/S1.jpg","83","1","random","83","random,structured_normal,structured_load,structured_incentive","2,3,3,4,2,1","true","",""
"null","","html-keyboard-response","221","205535","0.0-221.0","","<img src=""img/set1/S1.jpg"" width=""540"" height = ""360"" style=""border:16px solid orange"">","null","","","","","","","",""
"null","","html-keyboard-response","222","205741","0.0-222.0","","","null","","","","","","","",""
"790.9000000059605","","image-keyboard-response","223","206533","0.0-223.0","","img/set1/S3.jpg","72","3","random","72","random,structured_normal,structured_load,structured_incentive","2,3,3,4,2,1","true","",""
"null","","html-keyboard-response","224","206891","0.0-224.0","","<img src=""img/set1/S3.jpg"" width=""540"" height = ""360"" style=""border:16px solid orange"">","null","","","","","","","",""
"null","","html-keyboard-response","225","207095","0.0-225.0","","","null","","","","","","","",""
"683.5","","image-keyboard-response","226","207780","0.0-226.0","","img/set1/S4.jpg","74","4","random","74","random,structured_normal,structured_load,structured_incentive","2,3,3,4,2,1","true","",""
"null","","html-keyboard-response","227","208147","0.0-227.0","","<img src=""img/set1/S4.jpg"" width=""540"" height = ""360"" style=""border:16px solid orange"">","null","","","","","","","",""
"null","","html-keyboard-response","228","208351","0.0-228.0","","","null","","","","","","","",""
"603.4000000059605","","image-keyboard-response","229","208956","0.0-229.0","","img/set1/S4.jpg","74","4","random","74","random,structured_normal,structured_load,structured_incentive","2,3,3,4,2,1","true","",""
"null","","html-keyboard-response","230","209316","0.0-230.0","","<img src=""img/set1/S4.jpg"" width=""540"" height = ""360"" style=""border:16px solid orange"">","null","","","","","","","",""
"null","","html-keyboard-response","231","209521","0.0-231.0","","","null","","","","","","","",""
"634.1000000238419","","image-keyboard-response","232","210156","0.0-232.0","","img/set1/S2.jpg","68","2","random","68","random,structured_normal,structured_load,structured_incentive","2,3,3,4,2,1","true","",""
"null","","html-keyboard-response","233","210518","0.0-233.0","","<img src=""img/set1/S2.jpg"" width=""540"" height = ""360"" style=""border:16px solid orange"">","null","","","","","","","",""
"null","","html-keyboard-response","234","210734","0.0-234.0","","","null","","","","","","","",""
"796.5","","image-keyboard-response","235","211532","0.0-235.0","","img/set1/S4.jpg","74","4","random","74","random,structured_normal,structured_load,structured_incentive","2,3,3,4,2,1","true","",""
"null","","html-keyboard-response","236","211889","0.0-236.0","","<img src=""img/set1/S4.jpg"" width=""540"" height = ""360"" style=""border:16px solid orange"">","null","","","","","","","",""
"null","","html-keyboard-response","237","212095","0.0-237.0","","","null","","","","","","","",""
"779.7000000178814","","image-keyboard-response","238","212876","0.0-238.0","","img/set1/S2.jpg","68","2","random","68","random,structured_normal,structured_load,structured_incentive","2,3,3,4,2,1","true","",""
"null","","html-keyboard-response","239","213242","0.0-239.0","","<img src=""img/set1/S2.jpg"" width=""540"" height = ""360"" style=""border:16px solid orange"">","null","","","","","","","",""
"null","","html-keyboard-response","240","213449","0.0-240.0","","","null","","","","","","","",""
"737.5","","image-keyboard-response","241","214188","0.0-241.0","","img/set1/S3.jpg","72","3","random","72","random,structured_normal,structured_load,structured_incentive","2,3,3,4,2,1","true","",""
"null","","html-keyboard-response","242","214543","0.0-242.0","","<img src=""img/set1/S3.jpg"" width=""540"" height = ""360"" style=""border:16px solid orange"">","null","","","","","","","",""
"null","","html-keyboard-response","243","214749","0.0-243.0","","","null","","","","","","","",""
"831","","image-keyboard-response","244","215581","0.0-244.0","","img/set1/S2.jpg","68","2","random","68","random,structured_normal,structured_load,structured_incentive","2,3,3,4,2,1","true","",""
"null","","html-keyboard-response","245","215949","0.0-245.0","","<img src=""img/set1/S2.jpg"" width=""540"" height = ""360"" style=""border:16px solid orange"">","null","","","","","","","",""
"null","","html-keyboard-response","246","216156","0.0-246.0","","","null","","","","","","","",""
"671.5","","image-keyboard-response","247","216828","0.0-247.0","","img/set1/S3.jpg","74","3","random","72","random,structured_normal,structured_load,structured_incentive","2,3,3,4,2,1","false","",""
"null","","html-keyboard-response","248","217182","0.0-248.0","","<img src=""img/set1/S3.jpg"" width=""540"" height = ""360"">","null","","","","","","","",""
"null","","html-keyboard-response","249","217387","0.0-249.0","","","null","","","","","","","",""
"719.7000000178814","","image-keyboard-response","250","218108","0.0-250.0","","img/set1/S2.jpg","68","2","random","68","random,structured_normal,structured_load,structured_incentive","2,3,3,4,2,1","true","",""
"null","","html-keyboard-response","251","218470","0.0-251.0","","<img src=""img/set1/S2.jpg"" width=""540"" height = ""360"" style=""border:16px solid orange"">","null","","","","","","","",""
"null","","html-keyboard-response","252","218676","0.0-252.0","","","null","","","","","","","",""
"550.5","","image-keyboard-response","253","219227","0.0-253.0","","img/set1/S3.jpg","72","3","random","72","random,structured_normal,structured_load,structured_incentive","2,3,3,4,2,1","true","",""
"null","","html-keyboard-response","254","219583","0.0-254.0","","<img src=""img/set1/S3.jpg"" width=""540"" height = ""360"" style=""border:16px solid orange"">","null","","","","","","","",""
"null","","html-keyboard-response","255","219790","0.0-255.0","","","null","","","","","","","",""
"964.2999999821186","","image-keyboard-response","256","220755","0.0-256.0","","img/set1/S2.jpg","68","2","random","68","random,structured_normal,structured_load,structured_incentive","2,3,3,4,2,1","true","",""
"null","","html-keyboard-response","257","221115","0.0-257.0","","<img src=""img/set1/S2.jpg"" width=""540"" height = ""360"" style=""border:16px solid orange"">","null","","","","","","","",""
"null","","html-keyboard-response","258","221322","0.0-258.0","","","null","","","","","","","",""
"576.1999999880791","","image-keyboard-response","259","221899","0.0-259.0","","img/set1/S3.jpg","72","3","random","72","random,structured_normal,structured_load,structured_incentive","2,3,3,4,2,1","true","",""
"null","","html-keyboard-response","260","222261","0.0-260.0","","<img src=""img/set1/S3.jpg"" width=""540"" height = ""360"" style=""border:16px solid orange"">","null","","","","","","","",""
"null","","html-keyboard-response","261","222468","0.0-261.0","","","null","","","","","","","",""
"591","","image-keyboard-response","262","223060","0.0-262.0","","img/set1/S4.jpg","74","4","random","74","random,structured_normal,structured_load,structured_incentive","2,3,3,4,2,1","true","",""
"null","","html-keyboard-response","263","223424","0.0-263.0","","<img src=""img/set1/S4.jpg"" width=""540"" height = ""360"" style=""border:16px solid orange"">","null","","","","","","","",""
"null","","html-keyboard-response","264","223631","0.0-264.0","","","null","","","","","","","",""
"796.5999999940395","","image-keyboard-response","265","224429","0.0-265.0","","img/set1/S3.jpg","72","3","random","72","random,structured_normal,structured_load,structured_incentive","2,3,3,4,2,1","true","",""
"null","","html-keyboard-response","266","224789","0.0-266.0","","<img src=""img/set1/S3.jpg"" width=""540"" height = ""360"" style=""border:16px solid orange"">","null","","","","","","","",""
"null","","html-keyboard-response","267","225005","0.0-267.0","","","null","","","","","","","",""
"678","","image-keyboard-response","268","225684","0.0-268.0","","img/set1/S2.jpg","68","2","random","68","random,structured_normal,structured_load,structured_incentive","2,3,3,4,2,1","true","",""
"null","","html-keyboard-response","269","226040","0.0-269.0","","<img src=""img/set1/S2.jpg"" width=""540"" height = ""360"" style=""border:16px solid orange"">","null","","","","","","","",""
"null","","html-keyboard-response","270","226243","0.0-270.0","","","null","","","","","","","",""
"543.5","","image-keyboard-response","271","226787","0.0-271.0","","img/set1/S2.jpg","68","2","random","68","random,structured_normal,structured_load,structured_incentive","2,3,3,4,2,1","true","",""
"null","","html-keyboard-response","272","227142","0.0-272.0","","<img src=""img/set1/S2.jpg"" width=""540"" height = ""360"" style=""border:16px solid orange"">","null","","","","","","","",""
"null","","html-keyboard-response","273","227348","0.0-273.0","","","null","","","","","","","",""
"471.09999999403954","","image-keyboard-response","274","227819","0.0-274.0","","img/set1/S1.jpg","83","1","random","83","random,structured_normal,structured_load,structured_incentive","2,3,3,4,2,1","true","",""
"null","","html-keyboard-response","275","228185","0.0-275.0","","<img src=""img/set1/S1.jpg"" width=""540"" height = ""360"" style=""border:16px solid orange"">","null","","","","","","","",""
"null","","html-keyboard-response","276","228392","0.0-276.0","","","null","","","","","","","",""
"850.5","","image-keyboard-response","277","229243","0.0-277.0","","img/set1/S3.jpg","72","3","random","72","random,structured_normal,structured_load,structured_incentive","2,3,3,4,2,1","true","",""
"null","","html-keyboard-response","278","229598","0.0-278.0","","<img src=""img/set1/S3.jpg"" width=""540"" height = ""360"" style=""border:16px solid orange"">","null","","","","","","","",""
"null","","html-keyboard-response","279","229805","0.0-279.0","","","null","","","","","","","",""
"621.6999999880791","","image-keyboard-response","280","230427","0.0-280.0","","img/set1/S1.jpg","83","1","random","83","random,structured_normal,structured_load,structured_incentive","2,3,3,4,2,1","true","",""
"null","","html-keyboard-response","281","230785","0.0-281.0","","<img src=""img/set1/S1.jpg"" width=""540"" height = ""360"" style=""border:16px solid orange"">","null","","","","","","","",""
"null","","html-keyboard-response","282","230989","0.0-282.0","","","null","","","","","","","",""
"645.2999999821186","","image-keyboard-response","283","231636","0.0-283.0","","img/set1/S4.jpg","74","4","random","74","random,structured_normal,structured_load,structured_incentive","2,3,3,4,2,1","true","",""
"null","","html-keyboard-response","284","231992","0.0-284.0","","<img src=""img/set1/S4.jpg"" width=""540"" height = ""360"" style=""border:16px solid orange"">","null","","","","","","","",""
"null","","html-keyboard-response","285","232197","0.0-285.0","","","null","","","","","","","",""
"629.9000000059605","","image-keyboard-response","286","232827","0.0-286.0","","img/set1/S3.jpg","72","3","random","72","random,structured_normal,structured_load,structured_incentive","2,3,3,4,2,1","true","",""
"null","","html-keyboard-response","287","233191","0.0-287.0","","<img src=""img/set1/S3.jpg"" width=""540"" height = ""360"" style=""border:16px solid orange"">","null","","","","","","","",""
"null","","html-keyboard-response","288","233392","0.0-288.0","","","null","","","","","","","",""
"633.8000000119209","","image-keyboard-response","289","234027","0.0-289.0","","img/set1/S4.jpg","74","4","random","74","random,structured_normal,structured_load,structured_incentive","2,3,3,4,2,1","true","",""
"null","","html-keyboard-response","290","234391","0.0-290.0","","<img src=""img/set1/S4.jpg"" width=""540"" height = ""360"" style=""border:16px solid orange"">","null","","","","","","","",""
"null","","html-keyboard-response","291","234595","0.0-291.0","","","null","","","","","","","",""
"663.4000000059605","","image-keyboard-response","292","235259","0.0-292.0","","img/set1/S2.jpg","83","2","random","68","random,structured_normal,structured_load,structured_incentive","2,3,3,4,2,1","false","",""
"null","","html-keyboard-response","293","235624","0.0-293.0","","<img src=""img/set1/S2.jpg"" width=""540"" height = ""360"">","null","","","","","","","",""
"null","","html-keyboard-response","294","235831","0.0-294.0","","","null","","","","","","","",""
"467.7999999821186","","image-keyboard-response","295","236299","0.0-295.0","","img/set1/S2.jpg","68","2","random","68","random,structured_normal,structured_load,structured_incentive","2,3,3,4,2,1","true","",""
"null","","html-keyboard-response","296","236656","0.0-296.0","","<img src=""img/set1/S2.jpg"" width=""540"" height = ""360"" style=""border:16px solid orange"">","null","","","","","","","",""
"null","","html-keyboard-response","297","236863","0.0-297.0","","","null","","","","","","","",""
"499.30000001192093","","image-keyboard-response","298","237363","0.0-298.0","","img/set1/S2.jpg","68","2","random","68","random,structured_normal,structured_load,structured_incentive","2,3,3,4,2,1","true","",""
"null","","html-keyboard-response","299","237720","0.0-299.0","","<img src=""img/set1/S2.jpg"" width=""540"" height = ""360"" style=""border:16px solid orange"">","null","","","","","","","",""
"null","","html-keyboard-response","300","237926","0.0-300.0","","","null","","","","","","","",""
"524.2000000178814","","image-keyboard-response","301","238452","0.0-301.0","","img/set1/S1.jpg","83","1","random","83","random,structured_normal,structured_load,structured_incentive","2,3,3,4,2,1","true","",""
"null","","html-keyboard-response","302","238814","0.0-302.0","","<img src=""img/set1/S1.jpg"" width=""540"" height = ""360"" style=""border:16px solid orange"">","null","","","","","","","",""
"null","","html-keyboard-response","303","239021","0.0-303.0","","","null","","","","","","","",""
"645.4000000059605","","image-keyboard-response","304","239667","0.0-304.0","","img/set1/S4.jpg","72","4","random","74","random,structured_normal,structured_load,structured_incentive","2,3,3,4,2,1","false","",""
"null","","html-keyboard-response","305","240020","0.0-305.0","","<img src=""img/set1/S4.jpg"" width=""540"" height = ""360"">","null","","","","","","","",""
"null","","html-keyboard-response","306","240238","0.0-306.0","","","null","","","","","","","",""
"372","","image-keyboard-response","307","240611","0.0-307.0","","img/set1/S4.jpg","74","4","random","74","random,structured_normal,structured_load,structured_incentive","2,3,3,4,2,1","true","",""
"null","","html-keyboard-response","308","240972","0.0-308.0","","<img src=""img/set1/S4.jpg"" width=""540"" height = ""360"" style=""border:16px solid orange"">","null","","","","","","","",""
"null","","html-keyboard-response","309","241178","0.0-309.0","","","null","","","","","","","",""
"832.5999999940395","","image-keyboard-response","310","242011","0.0-310.0","","img/set1/S2.jpg","68","2","random","68","random,structured_normal,structured_load,structured_incentive","2,3,3,4,2,1","true","",""
"null","","html-keyboard-response","311","242369","0.0-311.0","","<img src=""img/set1/S2.jpg"" width=""540"" height = ""360"" style=""border:16px solid orange"">","null","","","","","","","",""
"null","","html-keyboard-response","312","242585","0.0-312.0","","","null","","","","","","","",""
"704.7000000178814","","image-keyboard-response","313","243291","0.0-313.0","","img/set1/S3.jpg","72","3","random","72","random,structured_normal,structured_load,structured_incentive","2,3,3,4,2,1","true","",""
"null","","html-keyboard-response","314","243655","0.0-314.0","","<img src=""img/set1/S3.jpg"" width=""540"" height = ""360"" style=""border:16px solid orange"">","null","","","","","","","",""
"null","","html-keyboard-response","315","243871","0.0-315.0","","","null","","","","","","","",""
"554.9000000059605","","image-keyboard-response","316","244427","0.0-316.0","","img/set1/S1.jpg","83","1","random","83","random,structured_normal,structured_load,structured_incentive","2,3,3,4,2,1","true","",""
"null","","html-keyboard-response","317","244789","0.0-317.0","","<img src=""img/set1/S1.jpg"" width=""540"" height = ""360"" style=""border:16px solid orange"">","null","","","","","","","",""
"null","","html-keyboard-response","318","244990","0.0-318.0","","","null","","","","","","","",""
"548.4000000059605","","image-keyboard-response","319","245539","0.0-319.0","","img/set1/S1.jpg","83","1","random","83","random,structured_normal,structured_load,structured_incentive","2,3,3,4,2,1","true","",""
"null","","html-keyboard-response","320","245892","0.0-320.0","","<img src=""img/set1/S1.jpg"" width=""540"" height = ""360"" style=""border:16px solid orange"">","null","","","","","","","",""
"null","","html-keyboard-response","321","246109","0.0-321.0","","","null","","","","","","","",""
"829.5","","image-keyboard-response","322","246939","0.0-322.0","","img/set1/S2.jpg","68","2","random","68","random,structured_normal,structured_load,structured_incentive","2,3,3,4,2,1","true","",""
"null","","html-keyboard-response","323","247296","0.0-323.0","","<img src=""img/set1/S2.jpg"" width=""540"" height = ""360"" style=""border:16px solid orange"">","null","","","","","","","",""
"null","","html-keyboard-response","324","247511","0.0-324.0","","","null","","","","","","","",""
"618.6000000238419","","image-keyboard-response","325","248131","0.0-325.0","","img/set1/S3.jpg","72","3","random","72","random,structured_normal,structured_load,structured_incentive","2,3,3,4,2,1","true","",""
"null","","html-keyboard-response","326","248498","0.0-326.0","","<img src=""img/set1/S3.jpg"" width=""540"" height = ""360"" style=""border:16px solid orange"">","null","","","","","","","",""
"null","","html-keyboard-response","327","248714","0.0-327.0","","","null","","","","","","","",""
"448.30000001192093","","image-keyboard-response","328","249163","0.0-328.0","","img/set1/S4.jpg","74","4","random","74","random,structured_normal,structured_load,structured_incentive","2,3,3,4,2,1","true","",""
"null","","html-keyboard-response","329","249516","0.0-329.0","","<img src=""img/set1/S4.jpg"" width=""540"" height = ""360"" style=""border:16px solid orange"">","null","","","","","","","",""
"null","","html-keyboard-response","330","249732","0.0-330.0","","","null","","","","","","","",""
"685.5","","image-keyboard-response","331","250419","0.0-331.0","","img/set1/S1.jpg","83","1","random","83","random,structured_normal,structured_load,structured_incentive","2,3,3,4,2,1","true","",""
"null","","html-keyboard-response","332","250787","0.0-332.0","","<img src=""img/set1/S1.jpg"" width=""540"" height = ""360"" style=""border:16px solid orange"">","null","","","","","","","",""
"null","","html-keyboard-response","333","251003","0.0-333.0","","","null","","","","","","","",""
"559.2999999821186","","image-keyboard-response","334","251564","0.0-334.0","","img/set1/S1.jpg","83","1","random","83","random,structured_normal,structured_load,structured_incentive","2,3,3,4,2,1","true","",""
"null","","html-keyboard-response","335","251921","0.0-335.0","","<img src=""img/set1/S1.jpg"" width=""540"" height = ""360"" style=""border:16px solid orange"">","null","","","","","","","",""
"null","","html-keyboard-response","336","252136","0.0-336.0","","","null","","","","","","","",""
"657.5","","image-keyboard-response","337","252795","0.0-337.0","","img/set1/S4.jpg","74","4","random","74","random,structured_normal,structured_load,structured_incentive","2,3,3,4,2,1","true","",""
"null","","html-keyboard-response","338","253160","0.0-338.0","","<img src=""img/set1/S4.jpg"" width=""540"" height = ""360"" style=""border:16px solid orange"">","null","","","","","","","",""
"null","","html-keyboard-response","339","253376","0.0-339.0","","","null","","","","","","","",""
"721.7000000178814","","image-keyboard-response","340","254099","0.0-340.0","","img/set1/S2.jpg","68","2","random","68","random,structured_normal,structured_load,structured_incentive","2,3,3,4,2,1","true","",""
"null","","html-keyboard-response","341","254464","0.0-341.0","","<img src=""img/set1/S2.jpg"" width=""540"" height = ""360"" style=""border:16px solid orange"">","null","","","","","","","",""
"null","","html-keyboard-response","342","254680","0.0-342.0","","","null","","","","","","","",""
"722.7000000178814","","image-keyboard-response","343","255403","0.0-343.0","","img/set1/S1.jpg","83","1","random","83","random,structured_normal,structured_load,structured_incentive","2,3,3,4,2,1","true","",""
"null","","html-keyboard-response","344","255766","0.0-344.0","","<img src=""img/set1/S1.jpg"" width=""540"" height = ""360"" style=""border:16px solid orange"">","null","","","","","","","",""
"null","","html-keyboard-response","345","255981","0.0-345.0","","","null","","","","","","","",""
"812.5","","image-keyboard-response","346","256795","0.0-346.0","","img/set1/S3.jpg","74","3","random","72","random,structured_normal,structured_load,structured_incentive","2,3,3,4,2,1","false","",""
"null","","html-keyboard-response","347","257169","0.0-347.0","","<img src=""img/set1/S3.jpg"" width=""540"" height = ""360"">","null","","","","","","","",""
"null","","html-keyboard-response","348","257385","0.0-348.0","","","null","","","","","","","",""
"649.5","","image-keyboard-response","349","258035","0.0-349.0","","img/set1/S1.jpg","83","1","random","83","random,structured_normal,structured_load,structured_incentive","2,3,3,4,2,1","true","",""
"null","","html-keyboard-response","350","258402","0.0-350.0","","<img src=""img/set1/S1.jpg"" width=""540"" height = ""360"" style=""border:16px solid orange"">","null","","","","","","","",""
"null","","html-keyboard-response","351","258618","0.0-351.0","","","null","","","","","","","",""
"592.4000000059605","","image-keyboard-response","352","259211","0.0-352.0","","img/set1/S4.jpg","74","4","random","74","random,structured_normal,structured_load,structured_incentive","2,3,3,4,2,1","true","",""
"null","","html-keyboard-response","353","259574","0.0-353.0","","<img src=""img/set1/S4.jpg"" width=""540"" height = ""360"" style=""border:16px solid orange"">","null","","","","","","","",""
"null","","html-keyboard-response","354","259790","0.0-354.0","","","null","","","","","","","",""
"613.4000000059605","","image-keyboard-response","355","260404","0.0-355.0","","img/set1/S1.jpg","83","1","random","83","random,structured_normal,structured_load,structured_incentive","2,3,3,4,2,1","true","",""
"null","","html-keyboard-response","356","260777","0.0-356.0","","<img src=""img/set1/S1.jpg"" width=""540"" height = ""360"" style=""border:16px solid orange"">","null","","","","","","","",""
"null","","html-keyboard-response","357","260993","0.0-357.0","","","null","","","","","","","",""
"728.2999999821186","","image-keyboard-response","358","261723","0.0-358.0","","img/set1/S3.jpg","72","3","random","72","random,structured_normal,structured_load,structured_incentive","2,3,3,4,2,1","true","",""
"null","","html-keyboard-response","359","262080","0.0-359.0","","<img src=""img/set1/S3.jpg"" width=""540"" height = ""360"" style=""border:16px solid orange"">","null","","","","","","","",""
"null","","html-keyboard-response","360","262296","0.0-360.0","","","null","","","","","","","",""
"650.8000000119209","","image-keyboard-response","361","262947","0.0-361.0","","img/set1/S1.jpg","83","1","random","83","random,structured_normal,structured_load,structured_incentive","2,3,3,4,2,1","true","",""
"null","","html-keyboard-response","362","263314","0.0-362.0","","<img src=""img/set1/S1.jpg"" width=""540"" height = ""360"" style=""border:16px solid orange"">","null","","","","","","","",""
"null","","html-keyboard-response","363","263530","0.0-363.0","","","null","","","","","","","",""
"2088.5","","html-keyboard-response","364","265619","0.0-364.0","","<p class=""center-content"">You have completed a block! </p><p class=""center-content"">Press any key on the keyboard to continue, </p><p class=""center-content"">or wait for the automatic progression to the next block after one minute.</p>","32","","","","","","","",""
"11351.40000000596","","instructions","365","276971","0.0-365.0","[{""page_index"":0,""viewing_time"":11351}]","","","","","","","","","",""
"2151.7999999821186","","instructions","366","279123","0.0-366.0","[{""page_index"":0,""viewing_time"":2151.4000000059605}]","","","","","","","","","",""
"782.3000000119209","","image-keyboard-response","367","279907","0.0-367.0","","img/set2/S2.jpg","83","2","structured_normal","68","random,structured_normal,structured_load,structured_incentive","2,3,3,4,2,1","false","",""
"null","","html-keyboard-response","368","280259","0.0-368.0","","<img src=""img/set2/S2.jpg"" width=""540"" height = ""360"">","null","","","","","","","",""
"null","","html-keyboard-response","369","280475","0.0-369.0","","","null","","","","","","","",""
"582.9000000059605","","image-keyboard-response","370","281059","0.0-370.0","","img/set2/S3.jpg","83","3","structured_normal","72","random,structured_normal,structured_load,structured_incentive","2,3,3,4,2,1","false","",""
"null","","html-keyboard-response","371","281430","0.0-371.0","","<img src=""img/set2/S3.jpg"" width=""540"" height = ""360"">","null","","","","","","","",""
"null","","html-keyboard-response","372","281646","0.0-372.0","","","null","","","","","","","",""
"547.5999999940395","","image-keyboard-response","373","282195","0.0-373.0","","img/set2/S4.jpg","83","4","structured_normal","74","random,structured_normal,structured_load,structured_incentive","2,3,3,4,2,1","false","",""
"null","","html-keyboard-response","374","282548","0.0-374.0","","<img src=""img/set2/S4.jpg"" width=""540"" height = ""360"">","null","","","","","","","",""
"null","","html-keyboard-response","375","282764","0.0-375.0","","","null","","","","","","","",""
"701.5","","image-keyboard-response","376","283467","0.0-376.0","","img/set2/S4.jpg","68","4","structured_normal","74","random,structured_normal,structured_load,structured_incentive","2,3,3,4,2,1","false","",""
"null","","html-keyboard-response","377","283835","0.0-377.0","","<img src=""img/set2/S4.jpg"" width=""540"" height = ""360"">","null","","","","","","","",""
"null","","html-keyboard-response","378","284051","0.0-378.0","","","null","","","","","","","",""
"774.5999999940395","","image-keyboard-response","379","284827","0.0-379.0","","img/set2/S1.jpg","83","1","structured_normal","83","random,structured_normal,structured_load,structured_incentive","2,3,3,4,2,1","true","",""
"null","","html-keyboard-response","380","285184","0.0-380.0","","<img src=""img/set2/S1.jpg"" width=""540"" height = ""360"" style=""border:16px solid orange"">","null","","","","","","","",""
"null","","html-keyboard-response","381","285400","0.0-381.0","","","null","","","","","","","",""
"817.5999999940395","","image-keyboard-response","382","286219","0.0-382.0","","img/set2/S2.jpg","68","2","structured_normal","68","random,structured_normal,structured_load,structured_incentive","2,3,3,4,2,1","true","",""
"null","","html-keyboard-response","383","286572","0.0-383.0","","<img src=""img/set2/S2.jpg"" width=""540"" height = ""360"" style=""border:16px solid orange"">","null","","","","","","","",""
"null","","html-keyboard-response","384","286789","0.0-384.0","","","null","","","","","","","",""
"798.0999999940395","","image-keyboard-response","385","287588","0.0-385.0","","img/set2/S3.jpg","72","3","structured_normal","72","random,structured_normal,structured_load,structured_incentive","2,3,3,4,2,1","true","",""
"null","","html-keyboard-response","386","287945","0.0-386.0","","<img src=""img/set2/S3.jpg"" width=""540"" height = ""360"" style=""border:16px solid orange"">","null","","","","","","","",""
"null","","html-keyboard-response","387","288161","0.0-387.0","","","null","","","","","","","",""
"728.7000000178814","","image-keyboard-response","388","288891","0.0-388.0","","img/set2/S1.jpg","83","1","structured_normal","83","random,structured_normal,structured_load,structured_incentive","2,3,3,4,2,1","true","",""
"null","","html-keyboard-response","389","289248","0.0-389.0","","<img src=""img/set2/S1.jpg"" width=""540"" height = ""360"" style=""border:16px solid orange"">","null","","","","","","","",""
"null","","html-keyboard-response","390","289463","0.0-390.0","","","null","","","","","","","",""
"610.4000000059605","","image-keyboard-response","391","290075","0.0-391.0","","img/set2/S2.jpg","68","2","structured_normal","68","random,structured_normal,structured_load,structured_incentive","2,3,3,4,2,1","true","",""
"null","","html-keyboard-response","392","290428","0.0-392.0","","<img src=""img/set2/S2.jpg"" width=""540"" height = ""360"" style=""border:16px solid orange"">","null","","","","","","","",""
"null","","html-keyboard-response","393","290651","0.0-393.0","","","null","","","","","","","",""
"575.5","","image-keyboard-response","394","291227","0.0-394.0","","img/set2/S3.jpg","72","3","structured_normal","72","random,structured_normal,structured_load,structured_incentive","2,3,3,4,2,1","true","",""
"null","","html-keyboard-response","395","291584","0.0-395.0","","<img src=""img/set2/S3.jpg"" width=""540"" height = ""360"" style=""border:16px solid orange"">","null","","","","","","","",""
"null","","html-keyboard-response","396","291800","0.0-396.0","","","null","","","","","","","",""
"953.7000000178814","","image-keyboard-response","397","292755","0.0-397.0","","img/set2/S1.jpg","68","1","structured_normal","83","random,structured_normal,structured_load,structured_incentive","2,3,3,4,2,1","false","",""
"null","","html-keyboard-response","398","293119","0.0-398.0","","<img src=""img/set2/S1.jpg"" width=""540"" height = ""360"">","null","","","","","","","",""
"null","","html-keyboard-response","399","293335","0.0-399.0","","","null","","","","","","","",""
"795","","image-keyboard-response","400","294131","0.0-400.0","","img/set2/S2.jpg","83","2","structured_normal","68","random,structured_normal,structured_load,structured_incentive","2,3,3,4,2,1","false","",""
"null","","html-keyboard-response","401","294491","0.0-401.0","","<img src=""img/set2/S2.jpg"" width=""540"" height = ""360"">","null","","","","","","","",""
"null","","html-keyboard-response","402","294707","0.0-402.0","","","null","","","","","","","",""
"815.2000000178814","","image-keyboard-response","403","295523","0.0-403.0","","img/set2/S3.jpg","72","3","structured_normal","72","random,structured_normal,structured_load,structured_incentive","2,3,3,4,2,1","true","",""
"null","","html-keyboard-response","404","295879","0.0-404.0","","<img src=""img/set2/S3.jpg"" width=""540"" height = ""360"" style=""border:16px solid orange"">","null","","","","","","","",""
"null","","html-keyboard-response","405","296095","0.0-405.0","","","null","","","","","","","",""
"1034.4000000059605","","image-keyboard-response","406","297131","0.0-406.0","","img/set2/S2.jpg","83","2","structured_normal","68","random,structured_normal,structured_load,structured_incentive","2,3,3,4,2,1","false","",""
"null","","html-keyboard-response","407","297483","0.0-407.0","","<img src=""img/set2/S2.jpg"" width=""540"" height = ""360"">","null","","","","","","","",""
"null","","html-keyboard-response","408","297699","0.0-408.0","","","null","","","","","","","",""
"726.5999999940395","","image-keyboard-response","409","298427","0.0-409.0","","img/set2/S3.jpg","72","3","structured_normal","72","random,structured_normal,structured_load,structured_incentive","2,3,3,4,2,1","true","",""
"null","","html-keyboard-response","410","298787","0.0-410.0","","<img src=""img/set2/S3.jpg"" width=""540"" height = ""360"" style=""border:16px solid orange"">","null","","","","","","","",""
"null","","html-keyboard-response","411","299003","0.0-411.0","","","null","","","","","","","",""
"799.2000000178814","","image-keyboard-response","412","299803","0.0-412.0","","img/set2/S1.jpg","68","1","structured_normal","83","random,structured_normal,structured_load,structured_incentive","2,3,3,4,2,1","false","",""
"null","","html-keyboard-response","413","300174","0.0-413.0","","<img src=""img/set2/S1.jpg"" width=""540"" height = ""360"">","null","","","","","","","",""
"null","","html-keyboard-response","414","300389","0.0-414.0","","","null","","","","","","","",""
"444.30000001192093","","image-keyboard-response","415","300835","0.0-415.0","","img/set2/S1.jpg","83","1","structured_normal","83","random,structured_normal,structured_load,structured_incentive","2,3,3,4,2,1","true","",""
"null","","html-keyboard-response","416","301192","0.0-416.0","","<img src=""img/set2/S1.jpg"" width=""540"" height = ""360"" style=""border:16px solid orange"">","null","","","","","","","",""
"null","","html-keyboard-response","417","301398","0.0-417.0","","","null","","","","","","","",""
"675.2000000178814","","image-keyboard-response","418","302075","0.0-418.0","","img/set2/S2.jpg","68","2","structured_normal","68","random,structured_normal,structured_load,structured_incentive","2,3,3,4,2,1","true","",""
"null","","html-keyboard-response","419","302432","0.0-419.0","","<img src=""img/set2/S2.jpg"" width=""540"" height = ""360"" style=""border:16px solid orange"">","null","","","","","","","",""
"null","","html-keyboard-response","420","302637","0.0-420.0","","","null","","","","","","","",""
"620.8000000119209","","image-keyboard-response","421","303259","0.0-421.0","","img/set2/S3.jpg","72","3","structured_normal","72","random,structured_normal,structured_load,structured_incentive","2,3,3,4,2,1","true","",""
"null","","html-keyboard-response","422","303616","0.0-422.0","","<img src=""img/set2/S3.jpg"" width=""540"" height = ""360"" style=""border:16px solid orange"">","null","","","","","","","",""
"null","","html-keyboard-response","423","303820","0.0-423.0","","","null","","","","","","","",""
"925.1000000238419","","image-keyboard-response","424","304747","0.0-424.0","","img/set2/S2.jpg","83","2","structured_normal","68","random,structured_normal,structured_load,structured_incentive","2,3,3,4,2,1","false","",""
"null","","html-keyboard-response","425","305107","0.0-425.0","","<img src=""img/set2/S2.jpg"" width=""540"" height = ""360"">","null","","","","","","","",""
"null","","html-keyboard-response","426","305309","0.0-426.0","","","null","","","","","","","",""
"581.3999999761581","","image-keyboard-response","427","305892","0.0-427.0","","img/set2/S3.jpg","72","3","structured_normal","72","random,structured_normal,structured_load,structured_incentive","2,3,3,4,2,1","true","",""
"null","","html-keyboard-response","428","306260","0.0-428.0","","<img src=""img/set2/S3.jpg"" width=""540"" height = ""360"" style=""border:16px solid orange"">","null","","","","","","","",""
"null","","html-keyboard-response","429","306464","0.0-429.0","","","null","","","","","","","",""
"697.9000000059605","","image-keyboard-response","430","307163","0.0-430.0","","img/set2/S1.jpg","83","1","structured_normal","83","random,structured_normal,structured_load,structured_incentive","2,3,3,4,2,1","true","",""
"null","","html-keyboard-response","431","307516","0.0-431.0","","<img src=""img/set2/S1.jpg"" width=""540"" height = ""360"" style=""border:16px solid orange"">","null","","","","","","","",""
"null","","html-keyboard-response","432","307721","0.0-432.0","","","null","","","","","","","",""
"912.0999999940395","","image-keyboard-response","433","308634","0.0-433.0","","img/set2/S2.jpg","68","2","structured_normal","68","random,structured_normal,structured_load,structured_incentive","2,3,3,4,2,1","true","",""
"null","","html-keyboard-response","434","308993","0.0-434.0","","<img src=""img/set2/S2.jpg"" width=""540"" height = ""360"" style=""border:16px solid orange"">","null","","","","","","","",""
"null","","html-keyboard-response","435","309197","0.0-435.0","","","null","","","","","","","",""
"724.0999999940395","","image-keyboard-response","436","309922","0.0-436.0","","img/set2/S3.jpg","72","3","structured_normal","72","random,structured_normal,structured_load,structured_incentive","2,3,3,4,2,1","true","",""
"null","","html-keyboard-response","437","310288","0.0-437.0","","<img src=""img/set2/S3.jpg"" width=""540"" height = ""360"" style=""border:16px solid orange"">","null","","","","","","","",""
"null","","html-keyboard-response","438","310504","0.0-438.0","","","null","","","","","","","",""
"657.4000000059605","","image-keyboard-response","439","311162","0.0-439.0","","img/set2/S4.jpg","74","4","structured_normal","74","random,structured_normal,structured_load,structured_incentive","2,3,3,4,2,1","true","",""
"null","","html-keyboard-response","440","311522","0.0-440.0","","<img src=""img/set2/S4.jpg"" width=""540"" height = ""360"" style=""border:16px solid orange"">","null","","","","","","","",""
"null","","html-keyboard-response","441","311738","0.0-441.0","","","null","","","","","","","",""
"655.7999999821186","","image-keyboard-response","442","312394","0.0-442.0","","img/set2/S1.jpg","83","1","structured_normal","83","random,structured_normal,structured_load,structured_incentive","2,3,3,4,2,1","true","",""
"null","","html-keyboard-response","443","312756","0.0-443.0","","<img src=""img/set2/S1.jpg"" width=""540"" height = ""360"" style=""border:16px solid orange"">","null","","","","","","","",""
"null","","html-keyboard-response","444","312973","0.0-444.0","","","null","","","","","","","",""
"500.5","","image-keyboard-response","445","313475","0.0-445.0","","img/set2/S4.jpg","74","4","structured_normal","74","random,structured_normal,structured_load,structured_incentive","2,3,3,4,2,1","true","",""
"null","","html-keyboard-response","446","313827","0.0-446.0","","<img src=""img/set2/S4.jpg"" width=""540"" height = ""360"" style=""border:16px solid orange"">","null","","","","","","","",""
"null","","html-keyboard-response","447","314043","0.0-447.0","","","null","","","","","","","",""
"535","","image-keyboard-response","448","314580","0.0-448.0","","img/set2/S4.jpg","74","4","structured_normal","74","random,structured_normal,structured_load,structured_incentive","2,3,3,4,2,1","true","",""
"null","","html-keyboard-response","449","314945","0.0-449.0","","<img src=""img/set2/S4.jpg"" width=""540"" height = ""360"" style=""border:16px solid orange"">","null","","","","","","","",""
"null","","html-keyboard-response","450","315161","0.0-450.0","","","null","","","","","","","",""
"792.5999999940395","","image-keyboard-response","451","315955","0.0-451.0","","img/set2/S1.jpg","72","1","structured_normal","83","random,structured_normal,structured_load,structured_incentive","2,3,3,4,2,1","false","",""
"null","","html-keyboard-response","452","316317","0.0-452.0","","<img src=""img/set2/S1.jpg"" width=""540"" height = ""360"">","null","","","","","","","",""
"null","","html-keyboard-response","453","316533","0.0-453.0","","","null","","","","","","","",""
"484.19999998807907","","image-keyboard-response","454","317019","0.0-454.0","","img/set2/S1.jpg","83","1","structured_normal","83","random,structured_normal,structured_load,structured_incentive","2,3,3,4,2,1","true","",""
"null","","html-keyboard-response","455","317381","0.0-455.0","","<img src=""img/set2/S1.jpg"" width=""540"" height = ""360"" style=""border:16px solid orange"">","null","","","","","","","",""
"null","","html-keyboard-response","456","317604","0.0-456.0","","","null","","","","","","","",""
"509.40000000596046","","image-keyboard-response","457","318115","0.0-457.0","","img/set2/S1.jpg","83","1","structured_normal","83","random,structured_normal,structured_load,structured_incentive","2,3,3,4,2,1","true","",""
"null","","html-keyboard-response","458","318468","0.0-458.0","","<img src=""img/set2/S1.jpg"" width=""540"" height = ""360"" style=""border:16px solid orange"">","null","","","","","","","",""
"null","","html-keyboard-response","459","318684","0.0-459.0","","","null","","","","","","","",""
"573.6999999880791","","image-keyboard-response","460","319258","0.0-460.0","","img/set2/S4.jpg","74","4","structured_normal","74","random,structured_normal,structured_load,structured_incentive","2,3,3,4,2,1","true","",""
"null","","html-keyboard-response","461","319624","0.0-461.0","","<img src=""img/set2/S4.jpg"" width=""540"" height = ""360"" style=""border:16px solid orange"">","null","","","","","","","",""
"null","","html-keyboard-response","462","319840","0.0-462.0","","","null","","","","","","","",""
"705.8000000119209","","image-keyboard-response","463","320546","0.0-463.0","","img/set2/S2.jpg","68","2","structured_normal","68","random,structured_normal,structured_load,structured_incentive","2,3,3,4,2,1","true","",""
"null","","html-keyboard-response","464","320910","0.0-464.0","","<img src=""img/set2/S2.jpg"" width=""540"" height = ""360"" style=""border:16px solid orange"">","null","","","","","","","",""
"null","","html-keyboard-response","465","321126","0.0-465.0","","","null","","","","","","","",""
"619","","image-keyboard-response","466","321746","0.0-466.0","","img/set2/S3.jpg","72","3","structured_normal","72","random,structured_normal,structured_load,structured_incentive","2,3,3,4,2,1","true","",""
"null","","html-keyboard-response","467","322113","0.0-467.0","","<img src=""img/set2/S3.jpg"" width=""540"" height = ""360"" style=""border:16px solid orange"">","null","","","","","","","",""
"null","","html-keyboard-response","468","322329","0.0-468.0","","","null","","","","","","","",""
"607.9000000059605","","image-keyboard-response","469","322938","0.0-469.0","","img/set2/S4.jpg","74","4","structured_normal","74","random,structured_normal,structured_load,structured_incentive","2,3,3,4,2,1","true","",""
"null","","html-keyboard-response","470","323294","0.0-470.0","","<img src=""img/set2/S4.jpg"" width=""540"" height = ""360"" style=""border:16px solid orange"">","null","","","","","","","",""
"null","","html-keyboard-response","471","323516","0.0-471.0","","","null","","","","","","","",""
"524.8000000119209","","image-keyboard-response","472","324044","0.0-472.0","","img/set2/S4.jpg","74","4","structured_normal","74","random,structured_normal,structured_load,structured_incentive","2,3,3,4,2,1","true","",""
"null","","html-keyboard-response","473","324418","0.0-473.0","","<img src=""img/set2/S4.jpg"" width=""540"" height = ""360"" style=""border:16px solid orange"">","null","","","","","","","",""
"null","","html-keyboard-response","474","324634","0.0-474.0","","","null","","","","","","","",""
"463.40000000596046","","image-keyboard-response","475","325098","0.0-475.0","","img/set2/S4.jpg","74","4","structured_normal","74","random,structured_normal,structured_load,structured_incentive","2,3,3,4,2,1","true","",""
"null","","html-keyboard-response","476","325451","0.0-476.0","","<img src=""img/set2/S4.jpg"" width=""540"" height = ""360"" style=""border:16px solid orange"">","null","","","","","","","",""
"null","","html-keyboard-response","477","325667","0.0-477.0","","","null","","","","","","","",""
"678.2000000178814","","image-keyboard-response","478","326346","0.0-478.0","","img/set2/S2.jpg","68","2","structured_normal","68","random,structured_normal,structured_load,structured_incentive","2,3,3,4,2,1","true","",""
"null","","html-keyboard-response","479","326700","0.0-479.0","","<img src=""img/set2/S2.jpg"" width=""540"" height = ""360"" style=""border:16px solid orange"">","null","","","","","","","",""
"null","","html-keyboard-response","480","326922","0.0-480.0","","","null","","","","","","","",""
"607.3000000119209","","image-keyboard-response","481","327530","0.0-481.0","","img/set2/S3.jpg","72","3","structured_normal","72","random,structured_normal,structured_load,structured_incentive","2,3,3,4,2,1","true","",""
"null","","html-keyboard-response","482","327886","0.0-482.0","","<img src=""img/set2/S3.jpg"" width=""540"" height = ""360"" style=""border:16px solid orange"">","null","","","","","","","",""
"null","","html-keyboard-response","483","328102","0.0-483.0","","","null","","","","","","","",""
"667.0999999940395","","image-keyboard-response","484","328770","0.0-484.0","","img/set2/S2.jpg","68","2","structured_normal","68","random,structured_normal,structured_load,structured_incentive","2,3,3,4,2,1","true","",""
"null","","html-keyboard-response","485","329127","0.0-485.0","","<img src=""img/set2/S2.jpg"" width=""540"" height = ""360"" style=""border:16px solid orange"">","null","","","","","","","",""
"null","","html-keyboard-response","486","329328","0.0-486.0","","","null","","","","","","","",""
"552.9000000059605","","image-keyboard-response","487","329882","0.0-487.0","","img/set2/S3.jpg","72","3","structured_normal","72","random,structured_normal,structured_load,structured_incentive","2,3,3,4,2,1","true","",""
"null","","html-keyboard-response","488","330246","0.0-488.0","","<img src=""img/set2/S3.jpg"" width=""540"" height = ""360"" style=""border:16px solid orange"">","null","","","","","","","",""
"null","","html-keyboard-response","489","330461","0.0-489.0","","","null","","","","","","","",""
"516","","image-keyboard-response","490","330978","0.0-490.0","","img/set2/S1.jpg","83","1","structured_normal","83","random,structured_normal,structured_load,structured_incentive","2,3,3,4,2,1","true","",""
"null","","html-keyboard-response","491","331333","0.0-491.0","","<img src=""img/set2/S1.jpg"" width=""540"" height = ""360"" style=""border:16px solid orange"">","null","","","","","","","",""
"null","","html-keyboard-response","492","331549","0.0-492.0","","","null","","","","","","","",""
"645.0999999940395","","image-keyboard-response","493","332196","0.0-493.0","","img/set2/S4.jpg","74","4","structured_normal","74","random,structured_normal,structured_load,structured_incentive","2,3,3,4,2,1","true","",""
"null","","html-keyboard-response","494","332552","0.0-494.0","","<img src=""img/set2/S4.jpg"" width=""540"" height = ""360"" style=""border:16px solid orange"">","null","","","","","","","",""
"null","","html-keyboard-response","495","332767","0.0-495.0","","","null","","","","","","","",""
"681.2000000178814","","image-keyboard-response","496","333450","0.0-496.0","","img/set2/S2.jpg","68","2","structured_normal","68","random,structured_normal,structured_load,structured_incentive","2,3,3,4,2,1","true","",""
"null","","html-keyboard-response","497","333816","0.0-497.0","","<img src=""img/set2/S2.jpg"" width=""540"" height = ""360"" style=""border:16px solid orange"">","null","","","","","","","",""
"null","","html-keyboard-response","498","334017","0.0-498.0","","","null","","","","","","","",""
"664.3000000119209","","image-keyboard-response","499","334682","0.0-499.0","","img/set2/S3.jpg","72","3","structured_normal","72","random,structured_normal,structured_load,structured_incentive","2,3,3,4,2,1","true","",""
"null","","html-keyboard-response","500","335041","0.0-500.0","","<img src=""img/set2/S3.jpg"" width=""540"" height = ""360"" style=""border:16px solid orange"">","null","","","","","","","",""
"null","","html-keyboard-response","501","335257","0.0-501.0","","","null","","","","","","","",""
"736.1000000238419","","image-keyboard-response","502","335994","0.0-502.0","","img/set2/S2.jpg","68","2","structured_normal","68","random,structured_normal,structured_load,structured_incentive","2,3,3,4,2,1","true","",""
"null","","html-keyboard-response","503","336359","0.0-503.0","","<img src=""img/set2/S2.jpg"" width=""540"" height = ""360"" style=""border:16px solid orange"">","null","","","","","","","",""
"null","","html-keyboard-response","504","336575","0.0-504.0","","","null","","","","","","","",""
"562.1000000238419","","image-keyboard-response","505","337138","0.0-505.0","","img/set2/S3.jpg","72","3","structured_normal","72","random,structured_normal,structured_load,structured_incentive","2,3,3,4,2,1","true","",""
"null","","html-keyboard-response","506","337493","0.0-506.0","","<img src=""img/set2/S3.jpg"" width=""540"" height = ""360"" style=""border:16px solid orange"">","null","","","","","","","",""
"null","","html-keyboard-response","507","337709","0.0-507.0","","","null","","","","","","","",""
"564","","image-keyboard-response","508","338274","0.0-508.0","","img/set2/S4.jpg","74","4","structured_normal","74","random,structured_normal,structured_load,structured_incentive","2,3,3,4,2,1","true","",""
"null","","html-keyboard-response","509","338627","0.0-509.0","","<img src=""img/set2/S4.jpg"" width=""540"" height = ""360"" style=""border:16px solid orange"">","null","","","","","","","",""
"null","","html-keyboard-response","510","338849","0.0-510.0","","","null","","","","","","","",""
"496.2999999821186","","image-keyboard-response","511","339346","0.0-511.0","","img/set2/S4.jpg","74","4","structured_normal","74","random,structured_normal,structured_load,structured_incentive","2,3,3,4,2,1","true","",""
"null","","html-keyboard-response","512","339713","0.0-512.0","","<img src=""img/set2/S4.jpg"" width=""540"" height = ""360"" style=""border:16px solid orange"">","null","","","","","","","",""
"null","","html-keyboard-response","513","339929","0.0-513.0","","","null","","","","","","","",""
"624.1000000238419","","image-keyboard-response","514","340554","0.0-514.0","","img/set2/S1.jpg","83","1","structured_normal","83","random,structured_normal,structured_load,structured_incentive","2,3,3,4,2,1","true","",""
"null","","html-keyboard-response","515","340916","0.0-515.0","","<img src=""img/set2/S1.jpg"" width=""540"" height = ""360"" style=""border:16px solid orange"">","null","","","","","","","",""
"null","","html-keyboard-response","516","341131","0.0-516.0","","","null","","","","","","","",""
"647","","image-keyboard-response","517","341779","0.0-517.0","","img/set2/S2.jpg","68","2","structured_normal","68","random,structured_normal,structured_load,structured_incentive","2,3,3,4,2,1","true","",""
"null","","html-keyboard-response","518","342133","0.0-518.0","","<img src=""img/set2/S2.jpg"" width=""540"" height = ""360"" style=""border:16px solid orange"">","null","","","","","","","",""
"null","","html-keyboard-response","519","342355","0.0-519.0","","","null","","","","","","","",""
"765.5","","image-keyboard-response","520","343122","0.0-520.0","","img/set2/S3.jpg","72","3","structured_normal","72","random,structured_normal,structured_load,structured_incentive","2,3,3,4,2,1","true","",""
"null","","html-keyboard-response","521","343489","0.0-521.0","","<img src=""img/set2/S3.jpg"" width=""540"" height = ""360"" style=""border:16px solid orange"">","null","","","","","","","",""
"null","","html-keyboard-response","522","343705","0.0-522.0","","","null","","","","","","","",""
"712","","image-keyboard-response","523","344418","0.0-523.0","","img/set2/S2.jpg","68","2","structured_normal","68","random,structured_normal,structured_load,structured_incentive","2,3,3,4,2,1","true","",""
"null","","html-keyboard-response","524","344776","0.0-524.0","","<img src=""img/set2/S2.jpg"" width=""540"" height = ""360"" style=""border:16px solid orange"">","null","","","","","","","",""
"null","","html-keyboard-response","525","344992","0.0-525.0","","","null","","","","","","","",""
"776.7000000178814","","image-keyboard-response","526","345770","0.0-526.0","","img/set2/S3.jpg","72","3","structured_normal","72","random,structured_normal,structured_load,structured_incentive","2,3,3,4,2,1","true","",""
"null","","html-keyboard-response","527","346126","0.0-527.0","","<img src=""img/set2/S3.jpg"" width=""540"" height = ""360"" style=""border:16px solid orange"">","null","","","","","","","",""
"null","","html-keyboard-response","528","346342","0.0-528.0","","","null","","","","","","","",""
"587.1000000238419","","image-keyboard-response","529","346930","0.0-529.0","","img/set2/S2.jpg","68","2","structured_normal","68","random,structured_normal,structured_load,structured_incentive","2,3,3,4,2,1","true","",""
"null","","html-keyboard-response","530","347297","0.0-530.0","","<img src=""img/set2/S2.jpg"" width=""540"" height = ""360"" style=""border:16px solid orange"">","null","","","","","","","",""
"null","","html-keyboard-response","531","347513","0.0-531.0","","","null","","","","","","","",""
"536","","image-keyboard-response","532","348050","0.0-532.0","","img/set2/S3.jpg","72","3","structured_normal","72","random,structured_normal,structured_load,structured_incentive","2,3,3,4,2,1","true","",""
"null","","html-keyboard-response","533","348415","0.0-533.0","","<img src=""img/set2/S3.jpg"" width=""540"" height = ""360"" style=""border:16px solid orange"">","null","","","","","","","",""
"null","","html-keyboard-response","534","348616","0.0-534.0","","","null","","","","","","","",""
"640.8999999761581","","image-keyboard-response","535","349258","0.0-535.0","","img/set2/S2.jpg","68","2","structured_normal","68","random,structured_normal,structured_load,structured_incentive","2,3,3,4,2,1","true","",""
"null","","html-keyboard-response","536","349619","0.0-536.0","","<img src=""img/set2/S2.jpg"" width=""540"" height = ""360"" style=""border:16px solid orange"">","null","","","","","","","",""
"null","","html-keyboard-response","537","349819","0.0-537.0","","","null","","","","","","","",""
"614.8000000119209","","image-keyboard-response","538","350436","0.0-538.0","","img/set2/S3.jpg","72","3","structured_normal","72","random,structured_normal,structured_load,structured_incentive","2,3,3,4,2,1","true","",""
"null","","html-keyboard-response","539","350792","0.0-539.0","","<img src=""img/set2/S3.jpg"" width=""540"" height = ""360"" style=""border:16px solid orange"">","null","","","","","","","",""
"null","","html-keyboard-response","540","351007","0.0-540.0","","","null","","","","","","","",""
"449","","image-keyboard-response","541","351458","0.0-541.0","","img/set2/S4.jpg","74","4","structured_normal","74","random,structured_normal,structured_load,structured_incentive","2,3,3,4,2,1","true","",""
"null","","html-keyboard-response","542","351825","0.0-542.0","","<img src=""img/set2/S4.jpg"" width=""540"" height = ""360"" style=""border:16px solid orange"">","null","","","","","","","",""
"null","","html-keyboard-response","543","352041","0.0-543.0","","","null","","","","","","","",""
"552.1999999880791","","image-keyboard-response","544","352594","0.0-544.0","","img/set2/S1.jpg","83","1","structured_normal","83","random,structured_normal,structured_load,structured_incentive","2,3,3,4,2,1","true","",""
"null","","html-keyboard-response","545","352959","0.0-545.0","","<img src=""img/set2/S1.jpg"" width=""540"" height = ""360"" style=""border:16px solid orange"">","null","","","","","","","",""
"null","","html-keyboard-response","546","353182","0.0-546.0","","","null","","","","","","","",""
"579.1999999880791","","image-keyboard-response","547","353762","0.0-547.0","","img/set2/S4.jpg","74","4","structured_normal","74","random,structured_normal,structured_load,structured_incentive","2,3,3,4,2,1","true","",""
"null","","html-keyboard-response","548","354115","0.0-548.0","","<img src=""img/set2/S4.jpg"" width=""540"" height = ""360"" style=""border:16px solid orange"">","null","","","","","","","",""
"null","","html-keyboard-response","549","354330","0.0-549.0","","","null","","","","","","","",""
"622.5999999940395","","image-keyboard-response","550","354954","0.0-550.0","","img/set2/S1.jpg","83","1","structured_normal","83","random,structured_normal,structured_load,structured_incentive","2,3,3,4,2,1","true","",""
"null","","html-keyboard-response","551","355317","0.0-551.0","","<img src=""img/set2/S1.jpg"" width=""540"" height = ""360"" style=""border:16px solid orange"">","null","","","","","","","",""
"null","","html-keyboard-response","552","355533","0.0-552.0","","","null","","","","","","","",""
"532.3999999761581","","image-keyboard-response","553","356066","0.0-553.0","","img/set2/S2.jpg","72","2","structured_normal","68","random,structured_normal,structured_load,structured_incentive","2,3,3,4,2,1","false","",""
"null","","html-keyboard-response","554","356420","0.0-554.0","","<img src=""img/set2/S2.jpg"" width=""540"" height = ""360"">","null","","","","","","","",""
"null","","html-keyboard-response","555","356636","0.0-555.0","","","null","","","","","","","",""
"613.2999999821186","","image-keyboard-response","556","357250","0.0-556.0","","img/set2/S3.jpg","72","3","structured_normal","72","random,structured_normal,structured_load,structured_incentive","2,3,3,4,2,1","true","",""
"null","","html-keyboard-response","557","357607","0.0-557.0","","<img src=""img/set2/S3.jpg"" width=""540"" height = ""360"" style=""border:16px solid orange"">","null","","","","","","","",""
"null","","html-keyboard-response","558","357823","0.0-558.0","","","null","","","","","","","",""
"529.7999999821186","","image-keyboard-response","559","358354","0.0-559.0","","img/set2/S1.jpg","83","1","structured_normal","83","random,structured_normal,structured_load,structured_incentive","2,3,3,4,2,1","true","",""
"null","","html-keyboard-response","560","358710","0.0-560.0","","<img src=""img/set2/S1.jpg"" width=""540"" height = ""360"" style=""border:16px solid orange"">","null","","","","","","","",""
"null","","html-keyboard-response","561","358926","0.0-561.0","","","null","","","","","","","",""
"619.4000000059605","","image-keyboard-response","562","359546","0.0-562.0","","img/set2/S4.jpg","74","4","structured_normal","74","random,structured_normal,structured_load,structured_incentive","2,3,3,4,2,1","true","",""
"null","","html-keyboard-response","563","359913","0.0-563.0","","<img src=""img/set2/S4.jpg"" width=""540"" height = ""360"" style=""border:16px solid orange"">","null","","","","","","","",""
"null","","html-keyboard-response","564","360128","0.0-564.0","","","null","","","","","","","",""
"656.8000000119209","","image-keyboard-response","565","360786","0.0-565.0","","img/set2/S1.jpg","83","1","structured_normal","83","random,structured_normal,structured_load,structured_incentive","2,3,3,4,2,1","true","",""
"null","","html-keyboard-response","566","361146","0.0-566.0","","<img src=""img/set2/S1.jpg"" width=""540"" height = ""360"" style=""border:16px solid orange"">","null","","","","","","","",""
"null","","html-keyboard-response","567","361362","0.0-567.0","","","null","","","","","","","",""
"550.5999999940395","","image-keyboard-response","568","361914","0.0-568.0","","img/set2/S1.jpg","83","1","structured_normal","83","random,structured_normal,structured_load,structured_incentive","2,3,3,4,2,1","true","",""
"null","","html-keyboard-response","569","362280","0.0-569.0","","<img src=""img/set2/S1.jpg"" width=""540"" height = ""360"" style=""border:16px solid orange"">","null","","","","","","","",""
"null","","html-keyboard-response","570","362510","0.0-570.0","","","null","","","","","","","",""
"698.9000000059605","","image-keyboard-response","571","363210","0.0-571.0","","img/set2/S4.jpg","74","4","structured_normal","74","random,structured_normal,structured_load,structured_incentive","2,3,3,4,2,1","true","",""
"null","","html-keyboard-response","572","363566","0.0-572.0","","<img src=""img/set2/S4.jpg"" width=""540"" height = ""360"" style=""border:16px solid orange"">","null","","","","","","","",""
"null","","html-keyboard-response","573","363782","0.0-573.0","","","null","","","","","","","",""
"458.40000000596046","","image-keyboard-response","574","364242","0.0-574.0","","img/set2/S4.jpg","74","4","structured_normal","74","random,structured_normal,structured_load,structured_incentive","2,3,3,4,2,1","true","",""
"null","","html-keyboard-response","575","364606","0.0-575.0","","<img src=""img/set2/S4.jpg"" width=""540"" height = ""360"" style=""border:16px solid orange"">","null","","","","","","","",""
"null","","html-keyboard-response","576","364822","0.0-576.0","","","null","","","","","","","",""
"555.1999999880791","","image-keyboard-response","577","365378","0.0-577.0","","img/set2/S1.jpg","83","1","structured_normal","83","random,structured_normal,structured_load,structured_incentive","2,3,3,4,2,1","true","",""
"null","","html-keyboard-response","578","365740","0.0-578.0","","<img src=""img/set2/S1.jpg"" width=""540"" height = ""360"" style=""border:16px solid orange"">","null","","","","","","","",""
"null","","html-keyboard-response","579","365956","0.0-579.0","","","null","","","","","","","",""
"588.5999999940395","","image-keyboard-response","580","366546","0.0-580.0","","img/set2/S4.jpg","74","4","structured_normal","74","random,structured_normal,structured_load,structured_incentive","2,3,3,4,2,1","true","",""
"null","","html-keyboard-response","581","366912","0.0-581.0","","<img src=""img/set2/S4.jpg"" width=""540"" height = ""360"" style=""border:16px solid orange"">","null","","","","","","","",""
"null","","html-keyboard-response","582","367128","0.0-582.0","","","null","","","","","","","",""
"496.59999999403954","","image-keyboard-response","583","367626","0.0-583.0","","img/set2/S1.jpg","83","1","structured_normal","83","random,structured_normal,structured_load,structured_incentive","2,3,3,4,2,1","true","",""
"null","","html-keyboard-response","584","367992","0.0-584.0","","<img src=""img/set2/S1.jpg"" width=""540"" height = ""360"" style=""border:16px solid orange"">","null","","","","","","","",""
"null","","html-keyboard-response","585","368215","0.0-585.0","","","null","","","","","","","",""
"514.5","","image-keyboard-response","586","368731","0.0-586.0","","img/set2/S1.jpg","83","1","structured_normal","83","random,structured_normal,structured_load,structured_incentive","2,3,3,4,2,1","true","",""
"null","","html-keyboard-response","587","369095","0.0-587.0","","<img src=""img/set2/S1.jpg"" width=""540"" height = ""360"" style=""border:16px solid orange"">","null","","","","","","","",""
"null","","html-keyboard-response","588","369317","0.0-588.0","","","null","","","","","","","",""
"603.5","","image-keyboard-response","589","369922","0.0-589.0","","img/set2/S2.jpg","68","2","structured_normal","68","random,structured_normal,structured_load,structured_incentive","2,3,3,4,2,1","true","",""
"null","","html-keyboard-response","590","370281","0.0-590.0","","<img src=""img/set2/S2.jpg"" width=""540"" height = ""360"" style=""border:16px solid orange"">","null","","","","","","","",""
"null","","html-keyboard-response","591","370497","0.0-591.0","","","null","","","","","","","",""
"431.69999998807907","","image-keyboard-response","592","370930","0.0-592.0","","img/set2/S3.jpg","72","3","structured_normal","72","random,structured_normal,structured_load,structured_incentive","2,3,3,4,2,1","true","",""
"null","","html-keyboard-response","593","371283","0.0-593.0","","<img src=""img/set2/S3.jpg"" width=""540"" height = ""360"" style=""border:16px solid orange"">","null","","","","","","","",""
"null","","html-keyboard-response","594","371499","0.0-594.0","","","null","","","","","","","",""
"573.8000000119209","","image-keyboard-response","595","372074","0.0-595.0","","img/set2/S1.jpg","83","1","structured_normal","83","random,structured_normal,structured_load,structured_incentive","2,3,3,4,2,1","true","",""
