"rt","url","trial_type","trial_index","time_elapsed","internal_node_id","view_history","stimulus","key_press","state","test_part","correct_response","order_block","order_chunk","correct","responses","question_order","bonus"
"6567.699999988079","consent.html","external-html","0","6662","0.0-0.0","","","","","","","","","","","",""
"93575.30000001192","","instructions","1","100240","0.0-1.0","[{""page_index"":0,""viewing_time"":2385.100000023842},{""page_index"":1,""viewing_time"":6037.599999964237},{""page_index"":2,""viewing_time"":6654.600000023842},{""page_index"":3,""viewing_time"":29620.69999998808},{""page_index"":4,""viewing_time"":5028.300000011921},{""page_index"":5,""viewing_time"":11724.100000023842},{""page_index"":6,""viewing_time"":9295.199999988079},{""page_index"":5,""viewing_time"":1641.699999988079},{""page_index"":4,""viewing_time"":2853.399999976158},{""page_index"":3,""viewing_time"":6436.100000023842},{""page_index"":2,""viewing_time"":3564.899999976158},{""page_index"":3,""viewing_time"":3610},{""page_index"":4,""viewing_time"":1109.800000011921},{""page_index"":5,""viewing_time"":1256.199999988079},{""page_index"":6,""viewing_time"":2356.600000023842}]","","","","","","","","","","",""
"6254.299999952316","","instructions","2","106496","0.0-2.0","[{""page_index"":0,""viewing_time"":6253.899999976158}]","","","","","","","","","","",""
"37734","","instructions","3","144230","0.0-3.0","[{""page_index"":0,""viewing_time"":9777.299999952316},{""page_index"":1,""viewing_time"":27956.200000047684}]","","","","","","","","","","",""
"813.5","","image-keyboard-response","4","145047","0.0-4.0","","img/set1/S3.jpg","83","3","structured_load","72","structured_load,structured_normal,structured_incentive,random","3,4,2,3,2,1","false","","",""
"null","","html-keyboard-response","5","145402","0.0-5.0","","<img src=""img/set1/S3.jpg"" width=""540"" height = ""360"">","null","","","","","","","","",""
"null","","html-keyboard-response","6","145606","0.0-6.0","","","null","","","","","","","","",""
"527.1999999880791","","image-keyboard-response","7","146135","0.0-7.0","","img/set1/S4.jpg","72","4","structured_load","74","structured_load,structured_normal,structured_incentive,random","3,4,2,3,2,1","false","","",""
"null","","html-keyboard-response","8","146491","0.0-8.0","","<img src=""img/set1/S4.jpg"" width=""540"" height = ""360"">","null","","","","","","","","",""
"null","","html-keyboard-response","9","146696","0.0-9.0","","","null","","","","","","","","",""
"553.1999999880791","","image-keyboard-response","10","147251","0.0-10.0","","img/set1/S3.jpg","68","3","structured_load","72","structured_load,structured_normal,structured_incentive,random","3,4,2,3,2,1","false","","",""
"null","","html-keyboard-response","11","147616","0.0-11.0","","<img src=""img/set1/S3.jpg"" width=""540"" height = ""360"">","null","","","","","","","","",""
"null","","html-keyboard-response","12","147832","0.0-12.0","","","null","","","","","","","","",""
"712.6999999880791","","image-keyboard-response","13","148546","0.0-13.0","","img/set1/S4.jpg","74","4","structured_load","74","structured_load,structured_normal,structured_incentive,random","3,4,2,3,2,1","true","","",""
"null","","html-keyboard-response","14","148905","0.0-14.0","","<img src=""img/set1/S4.jpg"" width=""540"" height = ""360"" style=""border:16px solid orange"">","null","","","","","","","","",""
"null","","html-keyboard-response","15","149109","0.0-15.0","","","null","","","","","","","","",""
"1220.199999988079","","image-keyboard-response","16","150330","0.0-16.0","","img/set1/S2.jpg","72","2","structured_load","68","structured_load,structured_normal,structured_incentive,random","3,4,2,3,2,1","false","","",""
"null","","html-keyboard-response","17","150696","0.0-17.0","","<img src=""img/set1/S2.jpg"" width=""540"" height = ""360"">","null","","","","","","","","",""
"null","","html-keyboard-response","18","150900","0.0-18.0","","","null","","","","","","","","",""
"460.4000000357628","","image-keyboard-response","19","151362","0.0-19.0","","img/set1/S1.jpg","83","1","structured_load","83","structured_load,structured_normal,structured_incentive,random","3,4,2,3,2,1","true","","",""
"null","","html-keyboard-response","20","151725","0.0-20.0","","<img src=""img/set1/S1.jpg"" width=""540"" height = ""360"" style=""border:16px solid orange"">","null","","","","","","","","",""
"null","","html-keyboard-response","21","151927","0.0-21.0","","","null","","","","","","","","",""
"680.4000000357628","","image-keyboard-response","22","152608","0.0-22.0","","img/set1/S3.jpg","74","3","structured_load","72","structured_load,structured_normal,structured_incentive,random","3,4,2,3,2,1","false","","",""
"null","","html-keyboard-response","23","152970","0.0-23.0","","<img src=""img/set1/S3.jpg"" width=""540"" height = ""360"">","null","","","","","","","","",""
"null","","html-keyboard-response","24","153173","0.0-24.0","","","null","","","","","","","","",""
"411.39999997615814","","image-keyboard-response","25","153586","0.0-25.0","","img/set1/S4.jpg","83","4","structured_load","74","structured_load,structured_normal,structured_incentive,random","3,4,2,3,2,1","false","","",""
"null","","html-keyboard-response","26","153952","0.0-26.0","","<img src=""img/set1/S4.jpg"" width=""540"" height = ""360"">","null","","","","","","","","",""
"null","","html-keyboard-response","27","154155","0.0-27.0","","","null","","","","","","","","",""
"703.3000000119209","","image-keyboard-response","28","154860","0.0-28.0","","img/set1/S2.jpg","72","2","structured_load","68","structured_load,structured_normal,structured_incentive,random","3,4,2,3,2,1","false","","",""
"null","","html-keyboard-response","29","155216","0.0-29.0","","<img src=""img/set1/S2.jpg"" width=""540"" height = ""360"">","null","","","","","","","","",""
"null","","html-keyboard-response","30","155422","0.0-30.0","","","null","","","","","","","","",""
"471.69999998807907","","image-keyboard-response","31","155895","0.0-31.0","","img/set1/S3.jpg","83","3","structured_load","72","structured_load,structured_normal,structured_incentive,random","3,4,2,3,2,1","false","","",""
"null","","html-keyboard-response","32","156253","0.0-32.0","","<img src=""img/set1/S3.jpg"" width=""540"" height = ""360"">","null","","","","","","","","",""
"null","","html-keyboard-response","33","156456","0.0-33.0","","","null","","","","","","","","",""
"527.5999999642372","","image-keyboard-response","34","156985","0.0-34.0","","img/set1/S4.jpg","74","4","structured_load","74","structured_load,structured_normal,structured_incentive,random","3,4,2,3,2,1","true","","",""
"null","","html-keyboard-response","35","157346","0.0-35.0","","<img src=""img/set1/S4.jpg"" width=""540"" height = ""360"" style=""border:16px solid orange"">","null","","","","","","","","",""
"null","","html-keyboard-response","36","157563","0.0-36.0","","","null","","","","","","","","",""
"761.8000000119209","","image-keyboard-response","37","158326","0.0-37.0","","img/set1/S2.jpg","72","2","structured_load","68","structured_load,structured_normal,structured_incentive,random","3,4,2,3,2,1","false","","",""
"null","","html-keyboard-response","38","158678","0.0-38.0","","<img src=""img/set1/S2.jpg"" width=""540"" height = ""360"">","null","","","","","","","","",""
"null","","html-keyboard-response","39","158884","0.0-39.0","","","null","","","","","","","","",""
"700.3999999761581","","image-keyboard-response","40","159587","0.0-40.0","","img/set1/S1.jpg","83","1","structured_load","83","structured_load,structured_normal,structured_incentive,random","3,4,2,3,2,1","true","","",""
"null","","html-keyboard-response","41","159940","0.0-41.0","","<img src=""img/set1/S1.jpg"" width=""540"" height = ""360"" style=""border:16px solid orange"">","null","","","","","","","","",""
"null","","html-keyboard-response","42","160144","0.0-42.0","","","null","","","","","","","","",""
"578.8000000119209","","image-keyboard-response","43","160724","0.0-43.0","","img/set1/S3.jpg","68","3","structured_load","72","structured_load,structured_normal,structured_incentive,random","3,4,2,3,2,1","false","","",""
"null","","html-keyboard-response","44","161080","0.0-44.0","","<img src=""img/set1/S3.jpg"" width=""540"" height = ""360"">","null","","","","","","","","",""
"null","","html-keyboard-response","45","161285","0.0-45.0","","","null","","","","","","","","",""
"796.1999999880791","","image-keyboard-response","46","162082","0.0-46.0","","img/set1/S4.jpg","74","4","structured_load","74","structured_load,structured_normal,structured_incentive,random","3,4,2,3,2,1","true","","",""
"null","","html-keyboard-response","47","162439","0.0-47.0","","<img src=""img/set1/S4.jpg"" width=""540"" height = ""360"" style=""border:16px solid orange"">","null","","","","","","","","",""
"null","","html-keyboard-response","48","162641","0.0-48.0","","","null","","","","","","","","",""
"437.80000001192093","","image-keyboard-response","49","163080","0.0-49.0","","img/set1/S1.jpg","83","1","structured_load","83","structured_load,structured_normal,structured_incentive,random","3,4,2,3,2,1","true","","",""
"null","","html-keyboard-response","50","163439","0.0-50.0","","<img src=""img/set1/S1.jpg"" width=""540"" height = ""360"" style=""border:16px solid orange"">","null","","","","","","","","",""
"null","","html-keyboard-response","51","163643","0.0-51.0","","","null","","","","","","","","",""
"676.1000000238419","","image-keyboard-response","52","164320","0.0-52.0","","img/set1/S1.jpg","83","1","structured_load","83","structured_load,structured_normal,structured_incentive,random","3,4,2,3,2,1","true","","",""
"null","","html-keyboard-response","53","164672","0.0-53.0","","<img src=""img/set1/S1.jpg"" width=""540"" height = ""360"" style=""border:16px solid orange"">","null","","","","","","","","",""
"null","","html-keyboard-response","54","164879","0.0-54.0","","","null","","","","","","","","",""
"736.8999999761581","","image-keyboard-response","55","165617","0.0-55.0","","img/set1/S2.jpg","72","2","structured_load","68","structured_load,structured_normal,structured_incentive,random","3,4,2,3,2,1","false","","",""
"null","","html-keyboard-response","56","165975","0.0-56.0","","<img src=""img/set1/S2.jpg"" width=""540"" height = ""360"">","null","","","","","","","","",""
"null","","html-keyboard-response","57","166179","0.0-57.0","","","null","","","","","","","","",""
"622.3000000119209","","image-keyboard-response","58","166803","0.0-58.0","","img/set1/S3.jpg","74","3","structured_load","72","structured_load,structured_normal,structured_incentive,random","3,4,2,3,2,1","false","","",""
"null","","html-keyboard-response","59","167162","0.0-59.0","","<img src=""img/set1/S3.jpg"" width=""540"" height = ""360"">","null","","","","","","","","",""
"null","","html-keyboard-response","60","167369","0.0-60.0","","","null","","","","","","","","",""
"765","","image-keyboard-response","61","168135","0.0-61.0","","img/set1/S4.jpg","72","4","structured_load","74","structured_load,structured_normal,structured_incentive,random","3,4,2,3,2,1","false","","",""
"null","","html-keyboard-response","62","168493","0.0-62.0","","<img src=""img/set1/S4.jpg"" width=""540"" height = ""360"">","null","","","","","","","","",""
"null","","html-keyboard-response","63","168695","0.0-63.0","","","null","","","","","","","","",""
"579.1000000238419","","image-keyboard-response","64","169275","0.0-64.0","","img/set1/S1.jpg","83","1","structured_load","83","structured_load,structured_normal,structured_incentive,random","3,4,2,3,2,1","true","","",""
"null","","html-keyboard-response","65","169628","0.0-65.0","","<img src=""img/set1/S1.jpg"" width=""540"" height = ""360"" style=""border:16px solid orange"">","null","","","","","","","","",""
"null","","html-keyboard-response","66","169831","0.0-66.0","","","null","","","","","","","","",""
"551.8000000119209","","image-keyboard-response","67","170384","0.0-67.0","","img/set1/S1.jpg","83","1","structured_load","83","structured_load,structured_normal,structured_incentive,random","3,4,2,3,2,1","true","","",""
"null","","html-keyboard-response","68","170748","0.0-68.0","","<img src=""img/set1/S1.jpg"" width=""540"" height = ""360"" style=""border:16px solid orange"">","null","","","","","","","","",""
"null","","html-keyboard-response","69","170953","0.0-69.0","","","null","","","","","","","","",""
"516","","image-keyboard-response","70","171472","0.0-70.0","","img/set1/S1.jpg","83","1","structured_load","83","structured_load,structured_normal,structured_incentive,random","3,4,2,3,2,1","true","","",""
"null","","html-keyboard-response","71","171824","0.0-71.0","","<img src=""img/set1/S1.jpg"" width=""540"" height = ""360"" style=""border:16px solid orange"">","null","","","","","","","","",""
"null","","html-keyboard-response","72","172032","0.0-72.0","","","null","","","","","","","","",""
"808.8999999761581","","image-keyboard-response","73","172842","0.0-73.0","","img/set1/S2.jpg","68","2","structured_load","68","structured_load,structured_normal,structured_incentive,random","3,4,2,3,2,1","true","","",""
"null","","html-keyboard-response","74","173200","0.0-74.0","","<img src=""img/set1/S2.jpg"" width=""540"" height = ""360"" style=""border:16px solid orange"">","null","","","","","","","","",""
"null","","html-keyboard-response","75","173407","0.0-75.0","","","null","","","","","","","","",""
"606.1000000238419","","image-keyboard-response","76","174014","0.0-76.0","","img/set1/S3.jpg","72","3","structured_load","72","structured_load,structured_normal,structured_incentive,random","3,4,2,3,2,1","true","","",""
"null","","html-keyboard-response","77","174382","0.0-77.0","","<img src=""img/set1/S3.jpg"" width=""540"" height = ""360"" style=""border:16px solid orange"">","null","","","","","","","","",""
"null","","html-keyboard-response","78","174584","0.0-78.0","","","null","","","","","","","","",""
"716.3999999761581","","image-keyboard-response","79","175302","0.0-79.0","","img/set1/S4.jpg","74","4","structured_load","74","structured_load,structured_normal,structured_incentive,random","3,4,2,3,2,1","true","","",""
"null","","html-keyboard-response","80","175661","0.0-80.0","","<img src=""img/set1/S4.jpg"" width=""540"" height = ""360"" style=""border:16px solid orange"">","null","","","","","","","","",""
"null","","html-keyboard-response","81","175864","0.0-81.0","","","null","","","","","","","","",""
"642.3000000119209","","image-keyboard-response","82","176507","0.0-82.0","","img/set1/S3.jpg","72","3","structured_load","72","structured_load,structured_normal,structured_incentive,random","3,4,2,3,2,1","true","","",""
"null","","html-keyboard-response","83","176862","0.0-83.0","","<img src=""img/set1/S3.jpg"" width=""540"" height = ""360"" style=""border:16px solid orange"">","null","","","","","","","","",""
"null","","html-keyboard-response","84","177066","0.0-84.0","","","null","","","","","","","","",""
"833.0999999642372","","image-keyboard-response","85","177900","0.0-85.0","","img/set1/S4.jpg","72","4","structured_load","74","structured_load,structured_normal,structured_incentive,random","3,4,2,3,2,1","false","","",""
"null","","html-keyboard-response","86","178266","0.0-86.0","","<img src=""img/set1/S4.jpg"" width=""540"" height = ""360"">","null","","","","","","","","",""
"null","","html-keyboard-response","87","178469","0.0-87.0","","","null","","","","","","","","",""
"1117.1000000238419","","image-keyboard-response","88","179587","0.0-88.0","","img/set1/S2.jpg","68","2","structured_load","68","structured_load,structured_normal,structured_incentive,random","3,4,2,3,2,1","true","","",""
"null","","html-keyboard-response","89","179948","0.0-89.0","","<img src=""img/set1/S2.jpg"" width=""540"" height = ""360"" style=""border:16px solid orange"">","null","","","","","","","","",""
"null","","html-keyboard-response","90","180153","0.0-90.0","","","null","","","","","","","","",""
"581.2000000476837","","image-keyboard-response","91","180735","0.0-91.0","","img/set1/S2.jpg","68","2","structured_load","68","structured_load,structured_normal,structured_incentive,random","3,4,2,3,2,1","true","","",""
"null","","html-keyboard-response","92","181089","0.0-92.0","","<img src=""img/set1/S2.jpg"" width=""540"" height = ""360"" style=""border:16px solid orange"">","null","","","","","","","","",""
"null","","html-keyboard-response","93","181290","0.0-93.0","","","null","","","","","","","","",""
"1165.1000000238419","","image-keyboard-response","94","182456","0.0-94.0","","img/set1/S3.jpg","72","3","structured_load","72","structured_load,structured_normal,structured_incentive,random","3,4,2,3,2,1","true","","",""
"null","","html-keyboard-response","95","182815","0.0-95.0","","<img src=""img/set1/S3.jpg"" width=""540"" height = ""360"" style=""border:16px solid orange"">","null","","","","","","","","",""
"null","","html-keyboard-response","96","183020","0.0-96.0","","","null","","","","","","","","",""
"564.6000000238419","","image-keyboard-response","97","183586","0.0-97.0","","img/set1/S4.jpg","74","4","structured_load","74","structured_load,structured_normal,structured_incentive,random","3,4,2,3,2,1","true","","",""
"null","","html-keyboard-response","98","183950","0.0-98.0","","<img src=""img/set1/S4.jpg"" width=""540"" height = ""360"" style=""border:16px solid orange"">","null","","","","","","","","",""
"null","","html-keyboard-response","99","184156","0.0-99.0","","","null","","","","","","","","",""
"763.1000000238419","","image-keyboard-response","100","184920","0.0-100.0","","img/set1/S3.jpg","68","3","structured_load","72","structured_load,structured_normal,structured_incentive,random","3,4,2,3,2,1","false","","",""
"null","","html-keyboard-response","101","185273","0.0-101.0","","<img src=""img/set1/S3.jpg"" width=""540"" height = ""360"">","null","","","","","","","","",""
"null","","html-keyboard-response","102","185486","0.0-102.0","","","null","","","","","","","","",""
"688","","image-keyboard-response","103","186175","0.0-103.0","","img/set1/S4.jpg","74","4","structured_load","74","structured_load,structured_normal,structured_incentive,random","3,4,2,3,2,1","true","","",""
"null","","html-keyboard-response","104","186539","0.0-104.0","","<img src=""img/set1/S4.jpg"" width=""540"" height = ""360"" style=""border:16px solid orange"">","null","","","","","","","","",""
"null","","html-keyboard-response","105","186741","0.0-105.0","","","null","","","","","","","","",""
"716.8999999761581","","image-keyboard-response","106","187459","0.0-106.0","","img/set1/S2.jpg","72","2","structured_load","68","structured_load,structured_normal,structured_incentive,random","3,4,2,3,2,1","false","","",""
"null","","html-keyboard-response","107","187816","0.0-107.0","","<img src=""img/set1/S2.jpg"" width=""540"" height = ""360"">","null","","","","","","","","",""
"null","","html-keyboard-response","108","188032","0.0-108.0","","","null","","","","","","","","",""
"788.6999999880791","","image-keyboard-response","109","188822","0.0-109.0","","img/set1/S3.jpg","74","3","structured_load","72","structured_load,structured_normal,structured_incentive,random","3,4,2,3,2,1","false","","",""
"null","","html-keyboard-response","110","189185","0.0-110.0","","<img src=""img/set1/S3.jpg"" width=""540"" height = ""360"">","null","","","","","","","","",""
"null","","html-keyboard-response","111","189389","0.0-111.0","","","null","","","","","","","","",""
"831.3999999761581","","image-keyboard-response","112","190221","0.0-112.0","","img/set1/S4.jpg","74","4","structured_load","74","structured_load,structured_normal,structured_incentive,random","3,4,2,3,2,1","true","","",""
"null","","html-keyboard-response","113","190588","0.0-113.0","","<img src=""img/set1/S4.jpg"" width=""540"" height = ""360"" style=""border:16px solid orange"">","null","","","","","","","","",""
"null","","html-keyboard-response","114","190791","0.0-114.0","","","null","","","","","","","","",""
"712.2999999523163","","image-keyboard-response","115","191504","0.0-115.0","","img/set1/S2.jpg","68","2","structured_load","68","structured_load,structured_normal,structured_incentive,random","3,4,2,3,2,1","true","","",""
"null","","html-keyboard-response","116","191867","0.0-116.0","","<img src=""img/set1/S2.jpg"" width=""540"" height = ""360"" style=""border:16px solid orange"">","null","","","","","","","","",""
"null","","html-keyboard-response","117","192071","0.0-117.0","","","null","","","","","","","","",""
"619.5","","image-keyboard-response","118","192692","0.0-118.0","","img/set1/S2.jpg","68","2","structured_load","68","structured_load,structured_normal,structured_incentive,random","3,4,2,3,2,1","true","","",""
"null","","html-keyboard-response","119","193051","0.0-119.0","","<img src=""img/set1/S2.jpg"" width=""540"" height = ""360"" style=""border:16px solid orange"">","null","","","","","","","","",""
"null","","html-keyboard-response","120","193253","0.0-120.0","","","null","","","","","","","","",""
"486.30000001192093","","image-keyboard-response","121","193740","0.0-121.0","","img/set1/S2.jpg","68","2","structured_load","68","structured_load,structured_normal,structured_incentive,random","3,4,2,3,2,1","true","","",""
"null","","html-keyboard-response","122","194096","0.0-122.0","","<img src=""img/set1/S2.jpg"" width=""540"" height = ""360"" style=""border:16px solid orange"">","null","","","","","","","","",""
"null","","html-keyboard-response","123","194304","0.0-123.0","","","null","","","","","","","","",""
"431.9000000357628","","image-keyboard-response","124","194736","0.0-124.0","","img/set1/S2.jpg","68","2","structured_load","68","structured_load,structured_normal,structured_incentive,random","3,4,2,3,2,1","true","","",""
"null","","html-keyboard-response","125","195099","0.0-125.0","","<img src=""img/set1/S2.jpg"" width=""540"" height = ""360"" style=""border:16px solid orange"">","null","","","","","","","","",""
"null","","html-keyboard-response","126","195300","0.0-126.0","","","null","","","","","","","","",""
"556.3999999761581","","image-keyboard-response","127","195858","0.0-127.0","","img/set1/S1.jpg","83","1","structured_load","83","structured_load,structured_normal,structured_incentive,random","3,4,2,3,2,1","true","","",""
"null","","html-keyboard-response","128","196219","0.0-128.0","","<img src=""img/set1/S1.jpg"" width=""540"" height = ""360"" style=""border:16px solid orange"">","null","","","","","","","","",""
"null","","html-keyboard-response","129","196422","0.0-129.0","","","null","","","","","","","","",""
"440.39999997615814","","image-keyboard-response","130","196863","0.0-130.0","","img/set1/S1.jpg","83","1","structured_load","83","structured_load,structured_normal,structured_incentive,random","3,4,2,3,2,1","true","","",""
"null","","html-keyboard-response","131","197223","0.0-131.0","","<img src=""img/set1/S1.jpg"" width=""540"" height = ""360"" style=""border:16px solid orange"">","null","","","","","","","","",""
"null","","html-keyboard-response","132","197431","0.0-132.0","","","null","","","","","","","","",""
"837.9000000357628","","image-keyboard-response","133","198270","0.0-133.0","","img/set1/S3.jpg","72","3","structured_load","72","structured_load,structured_normal,structured_incentive,random","3,4,2,3,2,1","true","","",""
"null","","html-keyboard-response","134","198625","0.0-134.0","","<img src=""img/set1/S3.jpg"" width=""540"" height = ""360"" style=""border:16px solid orange"">","null","","","","","","","","",""
"null","","html-keyboard-response","135","198833","0.0-135.0","","","null","","","","","","","","",""
"590.6999999880791","","image-keyboard-response","136","199425","0.0-136.0","","img/set1/S4.jpg","74","4","structured_load","74","structured_load,structured_normal,structured_incentive,random","3,4,2,3,2,1","true","","",""
"null","","html-keyboard-response","137","199781","0.0-137.0","","<img src=""img/set1/S4.jpg"" width=""540"" height = ""360"" style=""border:16px solid orange"">","null","","","","","","","","",""
"null","","html-keyboard-response","138","199986","0.0-138.0","","","null","","","","","","","","",""
"914.8999999761581","","image-keyboard-response","139","200902","0.0-139.0","","img/set1/S3.jpg","72","3","structured_load","72","structured_load,structured_normal,structured_incentive,random","3,4,2,3,2,1","true","","",""
"null","","html-keyboard-response","140","201260","0.0-140.0","","<img src=""img/set1/S3.jpg"" width=""540"" height = ""360"" style=""border:16px solid orange"">","null","","","","","","","","",""
"null","","html-keyboard-response","141","201462","0.0-141.0","","","null","","","","","","","","",""
"692.8000000119209","","image-keyboard-response","142","202156","0.0-142.0","","img/set1/S4.jpg","74","4","structured_load","74","structured_load,structured_normal,structured_incentive,random","3,4,2,3,2,1","true","","",""
"null","","html-keyboard-response","143","202511","0.0-143.0","","<img src=""img/set1/S4.jpg"" width=""540"" height = ""360"" style=""border:16px solid orange"">","null","","","","","","","","",""
"null","","html-keyboard-response","144","202712","0.0-144.0","","","null","","","","","","","","",""
"567.4000000357628","","image-keyboard-response","145","203281","0.0-145.0","","img/set1/S3.jpg","72","3","structured_load","72","structured_load,structured_normal,structured_incentive,random","3,4,2,3,2,1","true","","",""
"null","","html-keyboard-response","146","203645","0.0-146.0","","<img src=""img/set1/S3.jpg"" width=""540"" height = ""360"" style=""border:16px solid orange"">","null","","","","","","","","",""
"null","","html-keyboard-response","147","203849","0.0-147.0","","","null","","","","","","","","",""
"1082","","image-keyboard-response","148","204932","0.0-148.0","","img/set1/S4.jpg","74","4","structured_load","74","structured_load,structured_normal,structured_incentive,random","3,4,2,3,2,1","true","","",""
"null","","html-keyboard-response","149","205285","0.0-149.0","","<img src=""img/set1/S4.jpg"" width=""540"" height = ""360"" style=""border:16px solid orange"">","null","","","","","","","","",""
"null","","html-keyboard-response","150","205489","0.0-150.0","","","null","","","","","","","","",""
"500.69999998807907","","image-keyboard-response","151","205991","0.0-151.0","","img/set1/S1.jpg","83","1","structured_load","83","structured_load,structured_normal,structured_incentive,random","3,4,2,3,2,1","true","","",""
"null","","html-keyboard-response","152","206355","0.0-152.0","","<img src=""img/set1/S1.jpg"" width=""540"" height = ""360"" style=""border:16px solid orange"">","null","","","","","","","","",""
"null","","html-keyboard-response","153","206562","0.0-153.0","","","null","","","","","","","","",""
"563.8999999761581","","image-keyboard-response","154","207127","0.0-154.0","","img/set1/S1.jpg","83","1","structured_load","83","structured_load,structured_normal,structured_incentive,random","3,4,2,3,2,1","true","","",""
"null","","html-keyboard-response","155","207486","0.0-155.0","","<img src=""img/set1/S1.jpg"" width=""540"" height = ""360"" style=""border:16px solid orange"">","null","","","","","","","","",""
"null","","html-keyboard-response","156","207687","0.0-156.0","","","null","","","","","","","","",""
"575","","image-keyboard-response","157","208263","0.0-157.0","","img/set1/S3.jpg","83","3","structured_load","72","structured_load,structured_normal,structured_incentive,random","3,4,2,3,2,1","false","","",""
"null","","html-keyboard-response","158","208626","0.0-158.0","","<img src=""img/set1/S3.jpg"" width=""540"" height = ""360"">","null","","","","","","","","",""
"null","","html-keyboard-response","159","208830","0.0-159.0","","","null","","","","","","","","",""
"683.1999999880791","","image-keyboard-response","160","209514","0.0-160.0","","img/set1/S4.jpg","74","4","structured_load","74","structured_load,structured_normal,structured_incentive,random","3,4,2,3,2,1","true","","",""
"null","","html-keyboard-response","161","209874","0.0-161.0","","<img src=""img/set1/S4.jpg"" width=""540"" height = ""360"" style=""border:16px solid orange"">","null","","","","","","","","",""
"null","","html-keyboard-response","162","210076","0.0-162.0","","","null","","","","","","","","",""
"817.8999999761581","","image-keyboard-response","163","210895","0.0-163.0","","img/set1/S2.jpg","72","2","structured_load","68","structured_load,structured_normal,structured_incentive,random","3,4,2,3,2,1","false","","",""
"null","","html-keyboard-response","164","211247","0.0-164.0","","<img src=""img/set1/S2.jpg"" width=""540"" height = ""360"">","null","","","","","","","","",""
"null","","html-keyboard-response","165","211464","0.0-165.0","","","null","","","","","","","","",""
"600.8000000119209","","image-keyboard-response","166","212066","0.0-166.0","","img/set1/S1.jpg","83","1","structured_load","83","structured_load,structured_normal,structured_incentive,random","3,4,2,3,2,1","true","","",""
"null","","html-keyboard-response","167","212421","0.0-167.0","","<img src=""img/set1/S1.jpg"" width=""540"" height = ""360"" style=""border:16px solid orange"">","null","","","","","","","","",""
"null","","html-keyboard-response","168","212628","0.0-168.0","","","null","","","","","","","","",""
"879.1999999880791","","image-keyboard-response","169","213508","0.0-169.0","","img/set1/S3.jpg","72","3","structured_load","72","structured_load,structured_normal,structured_incentive,random","3,4,2,3,2,1","true","","",""
"null","","html-keyboard-response","170","213873","0.0-170.0","","<img src=""img/set1/S3.jpg"" width=""540"" height = ""360"" style=""border:16px solid orange"">","null","","","","","","","","",""
"null","","html-keyboard-response","171","214077","0.0-171.0","","","null","","","","","","","","",""
"663.0999999642372","","image-keyboard-response","172","214741","0.0-172.0","","img/set1/S4.jpg","68","4","structured_load","74","structured_load,structured_normal,structured_incentive,random","3,4,2,3,2,1","false","","",""
"null","","html-keyboard-response","173","215107","0.0-173.0","","<img src=""img/set1/S4.jpg"" width=""540"" height = ""360"">","null","","","","","","","","",""
"null","","html-keyboard-response","174","215315","0.0-174.0","","","null","","","","","","","","",""
"847.8000000119209","","image-keyboard-response","175","216163","0.0-175.0","","img/set1/S3.jpg","72","3","structured_load","72","structured_load,structured_normal,structured_incentive,random","3,4,2,3,2,1","true","","",""
"null","","html-keyboard-response","176","216529","0.0-176.0","","<img src=""img/set1/S3.jpg"" width=""540"" height = ""360"" style=""border:16px solid orange"">","null","","","","","","","","",""
"null","","html-keyboard-response","177","216731","0.0-177.0","","","null","","","","","","","","",""
"966.5","","image-keyboard-response","178","217699","0.0-178.0","","img/set1/S4.jpg","74","4","structured_load","74","structured_load,structured_normal,structured_incentive,random","3,4,2,3,2,1","true","","",""
"null","","html-keyboard-response","179","218061","0.0-179.0","","<img src=""img/set1/S4.jpg"" width=""540"" height = ""360"" style=""border:16px solid orange"">","null","","","","","","","","",""
"null","","html-keyboard-response","180","218269","0.0-180.0","","","null","","","","","","","","",""
"622.5999999642372","","image-keyboard-response","181","218892","0.0-181.0","","img/set1/S3.jpg","72","3","structured_load","72","structured_load,structured_normal,structured_incentive,random","3,4,2,3,2,1","true","","",""
"null","","html-keyboard-response","182","219249","0.0-182.0","","<img src=""img/set1/S3.jpg"" width=""540"" height = ""360"" style=""border:16px solid orange"">","null","","","","","","","","",""
"null","","html-keyboard-response","183","219451","0.0-183.0","","","null","","","","","","","","",""
"792.3000000119209","","image-keyboard-response","184","220244","0.0-184.0","","img/set1/S4.jpg","83","4","structured_load","74","structured_load,structured_normal,structured_incentive,random","3,4,2,3,2,1","false","","",""
"null","","html-keyboard-response","185","220603","0.0-185.0","","<img src=""img/set1/S4.jpg"" width=""540"" height = ""360"">","null","","","","","","","","",""
"null","","html-keyboard-response","186","220807","0.0-186.0","","","null","","","","","","","","",""
"817.1000000238419","","image-keyboard-response","187","221625","0.0-187.0","","img/set1/S2.jpg","68","2","structured_load","68","structured_load,structured_normal,structured_incentive,random","3,4,2,3,2,1","true","","",""
"null","","html-keyboard-response","188","221992","0.0-188.0","","<img src=""img/set1/S2.jpg"" width=""540"" height = ""360"" style=""border:16px solid orange"">","null","","","","","","","","",""
"null","","html-keyboard-response","189","222195","0.0-189.0","","","null","","","","","","","","",""
"838.3999999761581","","image-keyboard-response","190","223034","0.0-190.0","","img/set1/S2.jpg","68","2","structured_load","68","structured_load,structured_normal,structured_incentive,random","3,4,2,3,2,1","true","","",""
"null","","html-keyboard-response","191","223393","0.0-191.0","","<img src=""img/set1/S2.jpg"" width=""540"" height = ""360"" style=""border:16px solid orange"">","null","","","","","","","","",""
"null","","html-keyboard-response","192","223598","0.0-192.0","","","null","","","","","","","","",""
"554.8999999761581","","image-keyboard-response","193","224154","0.0-193.0","","img/set1/S1.jpg","83","1","structured_load","83","structured_load,structured_normal,structured_incentive,random","3,4,2,3,2,1","true","","",""
"null","","html-keyboard-response","194","224512","0.0-194.0","","<img src=""img/set1/S1.jpg"" width=""540"" height = ""360"" style=""border:16px solid orange"">","null","","","","","","","","",""
"null","","html-keyboard-response","195","224719","0.0-195.0","","","null","","","","","","","","",""
"748.5","","image-keyboard-response","196","225469","0.0-196.0","","img/set1/S3.jpg","72","3","structured_load","72","structured_load,structured_normal,structured_incentive,random","3,4,2,3,2,1","true","","",""
"null","","html-keyboard-response","197","225828","0.0-197.0","","<img src=""img/set1/S3.jpg"" width=""540"" height = ""360"" style=""border:16px solid orange"">","null","","","","","","","","",""
"null","","html-keyboard-response","198","226032","0.0-198.0","","","null","","","","","","","","",""
"493.69999998807907","","image-keyboard-response","199","226527","0.0-199.0","","img/set1/S4.jpg","74","4","structured_load","74","structured_load,structured_normal,structured_incentive,random","3,4,2,3,2,1","true","","",""
"null","","html-keyboard-response","200","226886","0.0-200.0","","<img src=""img/set1/S4.jpg"" width=""540"" height = ""360"" style=""border:16px solid orange"">","null","","","","","","","","",""
"null","","html-keyboard-response","201","227088","0.0-201.0","","","null","","","","","","","","",""
"600.2999999523163","","image-keyboard-response","202","227689","0.0-202.0","","img/set1/S1.jpg","83","1","structured_load","83","structured_load,structured_normal,structured_incentive,random","3,4,2,3,2,1","true","","",""
"null","","html-keyboard-response","203","228050","0.0-203.0","","<img src=""img/set1/S1.jpg"" width=""540"" height = ""360"" style=""border:16px solid orange"">","null","","","","","","","","",""
"null","","html-keyboard-response","204","228254","0.0-204.0","","","null","","","","","","","","",""
"463.69999998807907","","image-keyboard-response","205","228719","0.0-205.0","","img/set1/S1.jpg","83","1","structured_load","83","structured_load,structured_normal,structured_incentive,random","3,4,2,3,2,1","true","","",""
"null","","html-keyboard-response","206","229082","0.0-206.0","","<img src=""img/set1/S1.jpg"" width=""540"" height = ""360"" style=""border:16px solid orange"">","null","","","","","","","","",""
"null","","html-keyboard-response","207","229286","0.0-207.0","","","null","","","","","","","","",""
"493.2999999523163","","image-keyboard-response","208","229780","0.0-208.0","","img/set1/S1.jpg","83","1","structured_load","83","structured_load,structured_normal,structured_incentive,random","3,4,2,3,2,1","true","","",""
"null","","html-keyboard-response","209","230131","0.0-209.0","","<img src=""img/set1/S1.jpg"" width=""540"" height = ""360"" style=""border:16px solid orange"">","null","","","","","","","","",""
"null","","html-keyboard-response","210","230338","0.0-210.0","","","null","","","","","","","","",""
"451.80000001192093","","image-keyboard-response","211","230791","0.0-211.0","","img/set1/S1.jpg","83","1","structured_load","83","structured_load,structured_normal,structured_incentive,random","3,4,2,3,2,1","true","","",""
"null","","html-keyboard-response","212","231144","0.0-212.0","","<img src=""img/set1/S1.jpg"" width=""540"" height = ""360"" style=""border:16px solid orange"">","null","","","","","","","","",""
"null","","html-keyboard-response","213","231347","0.0-213.0","","","null","","","","","","","","",""
"428.39999997615814","","image-keyboard-response","214","231776","0.0-214.0","","img/set1/S3.jpg","72","3","structured_load","72","structured_load,structured_normal,structured_incentive,random","3,4,2,3,2,1","true","","",""
"null","","html-keyboard-response","215","232129","0.0-215.0","","<img src=""img/set1/S3.jpg"" width=""540"" height = ""360"" style=""border:16px solid orange"">","null","","","","","","","","",""
"null","","html-keyboard-response","216","232330","0.0-216.0","","","null","","","","","","","","",""
"466.0999999642372","","image-keyboard-response","217","232797","0.0-217.0","","img/set1/S4.jpg","74","4","structured_load","74","structured_load,structured_normal,structured_incentive,random","3,4,2,3,2,1","true","","",""
"null","","html-keyboard-response","218","233155","0.0-218.0","","<img src=""img/set1/S4.jpg"" width=""540"" height = ""360"" style=""border:16px solid orange"">","null","","","","","","","","",""
"null","","html-keyboard-response","219","233362","0.0-219.0","","","null","","","","","","","","",""
"739.8000000119209","","image-keyboard-response","220","234103","0.0-220.0","","img/set1/S3.jpg","72","3","structured_load","72","structured_load,structured_normal,structured_incentive,random","3,4,2,3,2,1","true","","",""
"null","","html-keyboard-response","221","234466","0.0-221.0","","<img src=""img/set1/S3.jpg"" width=""540"" height = ""360"" style=""border:16px solid orange"">","null","","","","","","","","",""
"null","","html-keyboard-response","222","234667","0.0-222.0","","","null","","","","","","","","",""
"549.1999999880791","","image-keyboard-response","223","235217","0.0-223.0","","img/set1/S4.jpg","74","4","structured_load","74","structured_load,structured_normal,structured_incentive,random","3,4,2,3,2,1","true","","",""
"null","","html-keyboard-response","224","235572","0.0-224.0","","<img src=""img/set1/S4.jpg"" width=""540"" height = ""360"" style=""border:16px solid orange"">","null","","","","","","","","",""
"null","","html-keyboard-response","225","235777","0.0-225.0","","","null","","","","","","","","",""
"812","","image-keyboard-response","226","236590","0.0-226.0","","img/set1/S2.jpg","68","2","structured_load","68","structured_load,structured_normal,structured_incentive,random","3,4,2,3,2,1","true","","",""
"null","","html-keyboard-response","227","236955","0.0-227.0","","<img src=""img/set1/S2.jpg"" width=""540"" height = ""360"" style=""border:16px solid orange"">","null","","","","","","","","",""
"null","","html-keyboard-response","228","237172","0.0-228.0","","","null","","","","","","","","",""
"493.5","","image-keyboard-response","229","237666","0.0-229.0","","img/set1/S2.jpg","68","2","structured_load","68","structured_load,structured_normal,structured_incentive,random","3,4,2,3,2,1","true","","",""
"null","","html-keyboard-response","230","238031","0.0-230.0","","<img src=""img/set1/S2.jpg"" width=""540"" height = ""360"" style=""border:16px solid orange"">","null","","","","","","","","",""
"null","","html-keyboard-response","231","238247","0.0-231.0","","","null","","","","","","","","",""
"465.0999999642372","","image-keyboard-response","232","238713","0.0-232.0","","img/set1/S2.jpg","68","2","structured_load","68","structured_load,structured_normal,structured_incentive,random","3,4,2,3,2,1","true","","",""
"null","","html-keyboard-response","233","239077","0.0-233.0","","<img src=""img/set1/S2.jpg"" width=""540"" height = ""360"" style=""border:16px solid orange"">","null","","","","","","","","",""
"null","","html-keyboard-response","234","239283","0.0-234.0","","","null","","","","","","","","",""
"342.89999997615814","","image-keyboard-response","235","239627","0.0-235.0","","img/set1/S2.jpg","68","2","structured_load","68","structured_load,structured_normal,structured_incentive,random","3,4,2,3,2,1","true","","",""
"null","","html-keyboard-response","236","239992","0.0-236.0","","<img src=""img/set1/S2.jpg"" width=""540"" height = ""360"" style=""border:16px solid orange"">","null","","","","","","","","",""
"null","","html-keyboard-response","237","240194","0.0-237.0","","","null","","","","","","","","",""
"510.5","","image-keyboard-response","238","240705","0.0-238.0","","img/set1/S1.jpg","83","1","structured_load","83","structured_load,structured_normal,structured_incentive,random","3,4,2,3,2,1","true","","",""
"null","","html-keyboard-response","239","241067","0.0-239.0","","<img src=""img/set1/S1.jpg"" width=""540"" height = ""360"" style=""border:16px solid orange"">","null","","","","","","","","",""
"null","","html-keyboard-response","240","241269","0.0-240.0","","","null","","","","","","","","",""
"779.3000000119209","","image-keyboard-response","241","242050","0.0-241.0","","img/set1/S2.jpg","68","2","structured_load","68","structured_load,structured_normal,structured_incentive,random","3,4,2,3,2,1","true","","",""
"null","","html-keyboard-response","242","242416","0.0-242.0","","<img src=""img/set1/S2.jpg"" width=""540"" height = ""360"" style=""border:16px solid orange"">","null","","","","","","","","",""
"null","","html-keyboard-response","243","242623","0.0-243.0","","","null","","","","","","","","",""
"823.5","","image-keyboard-response","244","243447","0.0-244.0","","img/set1/S3.jpg","72","3","structured_load","72","structured_load,structured_normal,structured_incentive,random","3,4,2,3,2,1","true","","",""
"null","","html-keyboard-response","245","243809","0.0-245.0","","<img src=""img/set1/S3.jpg"" width=""540"" height = ""360"" style=""border:16px solid orange"">","null","","","","","","","","",""
"null","","html-keyboard-response","246","244012","0.0-246.0","","","null","","","","","","","","",""
"668.2999999523163","","image-keyboard-response","247","244682","0.0-247.0","","img/set1/S4.jpg","74","4","structured_load","74","structured_load,structured_normal,structured_incentive,random","3,4,2,3,2,1","true","","",""
"null","","html-keyboard-response","248","245044","0.0-248.0","","<img src=""img/set1/S4.jpg"" width=""540"" height = ""360"" style=""border:16px solid orange"">","null","","","","","","","","",""
"null","","html-keyboard-response","249","245251","0.0-249.0","","","null","","","","","","","","",""
"723.0999999642372","","image-keyboard-response","250","245975","0.0-250.0","","img/set1/S1.jpg","83","1","structured_load","83","structured_load,structured_normal,structured_incentive,random","3,4,2,3,2,1","true","","",""
"null","","html-keyboard-response","251","246337","0.0-251.0","","<img src=""img/set1/S1.jpg"" width=""540"" height = ""360"" style=""border:16px solid orange"">","null","","","","","","","","",""
"null","","html-keyboard-response","252","246538","0.0-252.0","","","null","","","","","","","","",""
"878.7000000476837","","image-keyboard-response","253","247418","0.0-253.0","","img/set1/S3.jpg","72","3","structured_load","72","structured_load,structured_normal,structured_incentive,random","3,4,2,3,2,1","true","","",""
"null","","html-keyboard-response","254","247781","0.0-254.0","","<img src=""img/set1/S3.jpg"" width=""540"" height = ""360"" style=""border:16px solid orange"">","null","","","","","","","","",""
"null","","html-keyboard-response","255","247985","0.0-255.0","","","null","","","","","","","","",""
"871.1999999880791","","image-keyboard-response","256","248858","0.0-256.0","","img/set1/S4.jpg","74","4","structured_load","74","structured_load,structured_normal,structured_incentive,random","3,4,2,3,2,1","true","","",""
"null","","html-keyboard-response","257","249221","0.0-257.0","","<img src=""img/set1/S4.jpg"" width=""540"" height = ""360"" style=""border:16px solid orange"">","null","","","","","","","","",""
"null","","html-keyboard-response","258","249424","0.0-258.0","","","null","","","","","","","","",""
"953.3999999761581","","image-keyboard-response","259","250379","0.0-259.0","","img/set1/S2.jpg","68","2","structured_load","68","structured_load,structured_normal,structured_incentive,random","3,4,2,3,2,1","true","","",""
"null","","html-keyboard-response","260","250744","0.0-260.0","","<img src=""img/set1/S2.jpg"" width=""540"" height = ""360"" style=""border:16px solid orange"">","null","","","","","","","","",""
"null","","html-keyboard-response","261","250946","0.0-261.0","","","null","","","","","","","","",""
"576.1999999880791","","image-keyboard-response","262","251523","0.0-262.0","","img/set1/S1.jpg","83","1","structured_load","83","structured_load,structured_normal,structured_incentive,random","3,4,2,3,2,1","true","","",""
"null","","html-keyboard-response","263","251881","0.0-263.0","","<img src=""img/set1/S1.jpg"" width=""540"" height = ""360"" style=""border:16px solid orange"">","null","","","","","","","","",""
"null","","html-keyboard-response","264","252085","0.0-264.0","","","null","","","","","","","","",""
"521.9000000357628","","image-keyboard-response","265","252608","0.0-265.0","","img/set1/S1.jpg","83","1","structured_load","83","structured_load,structured_normal,structured_incentive,random","3,4,2,3,2,1","true","","",""
"null","","html-keyboard-response","266","252969","0.0-266.0","","<img src=""img/set1/S1.jpg"" width=""540"" height = ""360"" style=""border:16px solid orange"">","null","","","","","","","","",""
"null","","html-keyboard-response","267","253170","0.0-267.0","","","null","","","","","","","","",""
"976.1999999880791","","image-keyboard-response","268","254147","0.0-268.0","","img/set1/S3.jpg","72","3","structured_load","72","structured_load,structured_normal,structured_incentive,random","3,4,2,3,2,1","true","","",""
"null","","html-keyboard-response","269","254503","0.0-269.0","","<img src=""img/set1/S3.jpg"" width=""540"" height = ""360"" style=""border:16px solid orange"">","null","","","","","","","","",""
"null","","html-keyboard-response","270","254710","0.0-270.0","","","null","","","","","","","","",""
"622","","image-keyboard-response","271","255333","0.0-271.0","","img/set1/S4.jpg","74","4","structured_load","74","structured_load,structured_normal,structured_incentive,random","3,4,2,3,2,1","true","","",""
"null","","html-keyboard-response","272","255691","0.0-272.0","","<img src=""img/set1/S4.jpg"" width=""540"" height = ""360"" style=""border:16px solid orange"">","null","","","","","","","","",""
"null","","html-keyboard-response","273","255894","0.0-273.0","","","null","","","","","","","","",""
"990.1999999880791","","image-keyboard-response","274","256886","0.0-274.0","","img/set1/S1.jpg","83","1","structured_load","83","structured_load,structured_normal,structured_incentive,random","3,4,2,3,2,1","true","","",""
"null","","html-keyboard-response","275","257239","0.0-275.0","","<img src=""img/set1/S1.jpg"" width=""540"" height = ""360"" style=""border:16px solid orange"">","null","","","","","","","","",""
"null","","html-keyboard-response","276","257444","0.0-276.0","","","null","","","","","","","","",""
"500.60000002384186","","image-keyboard-response","277","257946","0.0-277.0","","img/set1/S1.jpg","83","1","structured_load","83","structured_load,structured_normal,structured_incentive,random","3,4,2,3,2,1","true","","",""
"null","","html-keyboard-response","278","258310","0.0-278.0","","<img src=""img/set1/S1.jpg"" width=""540"" height = ""360"" style=""border:16px solid orange"">","null","","","","","","","","",""
"null","","html-keyboard-response","279","258514","0.0-279.0","","","null","","","","","","","","",""
"406.2999999523163","","image-keyboard-response","280","258921","0.0-280.0","","img/set1/S1.jpg","83","1","structured_load","83","structured_load,structured_normal,structured_incentive,random","3,4,2,3,2,1","true","","",""
"null","","html-keyboard-response","281","259277","0.0-281.0","","<img src=""img/set1/S1.jpg"" width=""540"" height = ""360"" style=""border:16px solid orange"">","null","","","","","","","","",""
"null","","html-keyboard-response","282","259479","0.0-282.0","","","null","","","","","","","","",""
"450.60000002384186","","image-keyboard-response","283","259931","0.0-283.0","","img/set1/S3.jpg","68","3","structured_load","72","structured_load,structured_normal,structured_incentive,random","3,4,2,3,2,1","false","","",""
"null","","html-keyboard-response","284","260283","0.0-284.0","","<img src=""img/set1/S3.jpg"" width=""540"" height = ""360"">","null","","","","","","","","",""
"null","","html-keyboard-response","285","260490","0.0-285.0","","","null","","","","","","","","",""
"926.8000000119209","","image-keyboard-response","286","261418","0.0-286.0","","img/set1/S4.jpg","74","4","structured_load","74","structured_load,structured_normal,structured_incentive,random","3,4,2,3,2,1","true","","",""
"null","","html-keyboard-response","287","261782","0.0-287.0","","<img src=""img/set1/S4.jpg"" width=""540"" height = ""360"" style=""border:16px solid orange"">","null","","","","","","","","",""
"null","","html-keyboard-response","288","261984","0.0-288.0","","","null","","","","","","","","",""
"430.69999998807907","","image-keyboard-response","289","262416","0.0-289.0","","img/set1/S3.jpg","72","3","structured_load","72","structured_load,structured_normal,structured_incentive,random","3,4,2,3,2,1","true","","",""
"null","","html-keyboard-response","290","262778","0.0-290.0","","<img src=""img/set1/S3.jpg"" width=""540"" height = ""360"" style=""border:16px solid orange"">","null","","","","","","","","",""
"null","","html-keyboard-response","291","262994","0.0-291.0","","","null","","","","","","","","",""
"1041.5","","image-keyboard-response","292","264037","0.0-292.0","","img/set1/S4.jpg","68","4","structured_load","74","structured_load,structured_normal,structured_incentive,random","3,4,2,3,2,1","false","","",""
"null","","html-keyboard-response","293","264399","0.0-293.0","","<img src=""img/set1/S4.jpg"" width=""540"" height = ""360"">","null","","","","","","","","",""
"null","","html-keyboard-response","294","264615","0.0-294.0","","","null","","","","","","","","",""
"1469.800000011921","","image-keyboard-response","295","266087","0.0-295.0","","img/set1/S3.jpg","72","3","structured_load","72","structured_load,structured_normal,structured_incentive,random","3,4,2,3,2,1","true","","",""
"null","","html-keyboard-response","296","266446","0.0-296.0","","<img src=""img/set1/S3.jpg"" width=""540"" height = ""360"" style=""border:16px solid orange"">","null","","","","","","","","",""
"null","","html-keyboard-response","297","266652","0.0-297.0","","","null","","","","","","","","",""
"927.6000000238419","","image-keyboard-response","298","267581","0.0-298.0","","img/set1/S4.jpg","74","4","structured_load","74","structured_load,structured_normal,structured_incentive,random","3,4,2,3,2,1","true","","",""
"null","","html-keyboard-response","299","267945","0.0-299.0","","<img src=""img/set1/S4.jpg"" width=""540"" height = ""360"" style=""border:16px solid orange"">","null","","","","","","","","",""
"null","","html-keyboard-response","300","268147","0.0-300.0","","","null","","","","","","","","",""
"795.0999999642372","","image-keyboard-response","301","268944","0.0-301.0","","img/set1/S2.jpg","68","2","structured_load","68","structured_load,structured_normal,structured_incentive,random","3,4,2,3,2,1","true","","",""
"null","","html-keyboard-response","302","269310","0.0-302.0","","<img src=""img/set1/S2.jpg"" width=""540"" height = ""360"" style=""border:16px solid orange"">","null","","","","","","","","",""
"null","","html-keyboard-response","303","269518","0.0-303.0","","","null","","","","","","","","",""
"788.0999999642372","","image-keyboard-response","304","270307","0.0-304.0","","img/set1/S2.jpg","68","2","structured_load","68","structured_load,structured_normal,structured_incentive,random","3,4,2,3,2,1","true","","",""
"null","","html-keyboard-response","305","270659","0.0-305.0","","<img src=""img/set1/S2.jpg"" width=""540"" height = ""360"" style=""border:16px solid orange"">","null","","","","","","","","",""
"null","","html-keyboard-response","306","270862","0.0-306.0","","","null","","","","","","","","",""
"455.0999999642372","","image-keyboard-response","307","271319","0.0-307.0","","img/set1/S2.jpg","68","2","structured_load","68","structured_load,structured_normal,structured_incentive,random","3,4,2,3,2,1","true","","",""
"null","","html-keyboard-response","308","271671","0.0-308.0","","<img src=""img/set1/S2.jpg"" width=""540"" height = ""360"" style=""border:16px solid orange"">","null","","","","","","","","",""
"null","","html-keyboard-response","309","271873","0.0-309.0","","","null","","","","","","","","",""
"695.8000000119209","","image-keyboard-response","310","272570","0.0-310.0","","img/set1/S3.jpg","72","3","structured_load","72","structured_load,structured_normal,structured_incentive,random","3,4,2,3,2,1","true","","",""
"null","","html-keyboard-response","311","272931","0.0-311.0","","<img src=""img/set1/S3.jpg"" width=""540"" height = ""360"" style=""border:16px solid orange"">","null","","","","","","","","",""
"null","","html-keyboard-response","312","273135","0.0-312.0","","","null","","","","","","","","",""
"744.5999999642372","","image-keyboard-response","313","273880","0.0-313.0","","img/set1/S4.jpg","74","4","structured_load","74","structured_load,structured_normal,structured_incentive,random","3,4,2,3,2,1","true","","",""
"null","","html-keyboard-response","314","274240","0.0-314.0","","<img src=""img/set1/S4.jpg"" width=""540"" height = ""360"" style=""border:16px solid orange"">","null","","","","","","","","",""
"null","","html-keyboard-response","315","274442","0.0-315.0","","","null","","","","","","","","",""
"854","","image-keyboard-response","316","275297","0.0-316.0","","img/set1/S1.jpg","83","1","structured_load","83","structured_load,structured_normal,structured_incentive,random","3,4,2,3,2,1","true","","",""
"null","","html-keyboard-response","317","275656","0.0-317.0","","<img src=""img/set1/S1.jpg"" width=""540"" height = ""360"" style=""border:16px solid orange"">","null","","","","","","","","",""
"null","","html-keyboard-response","318","275862","0.0-318.0","","","null","","","","","","","","",""
"608.6999999880791","","image-keyboard-response","319","276472","0.0-319.0","","img/set1/S1.jpg","83","1","structured_load","83","structured_load,structured_normal,structured_incentive,random","3,4,2,3,2,1","true","","",""
"null","","html-keyboard-response","320","276826","0.0-320.0","","<img src=""img/set1/S1.jpg"" width=""540"" height = ""360"" style=""border:16px solid orange"">","null","","","","","","","","",""
"null","","html-keyboard-response","321","277031","0.0-321.0","","","null","","","","","","","","",""
"803.8000000119209","","image-keyboard-response","322","277837","0.0-322.0","","img/set1/S2.jpg","68","2","structured_load","68","structured_load,structured_normal,structured_incentive,random","3,4,2,3,2,1","true","","",""
"null","","html-keyboard-response","323","278200","0.0-323.0","","<img src=""img/set1/S2.jpg"" width=""540"" height = ""360"" style=""border:16px solid orange"">","null","","","","","","","","",""
"null","","html-keyboard-response","324","278408","0.0-324.0","","","null","","","","","","","","",""
"577.5999999642372","","image-keyboard-response","325","278987","0.0-325.0","","img/set1/S2.jpg","68","2","structured_load","68","structured_load,structured_normal,structured_incentive,random","3,4,2,3,2,1","true","","",""
"null","","html-keyboard-response","326","279348","0.0-326.0","","<img src=""img/set1/S2.jpg"" width=""540"" height = ""360"" style=""border:16px solid orange"">","null","","","","","","","","",""
"null","","html-keyboard-response","327","279550","0.0-327.0","","","null","","","","","","","","",""
"515.2000000476837","","image-keyboard-response","328","280066","0.0-328.0","","img/set1/S2.jpg","68","2","structured_load","68","structured_load,structured_normal,structured_incentive,random","3,4,2,3,2,1","true","","",""
"null","","html-keyboard-response","329","280422","0.0-329.0","","<img src=""img/set1/S2.jpg"" width=""540"" height = ""360"" style=""border:16px solid orange"">","null","","","","","","","","",""
"null","","html-keyboard-response","330","280624","0.0-330.0","","","null","","","","","","","","",""
"580.1000000238419","","image-keyboard-response","331","281206","0.0-331.0","","img/set1/S1.jpg","83","1","structured_load","83","structured_load,structured_normal,structured_incentive,random","3,4,2,3,2,1","true","","",""
"null","","html-keyboard-response","332","281571","0.0-332.0","","<img src=""img/set1/S1.jpg"" width=""540"" height = ""360"" style=""border:16px solid orange"">","null","","","","","","","","",""
"null","","html-keyboard-response","333","281774","0.0-333.0","","","null","","","","","","","","",""
"799.3000000119209","","image-keyboard-response","334","282574","0.0-334.0","","img/set1/S2.jpg","68","2","structured_load","68","structured_load,structured_normal,structured_incentive,random","3,4,2,3,2,1","true","","",""
"null","","html-keyboard-response","335","282928","0.0-335.0","","<img src=""img/set1/S2.jpg"" width=""540"" height = ""360"" style=""border:16px solid orange"">","null","","","","","","","","",""
"null","","html-keyboard-response","336","283131","0.0-336.0","","","null","","","","","","","","",""
"641.4000000357628","","image-keyboard-response","337","283774","0.0-337.0","","img/set1/S1.jpg","83","1","structured_load","83","structured_load,structured_normal,structured_incentive,random","3,4,2,3,2,1","true","","",""
"null","","html-keyboard-response","338","284140","0.0-338.0","","<img src=""img/set1/S1.jpg"" width=""540"" height = ""360"" style=""border:16px solid orange"">","null","","","","","","","","",""
"null","","html-keyboard-response","339","284348","0.0-339.0","","","null","","","","","","","","",""
"825.5","","image-keyboard-response","340","285174","0.0-340.0","","img/set1/S2.jpg","68","2","structured_load","68","structured_load,structured_normal,structured_incentive,random","3,4,2,3,2,1","true","","",""
"null","","html-keyboard-response","341","285537","0.0-341.0","","<img src=""img/set1/S2.jpg"" width=""540"" height = ""360"" style=""border:16px solid orange"">","null","","","","","","","","",""
"null","","html-keyboard-response","342","285753","0.0-342.0","","","null","","","","","","","","",""
"552.5","","image-keyboard-response","343","286307","0.0-343.0","","img/set1/S1.jpg","83","1","structured_load","83","structured_load,structured_normal,structured_incentive,random","3,4,2,3,2,1","true","","",""
"null","","html-keyboard-response","344","286666","0.0-344.0","","<img src=""img/set1/S1.jpg"" width=""540"" height = ""360"" style=""border:16px solid orange"">","null","","","","","","","","",""
"null","","html-keyboard-response","345","286871","0.0-345.0","","","null","","","","","","","","",""
"718.6000000238419","","image-keyboard-response","346","287591","0.0-346.0","","img/set1/S3.jpg","72","3","structured_load","72","structured_load,structured_normal,structured_incentive,random","3,4,2,3,2,1","true","","",""
"null","","html-keyboard-response","347","287948","0.0-347.0","","<img src=""img/set1/S3.jpg"" width=""540"" height = ""360"" style=""border:16px solid orange"">","null","","","","","","","","",""
"null","","html-keyboard-response","348","288151","0.0-348.0","","","null","","","","","","","","",""
"658.8000000119209","","image-keyboard-response","349","288811","0.0-349.0","","img/set1/S4.jpg","74","4","structured_load","74","structured_load,structured_normal,structured_incentive,random","3,4,2,3,2,1","true","","",""
"null","","html-keyboard-response","350","289164","0.0-350.0","","<img src=""img/set1/S4.jpg"" width=""540"" height = ""360"" style=""border:16px solid orange"">","null","","","","","","","","",""
"null","","html-keyboard-response","351","289367","0.0-351.0","","","null","","","","","","","","",""
"1059.8999999761581","","image-keyboard-response","352","290428","0.0-352.0","","img/set1/S2.jpg","83","2","structured_load","68","structured_load,structured_normal,structured_incentive,random","3,4,2,3,2,1","false","","",""
"null","","html-keyboard-response","353","290796","0.0-353.0","","<img src=""img/set1/S2.jpg"" width=""540"" height = ""360"">","null","","","","","","","","",""
"null","","html-keyboard-response","354","290998","0.0-354.0","","","null","","","","","","","","",""
"598.6999999880791","","image-keyboard-response","355","291598","0.0-355.0","","img/set1/S1.jpg","83","1","structured_load","83","structured_load,structured_normal,structured_incentive,random","3,4,2,3,2,1","true","","",""
"null","","html-keyboard-response","356","291965","0.0-356.0","","<img src=""img/set1/S1.jpg"" width=""540"" height = ""360"" style=""border:16px solid orange"">","null","","","","","","","","",""
"null","","html-keyboard-response","357","292167","0.0-357.0","","","null","","","","","","","","",""
"742.8000000119209","","image-keyboard-response","358","292911","0.0-358.0","","img/set1/S3.jpg","72","3","structured_load","72","structured_load,structured_normal,structured_incentive,random","3,4,2,3,2,1","true","","",""
"null","","html-keyboard-response","359","293273","0.0-359.0","","<img src=""img/set1/S3.jpg"" width=""540"" height = ""360"" style=""border:16px solid orange"">","null","","","","","","","","",""
"null","","html-keyboard-response","360","293480","0.0-360.0","","","null","","","","","","","","",""
"987.2000000476837","","image-keyboard-response","361","294469","0.0-361.0","","img/set1/S4.jpg","74","4","structured_load","74","structured_load,structured_normal,structured_incentive,random","3,4,2,3,2,1","true","","",""
"null","","html-keyboard-response","362","294824","0.0-362.0","","<img src=""img/set1/S4.jpg"" width=""540"" height = ""360"" style=""border:16px solid orange"">","null","","","","","","","","",""
"null","","html-keyboard-response","363","295027","0.0-363.0","","","null","","","","","","","","",""
"5171.300000011921","","survey-multi-choice","364","300206","0.0-364.0","","","","","","","","","","{""Q0"":""Picture A""}","[0]",""
"null","","html-keyboard-response","365","360229","0.0-365.0","","<p class=""center-content"">You have completed a block! </p><p class=""center-content"">Press any key on the keyboard to continue, </p><p class=""center-content"">or wait for the automatic progression to the next block after one minute.</p>","null","","","","","","","","",""
"42150.299999952316","","instructions","366","402380","0.0-366.0","[{""page_index"":0,""viewing_time"":42149.39999997616}]","","","","","","","","","","",""
"10764.800000011921","","instructions","367","413146","0.0-367.0","[{""page_index"":0,""viewing_time"":10764.400000035763}]","","","","","","","","","","",""
"2481","","image-keyboard-response","368","415629","0.0-368.0","","img/set2/S1.jpg","74","1","structured_normal","83","structured_load,structured_normal,structured_incentive,random","3,4,2,3,2,1","false","","",""
"null","","html-keyboard-response","369","415996","0.0-369.0","","<img src=""img/set2/S1.jpg"" width=""540"" height = ""360"">","null","","","","","","","","",""
"null","","html-keyboard-response","370","416201","0.0-370.0","","","null","","","","","","","","",""
"644.6999999880791","","image-keyboard-response","371","416847","0.0-371.0","","img/set2/S1.jpg","74","1","structured_normal","83","structured_load,structured_normal,structured_incentive,random","3,4,2,3,2,1","false","","",""
"null","","html-keyboard-response","372","417202","0.0-372.0","","<img src=""img/set2/S1.jpg"" width=""540"" height = ""360"">","null","","","","","","","","",""
"null","","html-keyboard-response","373","417406","0.0-373.0","","","null","","","","","","","","",""
"null","","image-keyboard-response","374","419917","0.0-374.0","","img/set2/S1.jpg","null","1","structured_normal","83","structured_load,structured_normal,structured_incentive,random","3,4,2,3,2,1","false","","",""
"null","","html-keyboard-response","375","420279","0.0-375.0","","<img src=""img/set2/S1.jpg"" width=""540"" height = ""360"">","null","","","","","","","","",""
"null","","html-keyboard-response","376","420483","0.0-376.0","","","null","","","","","","","","",""
"1464.5","","image-keyboard-response","377","421949","0.0-377.0","","img/set2/S4.jpg","74","4","structured_normal","74","structured_load,structured_normal,structured_incentive,random","3,4,2,3,2,1","true","","",""
"null","","html-keyboard-response","378","422308","0.0-378.0","","<img src=""img/set2/S4.jpg"" width=""540"" height = ""360"" style=""border:16px solid orange"">","null","","","","","","","","",""
"null","","html-keyboard-response","379","422511","0.0-379.0","","","null","","","","","","","","",""
"596.1999999880791","","image-keyboard-response","380","423108","0.0-380.0","","img/set2/S1.jpg","83","1","structured_normal","83","structured_load,structured_normal,structured_incentive,random","3,4,2,3,2,1","true","","",""
"null","","html-keyboard-response","381","423462","0.0-381.0","","<img src=""img/set2/S1.jpg"" width=""540"" height = ""360"" style=""border:16px solid orange"">","null","","","","","","","","",""
"null","","html-keyboard-response","382","423664","0.0-382.0","","","null","","","","","","","","",""
"490.10000002384186","","image-keyboard-response","383","424155","0.0-383.0","","img/set2/S4.jpg","74","4","structured_normal","74","structured_load,structured_normal,structured_incentive,random","3,4,2,3,2,1","true","","",""
"null","","html-keyboard-response","384","424515","0.0-384.0","","<img src=""img/set2/S4.jpg"" width=""540"" height = ""360"" style=""border:16px solid orange"">","null","","","","","","","","",""
"null","","html-keyboard-response","385","424721","0.0-385.0","","","null","","","","","","","","",""
"385.5","","image-keyboard-response","386","425108","0.0-386.0","","img/set2/S1.jpg","83","1","structured_normal","83","structured_load,structured_normal,structured_incentive,random","3,4,2,3,2,1","true","","",""
"null","","html-keyboard-response","387","425470","0.0-387.0","","<img src=""img/set2/S1.jpg"" width=""540"" height = ""360"" style=""border:16px solid orange"">","null","","","","","","","","",""
"null","","html-keyboard-response","388","425685","0.0-388.0","","","null","","","","","","","","",""
"503.5","","image-keyboard-response","389","426190","0.0-389.0","","img/set2/S1.jpg","83","1","structured_normal","83","structured_load,structured_normal,structured_incentive,random","3,4,2,3,2,1","true","","",""
"null","","html-keyboard-response","390","426543","0.0-390.0","","<img src=""img/set2/S1.jpg"" width=""540"" height = ""360"" style=""border:16px solid orange"">","null","","","","","","","","",""
"null","","html-keyboard-response","391","426746","0.0-391.0","","","null","","","","","","","","",""
"470.69999998807907","","image-keyboard-response","392","427219","0.0-392.0","","img/set2/S1.jpg","83","1","structured_normal","83","structured_load,structured_normal,structured_incentive,random","3,4,2,3,2,1","true","","",""
"null","","html-keyboard-response","393","427583","0.0-393.0","","<img src=""img/set2/S1.jpg"" width=""540"" height = ""360"" style=""border:16px solid orange"">","null","","","","","","","","",""
"null","","html-keyboard-response","394","427787","0.0-394.0","","","null","","","","","","","","",""
"475.80000001192093","","image-keyboard-response","395","428264","0.0-395.0","","img/set2/S4.jpg","74","4","structured_normal","74","structured_load,structured_normal,structured_incentive,random","3,4,2,3,2,1","true","","",""
"null","","html-keyboard-response","396","428630","0.0-396.0","","<img src=""img/set2/S4.jpg"" width=""540"" height = ""360"" style=""border:16px solid orange"">","null","","","","","","","","",""
"null","","html-keyboard-response","397","428834","0.0-397.0","","","null","","","","","","","","",""
"2140.900000035763","","image-keyboard-response","398","430976","0.0-398.0","","img/set2/S2.jpg","83","2","structured_normal","68","structured_load,structured_normal,structured_incentive,random","3,4,2,3,2,1","false","","",""
"null","","html-keyboard-response","399","431341","0.0-399.0","","<img src=""img/set2/S2.jpg"" width=""540"" height = ""360"">","null","","","","","","","","",""
"null","","html-keyboard-response","400","431544","0.0-400.0","","","null","","","","","","","","",""
"1878.5","","image-keyboard-response","401","433424","0.0-401.0","","img/set2/S3.jpg","74","3","structured_normal","72","structured_load,structured_normal,structured_incentive,random","3,4,2,3,2,1","false","","",""
"null","","html-keyboard-response","402","433782","0.0-402.0","","<img src=""img/set2/S3.jpg"" width=""540"" height = ""360"">","null","","","","","","","","",""
"null","","html-keyboard-response","403","433986","0.0-403.0","","","null","","","","","","","","",""
"706.1999999880791","","image-keyboard-response","404","434693","0.0-404.0","","img/set2/S1.jpg","83","1","structured_normal","83","structured_load,structured_normal,structured_incentive,random","3,4,2,3,2,1","true","","",""
"null","","html-keyboard-response","405","435049","0.0-405.0","","<img src=""img/set2/S1.jpg"" width=""540"" height = ""360"" style=""border:16px solid orange"">","null","","","","","","","","",""
"null","","html-keyboard-response","406","435253","0.0-406.0","","","null","","","","","","","","",""
"679.1999999880791","","image-keyboard-response","407","435934","0.0-407.0","","img/set2/S2.jpg","74","2","structured_normal","68","structured_load,structured_normal,structured_incentive,random","3,4,2,3,2,1","false","","",""
"null","","html-keyboard-response","408","436287","0.0-408.0","","<img src=""img/set2/S2.jpg"" width=""540"" height = ""360"">","null","","","","","","","","",""
"null","","html-keyboard-response","409","436495","0.0-409.0","","","null","","","","","","","","",""
"2103.599999964237","","image-keyboard-response","410","438599","0.0-410.0","","img/set2/S3.jpg","74","3","structured_normal","72","structured_load,structured_normal,structured_incentive,random","3,4,2,3,2,1","false","","",""
"null","","html-keyboard-response","411","438953","0.0-411.0","","<img src=""img/set2/S3.jpg"" width=""540"" height = ""360"">","null","","","","","","","","",""
"null","","html-keyboard-response","412","439158","0.0-412.0","","","null","","","","","","","","",""
"716.3999999761581","","image-keyboard-response","413","439876","0.0-413.0","","img/set2/S2.jpg","83","2","structured_normal","68","structured_load,structured_normal,structured_incentive,random","3,4,2,3,2,1","false","","",""
"null","","html-keyboard-response","414","440232","0.0-414.0","","<img src=""img/set2/S2.jpg"" width=""540"" height = ""360"">","null","","","","","","","","",""
"null","","html-keyboard-response","415","440433","0.0-415.0","","","null","","","","","","","","",""
"882.5999999642372","","image-keyboard-response","416","441317","0.0-416.0","","img/set2/S3.jpg","74","3","structured_normal","72","structured_load,structured_normal,structured_incentive,random","3,4,2,3,2,1","false","","",""
"null","","html-keyboard-response","417","441683","0.0-417.0","","<img src=""img/set2/S3.jpg"" width=""540"" height = ""360"">","null","","","","","","","","",""
"null","","html-keyboard-response","418","441885","0.0-418.0","","","null","","","","","","","","",""
"1927.199999988079","","image-keyboard-response","419","443814","0.0-419.0","","img/set2/S2.jpg","83","2","structured_normal","68","structured_load,structured_normal,structured_incentive,random","3,4,2,3,2,1","false","","",""
"null","","html-keyboard-response","420","444178","0.0-420.0","","<img src=""img/set2/S2.jpg"" width=""540"" height = ""360"">","null","","","","","","","","",""
"null","","html-keyboard-response","421","444382","0.0-421.0","","","null","","","","","","","","",""
"541.4000000357628","","image-keyboard-response","422","444924","0.0-422.0","","img/set2/S3.jpg","74","3","structured_normal","72","structured_load,structured_normal,structured_incentive,random","3,4,2,3,2,1","false","","",""
"null","","html-keyboard-response","423","445288","0.0-423.0","","<img src=""img/set2/S3.jpg"" width=""540"" height = ""360"">","null","","","","","","","","",""
"null","","html-keyboard-response","424","445494","0.0-424.0","","","null","","","","","","","","",""
"858.5","","image-keyboard-response","425","446354","0.0-425.0","","img/set2/S4.jpg","83","4","structured_normal","74","structured_load,structured_normal,structured_incentive,random","3,4,2,3,2,1","false","","",""
"null","","html-keyboard-response","426","446706","0.0-426.0","","<img src=""img/set2/S4.jpg"" width=""540"" height = ""360"">","null","","","","","","","","",""
"null","","html-keyboard-response","427","446908","0.0-427.0","","","null","","","","","","","","",""
"736.7000000476837","","image-keyboard-response","428","447646","0.0-428.0","","img/set2/S1.jpg","83","1","structured_normal","83","structured_load,structured_normal,structured_incentive,random","3,4,2,3,2,1","true","","",""
"null","","html-keyboard-response","429","448002","0.0-429.0","","<img src=""img/set2/S1.jpg"" width=""540"" height = ""360"" style=""border:16px solid orange"">","null","","","","","","","","",""
"null","","html-keyboard-response","430","448209","0.0-430.0","","","null","","","","","","","","",""
"null","","image-keyboard-response","431","450725","0.0-431.0","","img/set2/S2.jpg","null","2","structured_normal","68","structured_load,structured_normal,structured_incentive,random","3,4,2,3,2,1","false","","",""
"null","","html-keyboard-response","432","451081","0.0-432.0","","<img src=""img/set2/S2.jpg"" width=""540"" height = ""360"">","null","","","","","","","","",""
"null","","html-keyboard-response","433","451286","0.0-433.0","","","null","","","","","","","","",""
"null","","image-keyboard-response","434","453793","0.0-434.0","","img/set2/S3.jpg","null","3","structured_normal","72","structured_load,structured_normal,structured_incentive,random","3,4,2,3,2,1","false","","",""
"null","","html-keyboard-response","435","454155","0.0-435.0","","<img src=""img/set2/S3.jpg"" width=""540"" height = ""360"">","null","","","","","","","","",""
"null","","html-keyboard-response","436","454363","0.0-436.0","","","null","","","","","","","","",""
"522.5","","image-keyboard-response","437","454886","0.0-437.0","","img/set2/S2.jpg","74","2","structured_normal","68","structured_load,structured_normal,structured_incentive,random","3,4,2,3,2,1","false","","",""
"null","","html-keyboard-response","438","455245","0.0-438.0","","<img src=""img/set2/S2.jpg"" width=""540"" height = ""360"">","null","","","","","","","","",""
"null","","html-keyboard-response","439","455448","0.0-439.0","","","null","","","","","","","","",""
"511","","image-keyboard-response","440","455960","0.0-440.0","","img/set2/S3.jpg","83","3","structured_normal","72","structured_load,structured_normal,structured_incentive,random","3,4,2,3,2,1","false","","",""
"null","","html-keyboard-response","441","456311","0.0-441.0","","<img src=""img/set2/S3.jpg"" width=""540"" height = ""360"">","null","","","","","","","","",""
"null","","html-keyboard-response","442","456515","0.0-442.0","","","null","","","","","","","","",""
"null","","image-keyboard-response","443","459024","0.0-443.0","","img/set2/S2.jpg","null","2","structured_normal","68","structured_load,structured_normal,structured_incentive,random","3,4,2,3,2,1","false","","",""
"null","","html-keyboard-response","444","459380","0.0-444.0","","<img src=""img/set2/S2.jpg"" width=""540"" height = ""360"">","null","","","","","","","","",""
"null","","html-keyboard-response","445","459596","0.0-445.0","","","null","","","","","","","","",""
"null","","image-keyboard-response","446","462101","0.0-446.0","","img/set2/S3.jpg","null","3","structured_normal","72","structured_load,structured_normal,structured_incentive,random","3,4,2,3,2,1","false","","",""
"null","","html-keyboard-response","447","462460","0.0-447.0","","<img src=""img/set2/S3.jpg"" width=""540"" height = ""360"">","null","","","","","","","","",""
"null","","html-keyboard-response","448","462661","0.0-448.0","","","null","","","","","","","","",""
"706.3000000119209","","image-keyboard-response","449","463369","0.0-449.0","","img/set2/S4.jpg","83","4","structured_normal","74","structured_load,structured_normal,structured_incentive,random","3,4,2,3,2,1","false","","",""
"null","","html-keyboard-response","450","463735","0.0-450.0","","<img src=""img/set2/S4.jpg"" width=""540"" height = ""360"">","null","","","","","","","","",""
"null","","html-keyboard-response","451","463950","0.0-451.0","","","null","","","","","","","","",""
"523.8999999761581","","image-keyboard-response","452","464475","0.0-452.0","","img/set2/S1.jpg","83","1","structured_normal","83","structured_load,structured_normal,structured_incentive,random","3,4,2,3,2,1","true","","",""
"null","","html-keyboard-response","453","464841","0.0-453.0","","<img src=""img/set2/S1.jpg"" width=""540"" height = ""360"" style=""border:16px solid orange"">","null","","","","","","","","",""
"null","","html-keyboard-response","454","465046","0.0-454.0","","","null","","","","","","","","",""
"1387.699999988079","","image-keyboard-response","455","466434","0.0-455.0","","img/set2/S2.jpg","74","2","structured_normal","68","structured_load,structured_normal,structured_incentive,random","3,4,2,3,2,1","false","","",""
"null","","html-keyboard-response","456","466797","0.0-456.0","","<img src=""img/set2/S2.jpg"" width=""540"" height = ""360"">","null","","","","","","","","",""
"null","","html-keyboard-response","457","467000","0.0-457.0","","","null","","","","","","","","",""
"1203.300000011921","","image-keyboard-response","458","468205","0.0-458.0","","img/set2/S3.jpg","83","3","structured_normal","72","structured_load,structured_normal,structured_incentive,random","3,4,2,3,2,1","false","","",""
"null","","html-keyboard-response","459","468561","0.0-459.0","","<img src=""img/set2/S3.jpg"" width=""540"" height = ""360"">","null","","","","","","","","",""
"null","","html-keyboard-response","460","468765","0.0-460.0","","","null","","","","","","","","",""
"830.5","","image-keyboard-response","461","469597","0.0-461.0","","img/set2/S4.jpg","83","4","structured_normal","74","structured_load,structured_normal,structured_incentive,random","3,4,2,3,2,1","false","","",""
"null","","html-keyboard-response","462","469948","0.0-462.0","","<img src=""img/set2/S4.jpg"" width=""540"" height = ""360"">","null","","","","","","","","",""
"null","","html-keyboard-response","463","470152","0.0-463.0","","","null","","","","","","","","",""
"441.0999999642372","","image-keyboard-response","464","470595","0.0-464.0","","img/set2/S4.jpg","74","4","structured_normal","74","structured_load,structured_normal,structured_incentive,random","3,4,2,3,2,1","true","","",""
"null","","html-keyboard-response","465","470948","0.0-465.0","","<img src=""img/set2/S4.jpg"" width=""540"" height = ""360"" style=""border:16px solid orange"">","null","","","","","","","","",""
"null","","html-keyboard-response","466","471151","0.0-466.0","","","null","","","","","","","","",""
"649.8999999761581","","image-keyboard-response","467","471802","0.0-467.0","","img/set2/S1.jpg","83","1","structured_normal","83","structured_load,structured_normal,structured_incentive,random","3,4,2,3,2,1","true","","",""
"null","","html-keyboard-response","468","472169","0.0-468.0","","<img src=""img/set2/S1.jpg"" width=""540"" height = ""360"" style=""border:16px solid orange"">","null","","","","","","","","",""
"null","","html-keyboard-response","469","472377","0.0-469.0","","","null","","","","","","","","",""
"526.8000000119209","","image-keyboard-response","470","472905","0.0-470.0","","img/set2/S1.jpg","83","1","structured_normal","83","structured_load,structured_normal,structured_incentive,random","3,4,2,3,2,1","true","","",""
"null","","html-keyboard-response","471","473271","0.0-471.0","","<img src=""img/set2/S1.jpg"" width=""540"" height = ""360"" style=""border:16px solid orange"">","null","","","","","","","","",""
"null","","html-keyboard-response","472","473473","0.0-472.0","","","null","","","","","","","","",""
"1182.2000000476837","","image-keyboard-response","473","474656","0.0-473.0","","img/set2/S2.jpg","74","2","structured_normal","68","structured_load,structured_normal,structured_incentive,random","3,4,2,3,2,1","false","","",""
"null","","html-keyboard-response","474","475018","0.0-474.0","","<img src=""img/set2/S2.jpg"" width=""540"" height = ""360"">","null","","","","","","","","",""
"null","","html-keyboard-response","475","475226","0.0-475.0","","","null","","","","","","","","",""
"null","","image-keyboard-response","476","477731","0.0-476.0","","img/set2/S3.jpg","null","3","structured_normal","72","structured_load,structured_normal,structured_incentive,random","3,4,2,3,2,1","false","","",""
"null","","html-keyboard-response","477","478094","0.0-477.0","","<img src=""img/set2/S3.jpg"" width=""540"" height = ""360"">","null","","","","","","","","",""
"null","","html-keyboard-response","478","478301","0.0-478.0","","","null","","","","","","","","",""
"747.1999999880791","","image-keyboard-response","479","479049","0.0-479.0","","img/set2/S4.jpg","74","4","structured_normal","74","structured_load,structured_normal,structured_incentive,random","3,4,2,3,2,1","true","","",""
"null","","html-keyboard-response","480","479403","0.0-480.0","","<img src=""img/set2/S4.jpg"" width=""540"" height = ""360"" style=""border:16px solid orange"">","null","","","","","","","","",""
"null","","html-keyboard-response","481","479606","0.0-481.0","","","null","","","","","","","","",""
"521.5","","image-keyboard-response","482","480129","0.0-482.0","","img/set2/S4.jpg","74","4","structured_normal","74","structured_load,structured_normal,structured_incentive,random","3,4,2,3,2,1","true","","",""
"null","","html-keyboard-response","483","480484","0.0-483.0","","<img src=""img/set2/S4.jpg"" width=""540"" height = ""360"" style=""border:16px solid orange"">","null","","","","","","","","",""
"null","","html-keyboard-response","484","480701","0.0-484.0","","","null","","","","","","","","",""
"364.39999997615814","","image-keyboard-response","485","481066","0.0-485.0","","img/set2/S4.jpg","74","4","structured_normal","74","structured_load,structured_normal,structured_incentive,random","3,4,2,3,2,1","true","","",""
"null","","html-keyboard-response","486","481431","0.0-486.0","","<img src=""img/set2/S4.jpg"" width=""540"" height = ""360"" style=""border:16px solid orange"">","null","","","","","","","","",""
"null","","html-keyboard-response","487","481636","0.0-487.0","","","null","","","","","","","","",""
"2187.400000035763","","image-keyboard-response","488","483825","0.0-488.0","","img/set2/S2.jpg","83","2","structured_normal","68","structured_load,structured_normal,structured_incentive,random","3,4,2,3,2,1","false","","",""
"null","","html-keyboard-response","489","484188","0.0-489.0","","<img src=""img/set2/S2.jpg"" width=""540"" height = ""360"">","null","","","","","","","","",""
"null","","html-keyboard-response","490","484396","0.0-490.0","","","null","","","","","","","","",""
"756.8000000119209","","image-keyboard-response","491","485154","0.0-491.0","","img/set2/S3.jpg","83","3","structured_normal","72","structured_load,structured_normal,structured_incentive,random","3,4,2,3,2,1","false","","",""
"null","","html-keyboard-response","492","485506","0.0-492.0","","<img src=""img/set2/S3.jpg"" width=""540"" height = ""360"">","null","","","","","","","","",""
"null","","html-keyboard-response","493","485709","0.0-493.0","","","null","","","","","","","","",""
"680.1999999880791","","image-keyboard-response","494","486390","0.0-494.0","","img/set2/S1.jpg","83","1","structured_normal","83","structured_load,structured_normal,structured_incentive,random","3,4,2,3,2,1","true","","",""
"null","","html-keyboard-response","495","486742","0.0-495.0","","<img src=""img/set2/S1.jpg"" width=""540"" height = ""360"" style=""border:16px solid orange"">","null","","","","","","","","",""
"null","","html-keyboard-response","496","486946","0.0-496.0","","","null","","","","","","","","",""
"2134.699999988079","","image-keyboard-response","497","489082","0.0-497.0","","img/set2/S2.jpg","83","2","structured_normal","68","structured_load,structured_normal,structured_incentive,random","3,4,2,3,2,1","false","","",""
"null","","html-keyboard-response","498","489443","0.0-498.0","","<img src=""img/set2/S2.jpg"" width=""540"" height = ""360"">","null","","","","","","","","",""
"null","","html-keyboard-response","499","489646","0.0-499.0","","","null","","","","","","","","",""
"455","","image-keyboard-response","500","490102","0.0-500.0","","img/set2/S3.jpg","83","3","structured_normal","72","structured_load,structured_normal,structured_incentive,random","3,4,2,3,2,1","false","","",""
"null","","html-keyboard-response","501","490466","0.0-501.0","","<img src=""img/set2/S3.jpg"" width=""540"" height = ""360"">","null","","","","","","","","",""
"null","","html-keyboard-response","502","490672","0.0-502.0","","","null","","","","","","","","",""
"818","","image-keyboard-response","503","491491","0.0-503.0","","img/set2/S2.jpg","74","2","structured_normal","68","structured_load,structured_normal,structured_incentive,random","3,4,2,3,2,1","false","","",""
"null","","html-keyboard-response","504","491845","0.0-504.0","","<img src=""img/set2/S2.jpg"" width=""540"" height = ""360"">","null","","","","","","","","",""
"null","","html-keyboard-response","505","492048","0.0-505.0","","","null","","","","","","","","",""
"728.8999999761581","","image-keyboard-response","506","492778","0.0-506.0","","img/set2/S3.jpg","83","3","structured_normal","72","structured_load,structured_normal,structured_incentive,random","3,4,2,3,2,1","false","","",""
"null","","html-keyboard-response","507","493145","0.0-507.0","","<img src=""img/set2/S3.jpg"" width=""540"" height = ""360"">","null","","","","","","","","",""
"null","","html-keyboard-response","508","493352","0.0-508.0","","","null","","","","","","","","",""
"692.6999999880791","","image-keyboard-response","509","494046","0.0-509.0","","img/set2/S4.jpg","74","4","structured_normal","74","structured_load,structured_normal,structured_incentive,random","3,4,2,3,2,1","true","","",""
"null","","html-keyboard-response","510","494403","0.0-510.0","","<img src=""img/set2/S4.jpg"" width=""540"" height = ""360"" style=""border:16px solid orange"">","null","","","","","","","","",""
"null","","html-keyboard-response","511","494606","0.0-511.0","","","null","","","","","","","","",""
"786.3000000119209","","image-keyboard-response","512","495394","0.0-512.0","","img/set2/S1.jpg","83","1","structured_normal","83","structured_load,structured_normal,structured_incentive,random","3,4,2,3,2,1","true","","",""
"null","","html-keyboard-response","513","495747","0.0-513.0","","<img src=""img/set2/S1.jpg"" width=""540"" height = ""360"" style=""border:16px solid orange"">","null","","","","","","","","",""
"null","","html-keyboard-response","514","495952","0.0-514.0","","","null","","","","","","","","",""
"447.10000002384186","","image-keyboard-response","515","496401","0.0-515.0","","img/set2/S4.jpg","83","4","structured_normal","74","structured_load,structured_normal,structured_incentive,random","3,4,2,3,2,1","false","","",""
"null","","html-keyboard-response","516","496758","0.0-516.0","","<img src=""img/set2/S4.jpg"" width=""540"" height = ""360"">","null","","","","","","","","",""
"null","","html-keyboard-response","517","496962","0.0-517.0","","","null","","","","","","","","",""
"786","","image-keyboard-response","518","497749","0.0-518.0","","img/set2/S2.jpg","83","2","structured_normal","68","structured_load,structured_normal,structured_incentive,random","3,4,2,3,2,1","false","","",""
"null","","html-keyboard-response","519","498106","0.0-519.0","","<img src=""img/set2/S2.jpg"" width=""540"" height = ""360"">","null","","","","","","","","",""
"null","","html-keyboard-response","520","498310","0.0-520.0","","","null","","","","","","","","",""
"490.5999999642372","","image-keyboard-response","521","498801","0.0-521.0","","img/set2/S3.jpg","83","3","structured_normal","72","structured_load,structured_normal,structured_incentive,random","3,4,2,3,2,1","false","","",""
"null","","html-keyboard-response","522","499155","0.0-522.0","","<img src=""img/set2/S3.jpg"" width=""540"" height = ""360"">","null","","","","","","","","",""
"null","","html-keyboard-response","523","499363","0.0-523.0","","","null","","","","","","","","",""
"1159.1000000238419","","image-keyboard-response","524","500523","0.0-524.0","","img/set2/S1.jpg","83","1","structured_normal","83","structured_load,structured_normal,structured_incentive,random","3,4,2,3,2,1","true","","",""
"null","","html-keyboard-response","525","500888","0.0-525.0","","<img src=""img/set2/S1.jpg"" width=""540"" height = ""360"" style=""border:16px solid orange"">","null","","","","","","","","",""
"null","","html-keyboard-response","526","501090","0.0-526.0","","","null","","","","","","","","",""
"2453.600000023842","","image-keyboard-response","527","503545","0.0-527.0","","img/set2/S2.jpg","74","2","structured_normal","68","structured_load,structured_normal,structured_incentive,random","3,4,2,3,2,1","false","","",""
"null","","html-keyboard-response","528","503897","0.0-528.0","","<img src=""img/set2/S2.jpg"" width=""540"" height = ""360"">","null","","","","","","","","",""
"null","","html-keyboard-response","529","504100","0.0-529.0","","","null","","","","","","","","",""
"1183.199999988079","","image-keyboard-response","530","505284","0.0-530.0","","img/set2/S3.jpg","74","3","structured_normal","72","structured_load,structured_normal,structured_incentive,random","3,4,2,3,2,1","false","","",""
"null","","html-keyboard-response","531","505639","0.0-531.0","","<img src=""img/set2/S3.jpg"" width=""540"" height = ""360"">","null","","","","","","","","",""
"null","","html-keyboard-response","532","505844","0.0-532.0","","","null","","","","","","","","",""
"703.3999999761581","","image-keyboard-response","533","506548","0.0-533.0","","img/set2/S4.jpg","74","4","structured_normal","74","structured_load,structured_normal,structured_incentive,random","3,4,2,3,2,1","true","","",""
"null","","html-keyboard-response","534","506903","0.0-534.0","","<img src=""img/set2/S4.jpg"" width=""540"" height = ""360"" style=""border:16px solid orange"">","null","","","","","","","","",""
"null","","html-keyboard-response","535","507109","0.0-535.0","","","null","","","","","","","","",""
"431","","image-keyboard-response","536","507542","0.0-536.0","","img/set2/S4.jpg","74","4","structured_normal","74","structured_load,structured_normal,structured_incentive,random","3,4,2,3,2,1","true","","",""
"null","","html-keyboard-response","537","507905","0.0-537.0","","<img src=""img/set2/S4.jpg"" width=""540"" height = ""360"" style=""border:16px solid orange"">","null","","","","","","","","",""
"null","","html-keyboard-response","538","508110","0.0-538.0","","","null","","","","","","","","",""
"351.39999997615814","","image-keyboard-response","539","508462","0.0-539.0","","img/set2/S4.jpg","74","4","structured_normal","74","structured_load,structured_normal,structured_incentive,random","3,4,2,3,2,1","true","","",""
"null","","html-keyboard-response","540","508823","0.0-540.0","","<img src=""img/set2/S4.jpg"" width=""540"" height = ""360"" style=""border:16px solid orange"">","null","","","","","","","","",""
"null","","html-keyboard-response","541","509028","0.0-541.0","","","null","","","","","","","","",""
"1557.8999999761581","","image-keyboard-response","542","510588","0.0-542.0","","img/set2/S2.jpg","83","2","structured_normal","68","structured_load,structured_normal,structured_incentive,random","3,4,2,3,2,1","false","","",""
"null","","html-keyboard-response","543","510951","0.0-543.0","","<img src=""img/set2/S2.jpg"" width=""540"" height = ""360"">","null","","","","","","","","",""
"null","","html-keyboard-response","544","511157","0.0-544.0","","","null","","","","","","","","",""
"null","","image-keyboard-response","545","513668","0.0-545.0","","img/set2/S3.jpg","null","3","structured_normal","72","structured_load,structured_normal,structured_incentive,random","3,4,2,3,2,1","false","","",""
"null","","html-keyboard-response","546","514030","0.0-546.0","","<img src=""img/set2/S3.jpg"" width=""540"" height = ""360"">","null","","","","","","","","",""
"null","","html-keyboard-response","547","514237","0.0-547.0","","","null","","","","","","","","",""
"650.3999999761581","","image-keyboard-response","548","514888","0.0-548.0","","img/set2/S1.jpg","83","1","structured_normal","83","structured_load,structured_normal,structured_incentive,random","3,4,2,3,2,1","true","","",""
"null","","html-keyboard-response","549","515245","0.0-549.0","","<img src=""img/set2/S1.jpg"" width=""540"" height = ""360"" style=""border:16px solid orange"">","null","","","","","","","","",""
"null","","html-keyboard-response","550","515447","0.0-550.0","","","null","","","","","","","","",""
"1080.3999999761581","","image-keyboard-response","551","516529","0.0-551.0","","img/set2/S2.jpg","83","2","structured_normal","68","structured_load,structured_normal,structured_incentive,random","3,4,2,3,2,1","false","","",""
"null","","html-keyboard-response","552","516884","0.0-552.0","","<img src=""img/set2/S2.jpg"" width=""540"" height = ""360"">","null","","","","","","","","",""
"null","","html-keyboard-response","553","517088","0.0-553.0","","","null","","","","","","","","",""
"904.3999999761581","","image-keyboard-response","554","517994","0.0-554.0","","img/set2/S3.jpg","83","3","structured_normal","72","structured_load,structured_normal,structured_incentive,random","3,4,2,3,2,1","false","","",""
"null","","html-keyboard-response","555","518358","0.0-555.0","","<img src=""img/set2/S3.jpg"" width=""540"" height = ""360"">","null","","","","","","","","",""
"null","","html-keyboard-response","556","518563","0.0-556.0","","","null","","","","","","","","",""
"612.6999999880791","","image-keyboard-response","557","519177","0.0-557.0","","img/set2/S4.jpg","74","4","structured_normal","74","structured_load,structured_normal,structured_incentive,random","3,4,2,3,2,1","true","","",""
"null","","html-keyboard-response","558","519529","0.0-558.0","","<img src=""img/set2/S4.jpg"" width=""540"" height = ""360"" style=""border:16px solid orange"">","null","","","","","","","","",""
"null","","html-keyboard-response","559","519733","0.0-559.0","","","null","","","","","","","","",""
"791.9000000357628","","image-keyboard-response","560","520526","0.0-560.0","","img/set2/S1.jpg","83","1","structured_normal","83","structured_load,structured_normal,structured_incentive,random","3,4,2,3,2,1","true","","",""
"null","","html-keyboard-response","561","520886","0.0-561.0","","<img src=""img/set2/S1.jpg"" width=""540"" height = ""360"" style=""border:16px solid orange"">","null","","","","","","","","",""
"null","","html-keyboard-response","562","521090","0.0-562.0","","","null","","","","","","","","",""
"507.7999999523163","","image-keyboard-response","563","521599","0.0-563.0","","img/set2/S2.jpg","74","2","structured_normal","68","structured_load,structured_normal,structured_incentive,random","3,4,2,3,2,1","false","","",""
"null","","html-keyboard-response","564","521961","0.0-564.0","","<img src=""img/set2/S2.jpg"" width=""540"" height = ""360"">","null","","","","","","","","",""
"null","","html-keyboard-response","565","522163","0.0-565.0","","","null","","","","","","","","",""
"1099.5","","image-keyboard-response","566","523264","0.0-566.0","","img/set2/S3.jpg","74","3","structured_normal","72","structured_load,structured_normal,structured_incentive,random","3,4,2,3,2,1","false","","",""
"null","","html-keyboard-response","567","523624","0.0-567.0","","<img src=""img/set2/S3.jpg"" width=""540"" height = ""360"">","null","","","","","","","","",""
"null","","html-keyboard-response","568","523829","0.0-568.0","","","null","","","","","","","","",""
"null","","image-keyboard-response","569","526331","0.0-569.0","","img/set2/S2.jpg","null","2","structured_normal","68","structured_load,structured_normal,structured_incentive,random","3,4,2,3,2,1","false","","",""
"null","","html-keyboard-response","570","526696","0.0-570.0","","<img src=""img/set2/S2.jpg"" width=""540"" height = ""360"">","null","","","","","","","","",""
"null","","html-keyboard-response","571","526900","0.0-571.0","","","null","","","","","","","","",""
"null","","image-keyboard-response","572","529410","0.0-572.0","","img/set2/S3.jpg","null","3","structured_normal","72","structured_load,structured_normal,structured_incentive,random","3,4,2,3,2,1","false","","",""
"null","","html-keyboard-response","573","529773","0.0-573.0","","<img src=""img/set2/S3.jpg"" width=""540"" height = ""360"">","null","","","","","","","","",""
"null","","html-keyboard-response","574","529975","0.0-574.0","","","null","","","","","","","","",""
"723.8999999761581","","image-keyboard-response","575","530701","0.0-575.0","","img/set2/S4.jpg","74","4","structured_normal","74","structured_load,structured_normal,structured_incentive,random","3,4,2,3,2,1","true","","",""
"null","","html-keyboard-response","576","531068","0.0-576.0","","<img src=""img/set2/S4.jpg"" width=""540"" height = ""360"" style=""border:16px solid orange"">","null","","","","","","","","",""
"null","","html-keyboard-response","577","531271","0.0-577.0","","","null","","","","","","","","",""
"666.3000000119209","","image-keyboard-response","578","531939","0.0-578.0","","img/set2/S1.jpg","83","1","structured_normal","83","structured_load,structured_normal,structured_incentive,random","3,4,2,3,2,1","true","","",""
"null","","html-keyboard-response","579","532295","0.0-579.0","","<img src=""img/set2/S1.jpg"" width=""540"" height = ""360"" style=""border:16px solid orange"">","null","","","","","","","","",""
"null","","html-keyboard-response","580","532502","0.0-580.0","","","null","","","","","","","","",""
