"rt","url","trial_type","trial_index","time_elapsed","internal_node_id","view_history","stimulus","key_press","state","test_part","correct_response","order_block","order_chunk","correct","responses","question_order","bonus"
"5395.299999713898","consent.html","external-html","0","5454","0.0-0.0","","","","","","","","","","","",""
"37410.40000009537","","instructions","1","42871","0.0-1.0","[{""page_index"":0,""viewing_time"":1816.0999999046326},{""page_index"":1,""viewing_time"":4408.60000038147},{""page_index"":2,""viewing_time"":6098.799999713898},{""page_index"":3,""viewing_time"":9731.5},{""page_index"":4,""viewing_time"":5083.400000095367},{""page_index"":5,""viewing_time"":5625.5},{""page_index"":6,""viewing_time"":4644.800000190735}]","","","","","","","","","","",""
"5271.200000286102","","instructions","2","48145","0.0-2.0","[{""page_index"":0,""viewing_time"":5270.60000038147}]","","","","","","","","","","",""
"7835","","instructions","3","55982","0.0-3.0","[{""page_index"":0,""viewing_time"":5233.400000095367},{""page_index"":1,""viewing_time"":2601.0999999046326}]","","","","","","","","","","",""
"894.9000000953674","","image-keyboard-response","4","56882","0.0-4.0","","img/set1/S4.jpg","83","4","structured_load","74","structured_load,structured_incentive,random,structured_normal","2,1,2,3,3,4","false","","",""
"null","","html-keyboard-response","5","57242","0.0-5.0","","<img src=""img/set1/S4.jpg"" width=""540"" height = ""360"">","null","","","","","","","","",""
"null","","html-keyboard-response","6","57446","0.0-6.0","","","null","","","","","","","","",""
"455.7000002861023","","image-keyboard-response","7","57906","0.0-7.0","","img/set1/S3.jpg","68","3","structured_load","72","structured_load,structured_incentive,random,structured_normal","2,1,2,3,3,4","false","","",""
"null","","html-keyboard-response","8","58265","0.0-8.0","","<img src=""img/set1/S3.jpg"" width=""540"" height = ""360"">","null","","","","","","","","",""
"null","","html-keyboard-response","9","58473","0.0-9.0","","","null","","","","","","","","",""
"858.0999999046326","","image-keyboard-response","10","59334","0.0-10.0","","img/set1/S2.jpg","72","2","structured_load","68","structured_load,structured_incentive,random,structured_normal","2,1,2,3,3,4","false","","",""
"null","","html-keyboard-response","11","59691","0.0-11.0","","<img src=""img/set1/S2.jpg"" width=""540"" height = ""360"">","null","","","","","","","","",""
"null","","html-keyboard-response","12","59896","0.0-12.0","","","null","","","","","","","","",""
"291.30000019073486","","image-keyboard-response","13","60190","0.0-13.0","","img/set1/S1.jpg","74","1","structured_load","83","structured_load,structured_incentive,random,structured_normal","2,1,2,3,3,4","false","","",""
"null","","html-keyboard-response","14","60546","0.0-14.0","","<img src=""img/set1/S1.jpg"" width=""540"" height = ""360"">","null","","","","","","","","",""
"null","","html-keyboard-response","15","60753","0.0-15.0","","","null","","","","","","","","",""
"287.80000019073486","","image-keyboard-response","16","61043","0.0-16.0","","img/set1/S3.jpg","74","3","structured_load","72","structured_load,structured_incentive,random,structured_normal","2,1,2,3,3,4","false","","",""
"null","","html-keyboard-response","17","61397","0.0-17.0","","<img src=""img/set1/S3.jpg"" width=""540"" height = ""360"">","null","","","","","","","","",""
"null","","html-keyboard-response","18","61604","0.0-18.0","","","null","","","","","","","","",""
"342.80000019073486","","image-keyboard-response","19","61950","0.0-19.0","","img/set1/S3.jpg","72","3","structured_load","72","structured_load,structured_incentive,random,structured_normal","2,1,2,3,3,4","true","","",""
"null","","html-keyboard-response","20","62309","0.0-20.0","","<img src=""img/set1/S3.jpg"" width=""540"" height = ""360"" style=""border:16px solid orange"">","null","","","","","","","","",""
"null","","html-keyboard-response","21","62513","0.0-21.0","","","null","","","","","","","","",""
"941.4000000953674","","image-keyboard-response","22","63457","0.0-22.0","","img/set1/S2.jpg","83","2","structured_load","68","structured_load,structured_incentive,random,structured_normal","2,1,2,3,3,4","false","","",""
"null","","html-keyboard-response","23","63813","0.0-23.0","","<img src=""img/set1/S2.jpg"" width=""540"" height = ""360"">","null","","","","","","","","",""
"null","","html-keyboard-response","24","64018","0.0-24.0","","","null","","","","","","","","",""
"617.5999999046326","","image-keyboard-response","25","64638","0.0-25.0","","img/set1/S1.jpg","68","1","structured_load","83","structured_load,structured_incentive,random,structured_normal","2,1,2,3,3,4","false","","",""
"null","","html-keyboard-response","26","64996","0.0-26.0","","<img src=""img/set1/S1.jpg"" width=""540"" height = ""360"">","null","","","","","","","","",""
"null","","html-keyboard-response","27","65203","0.0-27.0","","","null","","","","","","","","",""
"1274.2999997138977","","image-keyboard-response","28","66480","0.0-28.0","","img/set1/S2.jpg","68","2","structured_load","68","structured_load,structured_incentive,random,structured_normal","2,1,2,3,3,4","true","","",""
"null","","html-keyboard-response","29","66838","0.0-29.0","","<img src=""img/set1/S2.jpg"" width=""540"" height = ""360"" style=""border:16px solid orange"">","null","","","","","","","","",""
"null","","html-keyboard-response","30","67045","0.0-30.0","","","null","","","","","","","","",""
"746.2999997138977","","image-keyboard-response","31","67794","0.0-31.0","","img/set1/S1.jpg","83","1","structured_load","83","structured_load,structured_incentive,random,structured_normal","2,1,2,3,3,4","true","","",""
"null","","html-keyboard-response","32","68152","0.0-32.0","","<img src=""img/set1/S1.jpg"" width=""540"" height = ""360"" style=""border:16px solid orange"">","null","","","","","","","","",""
"null","","html-keyboard-response","33","68360","0.0-33.0","","","null","","","","","","","","",""
"740.9000000953674","","image-keyboard-response","34","69104","0.0-34.0","","img/set1/S3.jpg","72","3","structured_load","72","structured_load,structured_incentive,random,structured_normal","2,1,2,3,3,4","true","","",""
"null","","html-keyboard-response","35","69461","0.0-35.0","","<img src=""img/set1/S3.jpg"" width=""540"" height = ""360"" style=""border:16px solid orange"">","null","","","","","","","","",""
"null","","html-keyboard-response","36","69665","0.0-36.0","","","null","","","","","","","","",""
"514.8999996185303","","image-keyboard-response","37","70183","0.0-37.0","","img/set1/S3.jpg","72","3","structured_load","72","structured_load,structured_incentive,random,structured_normal","2,1,2,3,3,4","true","","",""
"null","","html-keyboard-response","38","70541","0.0-38.0","","<img src=""img/set1/S3.jpg"" width=""540"" height = ""360"" style=""border:16px solid orange"">","null","","","","","","","","",""
"null","","html-keyboard-response","39","70745","0.0-39.0","","","null","","","","","","","","",""
"546.6999998092651","","image-keyboard-response","40","71294","0.0-40.0","","img/set1/S4.jpg","74","4","structured_load","74","structured_load,structured_incentive,random,structured_normal","2,1,2,3,3,4","true","","",""
"null","","html-keyboard-response","41","71652","0.0-41.0","","<img src=""img/set1/S4.jpg"" width=""540"" height = ""360"" style=""border:16px solid orange"">","null","","","","","","","","",""
"null","","html-keyboard-response","42","71859","0.0-42.0","","","null","","","","","","","","",""
"836.8999996185303","","image-keyboard-response","43","72698","0.0-43.0","","img/set1/S2.jpg","83","2","structured_load","68","structured_load,structured_incentive,random,structured_normal","2,1,2,3,3,4","false","","",""
"null","","html-keyboard-response","44","73053","0.0-44.0","","<img src=""img/set1/S2.jpg"" width=""540"" height = ""360"">","null","","","","","","","","",""
"null","","html-keyboard-response","45","73260","0.0-45.0","","","null","","","","","","","","",""
"863.5","","image-keyboard-response","46","74127","0.0-46.0","","img/set1/S1.jpg","83","1","structured_load","83","structured_load,structured_incentive,random,structured_normal","2,1,2,3,3,4","true","","",""
"null","","html-keyboard-response","47","74480","0.0-47.0","","<img src=""img/set1/S1.jpg"" width=""540"" height = ""360"" style=""border:16px solid orange"">","null","","","","","","","","",""
"null","","html-keyboard-response","48","74685","0.0-48.0","","","null","","","","","","","","",""
"776.4000000953674","","image-keyboard-response","49","75465","0.0-49.0","","img/set1/S3.jpg","72","3","structured_load","72","structured_load,structured_incentive,random,structured_normal","2,1,2,3,3,4","true","","",""
"null","","html-keyboard-response","50","75822","0.0-50.0","","<img src=""img/set1/S3.jpg"" width=""540"" height = ""360"" style=""border:16px solid orange"">","null","","","","","","","","",""
"null","","html-keyboard-response","51","76029","0.0-51.0","","","null","","","","","","","","",""
"882.2999997138977","","image-keyboard-response","52","76914","0.0-52.0","","img/set1/S4.jpg","74","4","structured_load","74","structured_load,structured_incentive,random,structured_normal","2,1,2,3,3,4","true","","",""
"null","","html-keyboard-response","53","77269","0.0-53.0","","<img src=""img/set1/S4.jpg"" width=""540"" height = ""360"" style=""border:16px solid orange"">","null","","","","","","","","",""
"null","","html-keyboard-response","54","77476","0.0-54.0","","","null","","","","","","","","",""
"494.90000009536743","","image-keyboard-response","55","77974","0.0-55.0","","img/set1/S3.jpg","72","3","structured_load","72","structured_load,structured_incentive,random,structured_normal","2,1,2,3,3,4","true","","",""
"null","","html-keyboard-response","56","78329","0.0-56.0","","<img src=""img/set1/S3.jpg"" width=""540"" height = ""360"" style=""border:16px solid orange"">","null","","","","","","","","",""
"null","","html-keyboard-response","57","78534","0.0-57.0","","","null","","","","","","","","",""
"413.40000009536743","","image-keyboard-response","58","78949","0.0-58.0","","img/set1/S3.jpg","72","3","structured_load","72","structured_load,structured_incentive,random,structured_normal","2,1,2,3,3,4","true","","",""
"null","","html-keyboard-response","59","79304","0.0-59.0","","<img src=""img/set1/S3.jpg"" width=""540"" height = ""360"" style=""border:16px solid orange"">","null","","","","","","","","",""
"null","","html-keyboard-response","60","79512","0.0-60.0","","","null","","","","","","","","",""
"1140.1999998092651","","image-keyboard-response","61","80655","0.0-61.0","","img/set1/S2.jpg","83","2","structured_load","68","structured_load,structured_incentive,random,structured_normal","2,1,2,3,3,4","false","","",""
"null","","html-keyboard-response","62","81011","0.0-62.0","","<img src=""img/set1/S2.jpg"" width=""540"" height = ""360"">","null","","","","","","","","",""
"null","","html-keyboard-response","63","81218","0.0-63.0","","","null","","","","","","","","",""
"672.8000001907349","","image-keyboard-response","64","81894","0.0-64.0","","img/set1/S1.jpg","83","1","structured_load","83","structured_load,structured_incentive,random,structured_normal","2,1,2,3,3,4","true","","",""
"null","","html-keyboard-response","65","82249","0.0-65.0","","<img src=""img/set1/S1.jpg"" width=""540"" height = ""360"" style=""border:16px solid orange"">","null","","","","","","","","",""
"null","","html-keyboard-response","66","82456","0.0-66.0","","","null","","","","","","","","",""
"618.8999996185303","","image-keyboard-response","67","83078","0.0-67.0","","img/set1/S3.jpg","72","3","structured_load","72","structured_load,structured_incentive,random,structured_normal","2,1,2,3,3,4","true","","",""
"null","","html-keyboard-response","68","83434","0.0-68.0","","<img src=""img/set1/S3.jpg"" width=""540"" height = ""360"" style=""border:16px solid orange"">","null","","","","","","","","",""
"null","","html-keyboard-response","69","83638","0.0-69.0","","","null","","","","","","","","",""
"718.7999997138977","","image-keyboard-response","70","84361","0.0-70.0","","img/set1/S2.jpg","68","2","structured_load","68","structured_load,structured_incentive,random,structured_normal","2,1,2,3,3,4","true","","",""
"null","","html-keyboard-response","71","84715","0.0-71.0","","<img src=""img/set1/S2.jpg"" width=""540"" height = ""360"" style=""border:16px solid orange"">","null","","","","","","","","",""
"null","","html-keyboard-response","72","84922","0.0-72.0","","","null","","","","","","","","",""
"739.5999999046326","","image-keyboard-response","73","85665","0.0-73.0","","img/set1/S1.jpg","83","1","structured_load","83","structured_load,structured_incentive,random,structured_normal","2,1,2,3,3,4","true","","",""
"null","","html-keyboard-response","74","86019","0.0-74.0","","<img src=""img/set1/S1.jpg"" width=""540"" height = ""360"" style=""border:16px solid orange"">","null","","","","","","","","",""
"null","","html-keyboard-response","75","86227","0.0-75.0","","","null","","","","","","","","",""
"649.0999999046326","","image-keyboard-response","76","86878","0.0-76.0","","img/set1/S3.jpg","72","3","structured_load","72","structured_load,structured_incentive,random,structured_normal","2,1,2,3,3,4","true","","",""
"null","","html-keyboard-response","77","87237","0.0-77.0","","<img src=""img/set1/S3.jpg"" width=""540"" height = ""360"" style=""border:16px solid orange"">","null","","","","","","","","",""
"null","","html-keyboard-response","78","87444","0.0-78.0","","","null","","","","","","","","",""
"603.5999999046326","","image-keyboard-response","79","88050","0.0-79.0","","img/set1/S4.jpg","74","4","structured_load","74","structured_load,structured_incentive,random,structured_normal","2,1,2,3,3,4","true","","",""
"null","","html-keyboard-response","80","88406","0.0-80.0","","<img src=""img/set1/S4.jpg"" width=""540"" height = ""360"" style=""border:16px solid orange"">","null","","","","","","","","",""
"null","","html-keyboard-response","81","88612","0.0-81.0","","","null","","","","","","","","",""
"431.7000002861023","","image-keyboard-response","82","89046","0.0-82.0","","img/set1/S4.jpg","74","4","structured_load","74","structured_load,structured_incentive,random,structured_normal","2,1,2,3,3,4","true","","",""
"null","","html-keyboard-response","83","89401","0.0-83.0","","<img src=""img/set1/S4.jpg"" width=""540"" height = ""360"" style=""border:16px solid orange"">","null","","","","","","","","",""
"null","","html-keyboard-response","84","89603","0.0-84.0","","","null","","","","","","","","",""
"373.19999980926514","","image-keyboard-response","85","89979","0.0-85.0","","img/set1/S4.jpg","74","4","structured_load","74","structured_load,structured_incentive,random,structured_normal","2,1,2,3,3,4","true","","",""
"null","","html-keyboard-response","86","90337","0.0-86.0","","<img src=""img/set1/S4.jpg"" width=""540"" height = ""360"" style=""border:16px solid orange"">","null","","","","","","","","",""
"null","","html-keyboard-response","87","90545","0.0-87.0","","","null","","","","","","","","",""
"371.7000002861023","","image-keyboard-response","88","90919","0.0-88.0","","img/set1/S4.jpg","74","4","structured_load","74","structured_load,structured_incentive,random,structured_normal","2,1,2,3,3,4","true","","",""
"null","","html-keyboard-response","89","91277","0.0-89.0","","<img src=""img/set1/S4.jpg"" width=""540"" height = ""360"" style=""border:16px solid orange"">","null","","","","","","","","",""
"null","","html-keyboard-response","90","91484","0.0-90.0","","","null","","","","","","","","",""
"521.4000000953674","","image-keyboard-response","91","92008","0.0-91.0","","img/set1/S3.jpg","72","3","structured_load","72","structured_load,structured_incentive,random,structured_normal","2,1,2,3,3,4","true","","",""
"null","","html-keyboard-response","92","92362","0.0-92.0","","<img src=""img/set1/S3.jpg"" width=""540"" height = ""360"" style=""border:16px solid orange"">","null","","","","","","","","",""
"null","","html-keyboard-response","93","92565","0.0-93.0","","","null","","","","","","","","",""
"506.40000009536743","","image-keyboard-response","94","93074","0.0-94.0","","img/set1/S3.jpg","72","3","structured_load","72","structured_load,structured_incentive,random,structured_normal","2,1,2,3,3,4","true","","",""
"null","","html-keyboard-response","95","93431","0.0-95.0","","<img src=""img/set1/S3.jpg"" width=""540"" height = ""360"" style=""border:16px solid orange"">","null","","","","","","","","",""
"null","","html-keyboard-response","96","93639","0.0-96.0","","","null","","","","","","","","",""
"438.5","","image-keyboard-response","97","94080","0.0-97.0","","img/set1/S3.jpg","72","3","structured_load","72","structured_load,structured_incentive,random,structured_normal","2,1,2,3,3,4","true","","",""
"null","","html-keyboard-response","98","94439","0.0-98.0","","<img src=""img/set1/S3.jpg"" width=""540"" height = ""360"" style=""border:16px solid orange"">","null","","","","","","","","",""
"null","","html-keyboard-response","99","94645","0.0-99.0","","","null","","","","","","","","",""
"613.5","","image-keyboard-response","100","95261","0.0-100.0","","img/set1/S2.jpg","83","2","structured_load","68","structured_load,structured_incentive,random,structured_normal","2,1,2,3,3,4","false","","",""
"null","","html-keyboard-response","101","95619","0.0-101.0","","<img src=""img/set1/S2.jpg"" width=""540"" height = ""360"">","null","","","","","","","","",""
"null","","html-keyboard-response","102","95826","0.0-102.0","","","null","","","","","","","","",""
"649.0999999046326","","image-keyboard-response","103","96478","0.0-103.0","","img/set1/S1.jpg","83","1","structured_load","83","structured_load,structured_incentive,random,structured_normal","2,1,2,3,3,4","true","","",""
"null","","html-keyboard-response","104","96837","0.0-104.0","","<img src=""img/set1/S1.jpg"" width=""540"" height = ""360"" style=""border:16px solid orange"">","null","","","","","","","","",""
"null","","html-keyboard-response","105","97044","0.0-105.0","","","null","","","","","","","","",""
"560.8999996185303","","image-keyboard-response","106","97607","0.0-106.0","","img/set1/S4.jpg","74","4","structured_load","74","structured_load,structured_incentive,random,structured_normal","2,1,2,3,3,4","true","","",""
"null","","html-keyboard-response","107","97962","0.0-107.0","","<img src=""img/set1/S4.jpg"" width=""540"" height = ""360"" style=""border:16px solid orange"">","null","","","","","","","","",""
"null","","html-keyboard-response","108","98166","0.0-108.0","","","null","","","","","","","","",""
"441.19999980926514","","image-keyboard-response","109","98610","0.0-109.0","","img/set1/S4.jpg","74","4","structured_load","74","structured_load,structured_incentive,random,structured_normal","2,1,2,3,3,4","true","","",""
"null","","html-keyboard-response","110","98968","0.0-110.0","","<img src=""img/set1/S4.jpg"" width=""540"" height = ""360"" style=""border:16px solid orange"">","null","","","","","","","","",""
"null","","html-keyboard-response","111","99175","0.0-111.0","","","null","","","","","","","","",""
"414.69999980926514","","image-keyboard-response","112","99593","0.0-112.0","","img/set1/S4.jpg","74","4","structured_load","74","structured_load,structured_incentive,random,structured_normal","2,1,2,3,3,4","true","","",""
"null","","html-keyboard-response","113","99952","0.0-113.0","","<img src=""img/set1/S4.jpg"" width=""540"" height = ""360"" style=""border:16px solid orange"">","null","","","","","","","","",""
"null","","html-keyboard-response","114","100158","0.0-114.0","","","null","","","","","","","","",""
"704.4000000953674","","image-keyboard-response","115","100865","0.0-115.0","","img/set1/S3.jpg","72","3","structured_load","72","structured_load,structured_incentive,random,structured_normal","2,1,2,3,3,4","true","","",""
"null","","html-keyboard-response","116","101219","0.0-116.0","","<img src=""img/set1/S3.jpg"" width=""540"" height = ""360"" style=""border:16px solid orange"">","null","","","","","","","","",""
"null","","html-keyboard-response","117","101424","0.0-117.0","","","null","","","","","","","","",""
"1009.5999999046326","","image-keyboard-response","118","102437","0.0-118.0","","img/set1/S2.jpg","68","2","structured_load","68","structured_load,structured_incentive,random,structured_normal","2,1,2,3,3,4","true","","",""
"null","","html-keyboard-response","119","102795","0.0-119.0","","<img src=""img/set1/S2.jpg"" width=""540"" height = ""360"" style=""border:16px solid orange"">","null","","","","","","","","",""
"null","","html-keyboard-response","120","103000","0.0-120.0","","","null","","","","","","","","",""
"504.5","","image-keyboard-response","121","103506","0.0-121.0","","img/set1/S1.jpg","83","1","structured_load","83","structured_load,structured_incentive,random,structured_normal","2,1,2,3,3,4","true","","",""
"null","","html-keyboard-response","122","103861","0.0-122.0","","<img src=""img/set1/S1.jpg"" width=""540"" height = ""360"" style=""border:16px solid orange"">","null","","","","","","","","",""
"null","","html-keyboard-response","123","104064","0.0-123.0","","","null","","","","","","","","",""
"709.0999999046326","","image-keyboard-response","124","104776","0.0-124.0","","img/set1/S3.jpg","72","3","structured_load","72","structured_load,structured_incentive,random,structured_normal","2,1,2,3,3,4","true","","",""
"null","","html-keyboard-response","125","105135","0.0-125.0","","<img src=""img/set1/S3.jpg"" width=""540"" height = ""360"" style=""border:16px solid orange"">","null","","","","","","","","",""
"null","","html-keyboard-response","126","105339","0.0-126.0","","","null","","","","","","","","",""
"788.4000000953674","","image-keyboard-response","127","106130","0.0-127.0","","img/set1/S2.jpg","83","2","structured_load","68","structured_load,structured_incentive,random,structured_normal","2,1,2,3,3,4","false","","",""
"null","","html-keyboard-response","128","106488","0.0-128.0","","<img src=""img/set1/S2.jpg"" width=""540"" height = ""360"">","null","","","","","","","","",""
"null","","html-keyboard-response","129","106694","0.0-129.0","","","null","","","","","","","","",""
"534.2999997138977","","image-keyboard-response","130","107231","0.0-130.0","","img/set1/S1.jpg","83","1","structured_load","83","structured_load,structured_incentive,random,structured_normal","2,1,2,3,3,4","true","","",""
"null","","html-keyboard-response","131","107585","0.0-131.0","","<img src=""img/set1/S1.jpg"" width=""540"" height = ""360"" style=""border:16px solid orange"">","null","","","","","","","","",""
"null","","html-keyboard-response","132","107792","0.0-132.0","","","null","","","","","","","","",""
"576.5","","image-keyboard-response","133","108372","0.0-133.0","","img/set1/S2.jpg","68","2","structured_load","68","structured_load,structured_incentive,random,structured_normal","2,1,2,3,3,4","true","","",""
"null","","html-keyboard-response","134","108728","0.0-134.0","","<img src=""img/set1/S2.jpg"" width=""540"" height = ""360"" style=""border:16px solid orange"">","null","","","","","","","","",""
"null","","html-keyboard-response","135","108934","0.0-135.0","","","null","","","","","","","","",""
"546.5999999046326","","image-keyboard-response","136","109483","0.0-136.0","","img/set1/S1.jpg","83","1","structured_load","83","structured_load,structured_incentive,random,structured_normal","2,1,2,3,3,4","true","","",""
"null","","html-keyboard-response","137","109841","0.0-137.0","","<img src=""img/set1/S1.jpg"" width=""540"" height = ""360"" style=""border:16px solid orange"">","null","","","","","","","","",""
"null","","html-keyboard-response","138","110044","0.0-138.0","","","null","","","","","","","","",""
"512.5999999046326","","image-keyboard-response","139","110560","0.0-139.0","","img/set1/S2.jpg","68","2","structured_load","68","structured_load,structured_incentive,random,structured_normal","2,1,2,3,3,4","true","","",""
"null","","html-keyboard-response","140","110918","0.0-140.0","","<img src=""img/set1/S2.jpg"" width=""540"" height = ""360"" style=""border:16px solid orange"">","null","","","","","","","","",""
"null","","html-keyboard-response","141","111125","0.0-141.0","","","null","","","","","","","","",""
"504.90000009536743","","image-keyboard-response","142","111632","0.0-142.0","","img/set1/S1.jpg","83","1","structured_load","83","structured_load,structured_incentive,random,structured_normal","2,1,2,3,3,4","true","","",""
"null","","html-keyboard-response","143","111989","0.0-143.0","","<img src=""img/set1/S1.jpg"" width=""540"" height = ""360"" style=""border:16px solid orange"">","null","","","","","","","","",""
"null","","html-keyboard-response","144","112194","0.0-144.0","","","null","","","","","","","","",""
"1098.2000002861023","","image-keyboard-response","145","113295","0.0-145.0","","img/set1/S3.jpg","72","3","structured_load","72","structured_load,structured_incentive,random,structured_normal","2,1,2,3,3,4","true","","",""
"null","","html-keyboard-response","146","113654","0.0-146.0","","<img src=""img/set1/S3.jpg"" width=""540"" height = ""360"" style=""border:16px solid orange"">","null","","","","","","","","",""
"null","","html-keyboard-response","147","113861","0.0-147.0","","","null","","","","","","","","",""
"660.4000000953674","","image-keyboard-response","148","114525","0.0-148.0","","img/set1/S2.jpg","83","2","structured_load","68","structured_load,structured_incentive,random,structured_normal","2,1,2,3,3,4","false","","",""
"null","","html-keyboard-response","149","114881","0.0-149.0","","<img src=""img/set1/S2.jpg"" width=""540"" height = ""360"">","null","","","","","","","","",""
"null","","html-keyboard-response","150","115086","0.0-150.0","","","null","","","","","","","","",""
"628.1999998092651","","image-keyboard-response","151","115717","0.0-151.0","","img/set1/S1.jpg","83","1","structured_load","83","structured_load,structured_incentive,random,structured_normal","2,1,2,3,3,4","true","","",""
"null","","html-keyboard-response","152","116074","0.0-152.0","","<img src=""img/set1/S1.jpg"" width=""540"" height = ""360"" style=""border:16px solid orange"">","null","","","","","","","","",""
"null","","html-keyboard-response","153","116278","0.0-153.0","","","null","","","","","","","","",""
"510.69999980926514","","image-keyboard-response","154","116791","0.0-154.0","","img/set1/S3.jpg","72","3","structured_load","72","structured_load,structured_incentive,random,structured_normal","2,1,2,3,3,4","true","","",""
"null","","html-keyboard-response","155","117151","0.0-155.0","","<img src=""img/set1/S3.jpg"" width=""540"" height = ""360"" style=""border:16px solid orange"">","null","","","","","","","","",""
"null","","html-keyboard-response","156","117354","0.0-156.0","","","null","","","","","","","","",""
"438.09999990463257","","image-keyboard-response","157","117794","0.0-157.0","","img/set1/S2.jpg","68","2","structured_load","68","structured_load,structured_incentive,random,structured_normal","2,1,2,3,3,4","true","","",""
"null","","html-keyboard-response","158","118150","0.0-158.0","","<img src=""img/set1/S2.jpg"" width=""540"" height = ""360"" style=""border:16px solid orange"">","null","","","","","","","","",""
"null","","html-keyboard-response","159","118355","0.0-159.0","","","null","","","","","","","","",""
"511.19999980926514","","image-keyboard-response","160","118869","0.0-160.0","","img/set1/S1.jpg","83","1","structured_load","83","structured_load,structured_incentive,random,structured_normal","2,1,2,3,3,4","true","","",""
"null","","html-keyboard-response","161","119228","0.0-161.0","","<img src=""img/set1/S1.jpg"" width=""540"" height = ""360"" style=""border:16px solid orange"">","null","","","","","","","","",""
"null","","html-keyboard-response","162","119435","0.0-162.0","","","null","","","","","","","","",""
"459.09999990463257","","image-keyboard-response","163","119897","0.0-163.0","","img/set1/S2.jpg","68","2","structured_load","68","structured_load,structured_incentive,random,structured_normal","2,1,2,3,3,4","true","","",""
"null","","html-keyboard-response","164","120254","0.0-164.0","","<img src=""img/set1/S2.jpg"" width=""540"" height = ""360"" style=""border:16px solid orange"">","null","","","","","","","","",""
"null","","html-keyboard-response","165","120461","0.0-165.0","","","null","","","","","","","","",""
"535.0999999046326","","image-keyboard-response","166","120998","0.0-166.0","","img/set1/S1.jpg","83","1","structured_load","83","structured_load,structured_incentive,random,structured_normal","2,1,2,3,3,4","true","","",""
"null","","html-keyboard-response","167","121356","0.0-167.0","","<img src=""img/set1/S1.jpg"" width=""540"" height = ""360"" style=""border:16px solid orange"">","null","","","","","","","","",""
"null","","html-keyboard-response","168","121561","0.0-168.0","","","null","","","","","","","","",""
"561","","image-keyboard-response","169","122125","0.0-169.0","","img/set1/S3.jpg","72","3","structured_load","72","structured_load,structured_incentive,random,structured_normal","2,1,2,3,3,4","true","","",""
"null","","html-keyboard-response","170","122480","0.0-170.0","","<img src=""img/set1/S3.jpg"" width=""540"" height = ""360"" style=""border:16px solid orange"">","null","","","","","","","","",""
"null","","html-keyboard-response","171","122684","0.0-171.0","","","null","","","","","","","","",""
"711.1000003814697","","image-keyboard-response","172","123398","0.0-172.0","","img/set1/S4.jpg","74","4","structured_load","74","structured_load,structured_incentive,random,structured_normal","2,1,2,3,3,4","true","","",""
"null","","html-keyboard-response","173","123754","0.0-173.0","","<img src=""img/set1/S4.jpg"" width=""540"" height = ""360"" style=""border:16px solid orange"">","null","","","","","","","","",""
"null","","html-keyboard-response","174","123961","0.0-174.0","","","null","","","","","","","","",""
"464.90000009536743","","image-keyboard-response","175","124429","0.0-175.0","","img/set1/S4.jpg","74","4","structured_load","74","structured_load,structured_incentive,random,structured_normal","2,1,2,3,3,4","true","","",""
"null","","html-keyboard-response","176","124782","0.0-176.0","","<img src=""img/set1/S4.jpg"" width=""540"" height = ""360"" style=""border:16px solid orange"">","null","","","","","","","","",""
"null","","html-keyboard-response","177","124986","0.0-177.0","","","null","","","","","","","","",""
"438.19999980926514","","image-keyboard-response","178","125427","0.0-178.0","","img/set1/S4.jpg","74","4","structured_load","74","structured_load,structured_incentive,random,structured_normal","2,1,2,3,3,4","true","","",""
"null","","html-keyboard-response","179","125785","0.0-179.0","","<img src=""img/set1/S4.jpg"" width=""540"" height = ""360"" style=""border:16px solid orange"">","null","","","","","","","","",""
"null","","html-keyboard-response","180","125992","0.0-180.0","","","null","","","","","","","","",""
"834.0999999046326","","image-keyboard-response","181","126829","0.0-181.0","","img/set1/S2.jpg","68","2","structured_load","68","structured_load,structured_incentive,random,structured_normal","2,1,2,3,3,4","true","","",""
"null","","html-keyboard-response","182","127184","0.0-182.0","","<img src=""img/set1/S2.jpg"" width=""540"" height = ""360"" style=""border:16px solid orange"">","null","","","","","","","","",""
"null","","html-keyboard-response","183","127391","0.0-183.0","","","null","","","","","","","","",""
"659.5999999046326","","image-keyboard-response","184","128052","0.0-184.0","","img/set1/S1.jpg","83","1","structured_load","83","structured_load,structured_incentive,random,structured_normal","2,1,2,3,3,4","true","","",""
"null","","html-keyboard-response","185","128410","0.0-185.0","","<img src=""img/set1/S1.jpg"" width=""540"" height = ""360"" style=""border:16px solid orange"">","null","","","","","","","","",""
"null","","html-keyboard-response","186","128612","0.0-186.0","","","null","","","","","","","","",""
"649.0999999046326","","image-keyboard-response","187","129264","0.0-187.0","","img/set1/S4.jpg","68","4","structured_load","74","structured_load,structured_incentive,random,structured_normal","2,1,2,3,3,4","false","","",""
"null","","html-keyboard-response","188","129622","0.0-188.0","","<img src=""img/set1/S4.jpg"" width=""540"" height = ""360"">","null","","","","","","","","",""
"null","","html-keyboard-response","189","129829","0.0-189.0","","","null","","","","","","","","",""
"706.2999997138977","","image-keyboard-response","190","130538","0.0-190.0","","img/set1/S2.jpg","68","2","structured_load","68","structured_load,structured_incentive,random,structured_normal","2,1,2,3,3,4","true","","",""
"null","","html-keyboard-response","191","130894","0.0-191.0","","<img src=""img/set1/S2.jpg"" width=""540"" height = ""360"" style=""border:16px solid orange"">","null","","","","","","","","",""
"null","","html-keyboard-response","192","131100","0.0-192.0","","","null","","","","","","","","",""
"658.0999999046326","","image-keyboard-response","193","131760","0.0-193.0","","img/set1/S1.jpg","83","1","structured_load","83","structured_load,structured_incentive,random,structured_normal","2,1,2,3,3,4","true","","",""
"null","","html-keyboard-response","194","132118","0.0-194.0","","<img src=""img/set1/S1.jpg"" width=""540"" height = ""360"" style=""border:16px solid orange"">","null","","","","","","","","",""
"null","","html-keyboard-response","195","132325","0.0-195.0","","","null","","","","","","","","",""
"522.9000000953674","","image-keyboard-response","196","132851","0.0-196.0","","img/set1/S4.jpg","74","4","structured_load","74","structured_load,structured_incentive,random,structured_normal","2,1,2,3,3,4","true","","",""
"null","","html-keyboard-response","197","133210","0.0-197.0","","<img src=""img/set1/S4.jpg"" width=""540"" height = ""360"" style=""border:16px solid orange"">","null","","","","","","","","",""
"null","","html-keyboard-response","198","133412","0.0-198.0","","","null","","","","","","","","",""
"739.5999999046326","","image-keyboard-response","199","134153","0.0-199.0","","img/set1/S2.jpg","68","2","structured_load","68","structured_load,structured_incentive,random,structured_normal","2,1,2,3,3,4","true","","",""
"null","","html-keyboard-response","200","134511","0.0-200.0","","<img src=""img/set1/S2.jpg"" width=""540"" height = ""360"" style=""border:16px solid orange"">","null","","","","","","","","",""
"null","","html-keyboard-response","201","134718","0.0-201.0","","","null","","","","","","","","",""
"684.5","","image-keyboard-response","202","135406","0.0-202.0","","img/set1/S1.jpg","83","1","structured_load","83","structured_load,structured_incentive,random,structured_normal","2,1,2,3,3,4","true","","",""
"null","","html-keyboard-response","203","135762","0.0-203.0","","<img src=""img/set1/S1.jpg"" width=""540"" height = ""360"" style=""border:16px solid orange"">","null","","","","","","","","",""
"null","","html-keyboard-response","204","135970","0.0-204.0","","","null","","","","","","","","",""
"683","","image-keyboard-response","205","136656","0.0-205.0","","img/set1/S4.jpg","74","4","structured_load","74","structured_load,structured_incentive,random,structured_normal","2,1,2,3,3,4","true","","",""
"null","","html-keyboard-response","206","137010","0.0-206.0","","<img src=""img/set1/S4.jpg"" width=""540"" height = ""360"" style=""border:16px solid orange"">","null","","","","","","","","",""
"null","","html-keyboard-response","207","137217","0.0-207.0","","","null","","","","","","","","",""
"528","","image-keyboard-response","208","137748","0.0-208.0","","img/set1/S3.jpg","72","3","structured_load","72","structured_load,structured_incentive,random,structured_normal","2,1,2,3,3,4","true","","",""
"null","","html-keyboard-response","209","138105","0.0-209.0","","<img src=""img/set1/S3.jpg"" width=""540"" height = ""360"" style=""border:16px solid orange"">","null","","","","","","","","",""
"null","","html-keyboard-response","210","138311","0.0-210.0","","","null","","","","","","","","",""
"454.2999997138977","","image-keyboard-response","211","138767","0.0-211.0","","img/set1/S3.jpg","72","3","structured_load","72","structured_load,structured_incentive,random,structured_normal","2,1,2,3,3,4","true","","",""
"null","","html-keyboard-response","212","139123","0.0-212.0","","<img src=""img/set1/S3.jpg"" width=""540"" height = ""360"" style=""border:16px solid orange"">","null","","","","","","","","",""
"null","","html-keyboard-response","213","139327","0.0-213.0","","","null","","","","","","","","",""
"532.1999998092651","","image-keyboard-response","214","139861","0.0-214.0","","img/set1/S4.jpg","74","4","structured_load","74","structured_load,structured_incentive,random,structured_normal","2,1,2,3,3,4","true","","",""
"null","","html-keyboard-response","215","140219","0.0-215.0","","<img src=""img/set1/S4.jpg"" width=""540"" height = ""360"" style=""border:16px solid orange"">","null","","","","","","","","",""
"null","","html-keyboard-response","216","140423","0.0-216.0","","","null","","","","","","","","",""
"628","","image-keyboard-response","217","141054","0.0-217.0","","img/set1/S2.jpg","68","2","structured_load","68","structured_load,structured_incentive,random,structured_normal","2,1,2,3,3,4","true","","",""
"null","","html-keyboard-response","218","141410","0.0-218.0","","<img src=""img/set1/S2.jpg"" width=""540"" height = ""360"" style=""border:16px solid orange"">","null","","","","","","","","",""
"null","","html-keyboard-response","219","141616","0.0-219.0","","","null","","","","","","","","",""
"954.9000000953674","","image-keyboard-response","220","142574","0.0-220.0","","img/set1/S1.jpg","83","1","structured_load","83","structured_load,structured_incentive,random,structured_normal","2,1,2,3,3,4","true","","",""
"null","","html-keyboard-response","221","142933","0.0-221.0","","<img src=""img/set1/S1.jpg"" width=""540"" height = ""360"" style=""border:16px solid orange"">","null","","","","","","","","",""
"null","","html-keyboard-response","222","143140","0.0-222.0","","","null","","","","","","","","",""
"641.3000001907349","","image-keyboard-response","223","143783","0.0-223.0","","img/set1/S4.jpg","74","4","structured_load","74","structured_load,structured_incentive,random,structured_normal","2,1,2,3,3,4","true","","",""
"null","","html-keyboard-response","224","144136","0.0-224.0","","<img src=""img/set1/S4.jpg"" width=""540"" height = ""360"" style=""border:16px solid orange"">","null","","","","","","","","",""
"null","","html-keyboard-response","225","144343","0.0-225.0","","","null","","","","","","","","",""
"370.5","","image-keyboard-response","226","144717","0.0-226.0","","img/set1/S4.jpg","74","4","structured_load","74","structured_load,structured_incentive,random,structured_normal","2,1,2,3,3,4","true","","",""
"null","","html-keyboard-response","227","145075","0.0-227.0","","<img src=""img/set1/S4.jpg"" width=""540"" height = ""360"" style=""border:16px solid orange"">","null","","","","","","","","",""
"null","","html-keyboard-response","228","145277","0.0-228.0","","","null","","","","","","","","",""
"609","","image-keyboard-response","229","145889","0.0-229.0","","img/set1/S2.jpg","68","2","structured_load","68","structured_load,structured_incentive,random,structured_normal","2,1,2,3,3,4","true","","",""
"null","","html-keyboard-response","230","146244","0.0-230.0","","<img src=""img/set1/S2.jpg"" width=""540"" height = ""360"" style=""border:16px solid orange"">","null","","","","","","","","",""
"null","","html-keyboard-response","231","146447","0.0-231.0","","","null","","","","","","","","",""
"1202","","image-keyboard-response","232","147652","0.0-232.0","","img/set1/S1.jpg","83","1","structured_load","83","structured_load,structured_incentive,random,structured_normal","2,1,2,3,3,4","true","","",""
"null","","html-keyboard-response","233","148008","0.0-233.0","","<img src=""img/set1/S1.jpg"" width=""540"" height = ""360"" style=""border:16px solid orange"">","null","","","","","","","","",""
"null","","html-keyboard-response","234","148214","0.0-234.0","","","null","","","","","","","","",""
"497.5","","image-keyboard-response","235","148715","0.0-235.0","","img/set1/S2.jpg","68","2","structured_load","68","structured_load,structured_incentive,random,structured_normal","2,1,2,3,3,4","true","","",""
"null","","html-keyboard-response","236","149073","0.0-236.0","","<img src=""img/set1/S2.jpg"" width=""540"" height = ""360"" style=""border:16px solid orange"">","null","","","","","","","","",""
"null","","html-keyboard-response","237","149277","0.0-237.0","","","null","","","","","","","","",""
"492.40000009536743","","image-keyboard-response","238","149773","0.0-238.0","","img/set1/S1.jpg","83","1","structured_load","83","structured_load,structured_incentive,random,structured_normal","2,1,2,3,3,4","true","","",""
"null","","html-keyboard-response","239","150130","0.0-239.0","","<img src=""img/set1/S1.jpg"" width=""540"" height = ""360"" style=""border:16px solid orange"">","null","","","","","","","","",""
"null","","html-keyboard-response","240","150337","0.0-240.0","","","null","","","","","","","","",""
"690.5999999046326","","image-keyboard-response","241","151030","0.0-241.0","","img/set1/S2.jpg","68","2","structured_load","68","structured_load,structured_incentive,random,structured_normal","2,1,2,3,3,4","true","","",""
"null","","html-keyboard-response","242","151387","0.0-242.0","","<img src=""img/set1/S2.jpg"" width=""540"" height = ""360"" style=""border:16px solid orange"">","null","","","","","","","","",""
"null","","html-keyboard-response","243","151594","0.0-243.0","","","null","","","","","","","","",""
"697.0999999046326","","image-keyboard-response","244","152294","0.0-244.0","","img/set1/S1.jpg","83","1","structured_load","83","structured_load,structured_incentive,random,structured_normal","2,1,2,3,3,4","true","","",""
"null","","html-keyboard-response","245","152651","0.0-245.0","","<img src=""img/set1/S1.jpg"" width=""540"" height = ""360"" style=""border:16px solid orange"">","null","","","","","","","","",""
"null","","html-keyboard-response","246","152858","0.0-246.0","","","null","","","","","","","","",""
"436.7999997138977","","image-keyboard-response","247","153297","0.0-247.0","","img/set1/S2.jpg","68","2","structured_load","68","structured_load,structured_incentive,random,structured_normal","2,1,2,3,3,4","true","","",""
"null","","html-keyboard-response","248","153656","0.0-248.0","","<img src=""img/set1/S2.jpg"" width=""540"" height = ""360"" style=""border:16px solid orange"">","null","","","","","","","","",""
"null","","html-keyboard-response","249","153860","0.0-249.0","","","null","","","","","","","","",""
"495.2999997138977","","image-keyboard-response","250","154358","0.0-250.0","","img/set1/S1.jpg","68","1","structured_load","83","structured_load,structured_incentive,random,structured_normal","2,1,2,3,3,4","false","","",""
"null","","html-keyboard-response","251","154712","0.0-251.0","","<img src=""img/set1/S1.jpg"" width=""540"" height = ""360"">","null","","","","","","","","",""
"null","","html-keyboard-response","252","154918","0.0-252.0","","","null","","","","","","","","",""
"524.1999998092651","","image-keyboard-response","253","155445","0.0-253.0","","img/set1/S2.jpg","68","2","structured_load","68","structured_load,structured_incentive,random,structured_normal","2,1,2,3,3,4","true","","",""
"null","","html-keyboard-response","254","155800","0.0-254.0","","<img src=""img/set1/S2.jpg"" width=""540"" height = ""360"" style=""border:16px solid orange"">","null","","","","","","","","",""
"null","","html-keyboard-response","255","156003","0.0-255.0","","","null","","","","","","","","",""
"421.69999980926514","","image-keyboard-response","256","156428","0.0-256.0","","img/set1/S1.jpg","83","1","structured_load","83","structured_load,structured_incentive,random,structured_normal","2,1,2,3,3,4","true","","",""
"null","","html-keyboard-response","257","156786","0.0-257.0","","<img src=""img/set1/S1.jpg"" width=""540"" height = ""360"" style=""border:16px solid orange"">","null","","","","","","","","",""
"null","","html-keyboard-response","258","156993","0.0-258.0","","","null","","","","","","","","",""
"657.1999998092651","","image-keyboard-response","259","157653","0.0-259.0","","img/set1/S2.jpg","83","2","structured_load","68","structured_load,structured_incentive,random,structured_normal","2,1,2,3,3,4","false","","",""
"null","","html-keyboard-response","260","158011","0.0-260.0","","<img src=""img/set1/S2.jpg"" width=""540"" height = ""360"">","null","","","","","","","","",""
"null","","html-keyboard-response","261","158218","0.0-261.0","","","null","","","","","","","","",""
"485.09999990463257","","image-keyboard-response","262","158706","0.0-262.0","","img/set1/S1.jpg","83","1","structured_load","83","structured_load,structured_incentive,random,structured_normal","2,1,2,3,3,4","true","","",""
"null","","html-keyboard-response","263","159060","0.0-263.0","","<img src=""img/set1/S1.jpg"" width=""540"" height = ""360"" style=""border:16px solid orange"">","null","","","","","","","","",""
"null","","html-keyboard-response","264","159268","0.0-264.0","","","null","","","","","","","","",""
"655.4000000953674","","image-keyboard-response","265","159926","0.0-265.0","","img/set1/S3.jpg","72","3","structured_load","72","structured_load,structured_incentive,random,structured_normal","2,1,2,3,3,4","true","","",""
"null","","html-keyboard-response","266","160281","0.0-266.0","","<img src=""img/set1/S3.jpg"" width=""540"" height = ""360"" style=""border:16px solid orange"">","null","","","","","","","","",""
"null","","html-keyboard-response","267","160488","0.0-267.0","","","null","","","","","","","","",""
"417.2000002861023","","image-keyboard-response","268","160908","0.0-268.0","","img/set1/S3.jpg","72","3","structured_load","72","structured_load,structured_incentive,random,structured_normal","2,1,2,3,3,4","true","","",""
"null","","html-keyboard-response","269","161265","0.0-269.0","","<img src=""img/set1/S3.jpg"" width=""540"" height = ""360"" style=""border:16px solid orange"">","null","","","","","","","","",""
"null","","html-keyboard-response","270","161470","0.0-270.0","","","null","","","","","","","","",""
"650","","image-keyboard-response","271","162123","0.0-271.0","","img/set1/S2.jpg","68","2","structured_load","68","structured_load,structured_incentive,random,structured_normal","2,1,2,3,3,4","true","","",""
"null","","html-keyboard-response","272","162477","0.0-272.0","","<img src=""img/set1/S2.jpg"" width=""540"" height = ""360"" style=""border:16px solid orange"">","null","","","","","","","","",""
"null","","html-keyboard-response","273","162683","0.0-273.0","","","null","","","","","","","","",""
"688.7999997138977","","image-keyboard-response","274","163374","0.0-274.0","","img/set1/S1.jpg","83","1","structured_load","83","structured_load,structured_incentive,random,structured_normal","2,1,2,3,3,4","true","","",""
"null","","html-keyboard-response","275","163733","0.0-275.0","","<img src=""img/set1/S1.jpg"" width=""540"" height = ""360"" style=""border:16px solid orange"">","null","","","","","","","","",""
"null","","html-keyboard-response","276","163939","0.0-276.0","","","null","","","","","","","","",""
"565.4000000953674","","image-keyboard-response","277","164507","0.0-277.0","","img/set1/S4.jpg","74","4","structured_load","74","structured_load,structured_incentive,random,structured_normal","2,1,2,3,3,4","true","","",""
"null","","html-keyboard-response","278","164862","0.0-278.0","","<img src=""img/set1/S4.jpg"" width=""540"" height = ""360"" style=""border:16px solid orange"">","null","","","","","","","","",""
"null","","html-keyboard-response","279","165069","0.0-279.0","","","null","","","","","","","","",""
"809.6999998092651","","image-keyboard-response","280","165881","0.0-280.0","","img/set1/S3.jpg","72","3","structured_load","72","structured_load,structured_incentive,random,structured_normal","2,1,2,3,3,4","true","","",""
"null","","html-keyboard-response","281","166239","0.0-281.0","","<img src=""img/set1/S3.jpg"" width=""540"" height = ""360"" style=""border:16px solid orange"">","null","","","","","","","","",""
"null","","html-keyboard-response","282","166443","0.0-282.0","","","null","","","","","","","","",""
"593.5999999046326","","image-keyboard-response","283","167040","0.0-283.0","","img/set1/S4.jpg","74","4","structured_load","74","structured_load,structured_incentive,random,structured_normal","2,1,2,3,3,4","true","","",""
"null","","html-keyboard-response","284","167393","0.0-284.0","","<img src=""img/set1/S4.jpg"" width=""540"" height = ""360"" style=""border:16px solid orange"">","null","","","","","","","","",""
"null","","html-keyboard-response","285","167598","0.0-285.0","","","null","","","","","","","","",""
"648.5999999046326","","image-keyboard-response","286","168250","0.0-286.0","","img/set1/S2.jpg","68","2","structured_load","68","structured_load,structured_incentive,random,structured_normal","2,1,2,3,3,4","true","","",""
"null","","html-keyboard-response","287","168608","0.0-287.0","","<img src=""img/set1/S2.jpg"" width=""540"" height = ""360"" style=""border:16px solid orange"">","null","","","","","","","","",""
"null","","html-keyboard-response","288","168814","0.0-288.0","","","null","","","","","","","","",""
"498.09999990463257","","image-keyboard-response","289","169315","0.0-289.0","","img/set1/S1.jpg","83","1","structured_load","83","structured_load,structured_incentive,random,structured_normal","2,1,2,3,3,4","true","","",""
"null","","html-keyboard-response","290","169672","0.0-290.0","","<img src=""img/set1/S1.jpg"" width=""540"" height = ""360"" style=""border:16px solid orange"">","null","","","","","","","","",""
"null","","html-keyboard-response","291","169877","0.0-291.0","","","null","","","","","","","","",""
"659.0999999046326","","image-keyboard-response","292","170539","0.0-292.0","","img/set1/S4.jpg","74","4","structured_load","74","structured_load,structured_incentive,random,structured_normal","2,1,2,3,3,4","true","","",""
"null","","html-keyboard-response","293","170893","0.0-293.0","","<img src=""img/set1/S4.jpg"" width=""540"" height = ""360"" style=""border:16px solid orange"">","null","","","","","","","","",""
"null","","html-keyboard-response","294","171098","0.0-294.0","","","null","","","","","","","","",""
"696.7999997138977","","image-keyboard-response","295","171797","0.0-295.0","","img/set1/S2.jpg","68","2","structured_load","68","structured_load,structured_incentive,random,structured_normal","2,1,2,3,3,4","true","","",""
"null","","html-keyboard-response","296","172156","0.0-296.0","","<img src=""img/set1/S2.jpg"" width=""540"" height = ""360"" style=""border:16px solid orange"">","null","","","","","","","","",""
"null","","html-keyboard-response","297","172360","0.0-297.0","","","null","","","","","","","","",""
"863.5999999046326","","image-keyboard-response","298","173226","0.0-298.0","","img/set1/S1.jpg","83","1","structured_load","83","structured_load,structured_incentive,random,structured_normal","2,1,2,3,3,4","true","","",""
"null","","html-keyboard-response","299","173584","0.0-299.0","","<img src=""img/set1/S1.jpg"" width=""540"" height = ""360"" style=""border:16px solid orange"">","null","","","","","","","","",""
"null","","html-keyboard-response","300","173791","0.0-300.0","","","null","","","","","","","","",""
"545.4000000953674","","image-keyboard-response","301","174340","0.0-301.0","","img/set1/S4.jpg","74","4","structured_load","74","structured_load,structured_incentive,random,structured_normal","2,1,2,3,3,4","true","","",""
"null","","html-keyboard-response","302","174699","0.0-302.0","","<img src=""img/set1/S4.jpg"" width=""540"" height = ""360"" style=""border:16px solid orange"">","null","","","","","","","","",""
"null","","html-keyboard-response","303","174903","0.0-303.0","","","null","","","","","","","","",""
"613.9000000953674","","image-keyboard-response","304","175520","0.0-304.0","","img/set1/S3.jpg","72","3","structured_load","72","structured_load,structured_incentive,random,structured_normal","2,1,2,3,3,4","true","","",""
"null","","html-keyboard-response","305","175877","0.0-305.0","","<img src=""img/set1/S3.jpg"" width=""540"" height = ""360"" style=""border:16px solid orange"">","null","","","","","","","","",""
"null","","html-keyboard-response","306","176081","0.0-306.0","","","null","","","","","","","","",""
"590.5","","image-keyboard-response","307","176674","0.0-307.0","","img/set1/S4.jpg","74","4","structured_load","74","structured_load,structured_incentive,random,structured_normal","2,1,2,3,3,4","true","","",""
"null","","html-keyboard-response","308","177032","0.0-308.0","","<img src=""img/set1/S4.jpg"" width=""540"" height = ""360"" style=""border:16px solid orange"">","null","","","","","","","","",""
"null","","html-keyboard-response","309","177240","0.0-309.0","","","null","","","","","","","","",""
"420.40000009536743","","image-keyboard-response","310","177662","0.0-310.0","","img/set1/S3.jpg","72","3","structured_load","72","structured_load,structured_incentive,random,structured_normal","2,1,2,3,3,4","true","","",""
"null","","html-keyboard-response","311","178018","0.0-311.0","","<img src=""img/set1/S3.jpg"" width=""540"" height = ""360"" style=""border:16px solid orange"">","null","","","","","","","","",""
"null","","html-keyboard-response","312","178222","0.0-312.0","","","null","","","","","","","","",""
"569.5","","image-keyboard-response","313","178794","0.0-313.0","","img/set1/S2.jpg","68","2","structured_load","68","structured_load,structured_incentive,random,structured_normal","2,1,2,3,3,4","true","","",""
"null","","html-keyboard-response","314","179151","0.0-314.0","","<img src=""img/set1/S2.jpg"" width=""540"" height = ""360"" style=""border:16px solid orange"">","null","","","","","","","","",""
"null","","html-keyboard-response","315","179354","0.0-315.0","","","null","","","","","","","","",""
"668.8999996185303","","image-keyboard-response","316","180026","0.0-316.0","","img/set1/S1.jpg","83","1","structured_load","83","structured_load,structured_incentive,random,structured_normal","2,1,2,3,3,4","true","","",""
"null","","html-keyboard-response","317","180383","0.0-317.0","","<img src=""img/set1/S1.jpg"" width=""540"" height = ""360"" style=""border:16px solid orange"">","null","","","","","","","","",""
"null","","html-keyboard-response","318","180590","0.0-318.0","","","null","","","","","","","","",""
"812.0999999046326","","image-keyboard-response","319","181404","0.0-319.0","","img/set1/S3.jpg","72","3","structured_load","72","structured_load,structured_incentive,random,structured_normal","2,1,2,3,3,4","true","","",""
"null","","html-keyboard-response","320","181759","0.0-320.0","","<img src=""img/set1/S3.jpg"" width=""540"" height = ""360"" style=""border:16px solid orange"">","null","","","","","","","","",""
"null","","html-keyboard-response","321","181966","0.0-321.0","","","null","","","","","","","","",""
"832.2999997138977","","image-keyboard-response","322","182802","0.0-322.0","","img/set1/S4.jpg","74","4","structured_load","74","structured_load,structured_incentive,random,structured_normal","2,1,2,3,3,4","true","","",""
"null","","html-keyboard-response","323","183159","0.0-323.0","","<img src=""img/set1/S4.jpg"" width=""540"" height = ""360"" style=""border:16px solid orange"">","null","","","","","","","","",""
"null","","html-keyboard-response","324","183362","0.0-324.0","","","null","","","","","","","","",""
"579","","image-keyboard-response","325","183944","0.0-325.0","","img/set1/S2.jpg","68","2","structured_load","68","structured_load,structured_incentive,random,structured_normal","2,1,2,3,3,4","true","","",""
"null","","html-keyboard-response","326","184302","0.0-326.0","","<img src=""img/set1/S2.jpg"" width=""540"" height = ""360"" style=""border:16px solid orange"">","null","","","","","","","","",""
"null","","html-keyboard-response","327","184509","0.0-327.0","","","null","","","","","","","","",""
"500.59999990463257","","image-keyboard-response","328","185013","0.0-328.0","","img/set1/S1.jpg","83","1","structured_load","83","structured_load,structured_incentive,random,structured_normal","2,1,2,3,3,4","true","","",""
"null","","html-keyboard-response","329","185370","0.0-329.0","","<img src=""img/set1/S1.jpg"" width=""540"" height = ""360"" style=""border:16px solid orange"">","null","","","","","","","","",""
"null","","html-keyboard-response","330","185576","0.0-330.0","","","null","","","","","","","","",""
"582","","image-keyboard-response","331","186162","0.0-331.0","","img/set1/S4.jpg","74","4","structured_load","74","structured_load,structured_incentive,random,structured_normal","2,1,2,3,3,4","true","","",""
"null","","html-keyboard-response","332","186520","0.0-332.0","","<img src=""img/set1/S4.jpg"" width=""540"" height = ""360"" style=""border:16px solid orange"">","null","","","","","","","","",""
"null","","html-keyboard-response","333","186726","0.0-333.0","","","null","","","","","","","","",""
"564.8000001907349","","image-keyboard-response","334","187293","0.0-334.0","","img/set1/S3.jpg","72","3","structured_load","72","structured_load,structured_incentive,random,structured_normal","2,1,2,3,3,4","true","","",""
"null","","html-keyboard-response","335","187652","0.0-335.0","","<img src=""img/set1/S3.jpg"" width=""540"" height = ""360"" style=""border:16px solid orange"">","null","","","","","","","","",""
"null","","html-keyboard-response","336","187859","0.0-336.0","","","null","","","","","","","","",""
"518.9000000953674","","image-keyboard-response","337","188381","0.0-337.0","","img/set1/S3.jpg","72","3","structured_load","72","structured_load,structured_incentive,random,structured_normal","2,1,2,3,3,4","true","","",""
"null","","html-keyboard-response","338","188738","0.0-338.0","","<img src=""img/set1/S3.jpg"" width=""540"" height = ""360"" style=""border:16px solid orange"">","null","","","","","","","","",""
"null","","html-keyboard-response","339","188945","0.0-339.0","","","null","","","","","","","","",""
"652.9000000953674","","image-keyboard-response","340","189600","0.0-340.0","","img/set1/S4.jpg","74","4","structured_load","74","structured_load,structured_incentive,random,structured_normal","2,1,2,3,3,4","true","","",""
"null","","html-keyboard-response","341","189959","0.0-341.0","","<img src=""img/set1/S4.jpg"" width=""540"" height = ""360"" style=""border:16px solid orange"">","null","","","","","","","","",""
"null","","html-keyboard-response","342","190166","0.0-342.0","","","null","","","","","","","","",""
"622.2000002861023","","image-keyboard-response","343","190791","0.0-343.0","","img/set1/S3.jpg","72","3","structured_load","72","structured_load,structured_incentive,random,structured_normal","2,1,2,3,3,4","true","","",""
"null","","html-keyboard-response","344","191144","0.0-344.0","","<img src=""img/set1/S3.jpg"" width=""540"" height = ""360"" style=""border:16px solid orange"">","null","","","","","","","","",""
"null","","html-keyboard-response","345","191352","0.0-345.0","","","null","","","","","","","","",""
"552.0999999046326","","image-keyboard-response","346","191906","0.0-346.0","","img/set1/S2.jpg","68","2","structured_load","68","structured_load,structured_incentive,random,structured_normal","2,1,2,3,3,4","true","","",""
"null","","html-keyboard-response","347","192261","0.0-347.0","","<img src=""img/set1/S2.jpg"" width=""540"" height = ""360"" style=""border:16px solid orange"">","null","","","","","","","","",""
"null","","html-keyboard-response","348","192468","0.0-348.0","","","null","","","","","","","","",""
"752.7000002861023","","image-keyboard-response","349","193224","0.0-349.0","","img/set1/S1.jpg","83","1","structured_load","83","structured_load,structured_incentive,random,structured_normal","2,1,2,3,3,4","true","","",""
"null","","html-keyboard-response","350","193581","0.0-350.0","","<img src=""img/set1/S1.jpg"" width=""540"" height = ""360"" style=""border:16px solid orange"">","null","","","","","","","","",""
"null","","html-keyboard-response","351","193788","0.0-351.0","","","null","","","","","","","","",""
"575.4000000953674","","image-keyboard-response","352","194366","0.0-352.0","","img/set1/S4.jpg","74","4","structured_load","74","structured_load,structured_incentive,random,structured_normal","2,1,2,3,3,4","true","","",""
"null","","html-keyboard-response","353","194721","0.0-353.0","","<img src=""img/set1/S4.jpg"" width=""540"" height = ""360"" style=""border:16px solid orange"">","null","","","","","","","","",""
"null","","html-keyboard-response","354","194926","0.0-354.0","","","null","","","","","","","","",""
"428.69999980926514","","image-keyboard-response","355","195357","0.0-355.0","","img/set1/S4.jpg","74","4","structured_load","74","structured_load,structured_incentive,random,structured_normal","2,1,2,3,3,4","true","","",""
"null","","html-keyboard-response","356","195714","0.0-356.0","","<img src=""img/set1/S4.jpg"" width=""540"" height = ""360"" style=""border:16px solid orange"">","null","","","","","","","","",""
"null","","html-keyboard-response","357","195922","0.0-357.0","","","null","","","","","","","","",""
"513","","image-keyboard-response","358","196438","0.0-358.0","","img/set1/S3.jpg","72","3","structured_load","72","structured_load,structured_incentive,random,structured_normal","2,1,2,3,3,4","true","","",""
"null","","html-keyboard-response","359","196793","0.0-359.0","","<img src=""img/set1/S3.jpg"" width=""540"" height = ""360"" style=""border:16px solid orange"">","null","","","","","","","","",""
"null","","html-keyboard-response","360","197000","0.0-360.0","","","null","","","","","","","","",""
"615.0999999046326","","image-keyboard-response","361","197618","0.0-361.0","","img/set1/S4.jpg","74","4","structured_load","74","structured_load,structured_incentive,random,structured_normal","2,1,2,3,3,4","true","","",""
"null","","html-keyboard-response","362","197976","0.0-362.0","","<img src=""img/set1/S4.jpg"" width=""540"" height = ""360"" style=""border:16px solid orange"">","null","","","","","","","","",""
"null","","html-keyboard-response","363","198180","0.0-363.0","","","null","","","","","","","","",""
"3569.800000190735","","survey-multi-choice","364","201755","0.0-364.0","","","","","","","","","","{""Q0"":""Picture B""}","[0]",""
"37458.800000190735","","html-keyboard-response","365","239220","0.0-365.0","","<p class=""center-content"">You have completed a block! </p><p class=""center-content"">Press any key on the keyboard to continue, </p><p class=""center-content"">or wait for the automatic progression to the next block after one minute.</p>","32","","","","","","","","",""
"3902.699999809265","","instructions","366","243125","0.0-366.0","[{""page_index"":0,""viewing_time"":3902}]","","","","","","","","","","",""
"11419.099999904633","","instructions","367","254545","0.0-367.0","[{""page_index"":0,""viewing_time"":6227.89999961853},{""page_index"":1,""viewing_time"":5190.400000095367}]","","","","","","","","","","",""
"740.8000001907349","","image-keyboard-response","368","255288","0.0-368.0","","img/set2/S1.jpg","68","1","structured_incentive","83","structured_load,structured_incentive,random,structured_normal","2,1,2,3,3,4","false","","",""
"null","","html-keyboard-response","369","255644","0.0-369.0","","<img src=""img/set2/S1.jpg"" width=""540"" height = ""360"">","null","","","","","","","","",""
"null","","html-keyboard-response","370","255851","0.0-370.0","","","null","","","","","","","","",""
"493","","image-keyboard-response","371","256347","0.0-371.0","","img/set2/S2.jpg","83","2","structured_incentive","68","structured_load,structured_incentive,random,structured_normal","2,1,2,3,3,4","false","","",""
"null","","html-keyboard-response","372","256705","0.0-372.0","","<img src=""img/set2/S2.jpg"" width=""540"" height = ""360"">","null","","","","","","","","",""
"null","","html-keyboard-response","373","256908","0.0-373.0","","","null","","","","","","","","",""
"370.7999997138977","","image-keyboard-response","374","257281","0.0-374.0","","img/set2/S3.jpg","74","3","structured_incentive","72","structured_load,structured_incentive,random,structured_normal","2,1,2,3,3,4","false","","",""
"null","","html-keyboard-response","375","257635","0.0-375.0","","<img src=""img/set2/S3.jpg"" width=""540"" height = ""360"">","null","","","","","","","","",""
"null","","html-keyboard-response","376","257841","0.0-376.0","","","null","","","","","","","","",""
"null","","image-keyboard-response","377","260349","0.0-377.0","","img/set2/S1.jpg","null","1","structured_incentive","83","structured_load,structured_incentive,random,structured_normal","2,1,2,3,3,4","false","","",""
"null","","html-keyboard-response","378","260707","0.0-378.0","","<img src=""img/set2/S1.jpg"" width=""540"" height = ""360"">","null","","","","","","","","",""
"null","","html-keyboard-response","379","260915","0.0-379.0","","","null","","","","","","","","",""
"949.5","","image-keyboard-response","380","261867","0.0-380.0","","img/set2/S1.jpg","72","1","structured_incentive","83","structured_load,structured_incentive,random,structured_normal","2,1,2,3,3,4","false","","",""
"null","","html-keyboard-response","381","262225","0.0-381.0","","<img src=""img/set2/S1.jpg"" width=""540"" height = ""360"">","null","","","","","","","","",""
"null","","html-keyboard-response","382","262432","0.0-382.0","","","null","","","","","","","","",""
"481","","image-keyboard-response","383","262916","0.0-383.0","","img/set2/S4.jpg","74","4","structured_incentive","74","structured_load,structured_incentive,random,structured_normal","2,1,2,3,3,4","true","","",""
"null","","html-keyboard-response","384","263275","0.0-384.0","","<img src=""img/set2/S4.jpg"" width=""540"" height = ""360"" style=""border:16px solid orange"">","null","","","","","","","","",""
"null","","html-keyboard-response","385","263481","0.0-385.0","","","null","","","","","","","","",""
"814.3000001907349","","image-keyboard-response","386","264298","0.0-386.0","","img/set2/S2.jpg","68","2","structured_incentive","68","structured_load,structured_incentive,random,structured_normal","2,1,2,3,3,4","true","","",""
"null","","html-keyboard-response","387","264652","0.0-387.0","","<img src=""img/set2/S2.jpg"" width=""540"" height = ""360"" style=""border:16px solid orange"">","null","","","","","","","","",""
"null","","html-keyboard-response","388","264857","0.0-388.0","","","null","","","","","","","","",""
"793.0999999046326","","image-keyboard-response","389","265653","0.0-389.0","","img/set2/S3.jpg","72","3","structured_incentive","72","structured_load,structured_incentive,random,structured_normal","2,1,2,3,3,4","true","","",""
"null","","html-keyboard-response","390","266010","0.0-390.0","","<img src=""img/set2/S3.jpg"" width=""540"" height = ""360"" style=""border:16px solid Violet"">","null","","","","","","","","",""
"null","","html-keyboard-response","391","266217","0.0-391.0","","","null","","","","","","","","",""
"595.4000000953674","","image-keyboard-response","392","266816","0.0-392.0","","img/set2/S2.jpg","68","2","structured_incentive","68","structured_load,structured_incentive,random,structured_normal","2,1,2,3,3,4","true","","",""
"null","","html-keyboard-response","393","267174","0.0-393.0","","<img src=""img/set2/S2.jpg"" width=""540"" height = ""360"" style=""border:16px solid orange"">","null","","","","","","","","",""
"null","","html-keyboard-response","394","267377","0.0-394.0","","","null","","","","","","","","",""
"468.80000019073486","","image-keyboard-response","395","267848","0.0-395.0","","img/set2/S3.jpg","72","3","structured_incentive","72","structured_load,structured_incentive,random,structured_normal","2,1,2,3,3,4","true","","",""
"null","","html-keyboard-response","396","268205","0.0-396.0","","<img src=""img/set2/S3.jpg"" width=""540"" height = ""360"" style=""border:16px solid Violet"">","null","","","","","","","","",""
"null","","html-keyboard-response","397","268408","0.0-397.0","","","null","","","","","","","","",""
"666.7999997138977","","image-keyboard-response","398","269076","0.0-398.0","","img/set2/S1.jpg","68","1","structured_incentive","83","structured_load,structured_incentive,random,structured_normal","2,1,2,3,3,4","false","","",""
"null","","html-keyboard-response","399","269432","0.0-399.0","","<img src=""img/set2/S1.jpg"" width=""540"" height = ""360"">","null","","","","","","","","",""
"null","","html-keyboard-response","400","269639","0.0-400.0","","","null","","","","","","","","",""
"713.2999997138977","","image-keyboard-response","401","270355","0.0-401.0","","img/set2/S4.jpg","74","4","structured_incentive","74","structured_load,structured_incentive,random,structured_normal","2,1,2,3,3,4","true","","",""
"null","","html-keyboard-response","402","270710","0.0-402.0","","<img src=""img/set2/S4.jpg"" width=""540"" height = ""360"" style=""border:16px solid orange"">","null","","","","","","","","",""
"null","","html-keyboard-response","403","270917","0.0-403.0","","","null","","","","","","","","",""
"789.1999998092651","","image-keyboard-response","404","271709","0.0-404.0","","img/set2/S2.jpg","68","2","structured_incentive","68","structured_load,structured_incentive,random,structured_normal","2,1,2,3,3,4","true","","",""
"null","","html-keyboard-response","405","272067","0.0-405.0","","<img src=""img/set2/S2.jpg"" width=""540"" height = ""360"" style=""border:16px solid orange"">","null","","","","","","","","",""
"null","","html-keyboard-response","406","272274","0.0-406.0","","","null","","","","","","","","",""
"576.6999998092651","","image-keyboard-response","407","272854","0.0-407.0","","img/set2/S3.jpg","72","3","structured_incentive","72","structured_load,structured_incentive,random,structured_normal","2,1,2,3,3,4","true","","",""
"null","","html-keyboard-response","408","273213","0.0-408.0","","<img src=""img/set2/S3.jpg"" width=""540"" height = ""360"" style=""border:16px solid Violet"">","null","","","","","","","","",""
"null","","html-keyboard-response","409","273420","0.0-409.0","","","null","","","","","","","","",""
"667.5999999046326","","image-keyboard-response","410","274091","0.0-410.0","","img/set2/S4.jpg","83","4","structured_incentive","74","structured_load,structured_incentive,random,structured_normal","2,1,2,3,3,4","false","","",""
"null","","html-keyboard-response","411","274450","0.0-411.0","","<img src=""img/set2/S4.jpg"" width=""540"" height = ""360"">","null","","","","","","","","",""
"null","","html-keyboard-response","412","274657","0.0-412.0","","","null","","","","","","","","",""
"525.5","","image-keyboard-response","413","275185","0.0-413.0","","img/set2/S1.jpg","68","1","structured_incentive","83","structured_load,structured_incentive,random,structured_normal","2,1,2,3,3,4","false","","",""
"null","","html-keyboard-response","414","275540","0.0-414.0","","<img src=""img/set2/S1.jpg"" width=""540"" height = ""360"">","null","","","","","","","","",""
"null","","html-keyboard-response","415","275745","0.0-415.0","","","null","","","","","","","","",""
"384.90000009536743","","image-keyboard-response","416","276132","0.0-416.0","","img/set2/S4.jpg","72","4","structured_incentive","74","structured_load,structured_incentive,random,structured_normal","2,1,2,3,3,4","false","","",""
"null","","html-keyboard-response","417","276491","0.0-417.0","","<img src=""img/set2/S4.jpg"" width=""540"" height = ""360"">","null","","","","","","","","",""
"null","","html-keyboard-response","418","276698","0.0-418.0","","","null","","","","","","","","",""
"491.30000019073486","","image-keyboard-response","419","277192","0.0-419.0","","img/set2/S1.jpg","74","1","structured_incentive","83","structured_load,structured_incentive,random,structured_normal","2,1,2,3,3,4","false","","",""
"null","","html-keyboard-response","420","277551","0.0-420.0","","<img src=""img/set2/S1.jpg"" width=""540"" height = ""360"">","null","","","","","","","","",""
"null","","html-keyboard-response","421","277758","0.0-421.0","","","null","","","","","","","","",""
"542.1999998092651","","image-keyboard-response","422","278302","0.0-422.0","","img/set2/S2.jpg","72","2","structured_incentive","68","structured_load,structured_incentive,random,structured_normal","2,1,2,3,3,4","false","","",""
"null","","html-keyboard-response","423","278657","0.0-423.0","","<img src=""img/set2/S2.jpg"" width=""540"" height = ""360"">","null","","","","","","","","",""
"null","","html-keyboard-response","424","278862","0.0-424.0","","","null","","","","","","","","",""
"380.30000019073486","","image-keyboard-response","425","279246","0.0-425.0","","img/set2/S3.jpg","83","3","structured_incentive","72","structured_load,structured_incentive,random,structured_normal","2,1,2,3,3,4","false","","",""
"null","","html-keyboard-response","426","279604","0.0-426.0","","<img src=""img/set2/S3.jpg"" width=""540"" height = ""360"">","null","","","","","","","","",""
"null","","html-keyboard-response","427","279807","0.0-427.0","","","null","","","","","","","","",""
"609.6999998092651","","image-keyboard-response","428","280420","0.0-428.0","","img/set2/S2.jpg","83","2","structured_incentive","68","structured_load,structured_incentive,random,structured_normal","2,1,2,3,3,4","false","","",""
"null","","html-keyboard-response","429","280774","0.0-429.0","","<img src=""img/set2/S2.jpg"" width=""540"" height = ""360"">","null","","","","","","","","",""
"null","","html-keyboard-response","430","280980","0.0-430.0","","","null","","","","","","","","",""
"430.90000009536743","","image-keyboard-response","431","281413","0.0-431.0","","img/set2/S3.jpg","72","3","structured_incentive","72","structured_load,structured_incentive,random,structured_normal","2,1,2,3,3,4","true","","",""
"null","","html-keyboard-response","432","281772","0.0-432.0","","<img src=""img/set2/S3.jpg"" width=""540"" height = ""360"" style=""border:16px solid Violet"">","null","","","","","","","","",""
"null","","html-keyboard-response","433","281979","0.0-433.0","","","null","","","","","","","","",""
"792","","image-keyboard-response","434","282774","0.0-434.0","","img/set2/S2.jpg","68","2","structured_incentive","68","structured_load,structured_incentive,random,structured_normal","2,1,2,3,3,4","true","","",""
"null","","html-keyboard-response","435","283129","0.0-435.0","","<img src=""img/set2/S2.jpg"" width=""540"" height = ""360"" style=""border:16px solid orange"">","null","","","","","","","","",""
"null","","html-keyboard-response","436","283332","0.0-436.0","","","null","","","","","","","","",""
"537","","image-keyboard-response","437","283871","0.0-437.0","","img/set2/S3.jpg","72","3","structured_incentive","72","structured_load,structured_incentive,random,structured_normal","2,1,2,3,3,4","true","","",""
"null","","html-keyboard-response","438","284226","0.0-438.0","","<img src=""img/set2/S3.jpg"" width=""540"" height = ""360"" style=""border:16px solid Violet"">","null","","","","","","","","",""
"null","","html-keyboard-response","439","284430","0.0-439.0","","","null","","","","","","","","",""
"488.7000002861023","","image-keyboard-response","440","284921","0.0-440.0","","img/set2/S2.jpg","68","2","structured_incentive","68","structured_load,structured_incentive,random,structured_normal","2,1,2,3,3,4","true","","",""
"null","","html-keyboard-response","441","285277","0.0-441.0","","<img src=""img/set2/S2.jpg"" width=""540"" height = ""360"" style=""border:16px solid orange"">","null","","","","","","","","",""
"null","","html-keyboard-response","442","285481","0.0-442.0","","","null","","","","","","","","",""
"595.7000002861023","","image-keyboard-response","443","286080","0.0-443.0","","img/set2/S3.jpg","72","3","structured_incentive","72","structured_load,structured_incentive,random,structured_normal","2,1,2,3,3,4","true","","",""
"null","","html-keyboard-response","444","286437","0.0-444.0","","<img src=""img/set2/S3.jpg"" width=""540"" height = ""360"" style=""border:16px solid Violet"">","null","","","","","","","","",""
"null","","html-keyboard-response","445","286640","0.0-445.0","","","null","","","","","","","","",""
"490.59999990463257","","image-keyboard-response","446","287134","0.0-446.0","","img/set2/S1.jpg","68","1","structured_incentive","83","structured_load,structured_incentive,random,structured_normal","2,1,2,3,3,4","false","","",""
"null","","html-keyboard-response","447","287491","0.0-447.0","","<img src=""img/set2/S1.jpg"" width=""540"" height = ""360"">","null","","","","","","","","",""
"null","","html-keyboard-response","448","287693","0.0-448.0","","","null","","","","","","","","",""
"811.4000000953674","","image-keyboard-response","449","288507","0.0-449.0","","img/set2/S2.jpg","83","2","structured_incentive","68","structured_load,structured_incentive,random,structured_normal","2,1,2,3,3,4","false","","",""
"null","","html-keyboard-response","450","288866","0.0-450.0","","<img src=""img/set2/S2.jpg"" width=""540"" height = ""360"">","null","","","","","","","","",""
"null","","html-keyboard-response","451","289069","0.0-451.0","","","null","","","","","","","","",""
"574.0999999046326","","image-keyboard-response","452","289646","0.0-452.0","","img/set2/S3.jpg","72","3","structured_incentive","72","structured_load,structured_incentive,random,structured_normal","2,1,2,3,3,4","true","","",""
"null","","html-keyboard-response","453","290001","0.0-453.0","","<img src=""img/set2/S3.jpg"" width=""540"" height = ""360"" style=""border:16px solid Violet"">","null","","","","","","","","",""
"null","","html-keyboard-response","454","290207","0.0-454.0","","","null","","","","","","","","",""
"578.3000001907349","","image-keyboard-response","455","290788","0.0-455.0","","img/set2/S1.jpg","68","1","structured_incentive","83","structured_load,structured_incentive,random,structured_normal","2,1,2,3,3,4","false","","",""
"null","","html-keyboard-response","456","291142","0.0-456.0","","<img src=""img/set2/S1.jpg"" width=""540"" height = ""360"">","null","","","","","","","","",""
"null","","html-keyboard-response","457","291348","0.0-457.0","","","null","","","","","","","","",""
"684.7000002861023","","image-keyboard-response","458","292035","0.0-458.0","","img/set2/S1.jpg","74","1","structured_incentive","83","structured_load,structured_incentive,random,structured_normal","2,1,2,3,3,4","false","","",""
"null","","html-keyboard-response","459","292392","0.0-459.0","","<img src=""img/set2/S1.jpg"" width=""540"" height = ""360"">","null","","","","","","","","",""
"null","","html-keyboard-response","460","292599","0.0-460.0","","","null","","","","","","","","",""
"952.5999999046326","","image-keyboard-response","461","293554","0.0-461.0","","img/set2/S2.jpg","68","2","structured_incentive","68","structured_load,structured_incentive,random,structured_normal","2,1,2,3,3,4","true","","",""
"null","","html-keyboard-response","462","293907","0.0-462.0","","<img src=""img/set2/S2.jpg"" width=""540"" height = ""360"" style=""border:16px solid orange"">","null","","","","","","","","",""
"null","","html-keyboard-response","463","294114","0.0-463.0","","","null","","","","","","","","",""
"501.19999980926514","","image-keyboard-response","464","294618","0.0-464.0","","img/set2/S3.jpg","72","3","structured_incentive","72","structured_load,structured_incentive,random,structured_normal","2,1,2,3,3,4","true","","",""
"null","","html-keyboard-response","465","294974","0.0-465.0","","<img src=""img/set2/S3.jpg"" width=""540"" height = ""360"" style=""border:16px solid Violet"">","null","","","","","","","","",""
"null","","html-keyboard-response","466","295181","0.0-466.0","","","null","","","","","","","","",""
"585.1999998092651","","image-keyboard-response","467","295769","0.0-467.0","","img/set2/S2.jpg","68","2","structured_incentive","68","structured_load,structured_incentive,random,structured_normal","2,1,2,3,3,4","true","","",""
"null","","html-keyboard-response","468","296124","0.0-468.0","","<img src=""img/set2/S2.jpg"" width=""540"" height = ""360"" style=""border:16px solid orange"">","null","","","","","","","","",""
"null","","html-keyboard-response","469","296330","0.0-469.0","","","null","","","","","","","","",""
"582.8999996185303","","image-keyboard-response","470","296915","0.0-470.0","","img/set2/S3.jpg","72","3","structured_incentive","72","structured_load,structured_incentive,random,structured_normal","2,1,2,3,3,4","true","","",""
"null","","html-keyboard-response","471","297273","0.0-471.0","","<img src=""img/set2/S3.jpg"" width=""540"" height = ""360"" style=""border:16px solid Violet"">","null","","","","","","","","",""
"null","","html-keyboard-response","472","297477","0.0-472.0","","","null","","","","","","","","",""
"697.4000000953674","","image-keyboard-response","473","298177","0.0-473.0","","img/set2/S1.jpg","83","1","structured_incentive","83","structured_load,structured_incentive,random,structured_normal","2,1,2,3,3,4","true","","",""
"null","","html-keyboard-response","474","298533","0.0-474.0","","<img src=""img/set2/S1.jpg"" width=""540"" height = ""360"" style=""border:16px solid orange"">","null","","","","","","","","",""
"null","","html-keyboard-response","475","298739","0.0-475.0","","","null","","","","","","","","",""
"649.9000000953674","","image-keyboard-response","476","299392","0.0-476.0","","img/set2/S2.jpg","68","2","structured_incentive","68","structured_load,structured_incentive,random,structured_normal","2,1,2,3,3,4","true","","",""
"null","","html-keyboard-response","477","299748","0.0-477.0","","<img src=""img/set2/S2.jpg"" width=""540"" height = ""360"" style=""border:16px solid orange"">","null","","","","","","","","",""
"null","","html-keyboard-response","478","299952","0.0-478.0","","","null","","","","","","","","",""
"482.59999990463257","","image-keyboard-response","479","300437","0.0-479.0","","img/set2/S3.jpg","72","3","structured_incentive","72","structured_load,structured_incentive,random,structured_normal","2,1,2,3,3,4","true","","",""
"null","","html-keyboard-response","480","300796","0.0-480.0","","<img src=""img/set2/S3.jpg"" width=""540"" height = ""360"" style=""border:16px solid Violet"">","null","","","","","","","","",""
"null","","html-keyboard-response","481","301001","0.0-481.0","","","null","","","","","","","","",""
"596.4000000953674","","image-keyboard-response","482","301600","0.0-482.0","","img/set2/S1.jpg","74","1","structured_incentive","83","structured_load,structured_incentive,random,structured_normal","2,1,2,3,3,4","false","","",""
"null","","html-keyboard-response","483","301957","0.0-483.0","","<img src=""img/set2/S1.jpg"" width=""540"" height = ""360"">","null","","","","","","","","",""
"null","","html-keyboard-response","484","302159","0.0-484.0","","","null","","","","","","","","",""
"628.9000000953674","","image-keyboard-response","485","302791","0.0-485.0","","img/set2/S1.jpg","83","1","structured_incentive","83","structured_load,structured_incentive,random,structured_normal","2,1,2,3,3,4","true","","",""
"null","","html-keyboard-response","486","303144","0.0-486.0","","<img src=""img/set2/S1.jpg"" width=""540"" height = ""360"" style=""border:16px solid orange"">","null","","","","","","","","",""
"null","","html-keyboard-response","487","303351","0.0-487.0","","","null","","","","","","","","",""
"732.4000000953674","","image-keyboard-response","488","304087","0.0-488.0","","img/set2/S4.jpg","74","4","structured_incentive","74","structured_load,structured_incentive,random,structured_normal","2,1,2,3,3,4","true","","",""
"null","","html-keyboard-response","489","304445","0.0-489.0","","<img src=""img/set2/S4.jpg"" width=""540"" height = ""360"" style=""border:16px solid orange"">","null","","","","","","","","",""
"null","","html-keyboard-response","490","304652","0.0-490.0","","","null","","","","","","","","",""
"662.5","","image-keyboard-response","491","305317","0.0-491.0","","img/set2/S1.jpg","83","1","structured_incentive","83","structured_load,structured_incentive,random,structured_normal","2,1,2,3,3,4","true","","",""
"null","","html-keyboard-response","492","305674","0.0-492.0","","<img src=""img/set2/S1.jpg"" width=""540"" height = ""360"" style=""border:16px solid orange"">","null","","","","","","","","",""
"null","","html-keyboard-response","493","305880","0.0-493.0","","","null","","","","","","","","",""
"608","","image-keyboard-response","494","306490","0.0-494.0","","img/set2/S4.jpg","74","4","structured_incentive","74","structured_load,structured_incentive,random,structured_normal","2,1,2,3,3,4","true","","",""
"null","","html-keyboard-response","495","306849","0.0-495.0","","<img src=""img/set2/S4.jpg"" width=""540"" height = ""360"" style=""border:16px solid orange"">","null","","","","","","","","",""
"null","","html-keyboard-response","496","307052","0.0-496.0","","","null","","","","","","","","",""
"619.6000003814697","","image-keyboard-response","497","307674","0.0-497.0","","img/set2/S1.jpg","83","1","structured_incentive","83","structured_load,structured_incentive,random,structured_normal","2,1,2,3,3,4","true","","",""
"null","","html-keyboard-response","498","308033","0.0-498.0","","<img src=""img/set2/S1.jpg"" width=""540"" height = ""360"" style=""border:16px solid orange"">","null","","","","","","","","",""
"null","","html-keyboard-response","499","308240","0.0-499.0","","","null","","","","","","","","",""
"642.0999999046326","","image-keyboard-response","500","308885","0.0-500.0","","img/set2/S2.jpg","68","2","structured_incentive","68","structured_load,structured_incentive,random,structured_normal","2,1,2,3,3,4","true","","",""
"null","","html-keyboard-response","501","309240","0.0-501.0","","<img src=""img/set2/S2.jpg"" width=""540"" height = ""360"" style=""border:16px solid orange"">","null","","","","","","","","",""
"null","","html-keyboard-response","502","309446","0.0-502.0","","","null","","","","","","","","",""
"440","","image-keyboard-response","503","309889","0.0-503.0","","img/set2/S3.jpg","72","3","structured_incentive","72","structured_load,structured_incentive,random,structured_normal","2,1,2,3,3,4","true","","",""
"null","","html-keyboard-response","504","310246","0.0-504.0","","<img src=""img/set2/S3.jpg"" width=""540"" height = ""360"" style=""border:16px solid Violet"">","null","","","","","","","","",""
"null","","html-keyboard-response","505","310453","0.0-505.0","","","null","","","","","","","","",""
"926.6000003814697","","image-keyboard-response","506","311382","0.0-506.0","","img/set2/S2.jpg","68","2","structured_incentive","68","structured_load,structured_incentive,random,structured_normal","2,1,2,3,3,4","true","","",""
"null","","html-keyboard-response","507","311740","0.0-507.0","","<img src=""img/set2/S2.jpg"" width=""540"" height = ""360"" style=""border:16px solid orange"">","null","","","","","","","","",""
"null","","html-keyboard-response","508","311947","0.0-508.0","","","null","","","","","","","","",""
"501.09999990463257","","image-keyboard-response","509","312451","0.0-509.0","","img/set2/S3.jpg","72","3","structured_incentive","72","structured_load,structured_incentive,random,structured_normal","2,1,2,3,3,4","true","","",""
"null","","html-keyboard-response","510","312807","0.0-510.0","","<img src=""img/set2/S3.jpg"" width=""540"" height = ""360"" style=""border:16px solid Violet"">","null","","","","","","","","",""
"null","","html-keyboard-response","511","313013","0.0-511.0","","","null","","","","","","","","",""
"1107.5999999046326","","image-keyboard-response","512","314123","0.0-512.0","","img/set2/S1.jpg","83","1","structured_incentive","83","structured_load,structured_incentive,random,structured_normal","2,1,2,3,3,4","true","","",""
"null","","html-keyboard-response","513","314479","0.0-513.0","","<img src=""img/set2/S1.jpg"" width=""540"" height = ""360"" style=""border:16px solid orange"">","null","","","","","","","","",""
"null","","html-keyboard-response","514","314686","0.0-514.0","","","null","","","","","","","","",""
"568.1999998092651","","image-keyboard-response","515","315257","0.0-515.0","","img/set2/S1.jpg","83","1","structured_incentive","83","structured_load,structured_incentive,random,structured_normal","2,1,2,3,3,4","true","","",""
"null","","html-keyboard-response","516","315612","0.0-516.0","","<img src=""img/set2/S1.jpg"" width=""540"" height = ""360"" style=""border:16px solid orange"">","null","","","","","","","","",""
"null","","html-keyboard-response","517","315816","0.0-517.0","","","null","","","","","","","","",""
"611.2999997138977","","image-keyboard-response","518","316430","0.0-518.0","","img/set2/S2.jpg","68","2","structured_incentive","68","structured_load,structured_incentive,random,structured_normal","2,1,2,3,3,4","true","","",""
"null","","html-keyboard-response","519","316788","0.0-519.0","","<img src=""img/set2/S2.jpg"" width=""540"" height = ""360"" style=""border:16px solid orange"">","null","","","","","","","","",""
"null","","html-keyboard-response","520","316993","0.0-520.0","","","null","","","","","","","","",""
"851.1000003814697","","image-keyboard-response","521","317848","0.0-521.0","","img/set2/S3.jpg","72","3","structured_incentive","72","structured_load,structured_incentive,random,structured_normal","2,1,2,3,3,4","true","","",""
"null","","html-keyboard-response","522","318204","0.0-522.0","","<img src=""img/set2/S3.jpg"" width=""540"" height = ""360"" style=""border:16px solid Violet"">","null","","","","","","","","",""
"null","","html-keyboard-response","523","318407","0.0-523.0","","","null","","","","","","","","",""
"555.2999997138977","","image-keyboard-response","524","318965","0.0-524.0","","img/set2/S2.jpg","68","2","structured_incentive","68","structured_load,structured_incentive,random,structured_normal","2,1,2,3,3,4","true","","",""
"null","","html-keyboard-response","525","319323","0.0-525.0","","<img src=""img/set2/S2.jpg"" width=""540"" height = ""360"" style=""border:16px solid orange"">","null","","","","","","","","",""
"null","","html-keyboard-response","526","319530","0.0-526.0","","","null","","","","","","","","",""
"493.09999990463257","","image-keyboard-response","527","320026","0.0-527.0","","img/set2/S3.jpg","72","3","structured_incentive","72","structured_load,structured_incentive,random,structured_normal","2,1,2,3,3,4","true","","",""
"null","","html-keyboard-response","528","320382","0.0-528.0","","<img src=""img/set2/S3.jpg"" width=""540"" height = ""360"" style=""border:16px solid Violet"">","null","","","","","","","","",""
"null","","html-keyboard-response","529","320589","0.0-529.0","","","null","","","","","","","","",""
"455.19999980926514","","image-keyboard-response","530","321048","0.0-530.0","","img/set2/S2.jpg","68","2","structured_incentive","68","structured_load,structured_incentive,random,structured_normal","2,1,2,3,3,4","true","","",""
"null","","html-keyboard-response","531","321406","0.0-531.0","","<img src=""img/set2/S2.jpg"" width=""540"" height = ""360"" style=""border:16px solid orange"">","null","","","","","","","","",""
"null","","html-keyboard-response","532","321613","0.0-532.0","","","null","","","","","","","","",""
"516.5","","image-keyboard-response","533","322133","0.0-533.0","","img/set2/S3.jpg","72","3","structured_incentive","72","structured_load,structured_incentive,random,structured_normal","2,1,2,3,3,4","true","","",""
"null","","html-keyboard-response","534","322489","0.0-534.0","","<img src=""img/set2/S3.jpg"" width=""540"" height = ""360"" style=""border:16px solid Violet"">","null","","","","","","","","",""
"null","","html-keyboard-response","535","322693","0.0-535.0","","","null","","","","","","","","",""
"780.5","","image-keyboard-response","536","323475","0.0-536.0","","img/set2/S4.jpg","74","4","structured_incentive","74","structured_load,structured_incentive,random,structured_normal","2,1,2,3,3,4","true","","",""
"null","","html-keyboard-response","537","323829","0.0-537.0","","<img src=""img/set2/S4.jpg"" width=""540"" height = ""360"" style=""border:16px solid orange"">","null","","","","","","","","",""
"null","","html-keyboard-response","538","324036","0.0-538.0","","","null","","","","","","","","",""
"462.09999990463257","","image-keyboard-response","539","324501","0.0-539.0","","img/set2/S4.jpg","74","4","structured_incentive","74","structured_load,structured_incentive,random,structured_normal","2,1,2,3,3,4","true","","",""
"null","","html-keyboard-response","540","324856","0.0-540.0","","<img src=""img/set2/S4.jpg"" width=""540"" height = ""360"" style=""border:16px solid orange"">","null","","","","","","","","",""
"null","","html-keyboard-response","541","325064","0.0-541.0","","","null","","","","","","","","",""
"546.4000000953674","","image-keyboard-response","542","325612","0.0-542.0","","img/set2/S1.jpg","83","1","structured_incentive","83","structured_load,structured_incentive,random,structured_normal","2,1,2,3,3,4","true","","",""
"null","","html-keyboard-response","543","325970","0.0-543.0","","<img src=""img/set2/S1.jpg"" width=""540"" height = ""360"" style=""border:16px solid orange"">","null","","","","","","","","",""
"null","","html-keyboard-response","544","326173","0.0-544.0","","","null","","","","","","","","",""
"530.9000000953674","","image-keyboard-response","545","326706","0.0-545.0","","img/set2/S4.jpg","74","4","structured_incentive","74","structured_load,structured_incentive,random,structured_normal","2,1,2,3,3,4","true","","",""
"null","","html-keyboard-response","546","327064","0.0-546.0","","<img src=""img/set2/S4.jpg"" width=""540"" height = ""360"" style=""border:16px solid orange"">","null","","","","","","","","",""
"null","","html-keyboard-response","547","327271","0.0-547.0","","","null","","","","","","","","",""
"776.5","","image-keyboard-response","548","328051","0.0-548.0","","img/set2/S2.jpg","68","2","structured_incentive","68","structured_load,structured_incentive,random,structured_normal","2,1,2,3,3,4","true","","",""
"null","","html-keyboard-response","549","328406","0.0-549.0","","<img src=""img/set2/S2.jpg"" width=""540"" height = ""360"" style=""border:16px solid orange"">","null","","","","","","","","",""
"null","","html-keyboard-response","550","328614","0.0-550.0","","","null","","","","","","","","",""
"659.8000001907349","","image-keyboard-response","551","329276","0.0-551.0","","img/set2/S3.jpg","72","3","structured_incentive","72","structured_load,structured_incentive,random,structured_normal","2,1,2,3,3,4","true","","",""
"null","","html-keyboard-response","552","329634","0.0-552.0","","<img src=""img/set2/S3.jpg"" width=""540"" height = ""360"" style=""border:16px solid Violet"">","null","","","","","","","","",""
"null","","html-keyboard-response","553","329839","0.0-553.0","","","null","","","","","","","","",""
"513.7999997138977","","image-keyboard-response","554","330356","0.0-554.0","","img/set2/S1.jpg","68","1","structured_incentive","83","structured_load,structured_incentive,random,structured_normal","2,1,2,3,3,4","false","","",""
"null","","html-keyboard-response","555","330714","0.0-555.0","","<img src=""img/set2/S1.jpg"" width=""540"" height = ""360"">","null","","","","","","","","",""
"null","","html-keyboard-response","556","330922","0.0-556.0","","","null","","","","","","","","",""
"505.7999997138977","","image-keyboard-response","557","331430","0.0-557.0","","img/set2/S4.jpg","74","4","structured_incentive","74","structured_load,structured_incentive,random,structured_normal","2,1,2,3,3,4","true","","",""
"null","","html-keyboard-response","558","331786","0.0-558.0","","<img src=""img/set2/S4.jpg"" width=""540"" height = ""360"" style=""border:16px solid orange"">","null","","","","","","","","",""
"null","","html-keyboard-response","559","331992","0.0-559.0","","","null","","","","","","","","",""
"349.80000019073486","","image-keyboard-response","560","332344","0.0-560.0","","img/set2/S1.jpg","83","1","structured_incentive","83","structured_load,structured_incentive,random,structured_normal","2,1,2,3,3,4","true","","",""
"null","","html-keyboard-response","561","332703","0.0-561.0","","<img src=""img/set2/S1.jpg"" width=""540"" height = ""360"" style=""border:16px solid orange"">","null","","","","","","","","",""
"null","","html-keyboard-response","562","332906","0.0-562.0","","","null","","","","","","","","",""
"514","","image-keyboard-response","563","333423","0.0-563.0","","img/set2/S4.jpg","74","4","structured_incentive","74","structured_load,structured_incentive,random,structured_normal","2,1,2,3,3,4","true","","",""
"null","","html-keyboard-response","564","333782","0.0-564.0","","<img src=""img/set2/S4.jpg"" width=""540"" height = ""360"" style=""border:16px solid orange"">","null","","","","","","","","",""
"null","","html-keyboard-response","565","333987","0.0-565.0","","","null","","","","","","","","",""
"530.3999996185303","","image-keyboard-response","566","334520","0.0-566.0","","img/set2/S1.jpg","83","1","structured_incentive","83","structured_load,structured_incentive,random,structured_normal","2,1,2,3,3,4","true","","",""
"null","","html-keyboard-response","567","334879","0.0-567.0","","<img src=""img/set2/S1.jpg"" width=""540"" height = ""360"" style=""border:16px solid orange"">","null","","","","","","","","",""
"null","","html-keyboard-response","568","335086","0.0-568.0","","","null","","","","","","","","",""
"602.6000003814697","","image-keyboard-response","569","335692","0.0-569.0","","img/set2/S4.jpg","74","4","structured_incentive","74","structured_load,structured_incentive,random,structured_normal","2,1,2,3,3,4","true","","",""
"null","","html-keyboard-response","570","336049","0.0-570.0","","<img src=""img/set2/S4.jpg"" width=""540"" height = ""360"" style=""border:16px solid orange"">","null","","","","","","","","",""
"null","","html-keyboard-response","571","336255","0.0-571.0","","","null","","","","","","","","",""
"416.19999980926514","","image-keyboard-response","572","336674","0.0-572.0","","img/set2/S4.jpg","74","4","structured_incentive","74","structured_load,structured_incentive,random,structured_normal","2,1,2,3,3,4","true","","",""
"null","","html-keyboard-response","573","337027","0.0-573.0","","<img src=""img/set2/S4.jpg"" width=""540"" height = ""360"" style=""border:16px solid orange"">","null","","","","","","","","",""
"null","","html-keyboard-response","574","337230","0.0-574.0","","","null","","","","","","","","",""
"823.8999996185303","","image-keyboard-response","575","338057","0.0-575.0","","img/set2/S2.jpg","68","2","structured_incentive","68","structured_load,structured_incentive,random,structured_normal","2,1,2,3,3,4","true","","",""
