"rt","url","trial_type","trial_index","time_elapsed","internal_node_id","assignmentID","mturkID","hitID","view_history","stimulus","key_press","state","test_part","correct_response","order_block","order_chunk","order_freq","correct","responses","question_order","bonus"
"3801.5","consent.html","external-html","0","3899","0.0-0.0","39L1G8WVWRD7281QDLQ15V6Q0J031S","A1GKD3NG1NNHRP","3WUVMVA7OBP2V5NP3991VE8MBDEZA7","","","","","","","","","","","","",""
"109021.5","","instructions","1","112923","0.0-1.0","39L1G8WVWRD7281QDLQ15V6Q0J031S","A1GKD3NG1NNHRP","3WUVMVA7OBP2V5NP3991VE8MBDEZA7","[{""page_index"":0,""viewing_time"":3181},{""page_index"":1,""viewing_time"":40720.39999999851},{""page_index"":2,""viewing_time"":13399.5},{""page_index"":3,""viewing_time"":12687.89999999851},{""page_index"":4,""viewing_time"":8968.60000000149},{""page_index"":5,""viewing_time"":24064.20000000298},{""page_index"":6,""viewing_time"":5999.29999999702}]","","","","","","","","","","","",""
"13343.29999999702","","instructions","2","126267","0.0-2.0","39L1G8WVWRD7281QDLQ15V6Q0J031S","A1GKD3NG1NNHRP","3WUVMVA7OBP2V5NP3991VE8MBDEZA7","[{""page_index"":0,""viewing_time"":13343}]","","","","","","","","","","","",""
"77598.80000000447","","instructions","3","203866","0.0-3.0","39L1G8WVWRD7281QDLQ15V6Q0J031S","A1GKD3NG1NNHRP","3WUVMVA7OBP2V5NP3991VE8MBDEZA7","[{""page_index"":0,""viewing_time"":17518.70000000298},{""page_index"":1,""viewing_time"":60079.89999999851}]","","","","","","","","","","","",""
"1786","","image-keyboard-response","4","205654","0.0-4.0","39L1G8WVWRD7281QDLQ15V6Q0J031S","A1GKD3NG1NNHRP","3WUVMVA7OBP2V5NP3991VE8MBDEZA7","","img/set1/S1.jpg","83","1","structured_incentive","83","structured_incentive,structured_normal,structured_load,random","1,2,2,3,4,2","1,4,2,3","true","","",""
"null","","html-keyboard-response","5","206013","0.0-5.0","39L1G8WVWRD7281QDLQ15V6Q0J031S","A1GKD3NG1NNHRP","3WUVMVA7OBP2V5NP3991VE8MBDEZA7","","<img src=""img/set1/S1.jpg"" width=""540"" height = ""360"" style=""border:16px solid orange"">","null","","","","","","","","","",""
"null","","html-keyboard-response","6","206230","0.0-6.0","39L1G8WVWRD7281QDLQ15V6Q0J031S","A1GKD3NG1NNHRP","3WUVMVA7OBP2V5NP3991VE8MBDEZA7","","","null","","","","","","","","","",""
"738.7999999970198","","image-keyboard-response","7","206970","0.0-7.0","39L1G8WVWRD7281QDLQ15V6Q0J031S","A1GKD3NG1NNHRP","3WUVMVA7OBP2V5NP3991VE8MBDEZA7","","img/set1/S4.jpg","83","4","structured_incentive","74","structured_incentive,structured_normal,structured_load,random","1,2,2,3,4,2","1,4,2,3","false","","",""
"null","","html-keyboard-response","8","207329","0.0-8.0","39L1G8WVWRD7281QDLQ15V6Q0J031S","A1GKD3NG1NNHRP","3WUVMVA7OBP2V5NP3991VE8MBDEZA7","","<img src=""img/set1/S4.jpg"" width=""540"" height = ""360"">","null","","","","","","","","","",""
"null","","html-keyboard-response","9","207535","0.0-9.0","39L1G8WVWRD7281QDLQ15V6Q0J031S","A1GKD3NG1NNHRP","3WUVMVA7OBP2V5NP3991VE8MBDEZA7","","","null","","","","","","","","","",""
"704.2999999970198","","image-keyboard-response","10","208240","0.0-10.0","39L1G8WVWRD7281QDLQ15V6Q0J031S","A1GKD3NG1NNHRP","3WUVMVA7OBP2V5NP3991VE8MBDEZA7","","img/set1/S4.jpg","74","4","structured_incentive","74","structured_incentive,structured_normal,structured_load,random","1,2,2,3,4,2","1,4,2,3","true","","",""
"null","","html-keyboard-response","11","208607","0.0-11.0","39L1G8WVWRD7281QDLQ15V6Q0J031S","A1GKD3NG1NNHRP","3WUVMVA7OBP2V5NP3991VE8MBDEZA7","","<img src=""img/set1/S4.jpg"" width=""540"" height = ""360"" style=""border:16px solid Violet"">","null","","","","","","","","","",""
"null","","html-keyboard-response","12","208810","0.0-12.0","39L1G8WVWRD7281QDLQ15V6Q0J031S","A1GKD3NG1NNHRP","3WUVMVA7OBP2V5NP3991VE8MBDEZA7","","","null","","","","","","","","","",""
"621.6000000014901","","image-keyboard-response","13","209433","0.0-13.0","39L1G8WVWRD7281QDLQ15V6Q0J031S","A1GKD3NG1NNHRP","3WUVMVA7OBP2V5NP3991VE8MBDEZA7","","img/set1/S4.jpg","74","4","structured_incentive","74","structured_incentive,structured_normal,structured_load,random","1,2,2,3,4,2","1,4,2,3","true","","",""
"null","","html-keyboard-response","14","209788","0.0-14.0","39L1G8WVWRD7281QDLQ15V6Q0J031S","A1GKD3NG1NNHRP","3WUVMVA7OBP2V5NP3991VE8MBDEZA7","","<img src=""img/set1/S4.jpg"" width=""540"" height = ""360"" style=""border:16px solid Violet"">","null","","","","","","","","","",""
"null","","html-keyboard-response","15","209993","0.0-15.0","39L1G8WVWRD7281QDLQ15V6Q0J031S","A1GKD3NG1NNHRP","3WUVMVA7OBP2V5NP3991VE8MBDEZA7","","","null","","","","","","","","","",""
"1518.7000000029802","","image-keyboard-response","16","211513","0.0-16.0","39L1G8WVWRD7281QDLQ15V6Q0J031S","A1GKD3NG1NNHRP","3WUVMVA7OBP2V5NP3991VE8MBDEZA7","","img/set1/S3.jpg","74","3","structured_incentive","72","structured_incentive,structured_normal,structured_load,random","1,2,2,3,4,2","1,4,2,3","false","","",""
"null","","html-keyboard-response","17","211866","0.0-17.0","39L1G8WVWRD7281QDLQ15V6Q0J031S","A1GKD3NG1NNHRP","3WUVMVA7OBP2V5NP3991VE8MBDEZA7","","<img src=""img/set1/S3.jpg"" width=""540"" height = ""360"">","null","","","","","","","","","",""
"null","","html-keyboard-response","18","212075","0.0-18.0","39L1G8WVWRD7281QDLQ15V6Q0J031S","A1GKD3NG1NNHRP","3WUVMVA7OBP2V5NP3991VE8MBDEZA7","","","null","","","","","","","","","",""
"533.5","","image-keyboard-response","19","212609","0.0-19.0","39L1G8WVWRD7281QDLQ15V6Q0J031S","A1GKD3NG1NNHRP","3WUVMVA7OBP2V5NP3991VE8MBDEZA7","","img/set1/S4.jpg","83","4","structured_incentive","74","structured_incentive,structured_normal,structured_load,random","1,2,2,3,4,2","1,4,2,3","false","","",""
"null","","html-keyboard-response","20","212974","0.0-20.0","39L1G8WVWRD7281QDLQ15V6Q0J031S","A1GKD3NG1NNHRP","3WUVMVA7OBP2V5NP3991VE8MBDEZA7","","<img src=""img/set1/S4.jpg"" width=""540"" height = ""360"">","null","","","","","","","","","",""
"null","","html-keyboard-response","21","213184","0.0-21.0","39L1G8WVWRD7281QDLQ15V6Q0J031S","A1GKD3NG1NNHRP","3WUVMVA7OBP2V5NP3991VE8MBDEZA7","","","null","","","","","","","","","",""
"600.1000000014901","","image-keyboard-response","22","213785","0.0-22.0","39L1G8WVWRD7281QDLQ15V6Q0J031S","A1GKD3NG1NNHRP","3WUVMVA7OBP2V5NP3991VE8MBDEZA7","","img/set1/S3.jpg","68","3","structured_incentive","72","structured_incentive,structured_normal,structured_load,random","1,2,2,3,4,2","1,4,2,3","false","","",""
"null","","html-keyboard-response","23","214146","0.0-23.0","39L1G8WVWRD7281QDLQ15V6Q0J031S","A1GKD3NG1NNHRP","3WUVMVA7OBP2V5NP3991VE8MBDEZA7","","<img src=""img/set1/S3.jpg"" width=""540"" height = ""360"">","null","","","","","","","","","",""
"null","","html-keyboard-response","24","214355","0.0-24.0","39L1G8WVWRD7281QDLQ15V6Q0J031S","A1GKD3NG1NNHRP","3WUVMVA7OBP2V5NP3991VE8MBDEZA7","","","null","","","","","","","","","",""
"2145.2000000029802","","image-keyboard-response","25","216501","0.0-25.0","39L1G8WVWRD7281QDLQ15V6Q0J031S","A1GKD3NG1NNHRP","3WUVMVA7OBP2V5NP3991VE8MBDEZA7","","img/set1/S3.jpg","83","3","structured_incentive","72","structured_incentive,structured_normal,structured_load,random","1,2,2,3,4,2","1,4,2,3","false","","",""
"null","","html-keyboard-response","26","216853","0.0-26.0","39L1G8WVWRD7281QDLQ15V6Q0J031S","A1GKD3NG1NNHRP","3WUVMVA7OBP2V5NP3991VE8MBDEZA7","","<img src=""img/set1/S3.jpg"" width=""540"" height = ""360"">","null","","","","","","","","","",""
"null","","html-keyboard-response","27","217057","0.0-27.0","39L1G8WVWRD7281QDLQ15V6Q0J031S","A1GKD3NG1NNHRP","3WUVMVA7OBP2V5NP3991VE8MBDEZA7","","","null","","","","","","","","","",""
"1400.1999999955297","","image-keyboard-response","28","218458","0.0-28.0","39L1G8WVWRD7281QDLQ15V6Q0J031S","A1GKD3NG1NNHRP","3WUVMVA7OBP2V5NP3991VE8MBDEZA7","","img/set1/S3.jpg","68","3","structured_incentive","72","structured_incentive,structured_normal,structured_load,random","1,2,2,3,4,2","1,4,2,3","false","","",""
"null","","html-keyboard-response","29","218814","0.0-29.0","39L1G8WVWRD7281QDLQ15V6Q0J031S","A1GKD3NG1NNHRP","3WUVMVA7OBP2V5NP3991VE8MBDEZA7","","<img src=""img/set1/S3.jpg"" width=""540"" height = ""360"">","null","","","","","","","","","",""
"null","","html-keyboard-response","30","219018","0.0-30.0","39L1G8WVWRD7281QDLQ15V6Q0J031S","A1GKD3NG1NNHRP","3WUVMVA7OBP2V5NP3991VE8MBDEZA7","","","null","","","","","","","","","",""
"495.79999999701977","","image-keyboard-response","31","219514","0.0-31.0","39L1G8WVWRD7281QDLQ15V6Q0J031S","A1GKD3NG1NNHRP","3WUVMVA7OBP2V5NP3991VE8MBDEZA7","","img/set1/S3.jpg","68","3","structured_incentive","72","structured_incentive,structured_normal,structured_load,random","1,2,2,3,4,2","1,4,2,3","false","","",""
"null","","html-keyboard-response","32","219866","0.0-32.0","39L1G8WVWRD7281QDLQ15V6Q0J031S","A1GKD3NG1NNHRP","3WUVMVA7OBP2V5NP3991VE8MBDEZA7","","<img src=""img/set1/S3.jpg"" width=""540"" height = ""360"">","null","","","","","","","","","",""
"null","","html-keyboard-response","33","220083","0.0-33.0","39L1G8WVWRD7281QDLQ15V6Q0J031S","A1GKD3NG1NNHRP","3WUVMVA7OBP2V5NP3991VE8MBDEZA7","","","null","","","","","","","","","",""
"385.59999999403954","","image-keyboard-response","34","220469","0.0-34.0","39L1G8WVWRD7281QDLQ15V6Q0J031S","A1GKD3NG1NNHRP","3WUVMVA7OBP2V5NP3991VE8MBDEZA7","","img/set1/S3.jpg","68","3","structured_incentive","72","structured_incentive,structured_normal,structured_load,random","1,2,2,3,4,2","1,4,2,3","false","","",""
"null","","html-keyboard-response","35","220823","0.0-35.0","39L1G8WVWRD7281QDLQ15V6Q0J031S","A1GKD3NG1NNHRP","3WUVMVA7OBP2V5NP3991VE8MBDEZA7","","<img src=""img/set1/S3.jpg"" width=""540"" height = ""360"">","null","","","","","","","","","",""
"null","","html-keyboard-response","36","221024","0.0-36.0","39L1G8WVWRD7281QDLQ15V6Q0J031S","A1GKD3NG1NNHRP","3WUVMVA7OBP2V5NP3991VE8MBDEZA7","","","null","","","","","","","","","",""
"848.3999999985099","","image-keyboard-response","37","221874","0.0-37.0","39L1G8WVWRD7281QDLQ15V6Q0J031S","A1GKD3NG1NNHRP","3WUVMVA7OBP2V5NP3991VE8MBDEZA7","","img/set1/S1.jpg","83","1","structured_incentive","83","structured_incentive,structured_normal,structured_load,random","1,2,2,3,4,2","1,4,2,3","true","","",""
"null","","html-keyboard-response","38","222232","0.0-38.0","39L1G8WVWRD7281QDLQ15V6Q0J031S","A1GKD3NG1NNHRP","3WUVMVA7OBP2V5NP3991VE8MBDEZA7","","<img src=""img/set1/S1.jpg"" width=""540"" height = ""360"" style=""border:16px solid orange"">","null","","","","","","","","","",""
"null","","html-keyboard-response","39","222435","0.0-39.0","39L1G8WVWRD7281QDLQ15V6Q0J031S","A1GKD3NG1NNHRP","3WUVMVA7OBP2V5NP3991VE8MBDEZA7","","","null","","","","","","","","","",""
"506.6000000014901","","image-keyboard-response","40","222943","0.0-40.0","39L1G8WVWRD7281QDLQ15V6Q0J031S","A1GKD3NG1NNHRP","3WUVMVA7OBP2V5NP3991VE8MBDEZA7","","img/set1/S2.jpg","83","2","structured_incentive","68","structured_incentive,structured_normal,structured_load,random","1,2,2,3,4,2","1,4,2,3","false","","",""
"null","","html-keyboard-response","41","223305","0.0-41.0","39L1G8WVWRD7281QDLQ15V6Q0J031S","A1GKD3NG1NNHRP","3WUVMVA7OBP2V5NP3991VE8MBDEZA7","","<img src=""img/set1/S2.jpg"" width=""540"" height = ""360"">","null","","","","","","","","","",""
"null","","html-keyboard-response","42","223522","0.0-42.0","39L1G8WVWRD7281QDLQ15V6Q0J031S","A1GKD3NG1NNHRP","3WUVMVA7OBP2V5NP3991VE8MBDEZA7","","","null","","","","","","","","","",""
"504.70000000298023","","image-keyboard-response","43","224028","0.0-43.0","39L1G8WVWRD7281QDLQ15V6Q0J031S","A1GKD3NG1NNHRP","3WUVMVA7OBP2V5NP3991VE8MBDEZA7","","img/set1/S4.jpg","74","4","structured_incentive","74","structured_incentive,structured_normal,structured_load,random","1,2,2,3,4,2","1,4,2,3","true","","",""
"null","","html-keyboard-response","44","224383","0.0-44.0","39L1G8WVWRD7281QDLQ15V6Q0J031S","A1GKD3NG1NNHRP","3WUVMVA7OBP2V5NP3991VE8MBDEZA7","","<img src=""img/set1/S4.jpg"" width=""540"" height = ""360"" style=""border:16px solid Violet"">","null","","","","","","","","","",""
"null","","html-keyboard-response","45","224586","0.0-45.0","39L1G8WVWRD7281QDLQ15V6Q0J031S","A1GKD3NG1NNHRP","3WUVMVA7OBP2V5NP3991VE8MBDEZA7","","","null","","","","","","","","","",""
"1322.6999999955297","","image-keyboard-response","46","225910","0.0-46.0","39L1G8WVWRD7281QDLQ15V6Q0J031S","A1GKD3NG1NNHRP","3WUVMVA7OBP2V5NP3991VE8MBDEZA7","","img/set1/S1.jpg","83","1","structured_incentive","83","structured_incentive,structured_normal,structured_load,random","1,2,2,3,4,2","1,4,2,3","true","","",""
"null","","html-keyboard-response","47","226277","0.0-47.0","39L1G8WVWRD7281QDLQ15V6Q0J031S","A1GKD3NG1NNHRP","3WUVMVA7OBP2V5NP3991VE8MBDEZA7","","<img src=""img/set1/S1.jpg"" width=""540"" height = ""360"" style=""border:16px solid orange"">","null","","","","","","","","","",""
"null","","html-keyboard-response","48","226480","0.0-48.0","39L1G8WVWRD7281QDLQ15V6Q0J031S","A1GKD3NG1NNHRP","3WUVMVA7OBP2V5NP3991VE8MBDEZA7","","","null","","","","","","","","","",""
"447.19999999552965","","image-keyboard-response","49","226928","0.0-49.0","39L1G8WVWRD7281QDLQ15V6Q0J031S","A1GKD3NG1NNHRP","3WUVMVA7OBP2V5NP3991VE8MBDEZA7","","img/set1/S2.jpg","74","2","structured_incentive","68","structured_incentive,structured_normal,structured_load,random","1,2,2,3,4,2","1,4,2,3","false","","",""
"null","","html-keyboard-response","50","227291","0.0-50.0","39L1G8WVWRD7281QDLQ15V6Q0J031S","A1GKD3NG1NNHRP","3WUVMVA7OBP2V5NP3991VE8MBDEZA7","","<img src=""img/set1/S2.jpg"" width=""540"" height = ""360"">","null","","","","","","","","","",""
"null","","html-keyboard-response","51","227493","0.0-51.0","39L1G8WVWRD7281QDLQ15V6Q0J031S","A1GKD3NG1NNHRP","3WUVMVA7OBP2V5NP3991VE8MBDEZA7","","","null","","","","","","","","","",""
"640.2999999970198","","image-keyboard-response","52","228134","0.0-52.0","39L1G8WVWRD7281QDLQ15V6Q0J031S","A1GKD3NG1NNHRP","3WUVMVA7OBP2V5NP3991VE8MBDEZA7","","img/set1/S3.jpg","74","3","structured_incentive","72","structured_incentive,structured_normal,structured_load,random","1,2,2,3,4,2","1,4,2,3","false","","",""
"null","","html-keyboard-response","53","228502","0.0-53.0","39L1G8WVWRD7281QDLQ15V6Q0J031S","A1GKD3NG1NNHRP","3WUVMVA7OBP2V5NP3991VE8MBDEZA7","","<img src=""img/set1/S3.jpg"" width=""540"" height = ""360"">","null","","","","","","","","","",""
"null","","html-keyboard-response","54","228722","0.0-54.0","39L1G8WVWRD7281QDLQ15V6Q0J031S","A1GKD3NG1NNHRP","3WUVMVA7OBP2V5NP3991VE8MBDEZA7","","","null","","","","","","","","","",""
"1114.6000000014901","","image-keyboard-response","55","229838","0.0-55.0","39L1G8WVWRD7281QDLQ15V6Q0J031S","A1GKD3NG1NNHRP","3WUVMVA7OBP2V5NP3991VE8MBDEZA7","","img/set1/S3.jpg","68","3","structured_incentive","72","structured_incentive,structured_normal,structured_load,random","1,2,2,3,4,2","1,4,2,3","false","","",""
"null","","html-keyboard-response","56","230204","0.0-56.0","39L1G8WVWRD7281QDLQ15V6Q0J031S","A1GKD3NG1NNHRP","3WUVMVA7OBP2V5NP3991VE8MBDEZA7","","<img src=""img/set1/S3.jpg"" width=""540"" height = ""360"">","null","","","","","","","","","",""
"null","","html-keyboard-response","57","230416","0.0-57.0","39L1G8WVWRD7281QDLQ15V6Q0J031S","A1GKD3NG1NNHRP","3WUVMVA7OBP2V5NP3991VE8MBDEZA7","","","null","","","","","","","","","",""
"335.3999999985099","","image-keyboard-response","58","230753","0.0-58.0","39L1G8WVWRD7281QDLQ15V6Q0J031S","A1GKD3NG1NNHRP","3WUVMVA7OBP2V5NP3991VE8MBDEZA7","","img/set1/S4.jpg","83","4","structured_incentive","74","structured_incentive,structured_normal,structured_load,random","1,2,2,3,4,2","1,4,2,3","false","","",""
"null","","html-keyboard-response","59","231108","0.0-59.0","39L1G8WVWRD7281QDLQ15V6Q0J031S","A1GKD3NG1NNHRP","3WUVMVA7OBP2V5NP3991VE8MBDEZA7","","<img src=""img/set1/S4.jpg"" width=""540"" height = ""360"">","null","","","","","","","","","",""
"null","","html-keyboard-response","60","231312","0.0-60.0","39L1G8WVWRD7281QDLQ15V6Q0J031S","A1GKD3NG1NNHRP","3WUVMVA7OBP2V5NP3991VE8MBDEZA7","","","null","","","","","","","","","",""
"558.0999999940395","","image-keyboard-response","61","231871","0.0-61.0","39L1G8WVWRD7281QDLQ15V6Q0J031S","A1GKD3NG1NNHRP","3WUVMVA7OBP2V5NP3991VE8MBDEZA7","","img/set1/S3.jpg","74","3","structured_incentive","72","structured_incentive,structured_normal,structured_load,random","1,2,2,3,4,2","1,4,2,3","false","","",""
"null","","html-keyboard-response","62","232237","0.0-62.0","39L1G8WVWRD7281QDLQ15V6Q0J031S","A1GKD3NG1NNHRP","3WUVMVA7OBP2V5NP3991VE8MBDEZA7","","<img src=""img/set1/S3.jpg"" width=""540"" height = ""360"">","null","","","","","","","","","",""
"null","","html-keyboard-response","63","232445","0.0-63.0","39L1G8WVWRD7281QDLQ15V6Q0J031S","A1GKD3NG1NNHRP","3WUVMVA7OBP2V5NP3991VE8MBDEZA7","","","null","","","","","","","","","",""
"341.69999999552965","","image-keyboard-response","64","232787","0.0-64.0","39L1G8WVWRD7281QDLQ15V6Q0J031S","A1GKD3NG1NNHRP","3WUVMVA7OBP2V5NP3991VE8MBDEZA7","","img/set1/S4.jpg","83","4","structured_incentive","74","structured_incentive,structured_normal,structured_load,random","1,2,2,3,4,2","1,4,2,3","false","","",""
"null","","html-keyboard-response","65","233142","0.0-65.0","39L1G8WVWRD7281QDLQ15V6Q0J031S","A1GKD3NG1NNHRP","3WUVMVA7OBP2V5NP3991VE8MBDEZA7","","<img src=""img/set1/S4.jpg"" width=""540"" height = ""360"">","null","","","","","","","","","",""
"null","","html-keyboard-response","66","233358","0.0-66.0","39L1G8WVWRD7281QDLQ15V6Q0J031S","A1GKD3NG1NNHRP","3WUVMVA7OBP2V5NP3991VE8MBDEZA7","","","null","","","","","","","","","",""
"1503.8999999985099","","image-keyboard-response","67","234863","0.0-67.0","39L1G8WVWRD7281QDLQ15V6Q0J031S","A1GKD3NG1NNHRP","3WUVMVA7OBP2V5NP3991VE8MBDEZA7","","img/set1/S3.jpg","74","3","structured_incentive","72","structured_incentive,structured_normal,structured_load,random","1,2,2,3,4,2","1,4,2,3","false","","",""
"null","","html-keyboard-response","68","235223","0.0-68.0","39L1G8WVWRD7281QDLQ15V6Q0J031S","A1GKD3NG1NNHRP","3WUVMVA7OBP2V5NP3991VE8MBDEZA7","","<img src=""img/set1/S3.jpg"" width=""540"" height = ""360"">","null","","","","","","","","","",""
"null","","html-keyboard-response","69","235428","0.0-69.0","39L1G8WVWRD7281QDLQ15V6Q0J031S","A1GKD3NG1NNHRP","3WUVMVA7OBP2V5NP3991VE8MBDEZA7","","","null","","","","","","","","","",""
"409.69999999552965","","image-keyboard-response","70","235840","0.0-70.0","39L1G8WVWRD7281QDLQ15V6Q0J031S","A1GKD3NG1NNHRP","3WUVMVA7OBP2V5NP3991VE8MBDEZA7","","img/set1/S1.jpg","83","1","structured_incentive","83","structured_incentive,structured_normal,structured_load,random","1,2,2,3,4,2","1,4,2,3","true","","",""
"null","","html-keyboard-response","71","236200","0.0-71.0","39L1G8WVWRD7281QDLQ15V6Q0J031S","A1GKD3NG1NNHRP","3WUVMVA7OBP2V5NP3991VE8MBDEZA7","","<img src=""img/set1/S1.jpg"" width=""540"" height = ""360"" style=""border:16px solid orange"">","null","","","","","","","","","",""
"null","","html-keyboard-response","72","236402","0.0-72.0","39L1G8WVWRD7281QDLQ15V6Q0J031S","A1GKD3NG1NNHRP","3WUVMVA7OBP2V5NP3991VE8MBDEZA7","","","null","","","","","","","","","",""
"497","","image-keyboard-response","73","236900","0.0-73.0","39L1G8WVWRD7281QDLQ15V6Q0J031S","A1GKD3NG1NNHRP","3WUVMVA7OBP2V5NP3991VE8MBDEZA7","","img/set1/S2.jpg","83","2","structured_incentive","68","structured_incentive,structured_normal,structured_load,random","1,2,2,3,4,2","1,4,2,3","false","","",""
"null","","html-keyboard-response","74","237264","0.0-74.0","39L1G8WVWRD7281QDLQ15V6Q0J031S","A1GKD3NG1NNHRP","3WUVMVA7OBP2V5NP3991VE8MBDEZA7","","<img src=""img/set1/S2.jpg"" width=""540"" height = ""360"">","null","","","","","","","","","",""
"null","","html-keyboard-response","75","237478","0.0-75.0","39L1G8WVWRD7281QDLQ15V6Q0J031S","A1GKD3NG1NNHRP","3WUVMVA7OBP2V5NP3991VE8MBDEZA7","","","null","","","","","","","","","",""
"474.29999999701977","","image-keyboard-response","76","237953","0.0-76.0","39L1G8WVWRD7281QDLQ15V6Q0J031S","A1GKD3NG1NNHRP","3WUVMVA7OBP2V5NP3991VE8MBDEZA7","","img/set1/S4.jpg","83","4","structured_incentive","74","structured_incentive,structured_normal,structured_load,random","1,2,2,3,4,2","1,4,2,3","false","","",""
"null","","html-keyboard-response","77","238319","0.0-77.0","39L1G8WVWRD7281QDLQ15V6Q0J031S","A1GKD3NG1NNHRP","3WUVMVA7OBP2V5NP3991VE8MBDEZA7","","<img src=""img/set1/S4.jpg"" width=""540"" height = ""360"">","null","","","","","","","","","",""
"null","","html-keyboard-response","78","238522","0.0-78.0","39L1G8WVWRD7281QDLQ15V6Q0J031S","A1GKD3NG1NNHRP","3WUVMVA7OBP2V5NP3991VE8MBDEZA7","","","null","","","","","","","","","",""
"343.5","","image-keyboard-response","79","238866","0.0-79.0","39L1G8WVWRD7281QDLQ15V6Q0J031S","A1GKD3NG1NNHRP","3WUVMVA7OBP2V5NP3991VE8MBDEZA7","","img/set1/S2.jpg","83","2","structured_incentive","68","structured_incentive,structured_normal,structured_load,random","1,2,2,3,4,2","1,4,2,3","false","","",""
"null","","html-keyboard-response","80","239220","0.0-80.0","39L1G8WVWRD7281QDLQ15V6Q0J031S","A1GKD3NG1NNHRP","3WUVMVA7OBP2V5NP3991VE8MBDEZA7","","<img src=""img/set1/S2.jpg"" width=""540"" height = ""360"">","null","","","","","","","","","",""
"null","","html-keyboard-response","81","239422","0.0-81.0","39L1G8WVWRD7281QDLQ15V6Q0J031S","A1GKD3NG1NNHRP","3WUVMVA7OBP2V5NP3991VE8MBDEZA7","","","null","","","","","","","","","",""
"531.6000000014901","","image-keyboard-response","82","239954","0.0-82.0","39L1G8WVWRD7281QDLQ15V6Q0J031S","A1GKD3NG1NNHRP","3WUVMVA7OBP2V5NP3991VE8MBDEZA7","","img/set1/S1.jpg","83","1","structured_incentive","83","structured_incentive,structured_normal,structured_load,random","1,2,2,3,4,2","1,4,2,3","true","","",""
"null","","html-keyboard-response","83","240315","0.0-83.0","39L1G8WVWRD7281QDLQ15V6Q0J031S","A1GKD3NG1NNHRP","3WUVMVA7OBP2V5NP3991VE8MBDEZA7","","<img src=""img/set1/S1.jpg"" width=""540"" height = ""360"" style=""border:16px solid orange"">","null","","","","","","","","","",""
"null","","html-keyboard-response","84","240521","0.0-84.0","39L1G8WVWRD7281QDLQ15V6Q0J031S","A1GKD3NG1NNHRP","3WUVMVA7OBP2V5NP3991VE8MBDEZA7","","","null","","","","","","","","","",""
"378.3999999985099","","image-keyboard-response","85","240900","0.0-85.0","39L1G8WVWRD7281QDLQ15V6Q0J031S","A1GKD3NG1NNHRP","3WUVMVA7OBP2V5NP3991VE8MBDEZA7","","img/set1/S2.jpg","83","2","structured_incentive","68","structured_incentive,structured_normal,structured_load,random","1,2,2,3,4,2","1,4,2,3","false","","",""
"null","","html-keyboard-response","86","241252","0.0-86.0","39L1G8WVWRD7281QDLQ15V6Q0J031S","A1GKD3NG1NNHRP","3WUVMVA7OBP2V5NP3991VE8MBDEZA7","","<img src=""img/set1/S2.jpg"" width=""540"" height = ""360"">","null","","","","","","","","","",""
"null","","html-keyboard-response","87","241454","0.0-87.0","39L1G8WVWRD7281QDLQ15V6Q0J031S","A1GKD3NG1NNHRP","3WUVMVA7OBP2V5NP3991VE8MBDEZA7","","","null","","","","","","","","","",""
"727.5999999940395","","image-keyboard-response","88","242183","0.0-88.0","39L1G8WVWRD7281QDLQ15V6Q0J031S","A1GKD3NG1NNHRP","3WUVMVA7OBP2V5NP3991VE8MBDEZA7","","img/set1/S3.jpg","68","3","structured_incentive","72","structured_incentive,structured_normal,structured_load,random","1,2,2,3,4,2","1,4,2,3","false","","",""
"null","","html-keyboard-response","89","242538","0.0-89.0","39L1G8WVWRD7281QDLQ15V6Q0J031S","A1GKD3NG1NNHRP","3WUVMVA7OBP2V5NP3991VE8MBDEZA7","","<img src=""img/set1/S3.jpg"" width=""540"" height = ""360"">","null","","","","","","","","","",""
"null","","html-keyboard-response","90","242744","0.0-90.0","39L1G8WVWRD7281QDLQ15V6Q0J031S","A1GKD3NG1NNHRP","3WUVMVA7OBP2V5NP3991VE8MBDEZA7","","","null","","","","","","","","","",""
"415.8999999985099","","image-keyboard-response","91","243161","0.0-91.0","39L1G8WVWRD7281QDLQ15V6Q0J031S","A1GKD3NG1NNHRP","3WUVMVA7OBP2V5NP3991VE8MBDEZA7","","img/set1/S3.jpg","83","3","structured_incentive","72","structured_incentive,structured_normal,structured_load,random","1,2,2,3,4,2","1,4,2,3","false","","",""
"null","","html-keyboard-response","92","243525","0.0-92.0","39L1G8WVWRD7281QDLQ15V6Q0J031S","A1GKD3NG1NNHRP","3WUVMVA7OBP2V5NP3991VE8MBDEZA7","","<img src=""img/set1/S3.jpg"" width=""540"" height = ""360"">","null","","","","","","","","","",""
"null","","html-keyboard-response","93","243731","0.0-93.0","39L1G8WVWRD7281QDLQ15V6Q0J031S","A1GKD3NG1NNHRP","3WUVMVA7OBP2V5NP3991VE8MBDEZA7","","","null","","","","","","","","","",""
"648.3999999985099","","image-keyboard-response","94","244381","0.0-94.0","39L1G8WVWRD7281QDLQ15V6Q0J031S","A1GKD3NG1NNHRP","3WUVMVA7OBP2V5NP3991VE8MBDEZA7","","img/set1/S1.jpg","74","1","structured_incentive","83","structured_incentive,structured_normal,structured_load,random","1,2,2,3,4,2","1,4,2,3","false","","",""
"null","","html-keyboard-response","95","244743","0.0-95.0","39L1G8WVWRD7281QDLQ15V6Q0J031S","A1GKD3NG1NNHRP","3WUVMVA7OBP2V5NP3991VE8MBDEZA7","","<img src=""img/set1/S1.jpg"" width=""540"" height = ""360"">","null","","","","","","","","","",""
"null","","html-keyboard-response","96","244945","0.0-96.0","39L1G8WVWRD7281QDLQ15V6Q0J031S","A1GKD3NG1NNHRP","3WUVMVA7OBP2V5NP3991VE8MBDEZA7","","","null","","","","","","","","","",""
"483.70000000298023","","image-keyboard-response","97","245430","0.0-97.0","39L1G8WVWRD7281QDLQ15V6Q0J031S","A1GKD3NG1NNHRP","3WUVMVA7OBP2V5NP3991VE8MBDEZA7","","img/set1/S4.jpg","74","4","structured_incentive","74","structured_incentive,structured_normal,structured_load,random","1,2,2,3,4,2","1,4,2,3","true","","",""
"null","","html-keyboard-response","98","245785","0.0-98.0","39L1G8WVWRD7281QDLQ15V6Q0J031S","A1GKD3NG1NNHRP","3WUVMVA7OBP2V5NP3991VE8MBDEZA7","","<img src=""img/set1/S4.jpg"" width=""540"" height = ""360"" style=""border:16px solid Violet"">","null","","","","","","","","","",""
"null","","html-keyboard-response","99","245986","0.0-99.0","39L1G8WVWRD7281QDLQ15V6Q0J031S","A1GKD3NG1NNHRP","3WUVMVA7OBP2V5NP3991VE8MBDEZA7","","","null","","","","","","","","","",""
"1635.6999999955297","","image-keyboard-response","100","247623","0.0-100.0","39L1G8WVWRD7281QDLQ15V6Q0J031S","A1GKD3NG1NNHRP","3WUVMVA7OBP2V5NP3991VE8MBDEZA7","","img/set1/S1.jpg","74","1","structured_incentive","83","structured_incentive,structured_normal,structured_load,random","1,2,2,3,4,2","1,4,2,3","false","","",""
"null","","html-keyboard-response","101","247978","0.0-101.0","39L1G8WVWRD7281QDLQ15V6Q0J031S","A1GKD3NG1NNHRP","3WUVMVA7OBP2V5NP3991VE8MBDEZA7","","<img src=""img/set1/S1.jpg"" width=""540"" height = ""360"">","null","","","","","","","","","",""
"null","","html-keyboard-response","102","248191","0.0-102.0","39L1G8WVWRD7281QDLQ15V6Q0J031S","A1GKD3NG1NNHRP","3WUVMVA7OBP2V5NP3991VE8MBDEZA7","","","null","","","","","","","","","",""
"888.7999999970198","","image-keyboard-response","103","249081","0.0-103.0","39L1G8WVWRD7281QDLQ15V6Q0J031S","A1GKD3NG1NNHRP","3WUVMVA7OBP2V5NP3991VE8MBDEZA7","","img/set1/S2.jpg","74","2","structured_incentive","68","structured_incentive,structured_normal,structured_load,random","1,2,2,3,4,2","1,4,2,3","false","","",""
"null","","html-keyboard-response","104","249447","0.0-104.0","39L1G8WVWRD7281QDLQ15V6Q0J031S","A1GKD3NG1NNHRP","3WUVMVA7OBP2V5NP3991VE8MBDEZA7","","<img src=""img/set1/S2.jpg"" width=""540"" height = ""360"">","null","","","","","","","","","",""
"null","","html-keyboard-response","105","249661","0.0-105.0","39L1G8WVWRD7281QDLQ15V6Q0J031S","A1GKD3NG1NNHRP","3WUVMVA7OBP2V5NP3991VE8MBDEZA7","","","null","","","","","","","","","",""
"498.29999999701977","","image-keyboard-response","106","250160","0.0-106.0","39L1G8WVWRD7281QDLQ15V6Q0J031S","A1GKD3NG1NNHRP","3WUVMVA7OBP2V5NP3991VE8MBDEZA7","","img/set1/S1.jpg","74","1","structured_incentive","83","structured_incentive,structured_normal,structured_load,random","1,2,2,3,4,2","1,4,2,3","false","","",""
"null","","html-keyboard-response","107","250512","0.0-107.0","39L1G8WVWRD7281QDLQ15V6Q0J031S","A1GKD3NG1NNHRP","3WUVMVA7OBP2V5NP3991VE8MBDEZA7","","<img src=""img/set1/S1.jpg"" width=""540"" height = ""360"">","null","","","","","","","","","",""
"null","","html-keyboard-response","108","250724","0.0-108.0","39L1G8WVWRD7281QDLQ15V6Q0J031S","A1GKD3NG1NNHRP","3WUVMVA7OBP2V5NP3991VE8MBDEZA7","","","null","","","","","","","","","",""
"846.4000000059605","","image-keyboard-response","109","251571","0.0-109.0","39L1G8WVWRD7281QDLQ15V6Q0J031S","A1GKD3NG1NNHRP","3WUVMVA7OBP2V5NP3991VE8MBDEZA7","","img/set1/S2.jpg","74","2","structured_incentive","68","structured_incentive,structured_normal,structured_load,random","1,2,2,3,4,2","1,4,2,3","false","","",""
"null","","html-keyboard-response","110","251932","0.0-110.0","39L1G8WVWRD7281QDLQ15V6Q0J031S","A1GKD3NG1NNHRP","3WUVMVA7OBP2V5NP3991VE8MBDEZA7","","<img src=""img/set1/S2.jpg"" width=""540"" height = ""360"">","null","","","","","","","","","",""
"null","","html-keyboard-response","111","252138","0.0-111.0","39L1G8WVWRD7281QDLQ15V6Q0J031S","A1GKD3NG1NNHRP","3WUVMVA7OBP2V5NP3991VE8MBDEZA7","","","null","","","","","","","","","",""
"1076.1000000014901","","image-keyboard-response","112","253203","0.0-112.0","39L1G8WVWRD7281QDLQ15V6Q0J031S","A1GKD3NG1NNHRP","3WUVMVA7OBP2V5NP3991VE8MBDEZA7","","img/set1/S1.jpg","83","1","structured_incentive","83","structured_incentive,structured_normal,structured_load,random","1,2,2,3,4,2","1,4,2,3","true","","",""
"null","","html-keyboard-response","113","253564","0.0-113.0","39L1G8WVWRD7281QDLQ15V6Q0J031S","A1GKD3NG1NNHRP","3WUVMVA7OBP2V5NP3991VE8MBDEZA7","","<img src=""img/set1/S1.jpg"" width=""540"" height = ""360"" style=""border:16px solid orange"">","null","","","","","","","","","",""
"null","","html-keyboard-response","114","253779","0.0-114.0","39L1G8WVWRD7281QDLQ15V6Q0J031S","A1GKD3NG1NNHRP","3WUVMVA7OBP2V5NP3991VE8MBDEZA7","","","null","","","","","","","","","",""
"512.6000000014901","","image-keyboard-response","115","254292","0.0-115.0","39L1G8WVWRD7281QDLQ15V6Q0J031S","A1GKD3NG1NNHRP","3WUVMVA7OBP2V5NP3991VE8MBDEZA7","","img/set1/S2.jpg","83","2","structured_incentive","68","structured_incentive,structured_normal,structured_load,random","1,2,2,3,4,2","1,4,2,3","false","","",""
"null","","html-keyboard-response","116","254654","0.0-116.0","39L1G8WVWRD7281QDLQ15V6Q0J031S","A1GKD3NG1NNHRP","3WUVMVA7OBP2V5NP3991VE8MBDEZA7","","<img src=""img/set1/S2.jpg"" width=""540"" height = ""360"">","null","","","","","","","","","",""
"null","","html-keyboard-response","117","254858","0.0-117.0","39L1G8WVWRD7281QDLQ15V6Q0J031S","A1GKD3NG1NNHRP","3WUVMVA7OBP2V5NP3991VE8MBDEZA7","","","null","","","","","","","","","",""
"450.8999999985099","","image-keyboard-response","118","255310","0.0-118.0","39L1G8WVWRD7281QDLQ15V6Q0J031S","A1GKD3NG1NNHRP","3WUVMVA7OBP2V5NP3991VE8MBDEZA7","","img/set1/S4.jpg","83","4","structured_incentive","74","structured_incentive,structured_normal,structured_load,random","1,2,2,3,4,2","1,4,2,3","false","","",""
"null","","html-keyboard-response","119","255668","0.0-119.0","39L1G8WVWRD7281QDLQ15V6Q0J031S","A1GKD3NG1NNHRP","3WUVMVA7OBP2V5NP3991VE8MBDEZA7","","<img src=""img/set1/S4.jpg"" width=""540"" height = ""360"">","null","","","","","","","","","",""
"null","","html-keyboard-response","120","255873","0.0-120.0","39L1G8WVWRD7281QDLQ15V6Q0J031S","A1GKD3NG1NNHRP","3WUVMVA7OBP2V5NP3991VE8MBDEZA7","","","null","","","","","","","","","",""
"338.19999999552965","","image-keyboard-response","121","256212","0.0-121.0","39L1G8WVWRD7281QDLQ15V6Q0J031S","A1GKD3NG1NNHRP","3WUVMVA7OBP2V5NP3991VE8MBDEZA7","","img/set1/S1.jpg","74","1","structured_incentive","83","structured_incentive,structured_normal,structured_load,random","1,2,2,3,4,2","1,4,2,3","false","","",""
"null","","html-keyboard-response","122","256565","0.0-122.0","39L1G8WVWRD7281QDLQ15V6Q0J031S","A1GKD3NG1NNHRP","3WUVMVA7OBP2V5NP3991VE8MBDEZA7","","<img src=""img/set1/S1.jpg"" width=""540"" height = ""360"">","null","","","","","","","","","",""
"null","","html-keyboard-response","123","256766","0.0-123.0","39L1G8WVWRD7281QDLQ15V6Q0J031S","A1GKD3NG1NNHRP","3WUVMVA7OBP2V5NP3991VE8MBDEZA7","","","null","","","","","","","","","",""
"0.3999999985098839","","image-keyboard-response","124","256767","0.0-124.0","39L1G8WVWRD7281QDLQ15V6Q0J031S","A1GKD3NG1NNHRP","3WUVMVA7OBP2V5NP3991VE8MBDEZA7","","img/set1/S4.jpg","74","4","structured_incentive","74","structured_incentive,structured_normal,structured_load,random","1,2,2,3,4,2","1,4,2,3","true","","",""
"null","","html-keyboard-response","125","257122","0.0-125.0","39L1G8WVWRD7281QDLQ15V6Q0J031S","A1GKD3NG1NNHRP","3WUVMVA7OBP2V5NP3991VE8MBDEZA7","","<img src=""img/set1/S4.jpg"" width=""540"" height = ""360"" style=""border:16px solid Violet"">","null","","","","","","","","","",""
"null","","html-keyboard-response","126","257325","0.0-126.0","39L1G8WVWRD7281QDLQ15V6Q0J031S","A1GKD3NG1NNHRP","3WUVMVA7OBP2V5NP3991VE8MBDEZA7","","","null","","","","","","","","","",""
"1043.1000000014901","","image-keyboard-response","127","258369","0.0-127.0","39L1G8WVWRD7281QDLQ15V6Q0J031S","A1GKD3NG1NNHRP","3WUVMVA7OBP2V5NP3991VE8MBDEZA7","","img/set1/S4.jpg","74","4","structured_incentive","74","structured_incentive,structured_normal,structured_load,random","1,2,2,3,4,2","1,4,2,3","true","","",""
"null","","html-keyboard-response","128","258735","0.0-128.0","39L1G8WVWRD7281QDLQ15V6Q0J031S","A1GKD3NG1NNHRP","3WUVMVA7OBP2V5NP3991VE8MBDEZA7","","<img src=""img/set1/S4.jpg"" width=""540"" height = ""360"" style=""border:16px solid Violet"">","null","","","","","","","","","",""
"null","","html-keyboard-response","129","258952","0.0-129.0","39L1G8WVWRD7281QDLQ15V6Q0J031S","A1GKD3NG1NNHRP","3WUVMVA7OBP2V5NP3991VE8MBDEZA7","","","null","","","","","","","","","",""
"412.1000000014901","","image-keyboard-response","130","259365","0.0-130.0","39L1G8WVWRD7281QDLQ15V6Q0J031S","A1GKD3NG1NNHRP","3WUVMVA7OBP2V5NP3991VE8MBDEZA7","","img/set1/S1.jpg","74","1","structured_incentive","83","structured_incentive,structured_normal,structured_load,random","1,2,2,3,4,2","1,4,2,3","false","","",""
"null","","html-keyboard-response","131","259728","0.0-131.0","39L1G8WVWRD7281QDLQ15V6Q0J031S","A1GKD3NG1NNHRP","3WUVMVA7OBP2V5NP3991VE8MBDEZA7","","<img src=""img/set1/S1.jpg"" width=""540"" height = ""360"">","null","","","","","","","","","",""
"null","","html-keyboard-response","132","259932","0.0-132.0","39L1G8WVWRD7281QDLQ15V6Q0J031S","A1GKD3NG1NNHRP","3WUVMVA7OBP2V5NP3991VE8MBDEZA7","","","null","","","","","","","","","",""
"692.5","","image-keyboard-response","133","260625","0.0-133.0","39L1G8WVWRD7281QDLQ15V6Q0J031S","A1GKD3NG1NNHRP","3WUVMVA7OBP2V5NP3991VE8MBDEZA7","","img/set1/S4.jpg","74","4","structured_incentive","74","structured_incentive,structured_normal,structured_load,random","1,2,2,3,4,2","1,4,2,3","true","","",""
"null","","html-keyboard-response","134","260985","0.0-134.0","39L1G8WVWRD7281QDLQ15V6Q0J031S","A1GKD3NG1NNHRP","3WUVMVA7OBP2V5NP3991VE8MBDEZA7","","<img src=""img/set1/S4.jpg"" width=""540"" height = ""360"" style=""border:16px solid Violet"">","null","","","","","","","","","",""
"null","","html-keyboard-response","135","261195","0.0-135.0","39L1G8WVWRD7281QDLQ15V6Q0J031S","A1GKD3NG1NNHRP","3WUVMVA7OBP2V5NP3991VE8MBDEZA7","","","null","","","","","","","","","",""
"404.20000000298023","","image-keyboard-response","136","261600","0.0-136.0","39L1G8WVWRD7281QDLQ15V6Q0J031S","A1GKD3NG1NNHRP","3WUVMVA7OBP2V5NP3991VE8MBDEZA7","","img/set1/S3.jpg","74","3","structured_incentive","72","structured_incentive,structured_normal,structured_load,random","1,2,2,3,4,2","1,4,2,3","false","","",""
"null","","html-keyboard-response","137","261965","0.0-137.0","39L1G8WVWRD7281QDLQ15V6Q0J031S","A1GKD3NG1NNHRP","3WUVMVA7OBP2V5NP3991VE8MBDEZA7","","<img src=""img/set1/S3.jpg"" width=""540"" height = ""360"">","null","","","","","","","","","",""
"null","","html-keyboard-response","138","262176","0.0-138.0","39L1G8WVWRD7281QDLQ15V6Q0J031S","A1GKD3NG1NNHRP","3WUVMVA7OBP2V5NP3991VE8MBDEZA7","","","null","","","","","","","","","",""
"699.9000000059605","","image-keyboard-response","139","262876","0.0-139.0","39L1G8WVWRD7281QDLQ15V6Q0J031S","A1GKD3NG1NNHRP","3WUVMVA7OBP2V5NP3991VE8MBDEZA7","","img/set1/S1.jpg","83","1","structured_incentive","83","structured_incentive,structured_normal,structured_load,random","1,2,2,3,4,2","1,4,2,3","true","","",""
"null","","html-keyboard-response","140","263243","0.0-140.0","39L1G8WVWRD7281QDLQ15V6Q0J031S","A1GKD3NG1NNHRP","3WUVMVA7OBP2V5NP3991VE8MBDEZA7","","<img src=""img/set1/S1.jpg"" width=""540"" height = ""360"" style=""border:16px solid orange"">","null","","","","","","","","","",""
"null","","html-keyboard-response","141","263445","0.0-141.0","39L1G8WVWRD7281QDLQ15V6Q0J031S","A1GKD3NG1NNHRP","3WUVMVA7OBP2V5NP3991VE8MBDEZA7","","","null","","","","","","","","","",""
"416.1000000014901","","image-keyboard-response","142","263862","0.0-142.0","39L1G8WVWRD7281QDLQ15V6Q0J031S","A1GKD3NG1NNHRP","3WUVMVA7OBP2V5NP3991VE8MBDEZA7","","img/set1/S2.jpg","83","2","structured_incentive","68","structured_incentive,structured_normal,structured_load,random","1,2,2,3,4,2","1,4,2,3","false","","",""
"null","","html-keyboard-response","143","264225","0.0-143.0","39L1G8WVWRD7281QDLQ15V6Q0J031S","A1GKD3NG1NNHRP","3WUVMVA7OBP2V5NP3991VE8MBDEZA7","","<img src=""img/set1/S2.jpg"" width=""540"" height = ""360"">","null","","","","","","","","","",""
"null","","html-keyboard-response","144","264445","0.0-144.0","39L1G8WVWRD7281QDLQ15V6Q0J031S","A1GKD3NG1NNHRP","3WUVMVA7OBP2V5NP3991VE8MBDEZA7","","","null","","","","","","","","","",""
"528","","image-keyboard-response","145","264974","0.0-145.0","39L1G8WVWRD7281QDLQ15V6Q0J031S","A1GKD3NG1NNHRP","3WUVMVA7OBP2V5NP3991VE8MBDEZA7","","img/set1/S4.jpg","83","4","structured_incentive","74","structured_incentive,structured_normal,structured_load,random","1,2,2,3,4,2","1,4,2,3","false","","",""
"null","","html-keyboard-response","146","265335","0.0-146.0","39L1G8WVWRD7281QDLQ15V6Q0J031S","A1GKD3NG1NNHRP","3WUVMVA7OBP2V5NP3991VE8MBDEZA7","","<img src=""img/set1/S4.jpg"" width=""540"" height = ""360"">","null","","","","","","","","","",""
"null","","html-keyboard-response","147","265545","0.0-147.0","39L1G8WVWRD7281QDLQ15V6Q0J031S","A1GKD3NG1NNHRP","3WUVMVA7OBP2V5NP3991VE8MBDEZA7","","","null","","","","","","","","","",""
"239.70000000298023","","image-keyboard-response","148","265785","0.0-148.0","39L1G8WVWRD7281QDLQ15V6Q0J031S","A1GKD3NG1NNHRP","3WUVMVA7OBP2V5NP3991VE8MBDEZA7","","img/set1/S1.jpg","74","1","structured_incentive","83","structured_incentive,structured_normal,structured_load,random","1,2,2,3,4,2","1,4,2,3","false","","",""
"null","","html-keyboard-response","149","266143","0.0-149.0","39L1G8WVWRD7281QDLQ15V6Q0J031S","A1GKD3NG1NNHRP","3WUVMVA7OBP2V5NP3991VE8MBDEZA7","","<img src=""img/set1/S1.jpg"" width=""540"" height = ""360"">","null","","","","","","","","","",""
"null","","html-keyboard-response","150","266356","0.0-150.0","39L1G8WVWRD7281QDLQ15V6Q0J031S","A1GKD3NG1NNHRP","3WUVMVA7OBP2V5NP3991VE8MBDEZA7","","","null","","","","","","","","","",""
"333.20000000298023","","image-keyboard-response","151","266690","0.0-151.0","39L1G8WVWRD7281QDLQ15V6Q0J031S","A1GKD3NG1NNHRP","3WUVMVA7OBP2V5NP3991VE8MBDEZA7","","img/set1/S2.jpg","74","2","structured_incentive","68","structured_incentive,structured_normal,structured_load,random","1,2,2,3,4,2","1,4,2,3","false","","",""
"null","","html-keyboard-response","152","267044","0.0-152.0","39L1G8WVWRD7281QDLQ15V6Q0J031S","A1GKD3NG1NNHRP","3WUVMVA7OBP2V5NP3991VE8MBDEZA7","","<img src=""img/set1/S2.jpg"" width=""540"" height = ""360"">","null","","","","","","","","","",""
"null","","html-keyboard-response","153","267253","0.0-153.0","39L1G8WVWRD7281QDLQ15V6Q0J031S","A1GKD3NG1NNHRP","3WUVMVA7OBP2V5NP3991VE8MBDEZA7","","","null","","","","","","","","","",""
"134.70000000298023","","image-keyboard-response","154","267389","0.0-154.0","39L1G8WVWRD7281QDLQ15V6Q0J031S","A1GKD3NG1NNHRP","3WUVMVA7OBP2V5NP3991VE8MBDEZA7","","img/set1/S3.jpg","83","3","structured_incentive","72","structured_incentive,structured_normal,structured_load,random","1,2,2,3,4,2","1,4,2,3","false","","",""
"null","","html-keyboard-response","155","267744","0.0-155.0","39L1G8WVWRD7281QDLQ15V6Q0J031S","A1GKD3NG1NNHRP","3WUVMVA7OBP2V5NP3991VE8MBDEZA7","","<img src=""img/set1/S3.jpg"" width=""540"" height = ""360"">","null","","","","","","","","","",""
"null","","html-keyboard-response","156","267946","0.0-156.0","39L1G8WVWRD7281QDLQ15V6Q0J031S","A1GKD3NG1NNHRP","3WUVMVA7OBP2V5NP3991VE8MBDEZA7","","","null","","","","","","","","","",""
"308.5","","image-keyboard-response","157","268255","0.0-157.0","39L1G8WVWRD7281QDLQ15V6Q0J031S","A1GKD3NG1NNHRP","3WUVMVA7OBP2V5NP3991VE8MBDEZA7","","img/set1/S3.jpg","68","3","structured_incentive","72","structured_incentive,structured_normal,structured_load,random","1,2,2,3,4,2","1,4,2,3","false","","",""
"null","","html-keyboard-response","158","268614","0.0-158.0","39L1G8WVWRD7281QDLQ15V6Q0J031S","A1GKD3NG1NNHRP","3WUVMVA7OBP2V5NP3991VE8MBDEZA7","","<img src=""img/set1/S3.jpg"" width=""540"" height = ""360"">","null","","","","","","","","","",""
"null","","html-keyboard-response","159","268816","0.0-159.0","39L1G8WVWRD7281QDLQ15V6Q0J031S","A1GKD3NG1NNHRP","3WUVMVA7OBP2V5NP3991VE8MBDEZA7","","","null","","","","","","","","","",""
"251.5","","image-keyboard-response","160","269068","0.0-160.0","39L1G8WVWRD7281QDLQ15V6Q0J031S","A1GKD3NG1NNHRP","3WUVMVA7OBP2V5NP3991VE8MBDEZA7","","img/set1/S4.jpg","83","4","structured_incentive","74","structured_incentive,structured_normal,structured_load,random","1,2,2,3,4,2","1,4,2,3","false","","",""
"null","","html-keyboard-response","161","269422","0.0-161.0","39L1G8WVWRD7281QDLQ15V6Q0J031S","A1GKD3NG1NNHRP","3WUVMVA7OBP2V5NP3991VE8MBDEZA7","","<img src=""img/set1/S4.jpg"" width=""540"" height = ""360"">","null","","","","","","","","","",""
"null","","html-keyboard-response","162","269625","0.0-162.0","39L1G8WVWRD7281QDLQ15V6Q0J031S","A1GKD3NG1NNHRP","3WUVMVA7OBP2V5NP3991VE8MBDEZA7","","","null","","","","","","","","","",""
"411.6000000014901","","image-keyboard-response","163","270037","0.0-163.0","39L1G8WVWRD7281QDLQ15V6Q0J031S","A1GKD3NG1NNHRP","3WUVMVA7OBP2V5NP3991VE8MBDEZA7","","img/set1/S1.jpg","74","1","structured_incentive","83","structured_incentive,structured_normal,structured_load,random","1,2,2,3,4,2","1,4,2,3","false","","",""
"null","","html-keyboard-response","164","270399","0.0-164.0","39L1G8WVWRD7281QDLQ15V6Q0J031S","A1GKD3NG1NNHRP","3WUVMVA7OBP2V5NP3991VE8MBDEZA7","","<img src=""img/set1/S1.jpg"" width=""540"" height = ""360"">","null","","","","","","","","","",""
"null","","html-keyboard-response","165","270603","0.0-165.0","39L1G8WVWRD7281QDLQ15V6Q0J031S","A1GKD3NG1NNHRP","3WUVMVA7OBP2V5NP3991VE8MBDEZA7","","","null","","","","","","","","","",""
"2236.1999999955297","","image-keyboard-response","166","272840","0.0-166.0","39L1G8WVWRD7281QDLQ15V6Q0J031S","A1GKD3NG1NNHRP","3WUVMVA7OBP2V5NP3991VE8MBDEZA7","","img/set1/S2.jpg","74","2","structured_incentive","68","structured_incentive,structured_normal,structured_load,random","1,2,2,3,4,2","1,4,2,3","false","","",""
"null","","html-keyboard-response","167","273199","0.0-167.0","39L1G8WVWRD7281QDLQ15V6Q0J031S","A1GKD3NG1NNHRP","3WUVMVA7OBP2V5NP3991VE8MBDEZA7","","<img src=""img/set1/S2.jpg"" width=""540"" height = ""360"">","null","","","","","","","","","",""
"null","","html-keyboard-response","168","273402","0.0-168.0","39L1G8WVWRD7281QDLQ15V6Q0J031S","A1GKD3NG1NNHRP","3WUVMVA7OBP2V5NP3991VE8MBDEZA7","","","null","","","","","","","","","",""
"661.7000000029802","","image-keyboard-response","169","274064","0.0-169.0","39L1G8WVWRD7281QDLQ15V6Q0J031S","A1GKD3NG1NNHRP","3WUVMVA7OBP2V5NP3991VE8MBDEZA7","","img/set1/S1.jpg","74","1","structured_incentive","83","structured_incentive,structured_normal,structured_load,random","1,2,2,3,4,2","1,4,2,3","false","","",""
"null","","html-keyboard-response","170","274428","0.0-170.0","39L1G8WVWRD7281QDLQ15V6Q0J031S","A1GKD3NG1NNHRP","3WUVMVA7OBP2V5NP3991VE8MBDEZA7","","<img src=""img/set1/S1.jpg"" width=""540"" height = ""360"">","null","","","","","","","","","",""
"null","","html-keyboard-response","171","274631","0.0-171.0","39L1G8WVWRD7281QDLQ15V6Q0J031S","A1GKD3NG1NNHRP","3WUVMVA7OBP2V5NP3991VE8MBDEZA7","","","null","","","","","","","","","",""
"1063.6999999955297","","image-keyboard-response","172","275695","0.0-172.0","39L1G8WVWRD7281QDLQ15V6Q0J031S","A1GKD3NG1NNHRP","3WUVMVA7OBP2V5NP3991VE8MBDEZA7","","img/set1/S4.jpg","83","4","structured_incentive","74","structured_incentive,structured_normal,structured_load,random","1,2,2,3,4,2","1,4,2,3","false","","",""
"null","","html-keyboard-response","173","276050","0.0-173.0","39L1G8WVWRD7281QDLQ15V6Q0J031S","A1GKD3NG1NNHRP","3WUVMVA7OBP2V5NP3991VE8MBDEZA7","","<img src=""img/set1/S4.jpg"" width=""540"" height = ""360"">","null","","","","","","","","","",""
"null","","html-keyboard-response","174","276266","0.0-174.0","39L1G8WVWRD7281QDLQ15V6Q0J031S","A1GKD3NG1NNHRP","3WUVMVA7OBP2V5NP3991VE8MBDEZA7","","","null","","","","","","","","","",""
"574.6000000014901","","image-keyboard-response","175","276842","0.0-175.0","39L1G8WVWRD7281QDLQ15V6Q0J031S","A1GKD3NG1NNHRP","3WUVMVA7OBP2V5NP3991VE8MBDEZA7","","img/set1/S3.jpg","83","3","structured_incentive","72","structured_incentive,structured_normal,structured_load,random","1,2,2,3,4,2","1,4,2,3","false","","",""
"null","","html-keyboard-response","176","277201","0.0-176.0","39L1G8WVWRD7281QDLQ15V6Q0J031S","A1GKD3NG1NNHRP","3WUVMVA7OBP2V5NP3991VE8MBDEZA7","","<img src=""img/set1/S3.jpg"" width=""540"" height = ""360"">","null","","","","","","","","","",""
"null","","html-keyboard-response","177","277403","0.0-177.0","39L1G8WVWRD7281QDLQ15V6Q0J031S","A1GKD3NG1NNHRP","3WUVMVA7OBP2V5NP3991VE8MBDEZA7","","","null","","","","","","","","","",""
"505.80000000447035","","image-keyboard-response","178","277910","0.0-178.0","39L1G8WVWRD7281QDLQ15V6Q0J031S","A1GKD3NG1NNHRP","3WUVMVA7OBP2V5NP3991VE8MBDEZA7","","img/set1/S4.jpg","68","4","structured_incentive","74","structured_incentive,structured_normal,structured_load,random","1,2,2,3,4,2","1,4,2,3","false","","",""
"null","","html-keyboard-response","179","278266","0.0-179.0","39L1G8WVWRD7281QDLQ15V6Q0J031S","A1GKD3NG1NNHRP","3WUVMVA7OBP2V5NP3991VE8MBDEZA7","","<img src=""img/set1/S4.jpg"" width=""540"" height = ""360"">","null","","","","","","","","","",""
"null","","html-keyboard-response","180","278486","0.0-180.0","39L1G8WVWRD7281QDLQ15V6Q0J031S","A1GKD3NG1NNHRP","3WUVMVA7OBP2V5NP3991VE8MBDEZA7","","","null","","","","","","","","","",""
"309.8999999985099","","image-keyboard-response","181","278797","0.0-181.0","39L1G8WVWRD7281QDLQ15V6Q0J031S","A1GKD3NG1NNHRP","3WUVMVA7OBP2V5NP3991VE8MBDEZA7","","img/set1/S1.jpg","83","1","structured_incentive","83","structured_incentive,structured_normal,structured_load,random","1,2,2,3,4,2","1,4,2,3","true","","",""
"null","","html-keyboard-response","182","279166","0.0-182.0","39L1G8WVWRD7281QDLQ15V6Q0J031S","A1GKD3NG1NNHRP","3WUVMVA7OBP2V5NP3991VE8MBDEZA7","","<img src=""img/set1/S1.jpg"" width=""540"" height = ""360"" style=""border:16px solid orange"">","null","","","","","","","","","",""
"null","","html-keyboard-response","183","279386","0.0-183.0","39L1G8WVWRD7281QDLQ15V6Q0J031S","A1GKD3NG1NNHRP","3WUVMVA7OBP2V5NP3991VE8MBDEZA7","","","null","","","","","","","","","",""
"94.5","","image-keyboard-response","184","279482","0.0-184.0","39L1G8WVWRD7281QDLQ15V6Q0J031S","A1GKD3NG1NNHRP","3WUVMVA7OBP2V5NP3991VE8MBDEZA7","","img/set1/S2.jpg","68","2","structured_incentive","68","structured_incentive,structured_normal,structured_load,random","1,2,2,3,4,2","1,4,2,3","true","","",""
"null","","html-keyboard-response","185","279845","0.0-185.0","39L1G8WVWRD7281QDLQ15V6Q0J031S","A1GKD3NG1NNHRP","3WUVMVA7OBP2V5NP3991VE8MBDEZA7","","<img src=""img/set1/S2.jpg"" width=""540"" height = ""360"" style=""border:16px solid orange"">","null","","","","","","","","","",""
"null","","html-keyboard-response","186","280061","0.0-186.0","39L1G8WVWRD7281QDLQ15V6Q0J031S","A1GKD3NG1NNHRP","3WUVMVA7OBP2V5NP3991VE8MBDEZA7","","","null","","","","","","","","","",""
"266.20000000298023","","image-keyboard-response","187","280328","0.0-187.0","39L1G8WVWRD7281QDLQ15V6Q0J031S","A1GKD3NG1NNHRP","3WUVMVA7OBP2V5NP3991VE8MBDEZA7","","img/set1/S3.jpg","74","3","structured_incentive","72","structured_incentive,structured_normal,structured_load,random","1,2,2,3,4,2","1,4,2,3","false","","",""
"null","","html-keyboard-response","188","280680","0.0-188.0","39L1G8WVWRD7281QDLQ15V6Q0J031S","A1GKD3NG1NNHRP","3WUVMVA7OBP2V5NP3991VE8MBDEZA7","","<img src=""img/set1/S3.jpg"" width=""540"" height = ""360"">","null","","","","","","","","","",""
"null","","html-keyboard-response","189","280896","0.0-189.0","39L1G8WVWRD7281QDLQ15V6Q0J031S","A1GKD3NG1NNHRP","3WUVMVA7OBP2V5NP3991VE8MBDEZA7","","","null","","","","","","","","","",""
"66.5","","image-keyboard-response","190","280964","0.0-190.0","39L1G8WVWRD7281QDLQ15V6Q0J031S","A1GKD3NG1NNHRP","3WUVMVA7OBP2V5NP3991VE8MBDEZA7","","img/set1/S4.jpg","83","4","structured_incentive","74","structured_incentive,structured_normal,structured_load,random","1,2,2,3,4,2","1,4,2,3","false","","",""
"null","","html-keyboard-response","191","281320","0.0-191.0","39L1G8WVWRD7281QDLQ15V6Q0J031S","A1GKD3NG1NNHRP","3WUVMVA7OBP2V5NP3991VE8MBDEZA7","","<img src=""img/set1/S4.jpg"" width=""540"" height = ""360"">","null","","","","","","","","","",""
"null","","html-keyboard-response","192","281528","0.0-192.0","39L1G8WVWRD7281QDLQ15V6Q0J031S","A1GKD3NG1NNHRP","3WUVMVA7OBP2V5NP3991VE8MBDEZA7","","","null","","","","","","","","","",""
"134.5","","image-keyboard-response","193","281664","0.0-193.0","39L1G8WVWRD7281QDLQ15V6Q0J031S","A1GKD3NG1NNHRP","3WUVMVA7OBP2V5NP3991VE8MBDEZA7","","img/set1/S3.jpg","74","3","structured_incentive","72","structured_incentive,structured_normal,structured_load,random","1,2,2,3,4,2","1,4,2,3","false","","",""
"null","","html-keyboard-response","194","282026","0.0-194.0","39L1G8WVWRD7281QDLQ15V6Q0J031S","A1GKD3NG1NNHRP","3WUVMVA7OBP2V5NP3991VE8MBDEZA7","","<img src=""img/set1/S3.jpg"" width=""540"" height = ""360"">","null","","","","","","","","","",""
"null","","html-keyboard-response","195","282228","0.0-195.0","39L1G8WVWRD7281QDLQ15V6Q0J031S","A1GKD3NG1NNHRP","3WUVMVA7OBP2V5NP3991VE8MBDEZA7","","","null","","","","","","","","","",""
"11.600000001490116","","image-keyboard-response","196","282240","0.0-196.0","39L1G8WVWRD7281QDLQ15V6Q0J031S","A1GKD3NG1NNHRP","3WUVMVA7OBP2V5NP3991VE8MBDEZA7","","img/set1/S4.jpg","74","4","structured_incentive","74","structured_incentive,structured_normal,structured_load,random","1,2,2,3,4,2","1,4,2,3","true","","",""
"null","","html-keyboard-response","197","282601","0.0-197.0","39L1G8WVWRD7281QDLQ15V6Q0J031S","A1GKD3NG1NNHRP","3WUVMVA7OBP2V5NP3991VE8MBDEZA7","","<img src=""img/set1/S4.jpg"" width=""540"" height = ""360"" style=""border:16px solid Violet"">","null","","","","","","","","","",""
"null","","html-keyboard-response","198","282802","0.0-198.0","39L1G8WVWRD7281QDLQ15V6Q0J031S","A1GKD3NG1NNHRP","3WUVMVA7OBP2V5NP3991VE8MBDEZA7","","","null","","","","","","","","","",""
"184.60000000149012","","image-keyboard-response","199","282988","0.0-199.0","39L1G8WVWRD7281QDLQ15V6Q0J031S","A1GKD3NG1NNHRP","3WUVMVA7OBP2V5NP3991VE8MBDEZA7","","img/set1/S3.jpg","74","3","structured_incentive","72","structured_incentive,structured_normal,structured_load,random","1,2,2,3,4,2","1,4,2,3","false","","",""
"null","","html-keyboard-response","200","283345","0.0-200.0","39L1G8WVWRD7281QDLQ15V6Q0J031S","A1GKD3NG1NNHRP","3WUVMVA7OBP2V5NP3991VE8MBDEZA7","","<img src=""img/set1/S3.jpg"" width=""540"" height = ""360"">","null","","","","","","","","","",""
"null","","html-keyboard-response","201","283547","0.0-201.0","39L1G8WVWRD7281QDLQ15V6Q0J031S","A1GKD3NG1NNHRP","3WUVMVA7OBP2V5NP3991VE8MBDEZA7","","","null","","","","","","","","","",""
"105.5","","image-keyboard-response","202","283654","0.0-202.0","39L1G8WVWRD7281QDLQ15V6Q0J031S","A1GKD3NG1NNHRP","3WUVMVA7OBP2V5NP3991VE8MBDEZA7","","img/set1/S1.jpg","83","1","structured_incentive","83","structured_incentive,structured_normal,structured_load,random","1,2,2,3,4,2","1,4,2,3","true","","",""
"null","","html-keyboard-response","203","284026","0.0-203.0","39L1G8WVWRD7281QDLQ15V6Q0J031S","A1GKD3NG1NNHRP","3WUVMVA7OBP2V5NP3991VE8MBDEZA7","","<img src=""img/set1/S1.jpg"" width=""540"" height = ""360"" style=""border:16px solid orange"">","null","","","","","","","","","",""
"null","","html-keyboard-response","204","284241","0.0-204.0","39L1G8WVWRD7281QDLQ15V6Q0J031S","A1GKD3NG1NNHRP","3WUVMVA7OBP2V5NP3991VE8MBDEZA7","","","null","","","","","","","","","",""
"367.79999999701977","","image-keyboard-response","205","284610","0.0-205.0","39L1G8WVWRD7281QDLQ15V6Q0J031S","A1GKD3NG1NNHRP","3WUVMVA7OBP2V5NP3991VE8MBDEZA7","","img/set1/S2.jpg","83","2","structured_incentive","68","structured_incentive,structured_normal,structured_load,random","1,2,2,3,4,2","1,4,2,3","false","","",""
"null","","html-keyboard-response","206","284962","0.0-206.0","39L1G8WVWRD7281QDLQ15V6Q0J031S","A1GKD3NG1NNHRP","3WUVMVA7OBP2V5NP3991VE8MBDEZA7","","<img src=""img/set1/S2.jpg"" width=""540"" height = ""360"">","null","","","","","","","","","",""
"null","","html-keyboard-response","207","285165","0.0-207.0","39L1G8WVWRD7281QDLQ15V6Q0J031S","A1GKD3NG1NNHRP","3WUVMVA7OBP2V5NP3991VE8MBDEZA7","","","null","","","","","","","","","",""
"19.799999997019768","","image-keyboard-response","208","285186","0.0-208.0","39L1G8WVWRD7281QDLQ15V6Q0J031S","A1GKD3NG1NNHRP","3WUVMVA7OBP2V5NP3991VE8MBDEZA7","","img/set1/S1.jpg","74","1","structured_incentive","83","structured_incentive,structured_normal,structured_load,random","1,2,2,3,4,2","1,4,2,3","false","","",""
"null","","html-keyboard-response","209","285538","0.0-209.0","39L1G8WVWRD7281QDLQ15V6Q0J031S","A1GKD3NG1NNHRP","3WUVMVA7OBP2V5NP3991VE8MBDEZA7","","<img src=""img/set1/S1.jpg"" width=""540"" height = ""360"">","null","","","","","","","","","",""
"null","","html-keyboard-response","210","285743","0.0-210.0","39L1G8WVWRD7281QDLQ15V6Q0J031S","A1GKD3NG1NNHRP","3WUVMVA7OBP2V5NP3991VE8MBDEZA7","","","null","","","","","","","","","",""
"190.5","","image-keyboard-response","211","285934","0.0-211.0","39L1G8WVWRD7281QDLQ15V6Q0J031S","A1GKD3NG1NNHRP","3WUVMVA7OBP2V5NP3991VE8MBDEZA7","","img/set1/S2.jpg","74","2","structured_incentive","68","structured_incentive,structured_normal,structured_load,random","1,2,2,3,4,2","1,4,2,3","false","","",""
"null","","html-keyboard-response","212","286286","0.0-212.0","39L1G8WVWRD7281QDLQ15V6Q0J031S","A1GKD3NG1NNHRP","3WUVMVA7OBP2V5NP3991VE8MBDEZA7","","<img src=""img/set1/S2.jpg"" width=""540"" height = ""360"">","null","","","","","","","","","",""
"null","","html-keyboard-response","213","286496","0.0-213.0","39L1G8WVWRD7281QDLQ15V6Q0J031S","A1GKD3NG1NNHRP","3WUVMVA7OBP2V5NP3991VE8MBDEZA7","","","null","","","","","","","","","",""
"25.200000002980232","","image-keyboard-response","214","286522","0.0-214.0","39L1G8WVWRD7281QDLQ15V6Q0J031S","A1GKD3NG1NNHRP","3WUVMVA7OBP2V5NP3991VE8MBDEZA7","","img/set1/S1.jpg","68","1","structured_incentive","83","structured_incentive,structured_normal,structured_load,random","1,2,2,3,4,2","1,4,2,3","false","","",""
"null","","html-keyboard-response","215","286887","0.0-215.0","39L1G8WVWRD7281QDLQ15V6Q0J031S","A1GKD3NG1NNHRP","3WUVMVA7OBP2V5NP3991VE8MBDEZA7","","<img src=""img/set1/S1.jpg"" width=""540"" height = ""360"">","null","","","","","","","","","",""
"null","","html-keyboard-response","216","287103","0.0-216.0","39L1G8WVWRD7281QDLQ15V6Q0J031S","A1GKD3NG1NNHRP","3WUVMVA7OBP2V5NP3991VE8MBDEZA7","","","null","","","","","","","","","",""
"191.5","","image-keyboard-response","217","287295","0.0-217.0","39L1G8WVWRD7281QDLQ15V6Q0J031S","A1GKD3NG1NNHRP","3WUVMVA7OBP2V5NP3991VE8MBDEZA7","","img/set1/S2.jpg","74","2","structured_incentive","68","structured_incentive,structured_normal,structured_load,random","1,2,2,3,4,2","1,4,2,3","false","","",""
"null","","html-keyboard-response","218","287662","0.0-218.0","39L1G8WVWRD7281QDLQ15V6Q0J031S","A1GKD3NG1NNHRP","3WUVMVA7OBP2V5NP3991VE8MBDEZA7","","<img src=""img/set1/S2.jpg"" width=""540"" height = ""360"">","null","","","","","","","","","",""
"null","","html-keyboard-response","219","287878","0.0-219.0","39L1G8WVWRD7281QDLQ15V6Q0J031S","A1GKD3NG1NNHRP","3WUVMVA7OBP2V5NP3991VE8MBDEZA7","","","null","","","","","","","","","",""
"25.30000000447035","","image-keyboard-response","220","287904","0.0-220.0","39L1G8WVWRD7281QDLQ15V6Q0J031S","A1GKD3NG1NNHRP","3WUVMVA7OBP2V5NP3991VE8MBDEZA7","","img/set1/S1.jpg","68","1","structured_incentive","83","structured_incentive,structured_normal,structured_load,random","1,2,2,3,4,2","1,4,2,3","false","","",""
"null","","html-keyboard-response","221","288270","0.0-221.0","39L1G8WVWRD7281QDLQ15V6Q0J031S","A1GKD3NG1NNHRP","3WUVMVA7OBP2V5NP3991VE8MBDEZA7","","<img src=""img/set1/S1.jpg"" width=""540"" height = ""360"">","null","","","","","","","","","",""
"null","","html-keyboard-response","222","288479","0.0-222.0","39L1G8WVWRD7281QDLQ15V6Q0J031S","A1GKD3NG1NNHRP","3WUVMVA7OBP2V5NP3991VE8MBDEZA7","","","null","","","","","","","","","",""
"63.600000001490116","","image-keyboard-response","223","288544","0.0-223.0","39L1G8WVWRD7281QDLQ15V6Q0J031S","A1GKD3NG1NNHRP","3WUVMVA7OBP2V5NP3991VE8MBDEZA7","","img/set1/S2.jpg","74","2","structured_incentive","68","structured_incentive,structured_normal,structured_load,random","1,2,2,3,4,2","1,4,2,3","false","","",""
"null","","html-keyboard-response","224","288899","0.0-224.0","39L1G8WVWRD7281QDLQ15V6Q0J031S","A1GKD3NG1NNHRP","3WUVMVA7OBP2V5NP3991VE8MBDEZA7","","<img src=""img/set1/S2.jpg"" width=""540"" height = ""360"">","null","","","","","","","","","",""
"null","","html-keyboard-response","225","289101","0.0-225.0","39L1G8WVWRD7281QDLQ15V6Q0J031S","A1GKD3NG1NNHRP","3WUVMVA7OBP2V5NP3991VE8MBDEZA7","","","null","","","","","","","","","",""
"173","","image-keyboard-response","226","289275","0.0-226.0","39L1G8WVWRD7281QDLQ15V6Q0J031S","A1GKD3NG1NNHRP","3WUVMVA7OBP2V5NP3991VE8MBDEZA7","","img/set1/S3.jpg","83","3","structured_incentive","72","structured_incentive,structured_normal,structured_load,random","1,2,2,3,4,2","1,4,2,3","false","","",""
"null","","html-keyboard-response","227","289637","0.0-227.0","39L1G8WVWRD7281QDLQ15V6Q0J031S","A1GKD3NG1NNHRP","3WUVMVA7OBP2V5NP3991VE8MBDEZA7","","<img src=""img/set1/S3.jpg"" width=""540"" height = ""360"">","null","","","","","","","","","",""
"null","","html-keyboard-response","228","289854","0.0-228.0","39L1G8WVWRD7281QDLQ15V6Q0J031S","A1GKD3NG1NNHRP","3WUVMVA7OBP2V5NP3991VE8MBDEZA7","","","null","","","","","","","","","",""
"292.8999999985099","","image-keyboard-response","229","290147","0.0-229.0","39L1G8WVWRD7281QDLQ15V6Q0J031S","A1GKD3NG1NNHRP","3WUVMVA7OBP2V5NP3991VE8MBDEZA7","","img/set1/S1.jpg","83","1","structured_incentive","83","structured_incentive,structured_normal,structured_load,random","1,2,2,3,4,2","1,4,2,3","true","","",""
"null","","html-keyboard-response","230","290513","0.0-230.0","39L1G8WVWRD7281QDLQ15V6Q0J031S","A1GKD3NG1NNHRP","3WUVMVA7OBP2V5NP3991VE8MBDEZA7","","<img src=""img/set1/S1.jpg"" width=""540"" height = ""360"" style=""border:16px solid orange"">","null","","","","","","","","","",""
"null","","html-keyboard-response","231","290719","0.0-231.0","39L1G8WVWRD7281QDLQ15V6Q0J031S","A1GKD3NG1NNHRP","3WUVMVA7OBP2V5NP3991VE8MBDEZA7","","","null","","","","","","","","","",""
"277.6000000014901","","image-keyboard-response","232","290997","0.0-232.0","39L1G8WVWRD7281QDLQ15V6Q0J031S","A1GKD3NG1NNHRP","3WUVMVA7OBP2V5NP3991VE8MBDEZA7","","img/set1/S2.jpg","83","2","structured_incentive","68","structured_incentive,structured_normal,structured_load,random","1,2,2,3,4,2","1,4,2,3","false","","",""
"null","","html-keyboard-response","233","291350","0.0-233.0","39L1G8WVWRD7281QDLQ15V6Q0J031S","A1GKD3NG1NNHRP","3WUVMVA7OBP2V5NP3991VE8MBDEZA7","","<img src=""img/set1/S2.jpg"" width=""540"" height = ""360"">","null","","","","","","","","","",""
"null","","html-keyboard-response","234","291555","0.0-234.0","39L1G8WVWRD7281QDLQ15V6Q0J031S","A1GKD3NG1NNHRP","3WUVMVA7OBP2V5NP3991VE8MBDEZA7","","","null","","","","","","","","","",""
"250.39999999850988","","image-keyboard-response","235","291806","0.0-235.0","39L1G8WVWRD7281QDLQ15V6Q0J031S","A1GKD3NG1NNHRP","3WUVMVA7OBP2V5NP3991VE8MBDEZA7","","img/set1/S2.jpg","74","2","structured_incentive","68","structured_incentive,structured_normal,structured_load,random","1,2,2,3,4,2","1,4,2,3","false","","",""
"null","","html-keyboard-response","236","292165","0.0-236.0","39L1G8WVWRD7281QDLQ15V6Q0J031S","A1GKD3NG1NNHRP","3WUVMVA7OBP2V5NP3991VE8MBDEZA7","","<img src=""img/set1/S2.jpg"" width=""540"" height = ""360"">","null","","","","","","","","","",""
"null","","html-keyboard-response","237","292378","0.0-237.0","39L1G8WVWRD7281QDLQ15V6Q0J031S","A1GKD3NG1NNHRP","3WUVMVA7OBP2V5NP3991VE8MBDEZA7","","","null","","","","","","","","","",""
"162.29999999701977","","image-keyboard-response","238","292542","0.0-238.0","39L1G8WVWRD7281QDLQ15V6Q0J031S","A1GKD3NG1NNHRP","3WUVMVA7OBP2V5NP3991VE8MBDEZA7","","img/set1/S3.jpg","68","3","structured_incentive","72","structured_incentive,structured_normal,structured_load,random","1,2,2,3,4,2","1,4,2,3","false","","",""
"null","","html-keyboard-response","239","292906","0.0-239.0","39L1G8WVWRD7281QDLQ15V6Q0J031S","A1GKD3NG1NNHRP","3WUVMVA7OBP2V5NP3991VE8MBDEZA7","","<img src=""img/set1/S3.jpg"" width=""540"" height = ""360"">","null","","","","","","","","","",""
"null","","html-keyboard-response","240","293111","0.0-240.0","39L1G8WVWRD7281QDLQ15V6Q0J031S","A1GKD3NG1NNHRP","3WUVMVA7OBP2V5NP3991VE8MBDEZA7","","","null","","","","","","","","","",""
"530.8000000044703","","image-keyboard-response","241","293643","0.0-241.0","39L1G8WVWRD7281QDLQ15V6Q0J031S","A1GKD3NG1NNHRP","3WUVMVA7OBP2V5NP3991VE8MBDEZA7","","img/set1/S4.jpg","83","4","structured_incentive","74","structured_incentive,structured_normal,structured_load,random","1,2,2,3,4,2","1,4,2,3","false","","",""
"null","","html-keyboard-response","242","294009","0.0-242.0","39L1G8WVWRD7281QDLQ15V6Q0J031S","A1GKD3NG1NNHRP","3WUVMVA7OBP2V5NP3991VE8MBDEZA7","","<img src=""img/set1/S4.jpg"" width=""540"" height = ""360"">","null","","","","","","","","","",""
"null","","html-keyboard-response","243","294219","0.0-243.0","39L1G8WVWRD7281QDLQ15V6Q0J031S","A1GKD3NG1NNHRP","3WUVMVA7OBP2V5NP3991VE8MBDEZA7","","","null","","","","","","","","","",""
"254.60000000149012","","image-keyboard-response","244","294475","0.0-244.0","39L1G8WVWRD7281QDLQ15V6Q0J031S","A1GKD3NG1NNHRP","3WUVMVA7OBP2V5NP3991VE8MBDEZA7","","img/set1/S3.jpg","83","3","structured_incentive","72","structured_incentive,structured_normal,structured_load,random","1,2,2,3,4,2","1,4,2,3","false","","",""
"null","","html-keyboard-response","245","294841","0.0-245.0","39L1G8WVWRD7281QDLQ15V6Q0J031S","A1GKD3NG1NNHRP","3WUVMVA7OBP2V5NP3991VE8MBDEZA7","","<img src=""img/set1/S3.jpg"" width=""540"" height = ""360"">","null","","","","","","","","","",""
"null","","html-keyboard-response","246","295043","0.0-246.0","39L1G8WVWRD7281QDLQ15V6Q0J031S","A1GKD3NG1NNHRP","3WUVMVA7OBP2V5NP3991VE8MBDEZA7","","","null","","","","","","","","","",""
"null","","image-keyboard-response","247","297557","0.0-247.0","39L1G8WVWRD7281QDLQ15V6Q0J031S","A1GKD3NG1NNHRP","3WUVMVA7OBP2V5NP3991VE8MBDEZA7","","img/set1/S4.jpg","null","4","structured_incentive","74","structured_incentive,structured_normal,structured_load,random","1,2,2,3,4,2","1,4,2,3","false","","",""
"null","","html-keyboard-response","248","297919","0.0-248.0","39L1G8WVWRD7281QDLQ15V6Q0J031S","A1GKD3NG1NNHRP","3WUVMVA7OBP2V5NP3991VE8MBDEZA7","","<img src=""img/set1/S4.jpg"" width=""540"" height = ""360"">","null","","","","","","","","","",""
"null","","html-keyboard-response","249","298124","0.0-249.0","39L1G8WVWRD7281QDLQ15V6Q0J031S","A1GKD3NG1NNHRP","3WUVMVA7OBP2V5NP3991VE8MBDEZA7","","","null","","","","","","","","","",""
"null","","image-keyboard-response","250","300630","0.0-250.0","39L1G8WVWRD7281QDLQ15V6Q0J031S","A1GKD3NG1NNHRP","3WUVMVA7OBP2V5NP3991VE8MBDEZA7","","img/set1/S3.jpg","null","3","structured_incentive","72","structured_incentive,structured_normal,structured_load,random","1,2,2,3,4,2","1,4,2,3","false","","",""
"null","","html-keyboard-response","251","300991","0.0-251.0","39L1G8WVWRD7281QDLQ15V6Q0J031S","A1GKD3NG1NNHRP","3WUVMVA7OBP2V5NP3991VE8MBDEZA7","","<img src=""img/set1/S3.jpg"" width=""540"" height = ""360"">","null","","","","","","","","","",""
"null","","html-keyboard-response","252","301205","0.0-252.0","39L1G8WVWRD7281QDLQ15V6Q0J031S","A1GKD3NG1NNHRP","3WUVMVA7OBP2V5NP3991VE8MBDEZA7","","","null","","","","","","","","","",""
"null","","image-keyboard-response","253","303709","0.0-253.0","39L1G8WVWRD7281QDLQ15V6Q0J031S","A1GKD3NG1NNHRP","3WUVMVA7OBP2V5NP3991VE8MBDEZA7","","img/set1/S2.jpg","null","2","structured_incentive","68","structured_incentive,structured_normal,structured_load,random","1,2,2,3,4,2","1,4,2,3","false","","",""
"null","","html-keyboard-response","254","304071","0.0-254.0","39L1G8WVWRD7281QDLQ15V6Q0J031S","A1GKD3NG1NNHRP","3WUVMVA7OBP2V5NP3991VE8MBDEZA7","","<img src=""img/set1/S2.jpg"" width=""540"" height = ""360"">","null","","","","","","","","","",""
"null","","html-keyboard-response","255","304286","0.0-255.0","39L1G8WVWRD7281QDLQ15V6Q0J031S","A1GKD3NG1NNHRP","3WUVMVA7OBP2V5NP3991VE8MBDEZA7","","","null","","","","","","","","","",""
"424","","image-keyboard-response","256","304711","0.0-256.0","39L1G8WVWRD7281QDLQ15V6Q0J031S","A1GKD3NG1NNHRP","3WUVMVA7OBP2V5NP3991VE8MBDEZA7","","img/set1/S1.jpg","74","1","structured_incentive","83","structured_incentive,structured_normal,structured_load,random","1,2,2,3,4,2","1,4,2,3","false","","",""
"null","","html-keyboard-response","257","305068","0.0-257.0","39L1G8WVWRD7281QDLQ15V6Q0J031S","A1GKD3NG1NNHRP","3WUVMVA7OBP2V5NP3991VE8MBDEZA7","","<img src=""img/set1/S1.jpg"" width=""540"" height = ""360"">","null","","","","","","","","","",""
"null","","html-keyboard-response","258","305283","0.0-258.0","39L1G8WVWRD7281QDLQ15V6Q0J031S","A1GKD3NG1NNHRP","3WUVMVA7OBP2V5NP3991VE8MBDEZA7","","","null","","","","","","","","","",""
"187.5","","image-keyboard-response","259","305472","0.0-259.0","39L1G8WVWRD7281QDLQ15V6Q0J031S","A1GKD3NG1NNHRP","3WUVMVA7OBP2V5NP3991VE8MBDEZA7","","img/set1/S2.jpg","83","2","structured_incentive","68","structured_incentive,structured_normal,structured_load,random","1,2,2,3,4,2","1,4,2,3","false","","",""
"null","","html-keyboard-response","260","305826","0.0-260.0","39L1G8WVWRD7281QDLQ15V6Q0J031S","A1GKD3NG1NNHRP","3WUVMVA7OBP2V5NP3991VE8MBDEZA7","","<img src=""img/set1/S2.jpg"" width=""540"" height = ""360"">","null","","","","","","","","","",""
"null","","html-keyboard-response","261","306028","0.0-261.0","39L1G8WVWRD7281QDLQ15V6Q0J031S","A1GKD3NG1NNHRP","3WUVMVA7OBP2V5NP3991VE8MBDEZA7","","","null","","","","","","","","","",""
"7","","image-keyboard-response","262","306036","0.0-262.0","39L1G8WVWRD7281QDLQ15V6Q0J031S","A1GKD3NG1NNHRP","3WUVMVA7OBP2V5NP3991VE8MBDEZA7","","img/set1/S1.jpg","74","1","structured_incentive","83","structured_incentive,structured_normal,structured_load,random","1,2,2,3,4,2","1,4,2,3","false","","",""
"null","","html-keyboard-response","263","306400","0.0-263.0","39L1G8WVWRD7281QDLQ15V6Q0J031S","A1GKD3NG1NNHRP","3WUVMVA7OBP2V5NP3991VE8MBDEZA7","","<img src=""img/set1/S1.jpg"" width=""540"" height = ""360"">","null","","","","","","","","","",""
"null","","html-keyboard-response","264","306605","0.0-264.0","39L1G8WVWRD7281QDLQ15V6Q0J031S","A1GKD3NG1NNHRP","3WUVMVA7OBP2V5NP3991VE8MBDEZA7","","","null","","","","","","","","","",""
"184.5","","image-keyboard-response","265","306791","0.0-265.0","39L1G8WVWRD7281QDLQ15V6Q0J031S","A1GKD3NG1NNHRP","3WUVMVA7OBP2V5NP3991VE8MBDEZA7","","img/set1/S2.jpg","83","2","structured_incentive","68","structured_incentive,structured_normal,structured_load,random","1,2,2,3,4,2","1,4,2,3","false","","",""
"null","","html-keyboard-response","266","307150","0.0-266.0","39L1G8WVWRD7281QDLQ15V6Q0J031S","A1GKD3NG1NNHRP","3WUVMVA7OBP2V5NP3991VE8MBDEZA7","","<img src=""img/set1/S2.jpg"" width=""540"" height = ""360"">","null","","","","","","","","","",""
"null","","html-keyboard-response","267","307359","0.0-267.0","39L1G8WVWRD7281QDLQ15V6Q0J031S","A1GKD3NG1NNHRP","3WUVMVA7OBP2V5NP3991VE8MBDEZA7","","","null","","","","","","","","","",""
"594.0999999940395","","image-keyboard-response","268","307954","0.0-268.0","39L1G8WVWRD7281QDLQ15V6Q0J031S","A1GKD3NG1NNHRP","3WUVMVA7OBP2V5NP3991VE8MBDEZA7","","img/set1/S4.jpg","83","4","structured_incentive","74","structured_incentive,structured_normal,structured_load,random","1,2,2,3,4,2","1,4,2,3","false","","",""
"null","","html-keyboard-response","269","308310","0.0-269.0","39L1G8WVWRD7281QDLQ15V6Q0J031S","A1GKD3NG1NNHRP","3WUVMVA7OBP2V5NP3991VE8MBDEZA7","","<img src=""img/set1/S4.jpg"" width=""540"" height = ""360"">","null","","","","","","","","","",""
"null","","html-keyboard-response","270","308517","0.0-270.0","39L1G8WVWRD7281QDLQ15V6Q0J031S","A1GKD3NG1NNHRP","3WUVMVA7OBP2V5NP3991VE8MBDEZA7","","","null","","","","","","","","","",""
"67.60000000149012","","image-keyboard-response","271","308585","0.0-271.0","39L1G8WVWRD7281QDLQ15V6Q0J031S","A1GKD3NG1NNHRP","3WUVMVA7OBP2V5NP3991VE8MBDEZA7","","img/set1/S3.jpg","83","3","structured_incentive","72","structured_incentive,structured_normal,structured_load,random","1,2,2,3,4,2","1,4,2,3","false","","",""
"null","","html-keyboard-response","272","308938","0.0-272.0","39L1G8WVWRD7281QDLQ15V6Q0J031S","A1GKD3NG1NNHRP","3WUVMVA7OBP2V5NP3991VE8MBDEZA7","","<img src=""img/set1/S3.jpg"" width=""540"" height = ""360"">","null","","","","","","","","","",""
"null","","html-keyboard-response","273","309140","0.0-273.0","39L1G8WVWRD7281QDLQ15V6Q0J031S","A1GKD3NG1NNHRP","3WUVMVA7OBP2V5NP3991VE8MBDEZA7","","","null","","","","","","","","","",""
"886.7999999970198","","image-keyboard-response","274","310028","0.0-274.0","39L1G8WVWRD7281QDLQ15V6Q0J031S","A1GKD3NG1NNHRP","3WUVMVA7OBP2V5NP3991VE8MBDEZA7","","img/set1/S3.jpg","72","3","structured_incentive","72","structured_incentive,structured_normal,structured_load,random","1,2,2,3,4,2","1,4,2,3","true","","",""
"null","","html-keyboard-response","275","310386","0.0-275.0","39L1G8WVWRD7281QDLQ15V6Q0J031S","A1GKD3NG1NNHRP","3WUVMVA7OBP2V5NP3991VE8MBDEZA7","","<img src=""img/set1/S3.jpg"" width=""540"" height = ""360"" style=""border:16px solid orange"">","null","","","","","","","","","",""
"null","","html-keyboard-response","276","310588","0.0-276.0","39L1G8WVWRD7281QDLQ15V6Q0J031S","A1GKD3NG1NNHRP","3WUVMVA7OBP2V5NP3991VE8MBDEZA7","","","null","","","","","","","","","",""
"830.7999999970198","","image-keyboard-response","277","311420","0.0-277.0","39L1G8WVWRD7281QDLQ15V6Q0J031S","A1GKD3NG1NNHRP","3WUVMVA7OBP2V5NP3991VE8MBDEZA7","","img/set1/S2.jpg","72","2","structured_incentive","68","structured_incentive,structured_normal,structured_load,random","1,2,2,3,4,2","1,4,2,3","false","","",""
"null","","html-keyboard-response","278","311785","0.0-278.0","39L1G8WVWRD7281QDLQ15V6Q0J031S","A1GKD3NG1NNHRP","3WUVMVA7OBP2V5NP3991VE8MBDEZA7","","<img src=""img/set1/S2.jpg"" width=""540"" height = ""360"">","null","","","","","","","","","",""
"null","","html-keyboard-response","279","311992","0.0-279.0","39L1G8WVWRD7281QDLQ15V6Q0J031S","A1GKD3NG1NNHRP","3WUVMVA7OBP2V5NP3991VE8MBDEZA7","","","null","","","","","","","","","",""
"4.800000004470348","","image-keyboard-response","280","311997","0.0-280.0","39L1G8WVWRD7281QDLQ15V6Q0J031S","A1GKD3NG1NNHRP","3WUVMVA7OBP2V5NP3991VE8MBDEZA7","","img/set1/S1.jpg","68","1","structured_incentive","83","structured_incentive,structured_normal,structured_load,random","1,2,2,3,4,2","1,4,2,3","false","","",""
"null","","html-keyboard-response","281","312364","0.0-281.0","39L1G8WVWRD7281QDLQ15V6Q0J031S","A1GKD3NG1NNHRP","3WUVMVA7OBP2V5NP3991VE8MBDEZA7","","<img src=""img/set1/S1.jpg"" width=""540"" height = ""360"">","null","","","","","","","","","",""
"null","","html-keyboard-response","282","312567","0.0-282.0","39L1G8WVWRD7281QDLQ15V6Q0J031S","A1GKD3NG1NNHRP","3WUVMVA7OBP2V5NP3991VE8MBDEZA7","","","null","","","","","","","","","",""
"123.79999999701977","","image-keyboard-response","283","312692","0.0-283.0","39L1G8WVWRD7281QDLQ15V6Q0J031S","A1GKD3NG1NNHRP","3WUVMVA7OBP2V5NP3991VE8MBDEZA7","","img/set1/S2.jpg","74","2","structured_incentive","68","structured_incentive,structured_normal,structured_load,random","1,2,2,3,4,2","1,4,2,3","false","","",""
"null","","html-keyboard-response","284","313056","0.0-284.0","39L1G8WVWRD7281QDLQ15V6Q0J031S","A1GKD3NG1NNHRP","3WUVMVA7OBP2V5NP3991VE8MBDEZA7","","<img src=""img/set1/S2.jpg"" width=""540"" height = ""360"">","null","","","","","","","","","",""
"null","","html-keyboard-response","285","313284","0.0-285.0","39L1G8WVWRD7281QDLQ15V6Q0J031S","A1GKD3NG1NNHRP","3WUVMVA7OBP2V5NP3991VE8MBDEZA7","","","null","","","","","","","","","",""
"199.20000000298023","","image-keyboard-response","286","313484","0.0-286.0","39L1G8WVWRD7281QDLQ15V6Q0J031S","A1GKD3NG1NNHRP","3WUVMVA7OBP2V5NP3991VE8MBDEZA7","","img/set1/S2.jpg","83","2","structured_incentive","68","structured_incentive,structured_normal,structured_load,random","1,2,2,3,4,2","1,4,2,3","false","","",""
"null","","html-keyboard-response","287","313840","0.0-287.0","39L1G8WVWRD7281QDLQ15V6Q0J031S","A1GKD3NG1NNHRP","3WUVMVA7OBP2V5NP3991VE8MBDEZA7","","<img src=""img/set1/S2.jpg"" width=""540"" height = ""360"">","null","","","","","","","","","",""
"null","","html-keyboard-response","288","314043","0.0-288.0","39L1G8WVWRD7281QDLQ15V6Q0J031S","A1GKD3NG1NNHRP","3WUVMVA7OBP2V5NP3991VE8MBDEZA7","","","null","","","","","","","","","",""
"594","","image-keyboard-response","289","314638","0.0-289.0","39L1G8WVWRD7281QDLQ15V6Q0J031S","A1GKD3NG1NNHRP","3WUVMVA7OBP2V5NP3991VE8MBDEZA7","","img/set1/S4.jpg","83","4","structured_incentive","74","structured_incentive,structured_normal,structured_load,random","1,2,2,3,4,2","1,4,2,3","false","","",""
"null","","html-keyboard-response","290","314996","0.0-290.0","39L1G8WVWRD7281QDLQ15V6Q0J031S","A1GKD3NG1NNHRP","3WUVMVA7OBP2V5NP3991VE8MBDEZA7","","<img src=""img/set1/S4.jpg"" width=""540"" height = ""360"">","null","","","","","","","","","",""
"null","","html-keyboard-response","291","315197","0.0-291.0","39L1G8WVWRD7281QDLQ15V6Q0J031S","A1GKD3NG1NNHRP","3WUVMVA7OBP2V5NP3991VE8MBDEZA7","","","null","","","","","","","","","",""
"170.20000000298023","","image-keyboard-response","292","315369","0.0-292.0","39L1G8WVWRD7281QDLQ15V6Q0J031S","A1GKD3NG1NNHRP","3WUVMVA7OBP2V5NP3991VE8MBDEZA7","","img/set1/S4.jpg","83","4","structured_incentive","74","structured_incentive,structured_normal,structured_load,random","1,2,2,3,4,2","1,4,2,3","false","","",""
"null","","html-keyboard-response","293","315725","0.0-293.0","39L1G8WVWRD7281QDLQ15V6Q0J031S","A1GKD3NG1NNHRP","3WUVMVA7OBP2V5NP3991VE8MBDEZA7","","<img src=""img/set1/S4.jpg"" width=""540"" height = ""360"">","null","","","","","","","","","",""
"null","","html-keyboard-response","294","315942","0.0-294.0","39L1G8WVWRD7281QDLQ15V6Q0J031S","A1GKD3NG1NNHRP","3WUVMVA7OBP2V5NP3991VE8MBDEZA7","","","null","","","","","","","","","",""
"333.30000000447035","","image-keyboard-response","295","316276","0.0-295.0","39L1G8WVWRD7281QDLQ15V6Q0J031S","A1GKD3NG1NNHRP","3WUVMVA7OBP2V5NP3991VE8MBDEZA7","","img/set1/S4.jpg","72","4","structured_incentive","74","structured_incentive,structured_normal,structured_load,random","1,2,2,3,4,2","1,4,2,3","false","","",""
"null","","html-keyboard-response","296","316636","0.0-296.0","39L1G8WVWRD7281QDLQ15V6Q0J031S","A1GKD3NG1NNHRP","3WUVMVA7OBP2V5NP3991VE8MBDEZA7","","<img src=""img/set1/S4.jpg"" width=""540"" height = ""360"">","null","","","","","","","","","",""
"null","","html-keyboard-response","297","316837","0.0-297.0","39L1G8WVWRD7281QDLQ15V6Q0J031S","A1GKD3NG1NNHRP","3WUVMVA7OBP2V5NP3991VE8MBDEZA7","","","null","","","","","","","","","",""
"40","","image-keyboard-response","298","316879","0.0-298.0","39L1G8WVWRD7281QDLQ15V6Q0J031S","A1GKD3NG1NNHRP","3WUVMVA7OBP2V5NP3991VE8MBDEZA7","","img/set1/S4.jpg","68","4","structured_incentive","74","structured_incentive,structured_normal,structured_load,random","1,2,2,3,4,2","1,4,2,3","false","","",""
"null","","html-keyboard-response","299","317234","0.0-299.0","39L1G8WVWRD7281QDLQ15V6Q0J031S","A1GKD3NG1NNHRP","3WUVMVA7OBP2V5NP3991VE8MBDEZA7","","<img src=""img/set1/S4.jpg"" width=""540"" height = ""360"">","null","","","","","","","","","",""
"null","","html-keyboard-response","300","317438","0.0-300.0","39L1G8WVWRD7281QDLQ15V6Q0J031S","A1GKD3NG1NNHRP","3WUVMVA7OBP2V5NP3991VE8MBDEZA7","","","null","","","","","","","","","",""
"193","","image-keyboard-response","301","317632","0.0-301.0","39L1G8WVWRD7281QDLQ15V6Q0J031S","A1GKD3NG1NNHRP","3WUVMVA7OBP2V5NP3991VE8MBDEZA7","","img/set1/S4.jpg","83","4","structured_incentive","74","structured_incentive,structured_normal,structured_load,random","1,2,2,3,4,2","1,4,2,3","false","","",""
"null","","html-keyboard-response","302","317991","0.0-302.0","39L1G8WVWRD7281QDLQ15V6Q0J031S","A1GKD3NG1NNHRP","3WUVMVA7OBP2V5NP3991VE8MBDEZA7","","<img src=""img/set1/S4.jpg"" width=""540"" height = ""360"">","null","","","","","","","","","",""
"null","","html-keyboard-response","303","318200","0.0-303.0","39L1G8WVWRD7281QDLQ15V6Q0J031S","A1GKD3NG1NNHRP","3WUVMVA7OBP2V5NP3991VE8MBDEZA7","","","null","","","","","","","","","",""
"257.20000000298023","","image-keyboard-response","304","318458","0.0-304.0","39L1G8WVWRD7281QDLQ15V6Q0J031S","A1GKD3NG1NNHRP","3WUVMVA7OBP2V5NP3991VE8MBDEZA7","","img/set1/S2.jpg","83","2","structured_incentive","68","structured_incentive,structured_normal,structured_load,random","1,2,2,3,4,2","1,4,2,3","false","","",""
"null","","html-keyboard-response","305","318812","0.0-305.0","39L1G8WVWRD7281QDLQ15V6Q0J031S","A1GKD3NG1NNHRP","3WUVMVA7OBP2V5NP3991VE8MBDEZA7","","<img src=""img/set1/S2.jpg"" width=""540"" height = ""360"">","null","","","","","","","","","",""
"null","","html-keyboard-response","306","319024","0.0-306.0","39L1G8WVWRD7281QDLQ15V6Q0J031S","A1GKD3NG1NNHRP","3WUVMVA7OBP2V5NP3991VE8MBDEZA7","","","null","","","","","","","","","",""
"122.69999999552965","","image-keyboard-response","307","319148","0.0-307.0","39L1G8WVWRD7281QDLQ15V6Q0J031S","A1GKD3NG1NNHRP","3WUVMVA7OBP2V5NP3991VE8MBDEZA7","","img/set1/S3.jpg","72","3","structured_incentive","72","structured_incentive,structured_normal,structured_load,random","1,2,2,3,4,2","1,4,2,3","true","","",""
"null","","html-keyboard-response","308","319505","0.0-308.0","39L1G8WVWRD7281QDLQ15V6Q0J031S","A1GKD3NG1NNHRP","3WUVMVA7OBP2V5NP3991VE8MBDEZA7","","<img src=""img/set1/S3.jpg"" width=""540"" height = ""360"" style=""border:16px solid orange"">","null","","","","","","","","","",""
"null","","html-keyboard-response","309","319708","0.0-309.0","39L1G8WVWRD7281QDLQ15V6Q0J031S","A1GKD3NG1NNHRP","3WUVMVA7OBP2V5NP3991VE8MBDEZA7","","","null","","","","","","","","","",""
"90.29999999701977","","image-keyboard-response","310","319799","0.0-310.0","39L1G8WVWRD7281QDLQ15V6Q0J031S","A1GKD3NG1NNHRP","3WUVMVA7OBP2V5NP3991VE8MBDEZA7","","img/set1/S1.jpg","72","1","structured_incentive","83","structured_incentive,structured_normal,structured_load,random","1,2,2,3,4,2","1,4,2,3","false","","",""
"null","","html-keyboard-response","311","320165","0.0-311.0","39L1G8WVWRD7281QDLQ15V6Q0J031S","A1GKD3NG1NNHRP","3WUVMVA7OBP2V5NP3991VE8MBDEZA7","","<img src=""img/set1/S1.jpg"" width=""540"" height = ""360"">","null","","","","","","","","","",""
"null","","html-keyboard-response","312","320368","0.0-312.0","39L1G8WVWRD7281QDLQ15V6Q0J031S","A1GKD3NG1NNHRP","3WUVMVA7OBP2V5NP3991VE8MBDEZA7","","","null","","","","","","","","","",""
"407.5","","image-keyboard-response","313","320776","0.0-313.0","39L1G8WVWRD7281QDLQ15V6Q0J031S","A1GKD3NG1NNHRP","3WUVMVA7OBP2V5NP3991VE8MBDEZA7","","img/set1/S2.jpg","74","2","structured_incentive","68","structured_incentive,structured_normal,structured_load,random","1,2,2,3,4,2","1,4,2,3","false","","",""
"null","","html-keyboard-response","314","321138","0.0-314.0","39L1G8WVWRD7281QDLQ15V6Q0J031S","A1GKD3NG1NNHRP","3WUVMVA7OBP2V5NP3991VE8MBDEZA7","","<img src=""img/set1/S2.jpg"" width=""540"" height = ""360"">","null","","","","","","","","","",""
"null","","html-keyboard-response","315","321352","0.0-315.0","39L1G8WVWRD7281QDLQ15V6Q0J031S","A1GKD3NG1NNHRP","3WUVMVA7OBP2V5NP3991VE8MBDEZA7","","","null","","","","","","","","","",""
"27.600000001490116","","image-keyboard-response","316","321381","0.0-316.0","39L1G8WVWRD7281QDLQ15V6Q0J031S","A1GKD3NG1NNHRP","3WUVMVA7OBP2V5NP3991VE8MBDEZA7","","img/set1/S1.jpg","83","1","structured_incentive","83","structured_incentive,structured_normal,structured_load,random","1,2,2,3,4,2","1,4,2,3","true","","",""
"null","","html-keyboard-response","317","321743","0.0-317.0","39L1G8WVWRD7281QDLQ15V6Q0J031S","A1GKD3NG1NNHRP","3WUVMVA7OBP2V5NP3991VE8MBDEZA7","","<img src=""img/set1/S1.jpg"" width=""540"" height = ""360"" style=""border:16px solid orange"">","null","","","","","","","","","",""
"null","","html-keyboard-response","318","321959","0.0-318.0","39L1G8WVWRD7281QDLQ15V6Q0J031S","A1GKD3NG1NNHRP","3WUVMVA7OBP2V5NP3991VE8MBDEZA7","","","null","","","","","","","","","",""
"289.30000000447035","","image-keyboard-response","319","322249","0.0-319.0","39L1G8WVWRD7281QDLQ15V6Q0J031S","A1GKD3NG1NNHRP","3WUVMVA7OBP2V5NP3991VE8MBDEZA7","","img/set1/S2.jpg","72","2","structured_incentive","68","structured_incentive,structured_normal,structured_load,random","1,2,2,3,4,2","1,4,2,3","false","","",""
"null","","html-keyboard-response","320","322615","0.0-320.0","39L1G8WVWRD7281QDLQ15V6Q0J031S","A1GKD3NG1NNHRP","3WUVMVA7OBP2V5NP3991VE8MBDEZA7","","<img src=""img/set1/S2.jpg"" width=""540"" height = ""360"">","null","","","","","","","","","",""
"null","","html-keyboard-response","321","322824","0.0-321.0","39L1G8WVWRD7281QDLQ15V6Q0J031S","A1GKD3NG1NNHRP","3WUVMVA7OBP2V5NP3991VE8MBDEZA7","","","null","","","","","","","","","",""
"347.5","","image-keyboard-response","322","323172","0.0-322.0","39L1G8WVWRD7281QDLQ15V6Q0J031S","A1GKD3NG1NNHRP","3WUVMVA7OBP2V5NP3991VE8MBDEZA7","","img/set1/S1.jpg","74","1","structured_incentive","83","structured_incentive,structured_normal,structured_load,random","1,2,2,3,4,2","1,4,2,3","false","","",""
"null","","html-keyboard-response","323","323537","0.0-323.0","39L1G8WVWRD7281QDLQ15V6Q0J031S","A1GKD3NG1NNHRP","3WUVMVA7OBP2V5NP3991VE8MBDEZA7","","<img src=""img/set1/S1.jpg"" width=""540"" height = ""360"">","null","","","","","","","","","",""
"null","","html-keyboard-response","324","323739","0.0-324.0","39L1G8WVWRD7281QDLQ15V6Q0J031S","A1GKD3NG1NNHRP","3WUVMVA7OBP2V5NP3991VE8MBDEZA7","","","null","","","","","","","","","",""
"119.40000000596046","","image-keyboard-response","325","323859","0.0-325.0","39L1G8WVWRD7281QDLQ15V6Q0J031S","A1GKD3NG1NNHRP","3WUVMVA7OBP2V5NP3991VE8MBDEZA7","","img/set1/S2.jpg","83","2","structured_incentive","68","structured_incentive,structured_normal,structured_load,random","1,2,2,3,4,2","1,4,2,3","false","","",""
"null","","html-keyboard-response","326","324219","0.0-326.0","39L1G8WVWRD7281QDLQ15V6Q0J031S","A1GKD3NG1NNHRP","3WUVMVA7OBP2V5NP3991VE8MBDEZA7","","<img src=""img/set1/S2.jpg"" width=""540"" height = ""360"">","null","","","","","","","","","",""
"null","","html-keyboard-response","327","324421","0.0-327.0","39L1G8WVWRD7281QDLQ15V6Q0J031S","A1GKD3NG1NNHRP","3WUVMVA7OBP2V5NP3991VE8MBDEZA7","","","null","","","","","","","","","",""
"327.1000000014901","","image-keyboard-response","328","324749","0.0-328.0","39L1G8WVWRD7281QDLQ15V6Q0J031S","A1GKD3NG1NNHRP","3WUVMVA7OBP2V5NP3991VE8MBDEZA7","","img/set1/S4.jpg","83","4","structured_incentive","74","structured_incentive,structured_normal,structured_load,random","1,2,2,3,4,2","1,4,2,3","false","","",""
"null","","html-keyboard-response","329","325107","0.0-329.0","39L1G8WVWRD7281QDLQ15V6Q0J031S","A1GKD3NG1NNHRP","3WUVMVA7OBP2V5NP3991VE8MBDEZA7","","<img src=""img/set1/S4.jpg"" width=""540"" height = ""360"">","null","","","","","","","","","",""
"null","","html-keyboard-response","330","325309","0.0-330.0","39L1G8WVWRD7281QDLQ15V6Q0J031S","A1GKD3NG1NNHRP","3WUVMVA7OBP2V5NP3991VE8MBDEZA7","","","null","","","","","","","","","",""
"25.899999998509884","","image-keyboard-response","331","325336","0.0-331.0","39L1G8WVWRD7281QDLQ15V6Q0J031S","A1GKD3NG1NNHRP","3WUVMVA7OBP2V5NP3991VE8MBDEZA7","","img/set1/S4.jpg","74","4","structured_incentive","74","structured_incentive,structured_normal,structured_load,random","1,2,2,3,4,2","1,4,2,3","true","","",""
"null","","html-keyboard-response","332","325699","0.0-332.0","39L1G8WVWRD7281QDLQ15V6Q0J031S","A1GKD3NG1NNHRP","3WUVMVA7OBP2V5NP3991VE8MBDEZA7","","<img src=""img/set1/S4.jpg"" width=""540"" height = ""360"" style=""border:16px solid Violet"">","null","","","","","","","","","",""
"null","","html-keyboard-response","333","325914","0.0-333.0","39L1G8WVWRD7281QDLQ15V6Q0J031S","A1GKD3NG1NNHRP","3WUVMVA7OBP2V5NP3991VE8MBDEZA7","","","null","","","","","","","","","",""
"122.79999999701977","","image-keyboard-response","334","326038","0.0-334.0","39L1G8WVWRD7281QDLQ15V6Q0J031S","A1GKD3NG1NNHRP","3WUVMVA7OBP2V5NP3991VE8MBDEZA7","","img/set1/S3.jpg","74","3","structured_incentive","72","structured_incentive,structured_normal,structured_load,random","1,2,2,3,4,2","1,4,2,3","false","","",""
"null","","html-keyboard-response","335","326393","0.0-335.0","39L1G8WVWRD7281QDLQ15V6Q0J031S","A1GKD3NG1NNHRP","3WUVMVA7OBP2V5NP3991VE8MBDEZA7","","<img src=""img/set1/S3.jpg"" width=""540"" height = ""360"">","null","","","","","","","","","",""
"null","","html-keyboard-response","336","326595","0.0-336.0","39L1G8WVWRD7281QDLQ15V6Q0J031S","A1GKD3NG1NNHRP","3WUVMVA7OBP2V5NP3991VE8MBDEZA7","","","null","","","","","","","","","",""
"322.20000000298023","","image-keyboard-response","337","326918","0.0-337.0","39L1G8WVWRD7281QDLQ15V6Q0J031S","A1GKD3NG1NNHRP","3WUVMVA7OBP2V5NP3991VE8MBDEZA7","","img/set1/S3.jpg","74","3","structured_incentive","72","structured_incentive,structured_normal,structured_load,random","1,2,2,3,4,2","1,4,2,3","false","","",""
"null","","html-keyboard-response","338","327272","0.0-338.0","39L1G8WVWRD7281QDLQ15V6Q0J031S","A1GKD3NG1NNHRP","3WUVMVA7OBP2V5NP3991VE8MBDEZA7","","<img src=""img/set1/S3.jpg"" width=""540"" height = ""360"">","null","","","","","","","","","",""
"null","","html-keyboard-response","339","327480","0.0-339.0","39L1G8WVWRD7281QDLQ15V6Q0J031S","A1GKD3NG1NNHRP","3WUVMVA7OBP2V5NP3991VE8MBDEZA7","","","null","","","","","","","","","",""
"347.29999999701977","","image-keyboard-response","340","327828","0.0-340.0","39L1G8WVWRD7281QDLQ15V6Q0J031S","A1GKD3NG1NNHRP","3WUVMVA7OBP2V5NP3991VE8MBDEZA7","","img/set1/S4.jpg","74","4","structured_incentive","74","structured_incentive,structured_normal,structured_load,random","1,2,2,3,4,2","1,4,2,3","true","","",""
"null","","html-keyboard-response","341","328182","0.0-341.0","39L1G8WVWRD7281QDLQ15V6Q0J031S","A1GKD3NG1NNHRP","3WUVMVA7OBP2V5NP3991VE8MBDEZA7","","<img src=""img/set1/S4.jpg"" width=""540"" height = ""360"" style=""border:16px solid Violet"">","null","","","","","","","","","",""
"null","","html-keyboard-response","342","328386","0.0-342.0","39L1G8WVWRD7281QDLQ15V6Q0J031S","A1GKD3NG1NNHRP","3WUVMVA7OBP2V5NP3991VE8MBDEZA7","","","null","","","","","","","","","",""
"342.70000000298023","","image-keyboard-response","343","328729","0.0-343.0","39L1G8WVWRD7281QDLQ15V6Q0J031S","A1GKD3NG1NNHRP","3WUVMVA7OBP2V5NP3991VE8MBDEZA7","","img/set1/S2.jpg","74","2","structured_incentive","68","structured_incentive,structured_normal,structured_load,random","1,2,2,3,4,2","1,4,2,3","false","","",""
"null","","html-keyboard-response","344","329092","0.0-344.0","39L1G8WVWRD7281QDLQ15V6Q0J031S","A1GKD3NG1NNHRP","3WUVMVA7OBP2V5NP3991VE8MBDEZA7","","<img src=""img/set1/S2.jpg"" width=""540"" height = ""360"">","null","","","","","","","","","",""
"null","","html-keyboard-response","345","329295","0.0-345.0","39L1G8WVWRD7281QDLQ15V6Q0J031S","A1GKD3NG1NNHRP","3WUVMVA7OBP2V5NP3991VE8MBDEZA7","","","null","","","","","","","","","",""
"338.8999999985099","","image-keyboard-response","346","329635","0.0-346.0","39L1G8WVWRD7281QDLQ15V6Q0J031S","A1GKD3NG1NNHRP","3WUVMVA7OBP2V5NP3991VE8MBDEZA7","","img/set1/S1.jpg","74","1","structured_incentive","83","structured_incentive,structured_normal,structured_load,random","1,2,2,3,4,2","1,4,2,3","false","","",""
"null","","html-keyboard-response","347","329993","0.0-347.0","39L1G8WVWRD7281QDLQ15V6Q0J031S","A1GKD3NG1NNHRP","3WUVMVA7OBP2V5NP3991VE8MBDEZA7","","<img src=""img/set1/S1.jpg"" width=""540"" height = ""360"">","null","","","","","","","","","",""
"null","","html-keyboard-response","348","330195","0.0-348.0","39L1G8WVWRD7281QDLQ15V6Q0J031S","A1GKD3NG1NNHRP","3WUVMVA7OBP2V5NP3991VE8MBDEZA7","","","null","","","","","","","","","",""
"91.59999999403954","","image-keyboard-response","349","330288","0.0-349.0","39L1G8WVWRD7281QDLQ15V6Q0J031S","A1GKD3NG1NNHRP","3WUVMVA7OBP2V5NP3991VE8MBDEZA7","","img/set1/S4.jpg","83","4","structured_incentive","74","structured_incentive,structured_normal,structured_load,random","1,2,2,3,4,2","1,4,2,3","false","","",""
"null","","html-keyboard-response","350","330649","0.0-350.0","39L1G8WVWRD7281QDLQ15V6Q0J031S","A1GKD3NG1NNHRP","3WUVMVA7OBP2V5NP3991VE8MBDEZA7","","<img src=""img/set1/S4.jpg"" width=""540"" height = ""360"">","null","","","","","","","","","",""
"null","","html-keyboard-response","351","330853","0.0-351.0","39L1G8WVWRD7281QDLQ15V6Q0J031S","A1GKD3NG1NNHRP","3WUVMVA7OBP2V5NP3991VE8MBDEZA7","","","null","","","","","","","","","",""
"335.30000000447035","","image-keyboard-response","352","331189","0.0-352.0","39L1G8WVWRD7281QDLQ15V6Q0J031S","A1GKD3NG1NNHRP","3WUVMVA7OBP2V5NP3991VE8MBDEZA7","","img/set1/S1.jpg","68","1","structured_incentive","83","structured_incentive,structured_normal,structured_load,random","1,2,2,3,4,2","1,4,2,3","false","","",""
"null","","html-keyboard-response","353","331543","0.0-353.0","39L1G8WVWRD7281QDLQ15V6Q0J031S","A1GKD3NG1NNHRP","3WUVMVA7OBP2V5NP3991VE8MBDEZA7","","<img src=""img/set1/S1.jpg"" width=""540"" height = ""360"">","null","","","","","","","","","",""
"null","","html-keyboard-response","354","331745","0.0-354.0","39L1G8WVWRD7281QDLQ15V6Q0J031S","A1GKD3NG1NNHRP","3WUVMVA7OBP2V5NP3991VE8MBDEZA7","","","null","","","","","","","","","",""
"151","","image-keyboard-response","355","331897","0.0-355.0","39L1G8WVWRD7281QDLQ15V6Q0J031S","A1GKD3NG1NNHRP","3WUVMVA7OBP2V5NP3991VE8MBDEZA7","","img/set1/S2.jpg","74","2","structured_incentive","68","structured_incentive,structured_normal,structured_load,random","1,2,2,3,4,2","1,4,2,3","false","","",""
"null","","html-keyboard-response","356","332257","0.0-356.0","39L1G8WVWRD7281QDLQ15V6Q0J031S","A1GKD3NG1NNHRP","3WUVMVA7OBP2V5NP3991VE8MBDEZA7","","<img src=""img/set1/S2.jpg"" width=""540"" height = ""360"">","null","","","","","","","","","",""
"null","","html-keyboard-response","357","332460","0.0-357.0","39L1G8WVWRD7281QDLQ15V6Q0J031S","A1GKD3NG1NNHRP","3WUVMVA7OBP2V5NP3991VE8MBDEZA7","","","null","","","","","","","","","",""
"257.19999999552965","","image-keyboard-response","358","332718","0.0-358.0","39L1G8WVWRD7281QDLQ15V6Q0J031S","A1GKD3NG1NNHRP","3WUVMVA7OBP2V5NP3991VE8MBDEZA7","","img/set1/S3.jpg","74","3","structured_incentive","72","structured_incentive,structured_normal,structured_load,random","1,2,2,3,4,2","1,4,2,3","false","","",""
"null","","html-keyboard-response","359","333078","0.0-359.0","39L1G8WVWRD7281QDLQ15V6Q0J031S","A1GKD3NG1NNHRP","3WUVMVA7OBP2V5NP3991VE8MBDEZA7","","<img src=""img/set1/S3.jpg"" width=""540"" height = ""360"">","null","","","","","","","","","",""
"null","","html-keyboard-response","360","333287","0.0-360.0","39L1G8WVWRD7281QDLQ15V6Q0J031S","A1GKD3NG1NNHRP","3WUVMVA7OBP2V5NP3991VE8MBDEZA7","","","null","","","","","","","","","",""
"317.80000000447035","","image-keyboard-response","361","333605","0.0-361.0","39L1G8WVWRD7281QDLQ15V6Q0J031S","A1GKD3NG1NNHRP","3WUVMVA7OBP2V5NP3991VE8MBDEZA7","","img/set1/S1.jpg","74","1","structured_incentive","83","structured_incentive,structured_normal,structured_load,random","1,2,2,3,4,2","1,4,2,3","false","","",""
"null","","html-keyboard-response","362","333967","0.0-362.0","39L1G8WVWRD7281QDLQ15V6Q0J031S","A1GKD3NG1NNHRP","3WUVMVA7OBP2V5NP3991VE8MBDEZA7","","<img src=""img/set1/S1.jpg"" width=""540"" height = ""360"">","null","","","","","","","","","",""
"null","","html-keyboard-response","363","334176","0.0-363.0","39L1G8WVWRD7281QDLQ15V6Q0J031S","A1GKD3NG1NNHRP","3WUVMVA7OBP2V5NP3991VE8MBDEZA7","","","null","","","","","","","","","",""
"272.59999999403954","","image-keyboard-response","364","334449","0.0-364.0","39L1G8WVWRD7281QDLQ15V6Q0J031S","A1GKD3NG1NNHRP","3WUVMVA7OBP2V5NP3991VE8MBDEZA7","","img/set1/S4.jpg","74","4","structured_incentive","74","structured_incentive,structured_normal,structured_load,random","1,2,2,3,4,2","1,4,2,3","true","","",""
"null","","html-keyboard-response","365","334816","0.0-365.0","39L1G8WVWRD7281QDLQ15V6Q0J031S","A1GKD3NG1NNHRP","3WUVMVA7OBP2V5NP3991VE8MBDEZA7","","<img src=""img/set1/S4.jpg"" width=""540"" height = ""360"" style=""border:16px solid Violet"">","null","","","","","","","","","",""
"null","","html-keyboard-response","366","335033","0.0-366.0","39L1G8WVWRD7281QDLQ15V6Q0J031S","A1GKD3NG1NNHRP","3WUVMVA7OBP2V5NP3991VE8MBDEZA7","","","null","","","","","","","","","",""
"158.19999999552965","","image-keyboard-response","367","335192","0.0-367.0","39L1G8WVWRD7281QDLQ15V6Q0J031S","A1GKD3NG1NNHRP","3WUVMVA7OBP2V5NP3991VE8MBDEZA7","","img/set1/S3.jpg","74","3","structured_incentive","72","structured_incentive,structured_normal,structured_load,random","1,2,2,3,4,2","1,4,2,3","false","","",""
"null","","html-keyboard-response","368","335548","0.0-368.0","39L1G8WVWRD7281QDLQ15V6Q0J031S","A1GKD3NG1NNHRP","3WUVMVA7OBP2V5NP3991VE8MBDEZA7","","<img src=""img/set1/S3.jpg"" width=""540"" height = ""360"">","null","","","","","","","","","",""
"null","","html-keyboard-response","369","335764","0.0-369.0","39L1G8WVWRD7281QDLQ15V6Q0J031S","A1GKD3NG1NNHRP","3WUVMVA7OBP2V5NP3991VE8MBDEZA7","","","null","","","","","","","","","",""
"105.09999999403954","","image-keyboard-response","370","335870","0.0-370.0","39L1G8WVWRD7281QDLQ15V6Q0J031S","A1GKD3NG1NNHRP","3WUVMVA7OBP2V5NP3991VE8MBDEZA7","","img/set1/S1.jpg","74","1","structured_incentive","83","structured_incentive,structured_normal,structured_load,random","1,2,2,3,4,2","1,4,2,3","false","","",""
"null","","html-keyboard-response","371","336237","0.0-371.0","39L1G8WVWRD7281QDLQ15V6Q0J031S","A1GKD3NG1NNHRP","3WUVMVA7OBP2V5NP3991VE8MBDEZA7","","<img src=""img/set1/S1.jpg"" width=""540"" height = ""360"">","null","","","","","","","","","",""
"null","","html-keyboard-response","372","336451","0.0-372.0","39L1G8WVWRD7281QDLQ15V6Q0J031S","A1GKD3NG1NNHRP","3WUVMVA7OBP2V5NP3991VE8MBDEZA7","","","null","","","","","","","","","",""
"380.59999999403954","","image-keyboard-response","373","336833","0.0-373.0","39L1G8WVWRD7281QDLQ15V6Q0J031S","A1GKD3NG1NNHRP","3WUVMVA7OBP2V5NP3991VE8MBDEZA7","","img/set1/S2.jpg","74","2","structured_incentive","68","structured_incentive,structured_normal,structured_load,random","1,2,2,3,4,2","1,4,2,3","false","","",""
"null","","html-keyboard-response","374","337189","0.0-374.0","39L1G8WVWRD7281QDLQ15V6Q0J031S","A1GKD3NG1NNHRP","3WUVMVA7OBP2V5NP3991VE8MBDEZA7","","<img src=""img/set1/S2.jpg"" width=""540"" height = ""360"">","null","","","","","","","","","",""
"null","","html-keyboard-response","375","337391","0.0-375.0","39L1G8WVWRD7281QDLQ15V6Q0J031S","A1GKD3NG1NNHRP","3WUVMVA7OBP2V5NP3991VE8MBDEZA7","","","null","","","","","","","","","",""
"116.19999999552965","","image-keyboard-response","376","337509","0.0-376.0","39L1G8WVWRD7281QDLQ15V6Q0J031S","A1GKD3NG1NNHRP","3WUVMVA7OBP2V5NP3991VE8MBDEZA7","","img/set1/S4.jpg","74","4","structured_incentive","74","structured_incentive,structured_normal,structured_load,random","1,2,2,3,4,2","1,4,2,3","true","","",""
"null","","html-keyboard-response","377","337866","0.0-377.0","39L1G8WVWRD7281QDLQ15V6Q0J031S","A1GKD3NG1NNHRP","3WUVMVA7OBP2V5NP3991VE8MBDEZA7","","<img src=""img/set1/S4.jpg"" width=""540"" height = ""360"" style=""border:16px solid Violet"">","null","","","","","","","","","",""
"null","","html-keyboard-response","378","338073","0.0-378.0","39L1G8WVWRD7281QDLQ15V6Q0J031S","A1GKD3NG1NNHRP","3WUVMVA7OBP2V5NP3991VE8MBDEZA7","","","null","","","","","","","","","",""
"240.39999999850988","","image-keyboard-response","379","338315","0.0-379.0","39L1G8WVWRD7281QDLQ15V6Q0J031S","A1GKD3NG1NNHRP","3WUVMVA7OBP2V5NP3991VE8MBDEZA7","","img/set1/S4.jpg","74","4","structured_incentive","74","structured_incentive,structured_normal,structured_load,random","1,2,2,3,4,2","1,4,2,3","true","","",""
"null","","html-keyboard-response","380","338674","0.0-380.0","39L1G8WVWRD7281QDLQ15V6Q0J031S","A1GKD3NG1NNHRP","3WUVMVA7OBP2V5NP3991VE8MBDEZA7","","<img src=""img/set1/S4.jpg"" width=""540"" height = ""360"" style=""border:16px solid Violet"">","null","","","","","","","","","",""
"null","","html-keyboard-response","381","338876","0.0-381.0","39L1G8WVWRD7281QDLQ15V6Q0J031S","A1GKD3NG1NNHRP","3WUVMVA7OBP2V5NP3991VE8MBDEZA7","","","null","","","","","","","","","",""
"322.5","","image-keyboard-response","382","339200","0.0-382.0","39L1G8WVWRD7281QDLQ15V6Q0J031S","A1GKD3NG1NNHRP","3WUVMVA7OBP2V5NP3991VE8MBDEZA7","","img/set1/S3.jpg","74","3","structured_incentive","72","structured_incentive,structured_normal,structured_load,random","1,2,2,3,4,2","1,4,2,3","false","","",""
"null","","html-keyboard-response","383","339560","0.0-383.0","39L1G8WVWRD7281QDLQ15V6Q0J031S","A1GKD3NG1NNHRP","3WUVMVA7OBP2V5NP3991VE8MBDEZA7","","<img src=""img/set1/S3.jpg"" width=""540"" height = ""360"">","null","","","","","","","","","",""
"null","","html-keyboard-response","384","339776","0.0-384.0","39L1G8WVWRD7281QDLQ15V6Q0J031S","A1GKD3NG1NNHRP","3WUVMVA7OBP2V5NP3991VE8MBDEZA7","","","null","","","","","","","","","",""
"43","","image-keyboard-response","385","339820","0.0-385.0","39L1G8WVWRD7281QDLQ15V6Q0J031S","A1GKD3NG1NNHRP","3WUVMVA7OBP2V5NP3991VE8MBDEZA7","","img/set1/S1.jpg","74","1","structured_incentive","83","structured_incentive,structured_normal,structured_load,random","1,2,2,3,4,2","1,4,2,3","false","","",""
"null","","html-keyboard-response","386","340175","0.0-386.0","39L1G8WVWRD7281QDLQ15V6Q0J031S","A1GKD3NG1NNHRP","3WUVMVA7OBP2V5NP3991VE8MBDEZA7","","<img src=""img/set1/S1.jpg"" width=""540"" height = ""360"">","null","","","","","","","","","",""
"null","","html-keyboard-response","387","340376","0.0-387.0","39L1G8WVWRD7281QDLQ15V6Q0J031S","A1GKD3NG1NNHRP","3WUVMVA7OBP2V5NP3991VE8MBDEZA7","","","null","","","","","","","","","",""
"51.5","","image-keyboard-response","388","340429","0.0-388.0","39L1G8WVWRD7281QDLQ15V6Q0J031S","A1GKD3NG1NNHRP","3WUVMVA7OBP2V5NP3991VE8MBDEZA7","","img/set1/S2.jpg","74","2","structured_incentive","68","structured_incentive,structured_normal,structured_load,random","1,2,2,3,4,2","1,4,2,3","false","","",""
"null","","html-keyboard-response","389","340783","0.0-389.0","39L1G8WVWRD7281QDLQ15V6Q0J031S","A1GKD3NG1NNHRP","3WUVMVA7OBP2V5NP3991VE8MBDEZA7","","<img src=""img/set1/S2.jpg"" width=""540"" height = ""360"">","null","","","","","","","","","",""
