"rt","url","trial_type","trial_index","time_elapsed","internal_node_id","assignmentID","mturkID","hitID","view_history","stimulus","key_press","state","test_part","correct_response","order_block","order_chunk","order_freq","correct","responses","question_order","bonus"
"7323","consent.html","external-html","0","7408","0.0-0.0","3WJEQKOXA9O7MT0BM05BS3KW77V1AI","A1GRPIBHW72HDU","3URJ6VVYUP9BUCT1SZOT2DFI02L4OC","","","","","","","","","","","","",""
"80390","","instructions","1","87804","0.0-1.0","3WJEQKOXA9O7MT0BM05BS3KW77V1AI","A1GRPIBHW72HDU","3URJ6VVYUP9BUCT1SZOT2DFI02L4OC","[{""page_index"":0,""viewing_time"":6348},{""page_index"":1,""viewing_time"":6333},{""page_index"":2,""viewing_time"":7700},{""page_index"":3,""viewing_time"":14030},{""page_index"":4,""viewing_time"":6405},{""page_index"":5,""viewing_time"":10275},{""page_index"":6,""viewing_time"":8124},{""page_index"":5,""viewing_time"":895},{""page_index"":4,""viewing_time"":2260},{""page_index"":3,""viewing_time"":5669},{""page_index"":2,""viewing_time"":6731},{""page_index"":3,""viewing_time"":941},{""page_index"":4,""viewing_time"":1909},{""page_index"":5,""viewing_time"":869},{""page_index"":6,""viewing_time"":1899}]","","","","","","","","","","","",""
"10982","","instructions","2","98794","0.0-2.0","3WJEQKOXA9O7MT0BM05BS3KW77V1AI","A1GRPIBHW72HDU","3URJ6VVYUP9BUCT1SZOT2DFI02L4OC","[{""page_index"":0,""viewing_time"":10982}]","","","","","","","","","","","",""
"12839","","instructions","3","111642","0.0-3.0","3WJEQKOXA9O7MT0BM05BS3KW77V1AI","A1GRPIBHW72HDU","3URJ6VVYUP9BUCT1SZOT2DFI02L4OC","[{""page_index"":0,""viewing_time"":7569},{""page_index"":1,""viewing_time"":5270}]","","","","","","","","","","","",""
"899","","image-keyboard-response","4","112547","0.0-4.0","3WJEQKOXA9O7MT0BM05BS3KW77V1AI","A1GRPIBHW72HDU","3URJ6VVYUP9BUCT1SZOT2DFI02L4OC","","img/set1/S2.jpg","74","2","structured_incentive","68","structured_incentive,structured_normal,structured_load,random","2,3,4,2,1,2","1,3,4,2","false","","",""
"null","","html-keyboard-response","5","112908","0.0-5.0","3WJEQKOXA9O7MT0BM05BS3KW77V1AI","A1GRPIBHW72HDU","3URJ6VVYUP9BUCT1SZOT2DFI02L4OC","","<img src=""img/set1/S2.jpg"" width=""540"" height = ""360"">","null","","","","","","","","","",""
"null","","html-keyboard-response","6","113117","0.0-6.0","3WJEQKOXA9O7MT0BM05BS3KW77V1AI","A1GRPIBHW72HDU","3URJ6VVYUP9BUCT1SZOT2DFI02L4OC","","","null","","","","","","","","","",""
"627","","image-keyboard-response","7","113748","0.0-7.0","3WJEQKOXA9O7MT0BM05BS3KW77V1AI","A1GRPIBHW72HDU","3URJ6VVYUP9BUCT1SZOT2DFI02L4OC","","img/set1/S4.jpg","72","4","structured_incentive","74","structured_incentive,structured_normal,structured_load,random","2,3,4,2,1,2","1,3,4,2","false","","",""
"null","","html-keyboard-response","8","114103","0.0-8.0","3WJEQKOXA9O7MT0BM05BS3KW77V1AI","A1GRPIBHW72HDU","3URJ6VVYUP9BUCT1SZOT2DFI02L4OC","","<img src=""img/set1/S4.jpg"" width=""540"" height = ""360"">","null","","","","","","","","","",""
"null","","html-keyboard-response","9","114317","0.0-9.0","3WJEQKOXA9O7MT0BM05BS3KW77V1AI","A1GRPIBHW72HDU","3URJ6VVYUP9BUCT1SZOT2DFI02L4OC","","","null","","","","","","","","","",""
"677","","image-keyboard-response","10","114996","0.0-10.0","3WJEQKOXA9O7MT0BM05BS3KW77V1AI","A1GRPIBHW72HDU","3URJ6VVYUP9BUCT1SZOT2DFI02L4OC","","img/set1/S4.jpg","68","4","structured_incentive","74","structured_incentive,structured_normal,structured_load,random","2,3,4,2,1,2","1,3,4,2","false","","",""
"null","","html-keyboard-response","11","115357","0.0-11.0","3WJEQKOXA9O7MT0BM05BS3KW77V1AI","A1GRPIBHW72HDU","3URJ6VVYUP9BUCT1SZOT2DFI02L4OC","","<img src=""img/set1/S4.jpg"" width=""540"" height = ""360"">","null","","","","","","","","","",""
"null","","html-keyboard-response","12","115566","0.0-12.0","3WJEQKOXA9O7MT0BM05BS3KW77V1AI","A1GRPIBHW72HDU","3URJ6VVYUP9BUCT1SZOT2DFI02L4OC","","","null","","","","","","","","","",""
"740","","image-keyboard-response","13","116309","0.0-13.0","3WJEQKOXA9O7MT0BM05BS3KW77V1AI","A1GRPIBHW72HDU","3URJ6VVYUP9BUCT1SZOT2DFI02L4OC","","img/set1/S2.jpg","83","2","structured_incentive","68","structured_incentive,structured_normal,structured_load,random","2,3,4,2,1,2","1,3,4,2","false","","",""
"null","","html-keyboard-response","14","116664","0.0-14.0","3WJEQKOXA9O7MT0BM05BS3KW77V1AI","A1GRPIBHW72HDU","3URJ6VVYUP9BUCT1SZOT2DFI02L4OC","","<img src=""img/set1/S2.jpg"" width=""540"" height = ""360"">","null","","","","","","","","","",""
"null","","html-keyboard-response","15","116866","0.0-15.0","3WJEQKOXA9O7MT0BM05BS3KW77V1AI","A1GRPIBHW72HDU","3URJ6VVYUP9BUCT1SZOT2DFI02L4OC","","","null","","","","","","","","","",""
"928","","image-keyboard-response","16","117797","0.0-16.0","3WJEQKOXA9O7MT0BM05BS3KW77V1AI","A1GRPIBHW72HDU","3URJ6VVYUP9BUCT1SZOT2DFI02L4OC","","img/set1/S4.jpg","83","4","structured_incentive","74","structured_incentive,structured_normal,structured_load,random","2,3,4,2,1,2","1,3,4,2","false","","",""
"null","","html-keyboard-response","17","118157","0.0-17.0","3WJEQKOXA9O7MT0BM05BS3KW77V1AI","A1GRPIBHW72HDU","3URJ6VVYUP9BUCT1SZOT2DFI02L4OC","","<img src=""img/set1/S4.jpg"" width=""540"" height = ""360"">","null","","","","","","","","","",""
"null","","html-keyboard-response","18","118368","0.0-18.0","3WJEQKOXA9O7MT0BM05BS3KW77V1AI","A1GRPIBHW72HDU","3URJ6VVYUP9BUCT1SZOT2DFI02L4OC","","","null","","","","","","","","","",""
"801","","image-keyboard-response","19","119171","0.0-19.0","3WJEQKOXA9O7MT0BM05BS3KW77V1AI","A1GRPIBHW72HDU","3URJ6VVYUP9BUCT1SZOT2DFI02L4OC","","img/set1/S3.jpg","74","3","structured_incentive","72","structured_incentive,structured_normal,structured_load,random","2,3,4,2,1,2","1,3,4,2","false","","",""
"null","","html-keyboard-response","20","119536","0.0-20.0","3WJEQKOXA9O7MT0BM05BS3KW77V1AI","A1GRPIBHW72HDU","3URJ6VVYUP9BUCT1SZOT2DFI02L4OC","","<img src=""img/set1/S3.jpg"" width=""540"" height = ""360"">","null","","","","","","","","","",""
"null","","html-keyboard-response","21","119749","0.0-21.0","3WJEQKOXA9O7MT0BM05BS3KW77V1AI","A1GRPIBHW72HDU","3URJ6VVYUP9BUCT1SZOT2DFI02L4OC","","","null","","","","","","","","","",""
"1300","","image-keyboard-response","22","121050","0.0-22.0","3WJEQKOXA9O7MT0BM05BS3KW77V1AI","A1GRPIBHW72HDU","3URJ6VVYUP9BUCT1SZOT2DFI02L4OC","","img/set1/S4.jpg","72","4","structured_incentive","74","structured_incentive,structured_normal,structured_load,random","2,3,4,2,1,2","1,3,4,2","false","","",""
"null","","html-keyboard-response","23","121407","0.0-23.0","3WJEQKOXA9O7MT0BM05BS3KW77V1AI","A1GRPIBHW72HDU","3URJ6VVYUP9BUCT1SZOT2DFI02L4OC","","<img src=""img/set1/S4.jpg"" width=""540"" height = ""360"">","null","","","","","","","","","",""
"null","","html-keyboard-response","24","121613","0.0-24.0","3WJEQKOXA9O7MT0BM05BS3KW77V1AI","A1GRPIBHW72HDU","3URJ6VVYUP9BUCT1SZOT2DFI02L4OC","","","null","","","","","","","","","",""
"896","","image-keyboard-response","25","122511","0.0-25.0","3WJEQKOXA9O7MT0BM05BS3KW77V1AI","A1GRPIBHW72HDU","3URJ6VVYUP9BUCT1SZOT2DFI02L4OC","","img/set1/S1.jpg","74","1","structured_incentive","83","structured_incentive,structured_normal,structured_load,random","2,3,4,2,1,2","1,3,4,2","false","","",""
"null","","html-keyboard-response","26","122868","0.0-26.0","3WJEQKOXA9O7MT0BM05BS3KW77V1AI","A1GRPIBHW72HDU","3URJ6VVYUP9BUCT1SZOT2DFI02L4OC","","<img src=""img/set1/S1.jpg"" width=""540"" height = ""360"">","null","","","","","","","","","",""
"null","","html-keyboard-response","27","123080","0.0-27.0","3WJEQKOXA9O7MT0BM05BS3KW77V1AI","A1GRPIBHW72HDU","3URJ6VVYUP9BUCT1SZOT2DFI02L4OC","","","null","","","","","","","","","",""
"682","","image-keyboard-response","28","123763","0.0-28.0","3WJEQKOXA9O7MT0BM05BS3KW77V1AI","A1GRPIBHW72HDU","3URJ6VVYUP9BUCT1SZOT2DFI02L4OC","","img/set1/S2.jpg","68","2","structured_incentive","68","structured_incentive,structured_normal,structured_load,random","2,3,4,2,1,2","1,3,4,2","true","","",""
"null","","html-keyboard-response","29","124124","0.0-29.0","3WJEQKOXA9O7MT0BM05BS3KW77V1AI","A1GRPIBHW72HDU","3URJ6VVYUP9BUCT1SZOT2DFI02L4OC","","<img src=""img/set1/S2.jpg"" width=""540"" height = ""360"" style=""border:16px solid orange"">","null","","","","","","","","","",""
"null","","html-keyboard-response","30","124330","0.0-30.0","3WJEQKOXA9O7MT0BM05BS3KW77V1AI","A1GRPIBHW72HDU","3URJ6VVYUP9BUCT1SZOT2DFI02L4OC","","","null","","","","","","","","","",""
"1785","","image-keyboard-response","31","126116","0.0-31.0","3WJEQKOXA9O7MT0BM05BS3KW77V1AI","A1GRPIBHW72HDU","3URJ6VVYUP9BUCT1SZOT2DFI02L4OC","","img/set1/S3.jpg","83","3","structured_incentive","72","structured_incentive,structured_normal,structured_load,random","2,3,4,2,1,2","1,3,4,2","false","","",""
"null","","html-keyboard-response","32","126488","0.0-32.0","3WJEQKOXA9O7MT0BM05BS3KW77V1AI","A1GRPIBHW72HDU","3URJ6VVYUP9BUCT1SZOT2DFI02L4OC","","<img src=""img/set1/S3.jpg"" width=""540"" height = ""360"">","null","","","","","","","","","",""
"null","","html-keyboard-response","33","126698","0.0-33.0","3WJEQKOXA9O7MT0BM05BS3KW77V1AI","A1GRPIBHW72HDU","3URJ6VVYUP9BUCT1SZOT2DFI02L4OC","","","null","","","","","","","","","",""
"1196","","image-keyboard-response","34","127895","0.0-34.0","3WJEQKOXA9O7MT0BM05BS3KW77V1AI","A1GRPIBHW72HDU","3URJ6VVYUP9BUCT1SZOT2DFI02L4OC","","img/set1/S3.jpg","72","3","structured_incentive","72","structured_incentive,structured_normal,structured_load,random","2,3,4,2,1,2","1,3,4,2","true","","",""
"null","","html-keyboard-response","35","128257","0.0-35.0","3WJEQKOXA9O7MT0BM05BS3KW77V1AI","A1GRPIBHW72HDU","3URJ6VVYUP9BUCT1SZOT2DFI02L4OC","","<img src=""img/set1/S3.jpg"" width=""540"" height = ""360"" style=""border:16px solid orange"">","null","","","","","","","","","",""
"null","","html-keyboard-response","36","128462","0.0-36.0","3WJEQKOXA9O7MT0BM05BS3KW77V1AI","A1GRPIBHW72HDU","3URJ6VVYUP9BUCT1SZOT2DFI02L4OC","","","null","","","","","","","","","",""
"1290","","image-keyboard-response","37","129754","0.0-37.0","3WJEQKOXA9O7MT0BM05BS3KW77V1AI","A1GRPIBHW72HDU","3URJ6VVYUP9BUCT1SZOT2DFI02L4OC","","img/set1/S4.jpg","74","4","structured_incentive","74","structured_incentive,structured_normal,structured_load,random","2,3,4,2,1,2","1,3,4,2","true","","",""
"null","","html-keyboard-response","38","130117","0.0-38.0","3WJEQKOXA9O7MT0BM05BS3KW77V1AI","A1GRPIBHW72HDU","3URJ6VVYUP9BUCT1SZOT2DFI02L4OC","","<img src=""img/set1/S4.jpg"" width=""540"" height = ""360"" style=""border:16px solid Violet"">","null","","","","","","","","","",""
"null","","html-keyboard-response","39","130327","0.0-39.0","3WJEQKOXA9O7MT0BM05BS3KW77V1AI","A1GRPIBHW72HDU","3URJ6VVYUP9BUCT1SZOT2DFI02L4OC","","","null","","","","","","","","","",""
"1170","","image-keyboard-response","40","131500","0.0-40.0","3WJEQKOXA9O7MT0BM05BS3KW77V1AI","A1GRPIBHW72HDU","3URJ6VVYUP9BUCT1SZOT2DFI02L4OC","","img/set1/S1.jpg","83","1","structured_incentive","83","structured_incentive,structured_normal,structured_load,random","2,3,4,2,1,2","1,3,4,2","true","","",""
"null","","html-keyboard-response","41","131868","0.0-41.0","3WJEQKOXA9O7MT0BM05BS3KW77V1AI","A1GRPIBHW72HDU","3URJ6VVYUP9BUCT1SZOT2DFI02L4OC","","<img src=""img/set1/S1.jpg"" width=""540"" height = ""360"" style=""border:16px solid orange"">","null","","","","","","","","","",""
"null","","html-keyboard-response","42","132077","0.0-42.0","3WJEQKOXA9O7MT0BM05BS3KW77V1AI","A1GRPIBHW72HDU","3URJ6VVYUP9BUCT1SZOT2DFI02L4OC","","","null","","","","","","","","","",""
"1095","","image-keyboard-response","43","133173","0.0-43.0","3WJEQKOXA9O7MT0BM05BS3KW77V1AI","A1GRPIBHW72HDU","3URJ6VVYUP9BUCT1SZOT2DFI02L4OC","","img/set1/S3.jpg","72","3","structured_incentive","72","structured_incentive,structured_normal,structured_load,random","2,3,4,2,1,2","1,3,4,2","true","","",""
"null","","html-keyboard-response","44","133527","0.0-44.0","3WJEQKOXA9O7MT0BM05BS3KW77V1AI","A1GRPIBHW72HDU","3URJ6VVYUP9BUCT1SZOT2DFI02L4OC","","<img src=""img/set1/S3.jpg"" width=""540"" height = ""360"" style=""border:16px solid orange"">","null","","","","","","","","","",""
"null","","html-keyboard-response","45","133748","0.0-45.0","3WJEQKOXA9O7MT0BM05BS3KW77V1AI","A1GRPIBHW72HDU","3URJ6VVYUP9BUCT1SZOT2DFI02L4OC","","","null","","","","","","","","","",""
"789","","image-keyboard-response","46","134538","0.0-46.0","3WJEQKOXA9O7MT0BM05BS3KW77V1AI","A1GRPIBHW72HDU","3URJ6VVYUP9BUCT1SZOT2DFI02L4OC","","img/set1/S4.jpg","74","4","structured_incentive","74","structured_incentive,structured_normal,structured_load,random","2,3,4,2,1,2","1,3,4,2","true","","",""
"null","","html-keyboard-response","47","134907","0.0-47.0","3WJEQKOXA9O7MT0BM05BS3KW77V1AI","A1GRPIBHW72HDU","3URJ6VVYUP9BUCT1SZOT2DFI02L4OC","","<img src=""img/set1/S4.jpg"" width=""540"" height = ""360"" style=""border:16px solid Violet"">","null","","","","","","","","","",""
"null","","html-keyboard-response","48","135109","0.0-48.0","3WJEQKOXA9O7MT0BM05BS3KW77V1AI","A1GRPIBHW72HDU","3URJ6VVYUP9BUCT1SZOT2DFI02L4OC","","","null","","","","","","","","","",""
"1000","","image-keyboard-response","49","136112","0.0-49.0","3WJEQKOXA9O7MT0BM05BS3KW77V1AI","A1GRPIBHW72HDU","3URJ6VVYUP9BUCT1SZOT2DFI02L4OC","","img/set1/S1.jpg","83","1","structured_incentive","83","structured_incentive,structured_normal,structured_load,random","2,3,4,2,1,2","1,3,4,2","true","","",""
"null","","html-keyboard-response","50","136472","0.0-50.0","3WJEQKOXA9O7MT0BM05BS3KW77V1AI","A1GRPIBHW72HDU","3URJ6VVYUP9BUCT1SZOT2DFI02L4OC","","<img src=""img/set1/S1.jpg"" width=""540"" height = ""360"" style=""border:16px solid orange"">","null","","","","","","","","","",""
"null","","html-keyboard-response","51","136678","0.0-51.0","3WJEQKOXA9O7MT0BM05BS3KW77V1AI","A1GRPIBHW72HDU","3URJ6VVYUP9BUCT1SZOT2DFI02L4OC","","","null","","","","","","","","","",""
"572","","image-keyboard-response","52","137253","0.0-52.0","3WJEQKOXA9O7MT0BM05BS3KW77V1AI","A1GRPIBHW72HDU","3URJ6VVYUP9BUCT1SZOT2DFI02L4OC","","img/set1/S1.jpg","83","1","structured_incentive","83","structured_incentive,structured_normal,structured_load,random","2,3,4,2,1,2","1,3,4,2","true","","",""
"null","","html-keyboard-response","53","137609","0.0-53.0","3WJEQKOXA9O7MT0BM05BS3KW77V1AI","A1GRPIBHW72HDU","3URJ6VVYUP9BUCT1SZOT2DFI02L4OC","","<img src=""img/set1/S1.jpg"" width=""540"" height = ""360"" style=""border:16px solid orange"">","null","","","","","","","","","",""
"null","","html-keyboard-response","54","137827","0.0-54.0","3WJEQKOXA9O7MT0BM05BS3KW77V1AI","A1GRPIBHW72HDU","3URJ6VVYUP9BUCT1SZOT2DFI02L4OC","","","null","","","","","","","","","",""
"714","","image-keyboard-response","55","138543","0.0-55.0","3WJEQKOXA9O7MT0BM05BS3KW77V1AI","A1GRPIBHW72HDU","3URJ6VVYUP9BUCT1SZOT2DFI02L4OC","","img/set1/S2.jpg","68","2","structured_incentive","68","structured_incentive,structured_normal,structured_load,random","2,3,4,2,1,2","1,3,4,2","true","","",""
"null","","html-keyboard-response","56","138897","0.0-56.0","3WJEQKOXA9O7MT0BM05BS3KW77V1AI","A1GRPIBHW72HDU","3URJ6VVYUP9BUCT1SZOT2DFI02L4OC","","<img src=""img/set1/S2.jpg"" width=""540"" height = ""360"" style=""border:16px solid orange"">","null","","","","","","","","","",""
"null","","html-keyboard-response","57","139107","0.0-57.0","3WJEQKOXA9O7MT0BM05BS3KW77V1AI","A1GRPIBHW72HDU","3URJ6VVYUP9BUCT1SZOT2DFI02L4OC","","","null","","","","","","","","","",""
"1050","","image-keyboard-response","58","140159","0.0-58.0","3WJEQKOXA9O7MT0BM05BS3KW77V1AI","A1GRPIBHW72HDU","3URJ6VVYUP9BUCT1SZOT2DFI02L4OC","","img/set1/S3.jpg","72","3","structured_incentive","72","structured_incentive,structured_normal,structured_load,random","2,3,4,2,1,2","1,3,4,2","true","","",""
"null","","html-keyboard-response","59","140527","0.0-59.0","3WJEQKOXA9O7MT0BM05BS3KW77V1AI","A1GRPIBHW72HDU","3URJ6VVYUP9BUCT1SZOT2DFI02L4OC","","<img src=""img/set1/S3.jpg"" width=""540"" height = ""360"" style=""border:16px solid orange"">","null","","","","","","","","","",""
"null","","html-keyboard-response","60","140733","0.0-60.0","3WJEQKOXA9O7MT0BM05BS3KW77V1AI","A1GRPIBHW72HDU","3URJ6VVYUP9BUCT1SZOT2DFI02L4OC","","","null","","","","","","","","","",""
"851","","image-keyboard-response","61","141585","0.0-61.0","3WJEQKOXA9O7MT0BM05BS3KW77V1AI","A1GRPIBHW72HDU","3URJ6VVYUP9BUCT1SZOT2DFI02L4OC","","img/set1/S1.jpg","83","1","structured_incentive","83","structured_incentive,structured_normal,structured_load,random","2,3,4,2,1,2","1,3,4,2","true","","",""
"null","","html-keyboard-response","62","141948","0.0-62.0","3WJEQKOXA9O7MT0BM05BS3KW77V1AI","A1GRPIBHW72HDU","3URJ6VVYUP9BUCT1SZOT2DFI02L4OC","","<img src=""img/set1/S1.jpg"" width=""540"" height = ""360"" style=""border:16px solid orange"">","null","","","","","","","","","",""
"null","","html-keyboard-response","63","142158","0.0-63.0","3WJEQKOXA9O7MT0BM05BS3KW77V1AI","A1GRPIBHW72HDU","3URJ6VVYUP9BUCT1SZOT2DFI02L4OC","","","null","","","","","","","","","",""
"434","","image-keyboard-response","64","142593","0.0-64.0","3WJEQKOXA9O7MT0BM05BS3KW77V1AI","A1GRPIBHW72HDU","3URJ6VVYUP9BUCT1SZOT2DFI02L4OC","","img/set1/S1.jpg","83","1","structured_incentive","83","structured_incentive,structured_normal,structured_load,random","2,3,4,2,1,2","1,3,4,2","true","","",""
"null","","html-keyboard-response","65","142953","0.0-65.0","3WJEQKOXA9O7MT0BM05BS3KW77V1AI","A1GRPIBHW72HDU","3URJ6VVYUP9BUCT1SZOT2DFI02L4OC","","<img src=""img/set1/S1.jpg"" width=""540"" height = ""360"" style=""border:16px solid orange"">","null","","","","","","","","","",""
"null","","html-keyboard-response","66","143158","0.0-66.0","3WJEQKOXA9O7MT0BM05BS3KW77V1AI","A1GRPIBHW72HDU","3URJ6VVYUP9BUCT1SZOT2DFI02L4OC","","","null","","","","","","","","","",""
"1081","","image-keyboard-response","67","144240","0.0-67.0","3WJEQKOXA9O7MT0BM05BS3KW77V1AI","A1GRPIBHW72HDU","3URJ6VVYUP9BUCT1SZOT2DFI02L4OC","","img/set1/S2.jpg","68","2","structured_incentive","68","structured_incentive,structured_normal,structured_load,random","2,3,4,2,1,2","1,3,4,2","true","","",""
"null","","html-keyboard-response","68","144607","0.0-68.0","3WJEQKOXA9O7MT0BM05BS3KW77V1AI","A1GRPIBHW72HDU","3URJ6VVYUP9BUCT1SZOT2DFI02L4OC","","<img src=""img/set1/S2.jpg"" width=""540"" height = ""360"" style=""border:16px solid orange"">","null","","","","","","","","","",""
"null","","html-keyboard-response","69","144826","0.0-69.0","3WJEQKOXA9O7MT0BM05BS3KW77V1AI","A1GRPIBHW72HDU","3URJ6VVYUP9BUCT1SZOT2DFI02L4OC","","","null","","","","","","","","","",""
"920","","image-keyboard-response","70","145749","0.0-70.0","3WJEQKOXA9O7MT0BM05BS3KW77V1AI","A1GRPIBHW72HDU","3URJ6VVYUP9BUCT1SZOT2DFI02L4OC","","img/set1/S3.jpg","72","3","structured_incentive","72","structured_incentive,structured_normal,structured_load,random","2,3,4,2,1,2","1,3,4,2","true","","",""
"null","","html-keyboard-response","71","146108","0.0-71.0","3WJEQKOXA9O7MT0BM05BS3KW77V1AI","A1GRPIBHW72HDU","3URJ6VVYUP9BUCT1SZOT2DFI02L4OC","","<img src=""img/set1/S3.jpg"" width=""540"" height = ""360"" style=""border:16px solid orange"">","null","","","","","","","","","",""
"null","","html-keyboard-response","72","146327","0.0-72.0","3WJEQKOXA9O7MT0BM05BS3KW77V1AI","A1GRPIBHW72HDU","3URJ6VVYUP9BUCT1SZOT2DFI02L4OC","","","null","","","","","","","","","",""
"450","","image-keyboard-response","73","146781","0.0-73.0","3WJEQKOXA9O7MT0BM05BS3KW77V1AI","A1GRPIBHW72HDU","3URJ6VVYUP9BUCT1SZOT2DFI02L4OC","","img/set1/S3.jpg","72","3","structured_incentive","72","structured_incentive,structured_normal,structured_load,random","2,3,4,2,1,2","1,3,4,2","true","","",""
"null","","html-keyboard-response","74","147147","0.0-74.0","3WJEQKOXA9O7MT0BM05BS3KW77V1AI","A1GRPIBHW72HDU","3URJ6VVYUP9BUCT1SZOT2DFI02L4OC","","<img src=""img/set1/S3.jpg"" width=""540"" height = ""360"" style=""border:16px solid orange"">","null","","","","","","","","","",""
"null","","html-keyboard-response","75","147357","0.0-75.0","3WJEQKOXA9O7MT0BM05BS3KW77V1AI","A1GRPIBHW72HDU","3URJ6VVYUP9BUCT1SZOT2DFI02L4OC","","","null","","","","","","","","","",""
"729","","image-keyboard-response","76","148090","0.0-76.0","3WJEQKOXA9O7MT0BM05BS3KW77V1AI","A1GRPIBHW72HDU","3URJ6VVYUP9BUCT1SZOT2DFI02L4OC","","img/set1/S4.jpg","74","4","structured_incentive","74","structured_incentive,structured_normal,structured_load,random","2,3,4,2,1,2","1,3,4,2","true","","",""
"null","","html-keyboard-response","77","148458","0.0-77.0","3WJEQKOXA9O7MT0BM05BS3KW77V1AI","A1GRPIBHW72HDU","3URJ6VVYUP9BUCT1SZOT2DFI02L4OC","","<img src=""img/set1/S4.jpg"" width=""540"" height = ""360"" style=""border:16px solid Violet"">","null","","","","","","","","","",""
"null","","html-keyboard-response","78","148671","0.0-78.0","3WJEQKOXA9O7MT0BM05BS3KW77V1AI","A1GRPIBHW72HDU","3URJ6VVYUP9BUCT1SZOT2DFI02L4OC","","","null","","","","","","","","","",""
"1233","","image-keyboard-response","79","149905","0.0-79.0","3WJEQKOXA9O7MT0BM05BS3KW77V1AI","A1GRPIBHW72HDU","3URJ6VVYUP9BUCT1SZOT2DFI02L4OC","","img/set1/S2.jpg","68","2","structured_incentive","68","structured_incentive,structured_normal,structured_load,random","2,3,4,2,1,2","1,3,4,2","true","","",""
"null","","html-keyboard-response","80","150268","0.0-80.0","3WJEQKOXA9O7MT0BM05BS3KW77V1AI","A1GRPIBHW72HDU","3URJ6VVYUP9BUCT1SZOT2DFI02L4OC","","<img src=""img/set1/S2.jpg"" width=""540"" height = ""360"" style=""border:16px solid orange"">","null","","","","","","","","","",""
"null","","html-keyboard-response","81","150471","0.0-81.0","3WJEQKOXA9O7MT0BM05BS3KW77V1AI","A1GRPIBHW72HDU","3URJ6VVYUP9BUCT1SZOT2DFI02L4OC","","","null","","","","","","","","","",""
"670","","image-keyboard-response","82","151143","0.0-82.0","3WJEQKOXA9O7MT0BM05BS3KW77V1AI","A1GRPIBHW72HDU","3URJ6VVYUP9BUCT1SZOT2DFI02L4OC","","img/set1/S4.jpg","74","4","structured_incentive","74","structured_incentive,structured_normal,structured_load,random","2,3,4,2,1,2","1,3,4,2","true","","",""
"null","","html-keyboard-response","83","151498","0.0-83.0","3WJEQKOXA9O7MT0BM05BS3KW77V1AI","A1GRPIBHW72HDU","3URJ6VVYUP9BUCT1SZOT2DFI02L4OC","","<img src=""img/set1/S4.jpg"" width=""540"" height = ""360"" style=""border:16px solid Violet"">","null","","","","","","","","","",""
"null","","html-keyboard-response","84","151707","0.0-84.0","3WJEQKOXA9O7MT0BM05BS3KW77V1AI","A1GRPIBHW72HDU","3URJ6VVYUP9BUCT1SZOT2DFI02L4OC","","","null","","","","","","","","","",""
"585","","image-keyboard-response","85","152294","0.0-85.0","3WJEQKOXA9O7MT0BM05BS3KW77V1AI","A1GRPIBHW72HDU","3URJ6VVYUP9BUCT1SZOT2DFI02L4OC","","img/set1/S2.jpg","68","2","structured_incentive","68","structured_incentive,structured_normal,structured_load,random","2,3,4,2,1,2","1,3,4,2","true","","",""
"null","","html-keyboard-response","86","152650","0.0-86.0","3WJEQKOXA9O7MT0BM05BS3KW77V1AI","A1GRPIBHW72HDU","3URJ6VVYUP9BUCT1SZOT2DFI02L4OC","","<img src=""img/set1/S2.jpg"" width=""540"" height = ""360"" style=""border:16px solid orange"">","null","","","","","","","","","",""
"null","","html-keyboard-response","87","152854","0.0-87.0","3WJEQKOXA9O7MT0BM05BS3KW77V1AI","A1GRPIBHW72HDU","3URJ6VVYUP9BUCT1SZOT2DFI02L4OC","","","null","","","","","","","","","",""
"583","","image-keyboard-response","88","153438","0.0-88.0","3WJEQKOXA9O7MT0BM05BS3KW77V1AI","A1GRPIBHW72HDU","3URJ6VVYUP9BUCT1SZOT2DFI02L4OC","","img/set1/S4.jpg","74","4","structured_incentive","74","structured_incentive,structured_normal,structured_load,random","2,3,4,2,1,2","1,3,4,2","true","","",""
"null","","html-keyboard-response","89","153807","0.0-89.0","3WJEQKOXA9O7MT0BM05BS3KW77V1AI","A1GRPIBHW72HDU","3URJ6VVYUP9BUCT1SZOT2DFI02L4OC","","<img src=""img/set1/S4.jpg"" width=""540"" height = ""360"" style=""border:16px solid Violet"">","null","","","","","","","","","",""
"null","","html-keyboard-response","90","154017","0.0-90.0","3WJEQKOXA9O7MT0BM05BS3KW77V1AI","A1GRPIBHW72HDU","3URJ6VVYUP9BUCT1SZOT2DFI02L4OC","","","null","","","","","","","","","",""
"581","","image-keyboard-response","91","154600","0.0-91.0","3WJEQKOXA9O7MT0BM05BS3KW77V1AI","A1GRPIBHW72HDU","3URJ6VVYUP9BUCT1SZOT2DFI02L4OC","","img/set1/S2.jpg","68","2","structured_incentive","68","structured_incentive,structured_normal,structured_load,random","2,3,4,2,1,2","1,3,4,2","true","","",""
"null","","html-keyboard-response","92","154958","0.0-92.0","3WJEQKOXA9O7MT0BM05BS3KW77V1AI","A1GRPIBHW72HDU","3URJ6VVYUP9BUCT1SZOT2DFI02L4OC","","<img src=""img/set1/S2.jpg"" width=""540"" height = ""360"" style=""border:16px solid orange"">","null","","","","","","","","","",""
"null","","html-keyboard-response","93","155170","0.0-93.0","3WJEQKOXA9O7MT0BM05BS3KW77V1AI","A1GRPIBHW72HDU","3URJ6VVYUP9BUCT1SZOT2DFI02L4OC","","","null","","","","","","","","","",""
"533","","image-keyboard-response","94","155705","0.0-94.0","3WJEQKOXA9O7MT0BM05BS3KW77V1AI","A1GRPIBHW72HDU","3URJ6VVYUP9BUCT1SZOT2DFI02L4OC","","img/set1/S3.jpg","72","3","structured_incentive","72","structured_incentive,structured_normal,structured_load,random","2,3,4,2,1,2","1,3,4,2","true","","",""
"null","","html-keyboard-response","95","156067","0.0-95.0","3WJEQKOXA9O7MT0BM05BS3KW77V1AI","A1GRPIBHW72HDU","3URJ6VVYUP9BUCT1SZOT2DFI02L4OC","","<img src=""img/set1/S3.jpg"" width=""540"" height = ""360"" style=""border:16px solid orange"">","null","","","","","","","","","",""
"null","","html-keyboard-response","96","156269","0.0-96.0","3WJEQKOXA9O7MT0BM05BS3KW77V1AI","A1GRPIBHW72HDU","3URJ6VVYUP9BUCT1SZOT2DFI02L4OC","","","null","","","","","","","","","",""
"393","","image-keyboard-response","97","156665","0.0-97.0","3WJEQKOXA9O7MT0BM05BS3KW77V1AI","A1GRPIBHW72HDU","3URJ6VVYUP9BUCT1SZOT2DFI02L4OC","","img/set1/S3.jpg","72","3","structured_incentive","72","structured_incentive,structured_normal,structured_load,random","2,3,4,2,1,2","1,3,4,2","true","","",""
"null","","html-keyboard-response","98","157027","0.0-98.0","3WJEQKOXA9O7MT0BM05BS3KW77V1AI","A1GRPIBHW72HDU","3URJ6VVYUP9BUCT1SZOT2DFI02L4OC","","<img src=""img/set1/S3.jpg"" width=""540"" height = ""360"" style=""border:16px solid orange"">","null","","","","","","","","","",""
"null","","html-keyboard-response","99","157232","0.0-99.0","3WJEQKOXA9O7MT0BM05BS3KW77V1AI","A1GRPIBHW72HDU","3URJ6VVYUP9BUCT1SZOT2DFI02L4OC","","","null","","","","","","","","","",""
"667","","image-keyboard-response","100","157900","0.0-100.0","3WJEQKOXA9O7MT0BM05BS3KW77V1AI","A1GRPIBHW72HDU","3URJ6VVYUP9BUCT1SZOT2DFI02L4OC","","img/set1/S2.jpg","68","2","structured_incentive","68","structured_incentive,structured_normal,structured_load,random","2,3,4,2,1,2","1,3,4,2","true","","",""
"null","","html-keyboard-response","101","158257","0.0-101.0","3WJEQKOXA9O7MT0BM05BS3KW77V1AI","A1GRPIBHW72HDU","3URJ6VVYUP9BUCT1SZOT2DFI02L4OC","","<img src=""img/set1/S2.jpg"" width=""540"" height = ""360"" style=""border:16px solid orange"">","null","","","","","","","","","",""
"null","","html-keyboard-response","102","158467","0.0-102.0","3WJEQKOXA9O7MT0BM05BS3KW77V1AI","A1GRPIBHW72HDU","3URJ6VVYUP9BUCT1SZOT2DFI02L4OC","","","null","","","","","","","","","",""
"784","","image-keyboard-response","103","159253","0.0-103.0","3WJEQKOXA9O7MT0BM05BS3KW77V1AI","A1GRPIBHW72HDU","3URJ6VVYUP9BUCT1SZOT2DFI02L4OC","","img/set1/S3.jpg","72","3","structured_incentive","72","structured_incentive,structured_normal,structured_load,random","2,3,4,2,1,2","1,3,4,2","true","","",""
"null","","html-keyboard-response","104","159607","0.0-104.0","3WJEQKOXA9O7MT0BM05BS3KW77V1AI","A1GRPIBHW72HDU","3URJ6VVYUP9BUCT1SZOT2DFI02L4OC","","<img src=""img/set1/S3.jpg"" width=""540"" height = ""360"" style=""border:16px solid orange"">","null","","","","","","","","","",""
"null","","html-keyboard-response","105","159818","0.0-105.0","3WJEQKOXA9O7MT0BM05BS3KW77V1AI","A1GRPIBHW72HDU","3URJ6VVYUP9BUCT1SZOT2DFI02L4OC","","","null","","","","","","","","","",""
"648","","image-keyboard-response","106","160469","0.0-106.0","3WJEQKOXA9O7MT0BM05BS3KW77V1AI","A1GRPIBHW72HDU","3URJ6VVYUP9BUCT1SZOT2DFI02L4OC","","img/set1/S2.jpg","68","2","structured_incentive","68","structured_incentive,structured_normal,structured_load,random","2,3,4,2,1,2","1,3,4,2","true","","",""
"null","","html-keyboard-response","107","160837","0.0-107.0","3WJEQKOXA9O7MT0BM05BS3KW77V1AI","A1GRPIBHW72HDU","3URJ6VVYUP9BUCT1SZOT2DFI02L4OC","","<img src=""img/set1/S2.jpg"" width=""540"" height = ""360"" style=""border:16px solid orange"">","null","","","","","","","","","",""
"null","","html-keyboard-response","108","161049","0.0-108.0","3WJEQKOXA9O7MT0BM05BS3KW77V1AI","A1GRPIBHW72HDU","3URJ6VVYUP9BUCT1SZOT2DFI02L4OC","","","null","","","","","","","","","",""
"711","","image-keyboard-response","109","161762","0.0-109.0","3WJEQKOXA9O7MT0BM05BS3KW77V1AI","A1GRPIBHW72HDU","3URJ6VVYUP9BUCT1SZOT2DFI02L4OC","","img/set1/S4.jpg","74","4","structured_incentive","74","structured_incentive,structured_normal,structured_load,random","2,3,4,2,1,2","1,3,4,2","true","","",""
"null","","html-keyboard-response","110","162128","0.0-110.0","3WJEQKOXA9O7MT0BM05BS3KW77V1AI","A1GRPIBHW72HDU","3URJ6VVYUP9BUCT1SZOT2DFI02L4OC","","<img src=""img/set1/S4.jpg"" width=""540"" height = ""360"" style=""border:16px solid Violet"">","null","","","","","","","","","",""
"null","","html-keyboard-response","111","162338","0.0-111.0","3WJEQKOXA9O7MT0BM05BS3KW77V1AI","A1GRPIBHW72HDU","3URJ6VVYUP9BUCT1SZOT2DFI02L4OC","","","null","","","","","","","","","",""
"632","","image-keyboard-response","112","162973","0.0-112.0","3WJEQKOXA9O7MT0BM05BS3KW77V1AI","A1GRPIBHW72HDU","3URJ6VVYUP9BUCT1SZOT2DFI02L4OC","","img/set1/S1.jpg","83","1","structured_incentive","83","structured_incentive,structured_normal,structured_load,random","2,3,4,2,1,2","1,3,4,2","true","","",""
"null","","html-keyboard-response","113","163327","0.0-113.0","3WJEQKOXA9O7MT0BM05BS3KW77V1AI","A1GRPIBHW72HDU","3URJ6VVYUP9BUCT1SZOT2DFI02L4OC","","<img src=""img/set1/S1.jpg"" width=""540"" height = ""360"" style=""border:16px solid orange"">","null","","","","","","","","","",""
"null","","html-keyboard-response","114","163537","0.0-114.0","3WJEQKOXA9O7MT0BM05BS3KW77V1AI","A1GRPIBHW72HDU","3URJ6VVYUP9BUCT1SZOT2DFI02L4OC","","","null","","","","","","","","","",""
"611","","image-keyboard-response","115","164150","0.0-115.0","3WJEQKOXA9O7MT0BM05BS3KW77V1AI","A1GRPIBHW72HDU","3URJ6VVYUP9BUCT1SZOT2DFI02L4OC","","img/set1/S4.jpg","74","4","structured_incentive","74","structured_incentive,structured_normal,structured_load,random","2,3,4,2,1,2","1,3,4,2","true","","",""
"null","","html-keyboard-response","116","164518","0.0-116.0","3WJEQKOXA9O7MT0BM05BS3KW77V1AI","A1GRPIBHW72HDU","3URJ6VVYUP9BUCT1SZOT2DFI02L4OC","","<img src=""img/set1/S4.jpg"" width=""540"" height = ""360"" style=""border:16px solid Violet"">","null","","","","","","","","","",""
"null","","html-keyboard-response","117","164734","0.0-117.0","3WJEQKOXA9O7MT0BM05BS3KW77V1AI","A1GRPIBHW72HDU","3URJ6VVYUP9BUCT1SZOT2DFI02L4OC","","","null","","","","","","","","","",""
"666","","image-keyboard-response","118","165402","0.0-118.0","3WJEQKOXA9O7MT0BM05BS3KW77V1AI","A1GRPIBHW72HDU","3URJ6VVYUP9BUCT1SZOT2DFI02L4OC","","img/set1/S1.jpg","83","1","structured_incentive","83","structured_incentive,structured_normal,structured_load,random","2,3,4,2,1,2","1,3,4,2","true","","",""
"null","","html-keyboard-response","119","165768","0.0-119.0","3WJEQKOXA9O7MT0BM05BS3KW77V1AI","A1GRPIBHW72HDU","3URJ6VVYUP9BUCT1SZOT2DFI02L4OC","","<img src=""img/set1/S1.jpg"" width=""540"" height = ""360"" style=""border:16px solid orange"">","null","","","","","","","","","",""
"null","","html-keyboard-response","120","165988","0.0-120.0","3WJEQKOXA9O7MT0BM05BS3KW77V1AI","A1GRPIBHW72HDU","3URJ6VVYUP9BUCT1SZOT2DFI02L4OC","","","null","","","","","","","","","",""
"745","","image-keyboard-response","121","166734","0.0-121.0","3WJEQKOXA9O7MT0BM05BS3KW77V1AI","A1GRPIBHW72HDU","3URJ6VVYUP9BUCT1SZOT2DFI02L4OC","","img/set1/S2.jpg","68","2","structured_incentive","68","structured_incentive,structured_normal,structured_load,random","2,3,4,2,1,2","1,3,4,2","true","","",""
"null","","html-keyboard-response","122","167100","0.0-122.0","3WJEQKOXA9O7MT0BM05BS3KW77V1AI","A1GRPIBHW72HDU","3URJ6VVYUP9BUCT1SZOT2DFI02L4OC","","<img src=""img/set1/S2.jpg"" width=""540"" height = ""360"" style=""border:16px solid orange"">","null","","","","","","","","","",""
"null","","html-keyboard-response","123","167318","0.0-123.0","3WJEQKOXA9O7MT0BM05BS3KW77V1AI","A1GRPIBHW72HDU","3URJ6VVYUP9BUCT1SZOT2DFI02L4OC","","","null","","","","","","","","","",""
"751","","image-keyboard-response","124","168070","0.0-124.0","3WJEQKOXA9O7MT0BM05BS3KW77V1AI","A1GRPIBHW72HDU","3URJ6VVYUP9BUCT1SZOT2DFI02L4OC","","img/set1/S4.jpg","74","4","structured_incentive","74","structured_incentive,structured_normal,structured_load,random","2,3,4,2,1,2","1,3,4,2","true","","",""
"null","","html-keyboard-response","125","168428","0.0-125.0","3WJEQKOXA9O7MT0BM05BS3KW77V1AI","A1GRPIBHW72HDU","3URJ6VVYUP9BUCT1SZOT2DFI02L4OC","","<img src=""img/set1/S4.jpg"" width=""540"" height = ""360"" style=""border:16px solid Violet"">","null","","","","","","","","","",""
"null","","html-keyboard-response","126","168631","0.0-126.0","3WJEQKOXA9O7MT0BM05BS3KW77V1AI","A1GRPIBHW72HDU","3URJ6VVYUP9BUCT1SZOT2DFI02L4OC","","","null","","","","","","","","","",""
"928","","image-keyboard-response","127","169560","0.0-127.0","3WJEQKOXA9O7MT0BM05BS3KW77V1AI","A1GRPIBHW72HDU","3URJ6VVYUP9BUCT1SZOT2DFI02L4OC","","img/set1/S3.jpg","72","3","structured_incentive","72","structured_incentive,structured_normal,structured_load,random","2,3,4,2,1,2","1,3,4,2","true","","",""
"null","","html-keyboard-response","128","169928","0.0-128.0","3WJEQKOXA9O7MT0BM05BS3KW77V1AI","A1GRPIBHW72HDU","3URJ6VVYUP9BUCT1SZOT2DFI02L4OC","","<img src=""img/set1/S3.jpg"" width=""540"" height = ""360"" style=""border:16px solid orange"">","null","","","","","","","","","",""
"null","","html-keyboard-response","129","170131","0.0-129.0","3WJEQKOXA9O7MT0BM05BS3KW77V1AI","A1GRPIBHW72HDU","3URJ6VVYUP9BUCT1SZOT2DFI02L4OC","","","null","","","","","","","","","",""
"659","","image-keyboard-response","130","170791","0.0-130.0","3WJEQKOXA9O7MT0BM05BS3KW77V1AI","A1GRPIBHW72HDU","3URJ6VVYUP9BUCT1SZOT2DFI02L4OC","","img/set1/S1.jpg","83","1","structured_incentive","83","structured_incentive,structured_normal,structured_load,random","2,3,4,2,1,2","1,3,4,2","true","","",""
"null","","html-keyboard-response","131","171148","0.0-131.0","3WJEQKOXA9O7MT0BM05BS3KW77V1AI","A1GRPIBHW72HDU","3URJ6VVYUP9BUCT1SZOT2DFI02L4OC","","<img src=""img/set1/S1.jpg"" width=""540"" height = ""360"" style=""border:16px solid orange"">","null","","","","","","","","","",""
"null","","html-keyboard-response","132","171367","0.0-132.0","3WJEQKOXA9O7MT0BM05BS3KW77V1AI","A1GRPIBHW72HDU","3URJ6VVYUP9BUCT1SZOT2DFI02L4OC","","","null","","","","","","","","","",""
"492","","image-keyboard-response","133","171861","0.0-133.0","3WJEQKOXA9O7MT0BM05BS3KW77V1AI","A1GRPIBHW72HDU","3URJ6VVYUP9BUCT1SZOT2DFI02L4OC","","img/set1/S1.jpg","83","1","structured_incentive","83","structured_incentive,structured_normal,structured_load,random","2,3,4,2,1,2","1,3,4,2","true","","",""
"null","","html-keyboard-response","134","172218","0.0-134.0","3WJEQKOXA9O7MT0BM05BS3KW77V1AI","A1GRPIBHW72HDU","3URJ6VVYUP9BUCT1SZOT2DFI02L4OC","","<img src=""img/set1/S1.jpg"" width=""540"" height = ""360"" style=""border:16px solid orange"">","null","","","","","","","","","",""
"null","","html-keyboard-response","135","172427","0.0-135.0","3WJEQKOXA9O7MT0BM05BS3KW77V1AI","A1GRPIBHW72HDU","3URJ6VVYUP9BUCT1SZOT2DFI02L4OC","","","null","","","","","","","","","",""
"729","","image-keyboard-response","136","173159","0.0-136.0","3WJEQKOXA9O7MT0BM05BS3KW77V1AI","A1GRPIBHW72HDU","3URJ6VVYUP9BUCT1SZOT2DFI02L4OC","","img/set1/S4.jpg","74","4","structured_incentive","74","structured_incentive,structured_normal,structured_load,random","2,3,4,2,1,2","1,3,4,2","true","","",""
"null","","html-keyboard-response","137","173519","0.0-137.0","3WJEQKOXA9O7MT0BM05BS3KW77V1AI","A1GRPIBHW72HDU","3URJ6VVYUP9BUCT1SZOT2DFI02L4OC","","<img src=""img/set1/S4.jpg"" width=""540"" height = ""360"" style=""border:16px solid Violet"">","null","","","","","","","","","",""
"null","","html-keyboard-response","138","173730","0.0-138.0","3WJEQKOXA9O7MT0BM05BS3KW77V1AI","A1GRPIBHW72HDU","3URJ6VVYUP9BUCT1SZOT2DFI02L4OC","","","null","","","","","","","","","",""
"761","","image-keyboard-response","139","174492","0.0-139.0","3WJEQKOXA9O7MT0BM05BS3KW77V1AI","A1GRPIBHW72HDU","3URJ6VVYUP9BUCT1SZOT2DFI02L4OC","","img/set1/S2.jpg","68","2","structured_incentive","68","structured_incentive,structured_normal,structured_load,random","2,3,4,2,1,2","1,3,4,2","true","","",""
"null","","html-keyboard-response","140","174858","0.0-140.0","3WJEQKOXA9O7MT0BM05BS3KW77V1AI","A1GRPIBHW72HDU","3URJ6VVYUP9BUCT1SZOT2DFI02L4OC","","<img src=""img/set1/S2.jpg"" width=""540"" height = ""360"" style=""border:16px solid orange"">","null","","","","","","","","","",""
"null","","html-keyboard-response","141","175067","0.0-141.0","3WJEQKOXA9O7MT0BM05BS3KW77V1AI","A1GRPIBHW72HDU","3URJ6VVYUP9BUCT1SZOT2DFI02L4OC","","","null","","","","","","","","","",""
"650","","image-keyboard-response","142","175719","0.0-142.0","3WJEQKOXA9O7MT0BM05BS3KW77V1AI","A1GRPIBHW72HDU","3URJ6VVYUP9BUCT1SZOT2DFI02L4OC","","img/set1/S4.jpg","74","4","structured_incentive","74","structured_incentive,structured_normal,structured_load,random","2,3,4,2,1,2","1,3,4,2","true","","",""
"null","","html-keyboard-response","143","176088","0.0-143.0","3WJEQKOXA9O7MT0BM05BS3KW77V1AI","A1GRPIBHW72HDU","3URJ6VVYUP9BUCT1SZOT2DFI02L4OC","","<img src=""img/set1/S4.jpg"" width=""540"" height = ""360"" style=""border:16px solid Violet"">","null","","","","","","","","","",""
"null","","html-keyboard-response","144","176297","0.0-144.0","3WJEQKOXA9O7MT0BM05BS3KW77V1AI","A1GRPIBHW72HDU","3URJ6VVYUP9BUCT1SZOT2DFI02L4OC","","","null","","","","","","","","","",""
"770","","image-keyboard-response","145","177069","0.0-145.0","3WJEQKOXA9O7MT0BM05BS3KW77V1AI","A1GRPIBHW72HDU","3URJ6VVYUP9BUCT1SZOT2DFI02L4OC","","img/set1/S1.jpg","83","1","structured_incentive","83","structured_incentive,structured_normal,structured_load,random","2,3,4,2,1,2","1,3,4,2","true","","",""
"null","","html-keyboard-response","146","177437","0.0-146.0","3WJEQKOXA9O7MT0BM05BS3KW77V1AI","A1GRPIBHW72HDU","3URJ6VVYUP9BUCT1SZOT2DFI02L4OC","","<img src=""img/set1/S1.jpg"" width=""540"" height = ""360"" style=""border:16px solid orange"">","null","","","","","","","","","",""
"null","","html-keyboard-response","147","177647","0.0-147.0","3WJEQKOXA9O7MT0BM05BS3KW77V1AI","A1GRPIBHW72HDU","3URJ6VVYUP9BUCT1SZOT2DFI02L4OC","","","null","","","","","","","","","",""
"431","","image-keyboard-response","148","178080","0.0-148.0","3WJEQKOXA9O7MT0BM05BS3KW77V1AI","A1GRPIBHW72HDU","3URJ6VVYUP9BUCT1SZOT2DFI02L4OC","","img/set1/S1.jpg","83","1","structured_incentive","83","structured_incentive,structured_normal,structured_load,random","2,3,4,2,1,2","1,3,4,2","true","","",""
"null","","html-keyboard-response","149","178447","0.0-149.0","3WJEQKOXA9O7MT0BM05BS3KW77V1AI","A1GRPIBHW72HDU","3URJ6VVYUP9BUCT1SZOT2DFI02L4OC","","<img src=""img/set1/S1.jpg"" width=""540"" height = ""360"" style=""border:16px solid orange"">","null","","","","","","","","","",""
"null","","html-keyboard-response","150","178661","0.0-150.0","3WJEQKOXA9O7MT0BM05BS3KW77V1AI","A1GRPIBHW72HDU","3URJ6VVYUP9BUCT1SZOT2DFI02L4OC","","","null","","","","","","","","","",""
"738","","image-keyboard-response","151","179401","0.0-151.0","3WJEQKOXA9O7MT0BM05BS3KW77V1AI","A1GRPIBHW72HDU","3URJ6VVYUP9BUCT1SZOT2DFI02L4OC","","img/set1/S2.jpg","68","2","structured_incentive","68","structured_incentive,structured_normal,structured_load,random","2,3,4,2,1,2","1,3,4,2","true","","",""
"null","","html-keyboard-response","152","179767","0.0-152.0","3WJEQKOXA9O7MT0BM05BS3KW77V1AI","A1GRPIBHW72HDU","3URJ6VVYUP9BUCT1SZOT2DFI02L4OC","","<img src=""img/set1/S2.jpg"" width=""540"" height = ""360"" style=""border:16px solid orange"">","null","","","","","","","","","",""
"null","","html-keyboard-response","153","179980","0.0-153.0","3WJEQKOXA9O7MT0BM05BS3KW77V1AI","A1GRPIBHW72HDU","3URJ6VVYUP9BUCT1SZOT2DFI02L4OC","","","null","","","","","","","","","",""
"1278","","image-keyboard-response","154","181259","0.0-154.0","3WJEQKOXA9O7MT0BM05BS3KW77V1AI","A1GRPIBHW72HDU","3URJ6VVYUP9BUCT1SZOT2DFI02L4OC","","img/set1/S3.jpg","72","3","structured_incentive","72","structured_incentive,structured_normal,structured_load,random","2,3,4,2,1,2","1,3,4,2","true","","",""
"null","","html-keyboard-response","155","181615","0.0-155.0","3WJEQKOXA9O7MT0BM05BS3KW77V1AI","A1GRPIBHW72HDU","3URJ6VVYUP9BUCT1SZOT2DFI02L4OC","","<img src=""img/set1/S3.jpg"" width=""540"" height = ""360"" style=""border:16px solid orange"">","null","","","","","","","","","",""
"null","","html-keyboard-response","156","181828","0.0-156.0","3WJEQKOXA9O7MT0BM05BS3KW77V1AI","A1GRPIBHW72HDU","3URJ6VVYUP9BUCT1SZOT2DFI02L4OC","","","null","","","","","","","","","",""
"810","","image-keyboard-response","157","182639","0.0-157.0","3WJEQKOXA9O7MT0BM05BS3KW77V1AI","A1GRPIBHW72HDU","3URJ6VVYUP9BUCT1SZOT2DFI02L4OC","","img/set1/S1.jpg","83","1","structured_incentive","83","structured_incentive,structured_normal,structured_load,random","2,3,4,2,1,2","1,3,4,2","true","","",""
"null","","html-keyboard-response","158","182991","0.0-158.0","3WJEQKOXA9O7MT0BM05BS3KW77V1AI","A1GRPIBHW72HDU","3URJ6VVYUP9BUCT1SZOT2DFI02L4OC","","<img src=""img/set1/S1.jpg"" width=""540"" height = ""360"" style=""border:16px solid orange"">","null","","","","","","","","","",""
"null","","html-keyboard-response","159","183194","0.0-159.0","3WJEQKOXA9O7MT0BM05BS3KW77V1AI","A1GRPIBHW72HDU","3URJ6VVYUP9BUCT1SZOT2DFI02L4OC","","","null","","","","","","","","","",""
"642","","image-keyboard-response","160","183838","0.0-160.0","3WJEQKOXA9O7MT0BM05BS3KW77V1AI","A1GRPIBHW72HDU","3URJ6VVYUP9BUCT1SZOT2DFI02L4OC","","img/set1/S2.jpg","68","2","structured_incentive","68","structured_incentive,structured_normal,structured_load,random","2,3,4,2,1,2","1,3,4,2","true","","",""
"null","","html-keyboard-response","161","184198","0.0-161.0","3WJEQKOXA9O7MT0BM05BS3KW77V1AI","A1GRPIBHW72HDU","3URJ6VVYUP9BUCT1SZOT2DFI02L4OC","","<img src=""img/set1/S2.jpg"" width=""540"" height = ""360"" style=""border:16px solid orange"">","null","","","","","","","","","",""
"null","","html-keyboard-response","162","184408","0.0-162.0","3WJEQKOXA9O7MT0BM05BS3KW77V1AI","A1GRPIBHW72HDU","3URJ6VVYUP9BUCT1SZOT2DFI02L4OC","","","null","","","","","","","","","",""
"915","","image-keyboard-response","163","185324","0.0-163.0","3WJEQKOXA9O7MT0BM05BS3KW77V1AI","A1GRPIBHW72HDU","3URJ6VVYUP9BUCT1SZOT2DFI02L4OC","","img/set1/S3.jpg","83","3","structured_incentive","72","structured_incentive,structured_normal,structured_load,random","2,3,4,2,1,2","1,3,4,2","false","","",""
"null","","html-keyboard-response","164","185678","0.0-164.0","3WJEQKOXA9O7MT0BM05BS3KW77V1AI","A1GRPIBHW72HDU","3URJ6VVYUP9BUCT1SZOT2DFI02L4OC","","<img src=""img/set1/S3.jpg"" width=""540"" height = ""360"">","null","","","","","","","","","",""
"null","","html-keyboard-response","165","185897","0.0-165.0","3WJEQKOXA9O7MT0BM05BS3KW77V1AI","A1GRPIBHW72HDU","3URJ6VVYUP9BUCT1SZOT2DFI02L4OC","","","null","","","","","","","","","",""
"675","","image-keyboard-response","166","186574","0.0-166.0","3WJEQKOXA9O7MT0BM05BS3KW77V1AI","A1GRPIBHW72HDU","3URJ6VVYUP9BUCT1SZOT2DFI02L4OC","","img/set1/S1.jpg","83","1","structured_incentive","83","structured_incentive,structured_normal,structured_load,random","2,3,4,2,1,2","1,3,4,2","true","","",""
"null","","html-keyboard-response","167","186937","0.0-167.0","3WJEQKOXA9O7MT0BM05BS3KW77V1AI","A1GRPIBHW72HDU","3URJ6VVYUP9BUCT1SZOT2DFI02L4OC","","<img src=""img/set1/S1.jpg"" width=""540"" height = ""360"" style=""border:16px solid orange"">","null","","","","","","","","","",""
"null","","html-keyboard-response","168","187139","0.0-168.0","3WJEQKOXA9O7MT0BM05BS3KW77V1AI","A1GRPIBHW72HDU","3URJ6VVYUP9BUCT1SZOT2DFI02L4OC","","","null","","","","","","","","","",""
"640","","image-keyboard-response","169","187784","0.0-169.0","3WJEQKOXA9O7MT0BM05BS3KW77V1AI","A1GRPIBHW72HDU","3URJ6VVYUP9BUCT1SZOT2DFI02L4OC","","img/set1/S2.jpg","68","2","structured_incentive","68","structured_incentive,structured_normal,structured_load,random","2,3,4,2,1,2","1,3,4,2","true","","",""
"null","","html-keyboard-response","170","188138","0.0-170.0","3WJEQKOXA9O7MT0BM05BS3KW77V1AI","A1GRPIBHW72HDU","3URJ6VVYUP9BUCT1SZOT2DFI02L4OC","","<img src=""img/set1/S2.jpg"" width=""540"" height = ""360"" style=""border:16px solid orange"">","null","","","","","","","","","",""
"null","","html-keyboard-response","171","188340","0.0-171.0","3WJEQKOXA9O7MT0BM05BS3KW77V1AI","A1GRPIBHW72HDU","3URJ6VVYUP9BUCT1SZOT2DFI02L4OC","","","null","","","","","","","","","",""
"414","","image-keyboard-response","172","188756","0.0-172.0","3WJEQKOXA9O7MT0BM05BS3KW77V1AI","A1GRPIBHW72HDU","3URJ6VVYUP9BUCT1SZOT2DFI02L4OC","","img/set1/S3.jpg","72","3","structured_incentive","72","structured_incentive,structured_normal,structured_load,random","2,3,4,2,1,2","1,3,4,2","true","","",""
"null","","html-keyboard-response","173","189122","0.0-173.0","3WJEQKOXA9O7MT0BM05BS3KW77V1AI","A1GRPIBHW72HDU","3URJ6VVYUP9BUCT1SZOT2DFI02L4OC","","<img src=""img/set1/S3.jpg"" width=""540"" height = ""360"" style=""border:16px solid orange"">","null","","","","","","","","","",""
"null","","html-keyboard-response","174","189325","0.0-174.0","3WJEQKOXA9O7MT0BM05BS3KW77V1AI","A1GRPIBHW72HDU","3URJ6VVYUP9BUCT1SZOT2DFI02L4OC","","","null","","","","","","","","","",""
"1135","","image-keyboard-response","175","190462","0.0-175.0","3WJEQKOXA9O7MT0BM05BS3KW77V1AI","A1GRPIBHW72HDU","3URJ6VVYUP9BUCT1SZOT2DFI02L4OC","","img/set1/S2.jpg","83","2","structured_incentive","68","structured_incentive,structured_normal,structured_load,random","2,3,4,2,1,2","1,3,4,2","false","","",""
"null","","html-keyboard-response","176","190820","0.0-176.0","3WJEQKOXA9O7MT0BM05BS3KW77V1AI","A1GRPIBHW72HDU","3URJ6VVYUP9BUCT1SZOT2DFI02L4OC","","<img src=""img/set1/S2.jpg"" width=""540"" height = ""360"">","null","","","","","","","","","",""
"null","","html-keyboard-response","177","191027","0.0-177.0","3WJEQKOXA9O7MT0BM05BS3KW77V1AI","A1GRPIBHW72HDU","3URJ6VVYUP9BUCT1SZOT2DFI02L4OC","","","null","","","","","","","","","",""
"680","","image-keyboard-response","178","191710","0.0-178.0","3WJEQKOXA9O7MT0BM05BS3KW77V1AI","A1GRPIBHW72HDU","3URJ6VVYUP9BUCT1SZOT2DFI02L4OC","","img/set1/S4.jpg","74","4","structured_incentive","74","structured_incentive,structured_normal,structured_load,random","2,3,4,2,1,2","1,3,4,2","true","","",""
"null","","html-keyboard-response","179","192068","0.0-179.0","3WJEQKOXA9O7MT0BM05BS3KW77V1AI","A1GRPIBHW72HDU","3URJ6VVYUP9BUCT1SZOT2DFI02L4OC","","<img src=""img/set1/S4.jpg"" width=""540"" height = ""360"" style=""border:16px solid Violet"">","null","","","","","","","","","",""
"null","","html-keyboard-response","180","192283","0.0-180.0","3WJEQKOXA9O7MT0BM05BS3KW77V1AI","A1GRPIBHW72HDU","3URJ6VVYUP9BUCT1SZOT2DFI02L4OC","","","null","","","","","","","","","",""
"626","","image-keyboard-response","181","192910","0.0-181.0","3WJEQKOXA9O7MT0BM05BS3KW77V1AI","A1GRPIBHW72HDU","3URJ6VVYUP9BUCT1SZOT2DFI02L4OC","","img/set1/S3.jpg","72","3","structured_incentive","72","structured_incentive,structured_normal,structured_load,random","2,3,4,2,1,2","1,3,4,2","true","","",""
"null","","html-keyboard-response","182","193268","0.0-182.0","3WJEQKOXA9O7MT0BM05BS3KW77V1AI","A1GRPIBHW72HDU","3URJ6VVYUP9BUCT1SZOT2DFI02L4OC","","<img src=""img/set1/S3.jpg"" width=""540"" height = ""360"" style=""border:16px solid orange"">","null","","","","","","","","","",""
"null","","html-keyboard-response","183","193488","0.0-183.0","3WJEQKOXA9O7MT0BM05BS3KW77V1AI","A1GRPIBHW72HDU","3URJ6VVYUP9BUCT1SZOT2DFI02L4OC","","","null","","","","","","","","","",""
"440","","image-keyboard-response","184","193930","0.0-184.0","3WJEQKOXA9O7MT0BM05BS3KW77V1AI","A1GRPIBHW72HDU","3URJ6VVYUP9BUCT1SZOT2DFI02L4OC","","img/set1/S2.jpg","68","2","structured_incentive","68","structured_incentive,structured_normal,structured_load,random","2,3,4,2,1,2","1,3,4,2","true","","",""
"null","","html-keyboard-response","185","194297","0.0-185.0","3WJEQKOXA9O7MT0BM05BS3KW77V1AI","A1GRPIBHW72HDU","3URJ6VVYUP9BUCT1SZOT2DFI02L4OC","","<img src=""img/set1/S2.jpg"" width=""540"" height = ""360"" style=""border:16px solid orange"">","null","","","","","","","","","",""
"null","","html-keyboard-response","186","194506","0.0-186.0","3WJEQKOXA9O7MT0BM05BS3KW77V1AI","A1GRPIBHW72HDU","3URJ6VVYUP9BUCT1SZOT2DFI02L4OC","","","null","","","","","","","","","",""
"677","","image-keyboard-response","187","195185","0.0-187.0","3WJEQKOXA9O7MT0BM05BS3KW77V1AI","A1GRPIBHW72HDU","3URJ6VVYUP9BUCT1SZOT2DFI02L4OC","","img/set1/S4.jpg","74","4","structured_incentive","74","structured_incentive,structured_normal,structured_load,random","2,3,4,2,1,2","1,3,4,2","true","","",""
"null","","html-keyboard-response","188","195539","0.0-188.0","3WJEQKOXA9O7MT0BM05BS3KW77V1AI","A1GRPIBHW72HDU","3URJ6VVYUP9BUCT1SZOT2DFI02L4OC","","<img src=""img/set1/S4.jpg"" width=""540"" height = ""360"" style=""border:16px solid Violet"">","null","","","","","","","","","",""
"null","","html-keyboard-response","189","195758","0.0-189.0","3WJEQKOXA9O7MT0BM05BS3KW77V1AI","A1GRPIBHW72HDU","3URJ6VVYUP9BUCT1SZOT2DFI02L4OC","","","null","","","","","","","","","",""
"425","","image-keyboard-response","190","196186","0.0-190.0","3WJEQKOXA9O7MT0BM05BS3KW77V1AI","A1GRPIBHW72HDU","3URJ6VVYUP9BUCT1SZOT2DFI02L4OC","","img/set1/S4.jpg","74","4","structured_incentive","74","structured_incentive,structured_normal,structured_load,random","2,3,4,2,1,2","1,3,4,2","true","","",""
"null","","html-keyboard-response","191","196557","0.0-191.0","3WJEQKOXA9O7MT0BM05BS3KW77V1AI","A1GRPIBHW72HDU","3URJ6VVYUP9BUCT1SZOT2DFI02L4OC","","<img src=""img/set1/S4.jpg"" width=""540"" height = ""360"" style=""border:16px solid Violet"">","null","","","","","","","","","",""
"null","","html-keyboard-response","192","196777","0.0-192.0","3WJEQKOXA9O7MT0BM05BS3KW77V1AI","A1GRPIBHW72HDU","3URJ6VVYUP9BUCT1SZOT2DFI02L4OC","","","null","","","","","","","","","",""
"855","","image-keyboard-response","193","197635","0.0-193.0","3WJEQKOXA9O7MT0BM05BS3KW77V1AI","A1GRPIBHW72HDU","3URJ6VVYUP9BUCT1SZOT2DFI02L4OC","","img/set1/S3.jpg","72","3","structured_incentive","72","structured_incentive,structured_normal,structured_load,random","2,3,4,2,1,2","1,3,4,2","true","","",""
"null","","html-keyboard-response","194","197987","0.0-194.0","3WJEQKOXA9O7MT0BM05BS3KW77V1AI","A1GRPIBHW72HDU","3URJ6VVYUP9BUCT1SZOT2DFI02L4OC","","<img src=""img/set1/S3.jpg"" width=""540"" height = ""360"" style=""border:16px solid orange"">","null","","","","","","","","","",""
"null","","html-keyboard-response","195","198208","0.0-195.0","3WJEQKOXA9O7MT0BM05BS3KW77V1AI","A1GRPIBHW72HDU","3URJ6VVYUP9BUCT1SZOT2DFI02L4OC","","","null","","","","","","","","","",""
"684","","image-keyboard-response","196","198893","0.0-196.0","3WJEQKOXA9O7MT0BM05BS3KW77V1AI","A1GRPIBHW72HDU","3URJ6VVYUP9BUCT1SZOT2DFI02L4OC","","img/set1/S1.jpg","83","1","structured_incentive","83","structured_incentive,structured_normal,structured_load,random","2,3,4,2,1,2","1,3,4,2","true","","",""
"null","","html-keyboard-response","197","199258","0.0-197.0","3WJEQKOXA9O7MT0BM05BS3KW77V1AI","A1GRPIBHW72HDU","3URJ6VVYUP9BUCT1SZOT2DFI02L4OC","","<img src=""img/set1/S1.jpg"" width=""540"" height = ""360"" style=""border:16px solid orange"">","null","","","","","","","","","",""
"null","","html-keyboard-response","198","199470","0.0-198.0","3WJEQKOXA9O7MT0BM05BS3KW77V1AI","A1GRPIBHW72HDU","3URJ6VVYUP9BUCT1SZOT2DFI02L4OC","","","null","","","","","","","","","",""
"484","","image-keyboard-response","199","199956","0.0-199.0","3WJEQKOXA9O7MT0BM05BS3KW77V1AI","A1GRPIBHW72HDU","3URJ6VVYUP9BUCT1SZOT2DFI02L4OC","","img/set1/S1.jpg","83","1","structured_incentive","83","structured_incentive,structured_normal,structured_load,random","2,3,4,2,1,2","1,3,4,2","true","","",""
"null","","html-keyboard-response","200","200318","0.0-200.0","3WJEQKOXA9O7MT0BM05BS3KW77V1AI","A1GRPIBHW72HDU","3URJ6VVYUP9BUCT1SZOT2DFI02L4OC","","<img src=""img/set1/S1.jpg"" width=""540"" height = ""360"" style=""border:16px solid orange"">","null","","","","","","","","","",""
"null","","html-keyboard-response","201","200522","0.0-201.0","3WJEQKOXA9O7MT0BM05BS3KW77V1AI","A1GRPIBHW72HDU","3URJ6VVYUP9BUCT1SZOT2DFI02L4OC","","","null","","","","","","","","","",""
"486","","image-keyboard-response","202","201010","0.0-202.0","3WJEQKOXA9O7MT0BM05BS3KW77V1AI","A1GRPIBHW72HDU","3URJ6VVYUP9BUCT1SZOT2DFI02L4OC","","img/set1/S1.jpg","83","1","structured_incentive","83","structured_incentive,structured_normal,structured_load,random","2,3,4,2,1,2","1,3,4,2","true","","",""
"null","","html-keyboard-response","203","201377","0.0-203.0","3WJEQKOXA9O7MT0BM05BS3KW77V1AI","A1GRPIBHW72HDU","3URJ6VVYUP9BUCT1SZOT2DFI02L4OC","","<img src=""img/set1/S1.jpg"" width=""540"" height = ""360"" style=""border:16px solid orange"">","null","","","","","","","","","",""
"null","","html-keyboard-response","204","201583","0.0-204.0","3WJEQKOXA9O7MT0BM05BS3KW77V1AI","A1GRPIBHW72HDU","3URJ6VVYUP9BUCT1SZOT2DFI02L4OC","","","null","","","","","","","","","",""
"494","","image-keyboard-response","205","202078","0.0-205.0","3WJEQKOXA9O7MT0BM05BS3KW77V1AI","A1GRPIBHW72HDU","3URJ6VVYUP9BUCT1SZOT2DFI02L4OC","","img/set1/S1.jpg","83","1","structured_incentive","83","structured_incentive,structured_normal,structured_load,random","2,3,4,2,1,2","1,3,4,2","true","","",""
"null","","html-keyboard-response","206","202448","0.0-206.0","3WJEQKOXA9O7MT0BM05BS3KW77V1AI","A1GRPIBHW72HDU","3URJ6VVYUP9BUCT1SZOT2DFI02L4OC","","<img src=""img/set1/S1.jpg"" width=""540"" height = ""360"" style=""border:16px solid orange"">","null","","","","","","","","","",""
"null","","html-keyboard-response","207","202653","0.0-207.0","3WJEQKOXA9O7MT0BM05BS3KW77V1AI","A1GRPIBHW72HDU","3URJ6VVYUP9BUCT1SZOT2DFI02L4OC","","","null","","","","","","","","","",""
"740","","image-keyboard-response","208","203396","0.0-208.0","3WJEQKOXA9O7MT0BM05BS3KW77V1AI","A1GRPIBHW72HDU","3URJ6VVYUP9BUCT1SZOT2DFI02L4OC","","img/set1/S4.jpg","74","4","structured_incentive","74","structured_incentive,structured_normal,structured_load,random","2,3,4,2,1,2","1,3,4,2","true","","",""
"null","","html-keyboard-response","209","203763","0.0-209.0","3WJEQKOXA9O7MT0BM05BS3KW77V1AI","A1GRPIBHW72HDU","3URJ6VVYUP9BUCT1SZOT2DFI02L4OC","","<img src=""img/set1/S4.jpg"" width=""540"" height = ""360"" style=""border:16px solid Violet"">","null","","","","","","","","","",""
"null","","html-keyboard-response","210","203970","0.0-210.0","3WJEQKOXA9O7MT0BM05BS3KW77V1AI","A1GRPIBHW72HDU","3URJ6VVYUP9BUCT1SZOT2DFI02L4OC","","","null","","","","","","","","","",""
"950","","image-keyboard-response","211","204923","0.0-211.0","3WJEQKOXA9O7MT0BM05BS3KW77V1AI","A1GRPIBHW72HDU","3URJ6VVYUP9BUCT1SZOT2DFI02L4OC","","img/set1/S2.jpg","72","2","structured_incentive","68","structured_incentive,structured_normal,structured_load,random","2,3,4,2,1,2","1,3,4,2","false","","",""
"null","","html-keyboard-response","212","205287","0.0-212.0","3WJEQKOXA9O7MT0BM05BS3KW77V1AI","A1GRPIBHW72HDU","3URJ6VVYUP9BUCT1SZOT2DFI02L4OC","","<img src=""img/set1/S2.jpg"" width=""540"" height = ""360"">","null","","","","","","","","","",""
"null","","html-keyboard-response","213","205508","0.0-213.0","3WJEQKOXA9O7MT0BM05BS3KW77V1AI","A1GRPIBHW72HDU","3URJ6VVYUP9BUCT1SZOT2DFI02L4OC","","","null","","","","","","","","","",""
"1027","","image-keyboard-response","214","206536","0.0-214.0","3WJEQKOXA9O7MT0BM05BS3KW77V1AI","A1GRPIBHW72HDU","3URJ6VVYUP9BUCT1SZOT2DFI02L4OC","","img/set1/S3.jpg","72","3","structured_incentive","72","structured_incentive,structured_normal,structured_load,random","2,3,4,2,1,2","1,3,4,2","true","","",""
"null","","html-keyboard-response","215","206898","0.0-215.0","3WJEQKOXA9O7MT0BM05BS3KW77V1AI","A1GRPIBHW72HDU","3URJ6VVYUP9BUCT1SZOT2DFI02L4OC","","<img src=""img/set1/S3.jpg"" width=""540"" height = ""360"" style=""border:16px solid orange"">","null","","","","","","","","","",""
"null","","html-keyboard-response","216","207102","0.0-216.0","3WJEQKOXA9O7MT0BM05BS3KW77V1AI","A1GRPIBHW72HDU","3URJ6VVYUP9BUCT1SZOT2DFI02L4OC","","","null","","","","","","","","","",""
"476","","image-keyboard-response","217","207581","0.0-217.0","3WJEQKOXA9O7MT0BM05BS3KW77V1AI","A1GRPIBHW72HDU","3URJ6VVYUP9BUCT1SZOT2DFI02L4OC","","img/set1/S2.jpg","68","2","structured_incentive","68","structured_incentive,structured_normal,structured_load,random","2,3,4,2,1,2","1,3,4,2","true","","",""
"null","","html-keyboard-response","218","207938","0.0-218.0","3WJEQKOXA9O7MT0BM05BS3KW77V1AI","A1GRPIBHW72HDU","3URJ6VVYUP9BUCT1SZOT2DFI02L4OC","","<img src=""img/set1/S2.jpg"" width=""540"" height = ""360"" style=""border:16px solid orange"">","null","","","","","","","","","",""
"null","","html-keyboard-response","219","208151","0.0-219.0","3WJEQKOXA9O7MT0BM05BS3KW77V1AI","A1GRPIBHW72HDU","3URJ6VVYUP9BUCT1SZOT2DFI02L4OC","","","null","","","","","","","","","",""
"644","","image-keyboard-response","220","208796","0.0-220.0","3WJEQKOXA9O7MT0BM05BS3KW77V1AI","A1GRPIBHW72HDU","3URJ6VVYUP9BUCT1SZOT2DFI02L4OC","","img/set1/S3.jpg","68","3","structured_incentive","72","structured_incentive,structured_normal,structured_load,random","2,3,4,2,1,2","1,3,4,2","false","","",""
"null","","html-keyboard-response","221","209148","0.0-221.0","3WJEQKOXA9O7MT0BM05BS3KW77V1AI","A1GRPIBHW72HDU","3URJ6VVYUP9BUCT1SZOT2DFI02L4OC","","<img src=""img/set1/S3.jpg"" width=""540"" height = ""360"">","null","","","","","","","","","",""
"null","","html-keyboard-response","222","209352","0.0-222.0","3WJEQKOXA9O7MT0BM05BS3KW77V1AI","A1GRPIBHW72HDU","3URJ6VVYUP9BUCT1SZOT2DFI02L4OC","","","null","","","","","","","","","",""
"694","","image-keyboard-response","223","210049","0.0-223.0","3WJEQKOXA9O7MT0BM05BS3KW77V1AI","A1GRPIBHW72HDU","3URJ6VVYUP9BUCT1SZOT2DFI02L4OC","","img/set1/S1.jpg","83","1","structured_incentive","83","structured_incentive,structured_normal,structured_load,random","2,3,4,2,1,2","1,3,4,2","true","","",""
"null","","html-keyboard-response","224","210418","0.0-224.0","3WJEQKOXA9O7MT0BM05BS3KW77V1AI","A1GRPIBHW72HDU","3URJ6VVYUP9BUCT1SZOT2DFI02L4OC","","<img src=""img/set1/S1.jpg"" width=""540"" height = ""360"" style=""border:16px solid orange"">","null","","","","","","","","","",""
"null","","html-keyboard-response","225","210627","0.0-225.0","3WJEQKOXA9O7MT0BM05BS3KW77V1AI","A1GRPIBHW72HDU","3URJ6VVYUP9BUCT1SZOT2DFI02L4OC","","","null","","","","","","","","","",""
"498","","image-keyboard-response","226","211127","0.0-226.0","3WJEQKOXA9O7MT0BM05BS3KW77V1AI","A1GRPIBHW72HDU","3URJ6VVYUP9BUCT1SZOT2DFI02L4OC","","img/set1/S4.jpg","74","4","structured_incentive","74","structured_incentive,structured_normal,structured_load,random","2,3,4,2,1,2","1,3,4,2","true","","",""
"null","","html-keyboard-response","227","211489","0.0-227.0","3WJEQKOXA9O7MT0BM05BS3KW77V1AI","A1GRPIBHW72HDU","3URJ6VVYUP9BUCT1SZOT2DFI02L4OC","","<img src=""img/set1/S4.jpg"" width=""540"" height = ""360"" style=""border:16px solid Violet"">","null","","","","","","","","","",""
"null","","html-keyboard-response","228","211699","0.0-228.0","3WJEQKOXA9O7MT0BM05BS3KW77V1AI","A1GRPIBHW72HDU","3URJ6VVYUP9BUCT1SZOT2DFI02L4OC","","","null","","","","","","","","","",""
"1356","","image-keyboard-response","229","213056","0.0-229.0","3WJEQKOXA9O7MT0BM05BS3KW77V1AI","A1GRPIBHW72HDU","3URJ6VVYUP9BUCT1SZOT2DFI02L4OC","","img/set1/S1.jpg","83","1","structured_incentive","83","structured_incentive,structured_normal,structured_load,random","2,3,4,2,1,2","1,3,4,2","true","","",""
"null","","html-keyboard-response","230","213418","0.0-230.0","3WJEQKOXA9O7MT0BM05BS3KW77V1AI","A1GRPIBHW72HDU","3URJ6VVYUP9BUCT1SZOT2DFI02L4OC","","<img src=""img/set1/S1.jpg"" width=""540"" height = ""360"" style=""border:16px solid orange"">","null","","","","","","","","","",""
"null","","html-keyboard-response","231","213629","0.0-231.0","3WJEQKOXA9O7MT0BM05BS3KW77V1AI","A1GRPIBHW72HDU","3URJ6VVYUP9BUCT1SZOT2DFI02L4OC","","","null","","","","","","","","","",""
"1238","","image-keyboard-response","232","214869","0.0-232.0","3WJEQKOXA9O7MT0BM05BS3KW77V1AI","A1GRPIBHW72HDU","3URJ6VVYUP9BUCT1SZOT2DFI02L4OC","","img/set1/S2.jpg","68","2","structured_incentive","68","structured_incentive,structured_normal,structured_load,random","2,3,4,2,1,2","1,3,4,2","true","","",""
"null","","html-keyboard-response","233","215226","0.0-233.0","3WJEQKOXA9O7MT0BM05BS3KW77V1AI","A1GRPIBHW72HDU","3URJ6VVYUP9BUCT1SZOT2DFI02L4OC","","<img src=""img/set1/S2.jpg"" width=""540"" height = ""360"" style=""border:16px solid orange"">","null","","","","","","","","","",""
"null","","html-keyboard-response","234","215437","0.0-234.0","3WJEQKOXA9O7MT0BM05BS3KW77V1AI","A1GRPIBHW72HDU","3URJ6VVYUP9BUCT1SZOT2DFI02L4OC","","","null","","","","","","","","","",""
"643","","image-keyboard-response","235","216084","0.0-235.0","3WJEQKOXA9O7MT0BM05BS3KW77V1AI","A1GRPIBHW72HDU","3URJ6VVYUP9BUCT1SZOT2DFI02L4OC","","img/set1/S3.jpg","72","3","structured_incentive","72","structured_incentive,structured_normal,structured_load,random","2,3,4,2,1,2","1,3,4,2","true","","",""
"null","","html-keyboard-response","236","216438","0.0-236.0","3WJEQKOXA9O7MT0BM05BS3KW77V1AI","A1GRPIBHW72HDU","3URJ6VVYUP9BUCT1SZOT2DFI02L4OC","","<img src=""img/set1/S3.jpg"" width=""540"" height = ""360"" style=""border:16px solid orange"">","null","","","","","","","","","",""
"null","","html-keyboard-response","237","216650","0.0-237.0","3WJEQKOXA9O7MT0BM05BS3KW77V1AI","A1GRPIBHW72HDU","3URJ6VVYUP9BUCT1SZOT2DFI02L4OC","","","null","","","","","","","","","",""
"602","","image-keyboard-response","238","217254","0.0-238.0","3WJEQKOXA9O7MT0BM05BS3KW77V1AI","A1GRPIBHW72HDU","3URJ6VVYUP9BUCT1SZOT2DFI02L4OC","","img/set1/S4.jpg","74","4","structured_incentive","74","structured_incentive,structured_normal,structured_load,random","2,3,4,2,1,2","1,3,4,2","true","","",""
"null","","html-keyboard-response","239","217618","0.0-239.0","3WJEQKOXA9O7MT0BM05BS3KW77V1AI","A1GRPIBHW72HDU","3URJ6VVYUP9BUCT1SZOT2DFI02L4OC","","<img src=""img/set1/S4.jpg"" width=""540"" height = ""360"" style=""border:16px solid Violet"">","null","","","","","","","","","",""
"null","","html-keyboard-response","240","217831","0.0-240.0","3WJEQKOXA9O7MT0BM05BS3KW77V1AI","A1GRPIBHW72HDU","3URJ6VVYUP9BUCT1SZOT2DFI02L4OC","","","null","","","","","","","","","",""
"2168","","image-keyboard-response","241","220000","0.0-241.0","3WJEQKOXA9O7MT0BM05BS3KW77V1AI","A1GRPIBHW72HDU","3URJ6VVYUP9BUCT1SZOT2DFI02L4OC","","img/set1/S2.jpg","72","2","structured_incentive","68","structured_incentive,structured_normal,structured_load,random","2,3,4,2,1,2","1,3,4,2","false","","",""
"null","","html-keyboard-response","242","220368","0.0-242.0","3WJEQKOXA9O7MT0BM05BS3KW77V1AI","A1GRPIBHW72HDU","3URJ6VVYUP9BUCT1SZOT2DFI02L4OC","","<img src=""img/set1/S2.jpg"" width=""540"" height = ""360"">","null","","","","","","","","","",""
"null","","html-keyboard-response","243","220580","0.0-243.0","3WJEQKOXA9O7MT0BM05BS3KW77V1AI","A1GRPIBHW72HDU","3URJ6VVYUP9BUCT1SZOT2DFI02L4OC","","","null","","","","","","","","","",""
"987","","image-keyboard-response","244","221569","0.0-244.0","3WJEQKOXA9O7MT0BM05BS3KW77V1AI","A1GRPIBHW72HDU","3URJ6VVYUP9BUCT1SZOT2DFI02L4OC","","img/set1/S4.jpg","74","4","structured_incentive","74","structured_incentive,structured_normal,structured_load,random","2,3,4,2,1,2","1,3,4,2","true","","",""
"null","","html-keyboard-response","245","221938","0.0-245.0","3WJEQKOXA9O7MT0BM05BS3KW77V1AI","A1GRPIBHW72HDU","3URJ6VVYUP9BUCT1SZOT2DFI02L4OC","","<img src=""img/set1/S4.jpg"" width=""540"" height = ""360"" style=""border:16px solid Violet"">","null","","","","","","","","","",""
"null","","html-keyboard-response","246","222148","0.0-246.0","3WJEQKOXA9O7MT0BM05BS3KW77V1AI","A1GRPIBHW72HDU","3URJ6VVYUP9BUCT1SZOT2DFI02L4OC","","","null","","","","","","","","","",""
"704","","image-keyboard-response","247","222854","0.0-247.0","3WJEQKOXA9O7MT0BM05BS3KW77V1AI","A1GRPIBHW72HDU","3URJ6VVYUP9BUCT1SZOT2DFI02L4OC","","img/set1/S1.jpg","83","1","structured_incentive","83","structured_incentive,structured_normal,structured_load,random","2,3,4,2,1,2","1,3,4,2","true","","",""
"null","","html-keyboard-response","248","223217","0.0-248.0","3WJEQKOXA9O7MT0BM05BS3KW77V1AI","A1GRPIBHW72HDU","3URJ6VVYUP9BUCT1SZOT2DFI02L4OC","","<img src=""img/set1/S1.jpg"" width=""540"" height = ""360"" style=""border:16px solid orange"">","null","","","","","","","","","",""
"null","","html-keyboard-response","249","223429","0.0-249.0","3WJEQKOXA9O7MT0BM05BS3KW77V1AI","A1GRPIBHW72HDU","3URJ6VVYUP9BUCT1SZOT2DFI02L4OC","","","null","","","","","","","","","",""
"557","","image-keyboard-response","250","223988","0.0-250.0","3WJEQKOXA9O7MT0BM05BS3KW77V1AI","A1GRPIBHW72HDU","3URJ6VVYUP9BUCT1SZOT2DFI02L4OC","","img/set1/S1.jpg","83","1","structured_incentive","83","structured_incentive,structured_normal,structured_load,random","2,3,4,2,1,2","1,3,4,2","true","","",""
"null","","html-keyboard-response","251","224358","0.0-251.0","3WJEQKOXA9O7MT0BM05BS3KW77V1AI","A1GRPIBHW72HDU","3URJ6VVYUP9BUCT1SZOT2DFI02L4OC","","<img src=""img/set1/S1.jpg"" width=""540"" height = ""360"" style=""border:16px solid orange"">","null","","","","","","","","","",""
"null","","html-keyboard-response","252","224568","0.0-252.0","3WJEQKOXA9O7MT0BM05BS3KW77V1AI","A1GRPIBHW72HDU","3URJ6VVYUP9BUCT1SZOT2DFI02L4OC","","","null","","","","","","","","","",""
"568","","image-keyboard-response","253","225137","0.0-253.0","3WJEQKOXA9O7MT0BM05BS3KW77V1AI","A1GRPIBHW72HDU","3URJ6VVYUP9BUCT1SZOT2DFI02L4OC","","img/set1/S2.jpg","68","2","structured_incentive","68","structured_incentive,structured_normal,structured_load,random","2,3,4,2,1,2","1,3,4,2","true","","",""
"null","","html-keyboard-response","254","225497","0.0-254.0","3WJEQKOXA9O7MT0BM05BS3KW77V1AI","A1GRPIBHW72HDU","3URJ6VVYUP9BUCT1SZOT2DFI02L4OC","","<img src=""img/set1/S2.jpg"" width=""540"" height = ""360"" style=""border:16px solid orange"">","null","","","","","","","","","",""
"null","","html-keyboard-response","255","225717","0.0-255.0","3WJEQKOXA9O7MT0BM05BS3KW77V1AI","A1GRPIBHW72HDU","3URJ6VVYUP9BUCT1SZOT2DFI02L4OC","","","null","","","","","","","","","",""
"713","","image-keyboard-response","256","226433","0.0-256.0","3WJEQKOXA9O7MT0BM05BS3KW77V1AI","A1GRPIBHW72HDU","3URJ6VVYUP9BUCT1SZOT2DFI02L4OC","","img/set1/S3.jpg","72","3","structured_incentive","72","structured_incentive,structured_normal,structured_load,random","2,3,4,2,1,2","1,3,4,2","true","","",""
"null","","html-keyboard-response","257","226797","0.0-257.0","3WJEQKOXA9O7MT0BM05BS3KW77V1AI","A1GRPIBHW72HDU","3URJ6VVYUP9BUCT1SZOT2DFI02L4OC","","<img src=""img/set1/S3.jpg"" width=""540"" height = ""360"" style=""border:16px solid orange"">","null","","","","","","","","","",""
"null","","html-keyboard-response","258","227012","0.0-258.0","3WJEQKOXA9O7MT0BM05BS3KW77V1AI","A1GRPIBHW72HDU","3URJ6VVYUP9BUCT1SZOT2DFI02L4OC","","","null","","","","","","","","","",""
"609","","image-keyboard-response","259","227623","0.0-259.0","3WJEQKOXA9O7MT0BM05BS3KW77V1AI","A1GRPIBHW72HDU","3URJ6VVYUP9BUCT1SZOT2DFI02L4OC","","img/set1/S4.jpg","74","4","structured_incentive","74","structured_incentive,structured_normal,structured_load,random","2,3,4,2,1,2","1,3,4,2","true","","",""
"null","","html-keyboard-response","260","227978","0.0-260.0","3WJEQKOXA9O7MT0BM05BS3KW77V1AI","A1GRPIBHW72HDU","3URJ6VVYUP9BUCT1SZOT2DFI02L4OC","","<img src=""img/set1/S4.jpg"" width=""540"" height = ""360"" style=""border:16px solid Violet"">","null","","","","","","","","","",""
"null","","html-keyboard-response","261","228197","0.0-261.0","3WJEQKOXA9O7MT0BM05BS3KW77V1AI","A1GRPIBHW72HDU","3URJ6VVYUP9BUCT1SZOT2DFI02L4OC","","","null","","","","","","","","","",""
"880","","image-keyboard-response","262","229080","0.0-262.0","3WJEQKOXA9O7MT0BM05BS3KW77V1AI","A1GRPIBHW72HDU","3URJ6VVYUP9BUCT1SZOT2DFI02L4OC","","img/set1/S2.jpg","83","2","structured_incentive","68","structured_incentive,structured_normal,structured_load,random","2,3,4,2,1,2","1,3,4,2","false","","",""
"null","","html-keyboard-response","263","229448","0.0-263.0","3WJEQKOXA9O7MT0BM05BS3KW77V1AI","A1GRPIBHW72HDU","3URJ6VVYUP9BUCT1SZOT2DFI02L4OC","","<img src=""img/set1/S2.jpg"" width=""540"" height = ""360"">","null","","","","","","","","","",""
"null","","html-keyboard-response","264","229660","0.0-264.0","3WJEQKOXA9O7MT0BM05BS3KW77V1AI","A1GRPIBHW72HDU","3URJ6VVYUP9BUCT1SZOT2DFI02L4OC","","","null","","","","","","","","","",""
"1054","","image-keyboard-response","265","230717","0.0-265.0","3WJEQKOXA9O7MT0BM05BS3KW77V1AI","A1GRPIBHW72HDU","3URJ6VVYUP9BUCT1SZOT2DFI02L4OC","","img/set1/S4.jpg","74","4","structured_incentive","74","structured_incentive,structured_normal,structured_load,random","2,3,4,2,1,2","1,3,4,2","true","","",""
"null","","html-keyboard-response","266","231088","0.0-266.0","3WJEQKOXA9O7MT0BM05BS3KW77V1AI","A1GRPIBHW72HDU","3URJ6VVYUP9BUCT1SZOT2DFI02L4OC","","<img src=""img/set1/S4.jpg"" width=""540"" height = ""360"" style=""border:16px solid Violet"">","null","","","","","","","","","",""
"null","","html-keyboard-response","267","231294","0.0-267.0","3WJEQKOXA9O7MT0BM05BS3KW77V1AI","A1GRPIBHW72HDU","3URJ6VVYUP9BUCT1SZOT2DFI02L4OC","","","null","","","","","","","","","",""
"531","","image-keyboard-response","268","231827","0.0-268.0","3WJEQKOXA9O7MT0BM05BS3KW77V1AI","A1GRPIBHW72HDU","3URJ6VVYUP9BUCT1SZOT2DFI02L4OC","","img/set1/S2.jpg","68","2","structured_incentive","68","structured_incentive,structured_normal,structured_load,random","2,3,4,2,1,2","1,3,4,2","true","","",""
"null","","html-keyboard-response","269","232188","0.0-269.0","3WJEQKOXA9O7MT0BM05BS3KW77V1AI","A1GRPIBHW72HDU","3URJ6VVYUP9BUCT1SZOT2DFI02L4OC","","<img src=""img/set1/S2.jpg"" width=""540"" height = ""360"" style=""border:16px solid orange"">","null","","","","","","","","","",""
"null","","html-keyboard-response","270","232394","0.0-270.0","3WJEQKOXA9O7MT0BM05BS3KW77V1AI","A1GRPIBHW72HDU","3URJ6VVYUP9BUCT1SZOT2DFI02L4OC","","","null","","","","","","","","","",""
"669","","image-keyboard-response","271","233064","0.0-271.0","3WJEQKOXA9O7MT0BM05BS3KW77V1AI","A1GRPIBHW72HDU","3URJ6VVYUP9BUCT1SZOT2DFI02L4OC","","img/set1/S4.jpg","74","4","structured_incentive","74","structured_incentive,structured_normal,structured_load,random","2,3,4,2,1,2","1,3,4,2","true","","",""
"null","","html-keyboard-response","272","233419","0.0-272.0","3WJEQKOXA9O7MT0BM05BS3KW77V1AI","A1GRPIBHW72HDU","3URJ6VVYUP9BUCT1SZOT2DFI02L4OC","","<img src=""img/set1/S4.jpg"" width=""540"" height = ""360"" style=""border:16px solid Violet"">","null","","","","","","","","","",""
"null","","html-keyboard-response","273","233628","0.0-273.0","3WJEQKOXA9O7MT0BM05BS3KW77V1AI","A1GRPIBHW72HDU","3URJ6VVYUP9BUCT1SZOT2DFI02L4OC","","","null","","","","","","","","","",""
"716","","image-keyboard-response","274","234345","0.0-274.0","3WJEQKOXA9O7MT0BM05BS3KW77V1AI","A1GRPIBHW72HDU","3URJ6VVYUP9BUCT1SZOT2DFI02L4OC","","img/set1/S1.jpg","83","1","structured_incentive","83","structured_incentive,structured_normal,structured_load,random","2,3,4,2,1,2","1,3,4,2","true","","",""
"null","","html-keyboard-response","275","234697","0.0-275.0","3WJEQKOXA9O7MT0BM05BS3KW77V1AI","A1GRPIBHW72HDU","3URJ6VVYUP9BUCT1SZOT2DFI02L4OC","","<img src=""img/set1/S1.jpg"" width=""540"" height = ""360"" style=""border:16px solid orange"">","null","","","","","","","","","",""
"null","","html-keyboard-response","276","234902","0.0-276.0","3WJEQKOXA9O7MT0BM05BS3KW77V1AI","A1GRPIBHW72HDU","3URJ6VVYUP9BUCT1SZOT2DFI02L4OC","","","null","","","","","","","","","",""
"423","","image-keyboard-response","277","235327","0.0-277.0","3WJEQKOXA9O7MT0BM05BS3KW77V1AI","A1GRPIBHW72HDU","3URJ6VVYUP9BUCT1SZOT2DFI02L4OC","","img/set1/S1.jpg","83","1","structured_incentive","83","structured_incentive,structured_normal,structured_load,random","2,3,4,2,1,2","1,3,4,2","true","","",""
"null","","html-keyboard-response","278","235688","0.0-278.0","3WJEQKOXA9O7MT0BM05BS3KW77V1AI","A1GRPIBHW72HDU","3URJ6VVYUP9BUCT1SZOT2DFI02L4OC","","<img src=""img/set1/S1.jpg"" width=""540"" height = ""360"" style=""border:16px solid orange"">","null","","","","","","","","","",""
"null","","html-keyboard-response","279","235898","0.0-279.0","3WJEQKOXA9O7MT0BM05BS3KW77V1AI","A1GRPIBHW72HDU","3URJ6VVYUP9BUCT1SZOT2DFI02L4OC","","","null","","","","","","","","","",""
"701","","image-keyboard-response","280","236601","0.0-280.0","3WJEQKOXA9O7MT0BM05BS3KW77V1AI","A1GRPIBHW72HDU","3URJ6VVYUP9BUCT1SZOT2DFI02L4OC","","img/set1/S2.jpg","68","2","structured_incentive","68","structured_incentive,structured_normal,structured_load,random","2,3,4,2,1,2","1,3,4,2","true","","",""
"null","","html-keyboard-response","281","236958","0.0-281.0","3WJEQKOXA9O7MT0BM05BS3KW77V1AI","A1GRPIBHW72HDU","3URJ6VVYUP9BUCT1SZOT2DFI02L4OC","","<img src=""img/set1/S2.jpg"" width=""540"" height = ""360"" style=""border:16px solid orange"">","null","","","","","","","","","",""
"null","","html-keyboard-response","282","237178","0.0-282.0","3WJEQKOXA9O7MT0BM05BS3KW77V1AI","A1GRPIBHW72HDU","3URJ6VVYUP9BUCT1SZOT2DFI02L4OC","","","null","","","","","","","","","",""
"623","","image-keyboard-response","283","237803","0.0-283.0","3WJEQKOXA9O7MT0BM05BS3KW77V1AI","A1GRPIBHW72HDU","3URJ6VVYUP9BUCT1SZOT2DFI02L4OC","","img/set1/S3.jpg","72","3","structured_incentive","72","structured_incentive,structured_normal,structured_load,random","2,3,4,2,1,2","1,3,4,2","true","","",""
"null","","html-keyboard-response","284","238158","0.0-284.0","3WJEQKOXA9O7MT0BM05BS3KW77V1AI","A1GRPIBHW72HDU","3URJ6VVYUP9BUCT1SZOT2DFI02L4OC","","<img src=""img/set1/S3.jpg"" width=""540"" height = ""360"" style=""border:16px solid orange"">","null","","","","","","","","","",""
"null","","html-keyboard-response","285","238378","0.0-285.0","3WJEQKOXA9O7MT0BM05BS3KW77V1AI","A1GRPIBHW72HDU","3URJ6VVYUP9BUCT1SZOT2DFI02L4OC","","","null","","","","","","","","","",""
"701","","image-keyboard-response","286","239081","0.0-286.0","3WJEQKOXA9O7MT0BM05BS3KW77V1AI","A1GRPIBHW72HDU","3URJ6VVYUP9BUCT1SZOT2DFI02L4OC","","img/set1/S2.jpg","83","2","structured_incentive","68","structured_incentive,structured_normal,structured_load,random","2,3,4,2,1,2","1,3,4,2","false","","",""
"null","","html-keyboard-response","287","239437","0.0-287.0","3WJEQKOXA9O7MT0BM05BS3KW77V1AI","A1GRPIBHW72HDU","3URJ6VVYUP9BUCT1SZOT2DFI02L4OC","","<img src=""img/set1/S2.jpg"" width=""540"" height = ""360"">","null","","","","","","","","","",""
"null","","html-keyboard-response","288","239639","0.0-288.0","3WJEQKOXA9O7MT0BM05BS3KW77V1AI","A1GRPIBHW72HDU","3URJ6VVYUP9BUCT1SZOT2DFI02L4OC","","","null","","","","","","","","","",""
"733","","image-keyboard-response","289","240374","0.0-289.0","3WJEQKOXA9O7MT0BM05BS3KW77V1AI","A1GRPIBHW72HDU","3URJ6VVYUP9BUCT1SZOT2DFI02L4OC","","img/set1/S4.jpg","74","4","structured_incentive","74","structured_incentive,structured_normal,structured_load,random","2,3,4,2,1,2","1,3,4,2","true","","",""
"null","","html-keyboard-response","290","240728","0.0-290.0","3WJEQKOXA9O7MT0BM05BS3KW77V1AI","A1GRPIBHW72HDU","3URJ6VVYUP9BUCT1SZOT2DFI02L4OC","","<img src=""img/set1/S4.jpg"" width=""540"" height = ""360"" style=""border:16px solid Violet"">","null","","","","","","","","","",""
"null","","html-keyboard-response","291","240937","0.0-291.0","3WJEQKOXA9O7MT0BM05BS3KW77V1AI","A1GRPIBHW72HDU","3URJ6VVYUP9BUCT1SZOT2DFI02L4OC","","","null","","","","","","","","","",""
"427","","image-keyboard-response","292","241366","0.0-292.0","3WJEQKOXA9O7MT0BM05BS3KW77V1AI","A1GRPIBHW72HDU","3URJ6VVYUP9BUCT1SZOT2DFI02L4OC","","img/set1/S4.jpg","74","4","structured_incentive","74","structured_incentive,structured_normal,structured_load,random","2,3,4,2,1,2","1,3,4,2","true","","",""
"null","","html-keyboard-response","293","241718","0.0-293.0","3WJEQKOXA9O7MT0BM05BS3KW77V1AI","A1GRPIBHW72HDU","3URJ6VVYUP9BUCT1SZOT2DFI02L4OC","","<img src=""img/set1/S4.jpg"" width=""540"" height = ""360"" style=""border:16px solid Violet"">","null","","","","","","","","","",""
"null","","html-keyboard-response","294","241928","0.0-294.0","3WJEQKOXA9O7MT0BM05BS3KW77V1AI","A1GRPIBHW72HDU","3URJ6VVYUP9BUCT1SZOT2DFI02L4OC","","","null","","","","","","","","","",""
"594","","image-keyboard-response","295","242524","0.0-295.0","3WJEQKOXA9O7MT0BM05BS3KW77V1AI","A1GRPIBHW72HDU","3URJ6VVYUP9BUCT1SZOT2DFI02L4OC","","img/set1/S3.jpg","68","3","structured_incentive","72","structured_incentive,structured_normal,structured_load,random","2,3,4,2,1,2","1,3,4,2","false","","",""
"null","","html-keyboard-response","296","242888","0.0-296.0","3WJEQKOXA9O7MT0BM05BS3KW77V1AI","A1GRPIBHW72HDU","3URJ6VVYUP9BUCT1SZOT2DFI02L4OC","","<img src=""img/set1/S3.jpg"" width=""540"" height = ""360"">","null","","","","","","","","","",""
"null","","html-keyboard-response","297","243090","0.0-297.0","3WJEQKOXA9O7MT0BM05BS3KW77V1AI","A1GRPIBHW72HDU","3URJ6VVYUP9BUCT1SZOT2DFI02L4OC","","","null","","","","","","","","","",""
"544","","image-keyboard-response","298","243637","0.0-298.0","3WJEQKOXA9O7MT0BM05BS3KW77V1AI","A1GRPIBHW72HDU","3URJ6VVYUP9BUCT1SZOT2DFI02L4OC","","img/set1/S3.jpg","83","3","structured_incentive","72","structured_incentive,structured_normal,structured_load,random","2,3,4,2,1,2","1,3,4,2","false","","",""
"null","","html-keyboard-response","299","244008","0.0-299.0","3WJEQKOXA9O7MT0BM05BS3KW77V1AI","A1GRPIBHW72HDU","3URJ6VVYUP9BUCT1SZOT2DFI02L4OC","","<img src=""img/set1/S3.jpg"" width=""540"" height = ""360"">","null","","","","","","","","","",""
"null","","html-keyboard-response","300","244228","0.0-300.0","3WJEQKOXA9O7MT0BM05BS3KW77V1AI","A1GRPIBHW72HDU","3URJ6VVYUP9BUCT1SZOT2DFI02L4OC","","","null","","","","","","","","","",""
"327","","image-keyboard-response","301","244557","0.0-301.0","3WJEQKOXA9O7MT0BM05BS3KW77V1AI","A1GRPIBHW72HDU","3URJ6VVYUP9BUCT1SZOT2DFI02L4OC","","img/set1/S1.jpg","72","1","structured_incentive","83","structured_incentive,structured_normal,structured_load,random","2,3,4,2,1,2","1,3,4,2","false","","",""
"null","","html-keyboard-response","302","244928","0.0-302.0","3WJEQKOXA9O7MT0BM05BS3KW77V1AI","A1GRPIBHW72HDU","3URJ6VVYUP9BUCT1SZOT2DFI02L4OC","","<img src=""img/set1/S1.jpg"" width=""540"" height = ""360"">","null","","","","","","","","","",""
"null","","html-keyboard-response","303","245137","0.0-303.0","3WJEQKOXA9O7MT0BM05BS3KW77V1AI","A1GRPIBHW72HDU","3URJ6VVYUP9BUCT1SZOT2DFI02L4OC","","","null","","","","","","","","","",""
"847","","image-keyboard-response","304","245986","0.0-304.0","3WJEQKOXA9O7MT0BM05BS3KW77V1AI","A1GRPIBHW72HDU","3URJ6VVYUP9BUCT1SZOT2DFI02L4OC","","img/set1/S2.jpg","68","2","structured_incentive","68","structured_incentive,structured_normal,structured_load,random","2,3,4,2,1,2","1,3,4,2","true","","",""
"null","","html-keyboard-response","305","246348","0.0-305.0","3WJEQKOXA9O7MT0BM05BS3KW77V1AI","A1GRPIBHW72HDU","3URJ6VVYUP9BUCT1SZOT2DFI02L4OC","","<img src=""img/set1/S2.jpg"" width=""540"" height = ""360"" style=""border:16px solid orange"">","null","","","","","","","","","",""
"null","","html-keyboard-response","306","246557","0.0-306.0","3WJEQKOXA9O7MT0BM05BS3KW77V1AI","A1GRPIBHW72HDU","3URJ6VVYUP9BUCT1SZOT2DFI02L4OC","","","null","","","","","","","","","",""
"900","","image-keyboard-response","307","247460","0.0-307.0","3WJEQKOXA9O7MT0BM05BS3KW77V1AI","A1GRPIBHW72HDU","3URJ6VVYUP9BUCT1SZOT2DFI02L4OC","","img/set1/S3.jpg","83","3","structured_incentive","72","structured_incentive,structured_normal,structured_load,random","2,3,4,2,1,2","1,3,4,2","false","","",""
"null","","html-keyboard-response","308","247828","0.0-308.0","3WJEQKOXA9O7MT0BM05BS3KW77V1AI","A1GRPIBHW72HDU","3URJ6VVYUP9BUCT1SZOT2DFI02L4OC","","<img src=""img/set1/S3.jpg"" width=""540"" height = ""360"">","null","","","","","","","","","",""
"null","","html-keyboard-response","309","248037","0.0-309.0","3WJEQKOXA9O7MT0BM05BS3KW77V1AI","A1GRPIBHW72HDU","3URJ6VVYUP9BUCT1SZOT2DFI02L4OC","","","null","","","","","","","","","",""
"621","","image-keyboard-response","310","248662","0.0-310.0","3WJEQKOXA9O7MT0BM05BS3KW77V1AI","A1GRPIBHW72HDU","3URJ6VVYUP9BUCT1SZOT2DFI02L4OC","","img/set1/S3.jpg","72","3","structured_incentive","72","structured_incentive,structured_normal,structured_load,random","2,3,4,2,1,2","1,3,4,2","true","","",""
"null","","html-keyboard-response","311","249018","0.0-311.0","3WJEQKOXA9O7MT0BM05BS3KW77V1AI","A1GRPIBHW72HDU","3URJ6VVYUP9BUCT1SZOT2DFI02L4OC","","<img src=""img/set1/S3.jpg"" width=""540"" height = ""360"" style=""border:16px solid orange"">","null","","","","","","","","","",""
"null","","html-keyboard-response","312","249222","0.0-312.0","3WJEQKOXA9O7MT0BM05BS3KW77V1AI","A1GRPIBHW72HDU","3URJ6VVYUP9BUCT1SZOT2DFI02L4OC","","","null","","","","","","","","","",""
"581","","image-keyboard-response","313","249805","0.0-313.0","3WJEQKOXA9O7MT0BM05BS3KW77V1AI","A1GRPIBHW72HDU","3URJ6VVYUP9BUCT1SZOT2DFI02L4OC","","img/set1/S1.jpg","83","1","structured_incentive","83","structured_incentive,structured_normal,structured_load,random","2,3,4,2,1,2","1,3,4,2","true","","",""
"null","","html-keyboard-response","314","250157","0.0-314.0","3WJEQKOXA9O7MT0BM05BS3KW77V1AI","A1GRPIBHW72HDU","3URJ6VVYUP9BUCT1SZOT2DFI02L4OC","","<img src=""img/set1/S1.jpg"" width=""540"" height = ""360"" style=""border:16px solid orange"">","null","","","","","","","","","",""
"null","","html-keyboard-response","315","250370","0.0-315.0","3WJEQKOXA9O7MT0BM05BS3KW77V1AI","A1GRPIBHW72HDU","3URJ6VVYUP9BUCT1SZOT2DFI02L4OC","","","null","","","","","","","","","",""
"805","","image-keyboard-response","316","251177","0.0-316.0","3WJEQKOXA9O7MT0BM05BS3KW77V1AI","A1GRPIBHW72HDU","3URJ6VVYUP9BUCT1SZOT2DFI02L4OC","","img/set1/S1.jpg","72","1","structured_incentive","83","structured_incentive,structured_normal,structured_load,random","2,3,4,2,1,2","1,3,4,2","false","","",""
"null","","html-keyboard-response","317","251537","0.0-317.0","3WJEQKOXA9O7MT0BM05BS3KW77V1AI","A1GRPIBHW72HDU","3URJ6VVYUP9BUCT1SZOT2DFI02L4OC","","<img src=""img/set1/S1.jpg"" width=""540"" height = ""360"">","null","","","","","","","","","",""
"null","","html-keyboard-response","318","251758","0.0-318.0","3WJEQKOXA9O7MT0BM05BS3KW77V1AI","A1GRPIBHW72HDU","3URJ6VVYUP9BUCT1SZOT2DFI02L4OC","","","null","","","","","","","","","",""
"587","","image-keyboard-response","319","252346","0.0-319.0","3WJEQKOXA9O7MT0BM05BS3KW77V1AI","A1GRPIBHW72HDU","3URJ6VVYUP9BUCT1SZOT2DFI02L4OC","","img/set1/S1.jpg","83","1","structured_incentive","83","structured_incentive,structured_normal,structured_load,random","2,3,4,2,1,2","1,3,4,2","true","","",""
"null","","html-keyboard-response","320","252707","0.0-320.0","3WJEQKOXA9O7MT0BM05BS3KW77V1AI","A1GRPIBHW72HDU","3URJ6VVYUP9BUCT1SZOT2DFI02L4OC","","<img src=""img/set1/S1.jpg"" width=""540"" height = ""360"" style=""border:16px solid orange"">","null","","","","","","","","","",""
"null","","html-keyboard-response","321","252920","0.0-321.0","3WJEQKOXA9O7MT0BM05BS3KW77V1AI","A1GRPIBHW72HDU","3URJ6VVYUP9BUCT1SZOT2DFI02L4OC","","","null","","","","","","","","","",""
"415","","image-keyboard-response","322","253337","0.0-322.0","3WJEQKOXA9O7MT0BM05BS3KW77V1AI","A1GRPIBHW72HDU","3URJ6VVYUP9BUCT1SZOT2DFI02L4OC","","img/set1/S1.jpg","83","1","structured_incentive","83","structured_incentive,structured_normal,structured_load,random","2,3,4,2,1,2","1,3,4,2","true","","",""
"null","","html-keyboard-response","323","253698","0.0-323.0","3WJEQKOXA9O7MT0BM05BS3KW77V1AI","A1GRPIBHW72HDU","3URJ6VVYUP9BUCT1SZOT2DFI02L4OC","","<img src=""img/set1/S1.jpg"" width=""540"" height = ""360"" style=""border:16px solid orange"">","null","","","","","","","","","",""
"null","","html-keyboard-response","324","253907","0.0-324.0","3WJEQKOXA9O7MT0BM05BS3KW77V1AI","A1GRPIBHW72HDU","3URJ6VVYUP9BUCT1SZOT2DFI02L4OC","","","null","","","","","","","","","",""
"400","","image-keyboard-response","325","254311","0.0-325.0","3WJEQKOXA9O7MT0BM05BS3KW77V1AI","A1GRPIBHW72HDU","3URJ6VVYUP9BUCT1SZOT2DFI02L4OC","","img/set1/S1.jpg","83","1","structured_incentive","83","structured_incentive,structured_normal,structured_load,random","2,3,4,2,1,2","1,3,4,2","true","","",""
"null","","html-keyboard-response","326","254668","0.0-326.0","3WJEQKOXA9O7MT0BM05BS3KW77V1AI","A1GRPIBHW72HDU","3URJ6VVYUP9BUCT1SZOT2DFI02L4OC","","<img src=""img/set1/S1.jpg"" width=""540"" height = ""360"" style=""border:16px solid orange"">","null","","","","","","","","","",""
"null","","html-keyboard-response","327","254888","0.0-327.0","3WJEQKOXA9O7MT0BM05BS3KW77V1AI","A1GRPIBHW72HDU","3URJ6VVYUP9BUCT1SZOT2DFI02L4OC","","","null","","","","","","","","","",""
"413","","image-keyboard-response","328","255303","0.0-328.0","3WJEQKOXA9O7MT0BM05BS3KW77V1AI","A1GRPIBHW72HDU","3URJ6VVYUP9BUCT1SZOT2DFI02L4OC","","img/set1/S1.jpg","83","1","structured_incentive","83","structured_incentive,structured_normal,structured_load,random","2,3,4,2,1,2","1,3,4,2","true","","",""
"null","","html-keyboard-response","329","255668","0.0-329.0","3WJEQKOXA9O7MT0BM05BS3KW77V1AI","A1GRPIBHW72HDU","3URJ6VVYUP9BUCT1SZOT2DFI02L4OC","","<img src=""img/set1/S1.jpg"" width=""540"" height = ""360"" style=""border:16px solid orange"">","null","","","","","","","","","",""
"null","","html-keyboard-response","330","255885","0.0-330.0","3WJEQKOXA9O7MT0BM05BS3KW77V1AI","A1GRPIBHW72HDU","3URJ6VVYUP9BUCT1SZOT2DFI02L4OC","","","null","","","","","","","","","",""
"732","","image-keyboard-response","331","256620","0.0-331.0","3WJEQKOXA9O7MT0BM05BS3KW77V1AI","A1GRPIBHW72HDU","3URJ6VVYUP9BUCT1SZOT2DFI02L4OC","","img/set1/S2.jpg","68","2","structured_incentive","68","structured_incentive,structured_normal,structured_load,random","2,3,4,2,1,2","1,3,4,2","true","","",""
"null","","html-keyboard-response","332","256985","0.0-332.0","3WJEQKOXA9O7MT0BM05BS3KW77V1AI","A1GRPIBHW72HDU","3URJ6VVYUP9BUCT1SZOT2DFI02L4OC","","<img src=""img/set1/S2.jpg"" width=""540"" height = ""360"" style=""border:16px solid orange"">","null","","","","","","","","","",""
"null","","html-keyboard-response","333","257202","0.0-333.0","3WJEQKOXA9O7MT0BM05BS3KW77V1AI","A1GRPIBHW72HDU","3URJ6VVYUP9BUCT1SZOT2DFI02L4OC","","","null","","","","","","","","","",""
"779","","image-keyboard-response","334","257982","0.0-334.0","3WJEQKOXA9O7MT0BM05BS3KW77V1AI","A1GRPIBHW72HDU","3URJ6VVYUP9BUCT1SZOT2DFI02L4OC","","img/set1/S3.jpg","72","3","structured_incentive","72","structured_incentive,structured_normal,structured_load,random","2,3,4,2,1,2","1,3,4,2","true","","",""
"null","","html-keyboard-response","335","258348","0.0-335.0","3WJEQKOXA9O7MT0BM05BS3KW77V1AI","A1GRPIBHW72HDU","3URJ6VVYUP9BUCT1SZOT2DFI02L4OC","","<img src=""img/set1/S3.jpg"" width=""540"" height = ""360"" style=""border:16px solid orange"">","null","","","","","","","","","",""
"null","","html-keyboard-response","336","258551","0.0-336.0","3WJEQKOXA9O7MT0BM05BS3KW77V1AI","A1GRPIBHW72HDU","3URJ6VVYUP9BUCT1SZOT2DFI02L4OC","","","null","","","","","","","","","",""
"393","","image-keyboard-response","337","258946","0.0-337.0","3WJEQKOXA9O7MT0BM05BS3KW77V1AI","A1GRPIBHW72HDU","3URJ6VVYUP9BUCT1SZOT2DFI02L4OC","","img/set1/S3.jpg","72","3","structured_incentive","72","structured_incentive,structured_normal,structured_load,random","2,3,4,2,1,2","1,3,4,2","true","","",""
"null","","html-keyboard-response","338","259317","0.0-338.0","3WJEQKOXA9O7MT0BM05BS3KW77V1AI","A1GRPIBHW72HDU","3URJ6VVYUP9BUCT1SZOT2DFI02L4OC","","<img src=""img/set1/S3.jpg"" width=""540"" height = ""360"" style=""border:16px solid orange"">","null","","","","","","","","","",""
"null","","html-keyboard-response","339","259538","0.0-339.0","3WJEQKOXA9O7MT0BM05BS3KW77V1AI","A1GRPIBHW72HDU","3URJ6VVYUP9BUCT1SZOT2DFI02L4OC","","","null","","","","","","","","","",""
"801","","image-keyboard-response","340","260342","0.0-340.0","3WJEQKOXA9O7MT0BM05BS3KW77V1AI","A1GRPIBHW72HDU","3URJ6VVYUP9BUCT1SZOT2DFI02L4OC","","img/set1/S2.jpg","68","2","structured_incentive","68","structured_incentive,structured_normal,structured_load,random","2,3,4,2,1,2","1,3,4,2","true","","",""
"null","","html-keyboard-response","341","260707","0.0-341.0","3WJEQKOXA9O7MT0BM05BS3KW77V1AI","A1GRPIBHW72HDU","3URJ6VVYUP9BUCT1SZOT2DFI02L4OC","","<img src=""img/set1/S2.jpg"" width=""540"" height = ""360"" style=""border:16px solid orange"">","null","","","","","","","","","",""
"null","","html-keyboard-response","342","260918","0.0-342.0","3WJEQKOXA9O7MT0BM05BS3KW77V1AI","A1GRPIBHW72HDU","3URJ6VVYUP9BUCT1SZOT2DFI02L4OC","","","null","","","","","","","","","",""
"653","","image-keyboard-response","343","261573","0.0-343.0","3WJEQKOXA9O7MT0BM05BS3KW77V1AI","A1GRPIBHW72HDU","3URJ6VVYUP9BUCT1SZOT2DFI02L4OC","","img/set1/S4.jpg","74","4","structured_incentive","74","structured_incentive,structured_normal,structured_load,random","2,3,4,2,1,2","1,3,4,2","true","","",""
"null","","html-keyboard-response","344","261938","0.0-344.0","3WJEQKOXA9O7MT0BM05BS3KW77V1AI","A1GRPIBHW72HDU","3URJ6VVYUP9BUCT1SZOT2DFI02L4OC","","<img src=""img/set1/S4.jpg"" width=""540"" height = ""360"" style=""border:16px solid Violet"">","null","","","","","","","","","",""
"null","","html-keyboard-response","345","262144","0.0-345.0","3WJEQKOXA9O7MT0BM05BS3KW77V1AI","A1GRPIBHW72HDU","3URJ6VVYUP9BUCT1SZOT2DFI02L4OC","","","null","","","","","","","","","",""
"384","","image-keyboard-response","346","262529","0.0-346.0","3WJEQKOXA9O7MT0BM05BS3KW77V1AI","A1GRPIBHW72HDU","3URJ6VVYUP9BUCT1SZOT2DFI02L4OC","","img/set1/S4.jpg","74","4","structured_incentive","74","structured_incentive,structured_normal,structured_load,random","2,3,4,2,1,2","1,3,4,2","true","","",""
"null","","html-keyboard-response","347","262898","0.0-347.0","3WJEQKOXA9O7MT0BM05BS3KW77V1AI","A1GRPIBHW72HDU","3URJ6VVYUP9BUCT1SZOT2DFI02L4OC","","<img src=""img/set1/S4.jpg"" width=""540"" height = ""360"" style=""border:16px solid Violet"">","null","","","","","","","","","",""
"null","","html-keyboard-response","348","263099","0.0-348.0","3WJEQKOXA9O7MT0BM05BS3KW77V1AI","A1GRPIBHW72HDU","3URJ6VVYUP9BUCT1SZOT2DFI02L4OC","","","null","","","","","","","","","",""
"1289","","image-keyboard-response","349","264391","0.0-349.0","3WJEQKOXA9O7MT0BM05BS3KW77V1AI","A1GRPIBHW72HDU","3URJ6VVYUP9BUCT1SZOT2DFI02L4OC","","img/set1/S2.jpg","68","2","structured_incentive","68","structured_incentive,structured_normal,structured_load,random","2,3,4,2,1,2","1,3,4,2","true","","",""
"null","","html-keyboard-response","350","264758","0.0-350.0","3WJEQKOXA9O7MT0BM05BS3KW77V1AI","A1GRPIBHW72HDU","3URJ6VVYUP9BUCT1SZOT2DFI02L4OC","","<img src=""img/set1/S2.jpg"" width=""540"" height = ""360"" style=""border:16px solid orange"">","null","","","","","","","","","",""
"null","","html-keyboard-response","351","264967","0.0-351.0","3WJEQKOXA9O7MT0BM05BS3KW77V1AI","A1GRPIBHW72HDU","3URJ6VVYUP9BUCT1SZOT2DFI02L4OC","","","null","","","","","","","","","",""
"760","","image-keyboard-response","352","265730","0.0-352.0","3WJEQKOXA9O7MT0BM05BS3KW77V1AI","A1GRPIBHW72HDU","3URJ6VVYUP9BUCT1SZOT2DFI02L4OC","","img/set1/S3.jpg","72","3","structured_incentive","72","structured_incentive,structured_normal,structured_load,random","2,3,4,2,1,2","1,3,4,2","true","","",""
"null","","html-keyboard-response","353","266088","0.0-353.0","3WJEQKOXA9O7MT0BM05BS3KW77V1AI","A1GRPIBHW72HDU","3URJ6VVYUP9BUCT1SZOT2DFI02L4OC","","<img src=""img/set1/S3.jpg"" width=""540"" height = ""360"" style=""border:16px solid orange"">","null","","","","","","","","","",""
"null","","html-keyboard-response","354","266298","0.0-354.0","3WJEQKOXA9O7MT0BM05BS3KW77V1AI","A1GRPIBHW72HDU","3URJ6VVYUP9BUCT1SZOT2DFI02L4OC","","","null","","","","","","","","","",""
"693","","image-keyboard-response","355","266992","0.0-355.0","3WJEQKOXA9O7MT0BM05BS3KW77V1AI","A1GRPIBHW72HDU","3URJ6VVYUP9BUCT1SZOT2DFI02L4OC","","img/set1/S1.jpg","83","1","structured_incentive","83","structured_incentive,structured_normal,structured_load,random","2,3,4,2,1,2","1,3,4,2","true","","",""
"null","","html-keyboard-response","356","267348","0.0-356.0","3WJEQKOXA9O7MT0BM05BS3KW77V1AI","A1GRPIBHW72HDU","3URJ6VVYUP9BUCT1SZOT2DFI02L4OC","","<img src=""img/set1/S1.jpg"" width=""540"" height = ""360"" style=""border:16px solid orange"">","null","","","","","","","","","",""
"null","","html-keyboard-response","357","267568","0.0-357.0","3WJEQKOXA9O7MT0BM05BS3KW77V1AI","A1GRPIBHW72HDU","3URJ6VVYUP9BUCT1SZOT2DFI02L4OC","","","null","","","","","","","","","",""
"944","","image-keyboard-response","358","268514","0.0-358.0","3WJEQKOXA9O7MT0BM05BS3KW77V1AI","A1GRPIBHW72HDU","3URJ6VVYUP9BUCT1SZOT2DFI02L4OC","","img/set1/S2.jpg","72","2","structured_incentive","68","structured_incentive,structured_normal,structured_load,random","2,3,4,2,1,2","1,3,4,2","false","","",""
"null","","html-keyboard-response","359","268867","0.0-359.0","3WJEQKOXA9O7MT0BM05BS3KW77V1AI","A1GRPIBHW72HDU","3URJ6VVYUP9BUCT1SZOT2DFI02L4OC","","<img src=""img/set1/S2.jpg"" width=""540"" height = ""360"">","null","","","","","","","","","",""
"null","","html-keyboard-response","360","269080","0.0-360.0","3WJEQKOXA9O7MT0BM05BS3KW77V1AI","A1GRPIBHW72HDU","3URJ6VVYUP9BUCT1SZOT2DFI02L4OC","","","null","","","","","","","","","",""
"1164","","image-keyboard-response","361","270247","0.0-361.0","3WJEQKOXA9O7MT0BM05BS3KW77V1AI","A1GRPIBHW72HDU","3URJ6VVYUP9BUCT1SZOT2DFI02L4OC","","img/set1/S3.jpg","72","3","structured_incentive","72","structured_incentive,structured_normal,structured_load,random","2,3,4,2,1,2","1,3,4,2","true","","",""
"null","","html-keyboard-response","362","270618","0.0-362.0","3WJEQKOXA9O7MT0BM05BS3KW77V1AI","A1GRPIBHW72HDU","3URJ6VVYUP9BUCT1SZOT2DFI02L4OC","","<img src=""img/set1/S3.jpg"" width=""540"" height = ""360"" style=""border:16px solid orange"">","null","","","","","","","","","",""
"null","","html-keyboard-response","363","270829","0.0-363.0","3WJEQKOXA9O7MT0BM05BS3KW77V1AI","A1GRPIBHW72HDU","3URJ6VVYUP9BUCT1SZOT2DFI02L4OC","","","null","","","","","","","","","",""
"625","","image-keyboard-response","364","271455","0.0-364.0","3WJEQKOXA9O7MT0BM05BS3KW77V1AI","A1GRPIBHW72HDU","3URJ6VVYUP9BUCT1SZOT2DFI02L4OC","","img/set1/S4.jpg","74","4","structured_incentive","74","structured_incentive,structured_normal,structured_load,random","2,3,4,2,1,2","1,3,4,2","true","","",""
"null","","html-keyboard-response","365","271817","0.0-365.0","3WJEQKOXA9O7MT0BM05BS3KW77V1AI","A1GRPIBHW72HDU","3URJ6VVYUP9BUCT1SZOT2DFI02L4OC","","<img src=""img/set1/S4.jpg"" width=""540"" height = ""360"" style=""border:16px solid Violet"">","null","","","","","","","","","",""
"null","","html-keyboard-response","366","272028","0.0-366.0","3WJEQKOXA9O7MT0BM05BS3KW77V1AI","A1GRPIBHW72HDU","3URJ6VVYUP9BUCT1SZOT2DFI02L4OC","","","null","","","","","","","","","",""
"403","","image-keyboard-response","367","272433","0.0-367.0","3WJEQKOXA9O7MT0BM05BS3KW77V1AI","A1GRPIBHW72HDU","3URJ6VVYUP9BUCT1SZOT2DFI02L4OC","","img/set1/S4.jpg","74","4","structured_incentive","74","structured_incentive,structured_normal,structured_load,random","2,3,4,2,1,2","1,3,4,2","true","","",""
"null","","html-keyboard-response","368","272798","0.0-368.0","3WJEQKOXA9O7MT0BM05BS3KW77V1AI","A1GRPIBHW72HDU","3URJ6VVYUP9BUCT1SZOT2DFI02L4OC","","<img src=""img/set1/S4.jpg"" width=""540"" height = ""360"" style=""border:16px solid Violet"">","null","","","","","","","","","",""
"null","","html-keyboard-response","369","273018","0.0-369.0","3WJEQKOXA9O7MT0BM05BS3KW77V1AI","A1GRPIBHW72HDU","3URJ6VVYUP9BUCT1SZOT2DFI02L4OC","","","null","","","","","","","","","",""
"623","","image-keyboard-response","370","273643","0.0-370.0","3WJEQKOXA9O7MT0BM05BS3KW77V1AI","A1GRPIBHW72HDU","3URJ6VVYUP9BUCT1SZOT2DFI02L4OC","","img/set1/S1.jpg","83","1","structured_incentive","83","structured_incentive,structured_normal,structured_load,random","2,3,4,2,1,2","1,3,4,2","true","","",""
"null","","html-keyboard-response","371","273998","0.0-371.0","3WJEQKOXA9O7MT0BM05BS3KW77V1AI","A1GRPIBHW72HDU","3URJ6VVYUP9BUCT1SZOT2DFI02L4OC","","<img src=""img/set1/S1.jpg"" width=""540"" height = ""360"" style=""border:16px solid orange"">","null","","","","","","","","","",""
"null","","html-keyboard-response","372","274218","0.0-372.0","3WJEQKOXA9O7MT0BM05BS3KW77V1AI","A1GRPIBHW72HDU","3URJ6VVYUP9BUCT1SZOT2DFI02L4OC","","","null","","","","","","","","","",""
"1141","","image-keyboard-response","373","275361","0.0-373.0","3WJEQKOXA9O7MT0BM05BS3KW77V1AI","A1GRPIBHW72HDU","3URJ6VVYUP9BUCT1SZOT2DFI02L4OC","","img/set1/S2.jpg","68","2","structured_incentive","68","structured_incentive,structured_normal,structured_load,random","2,3,4,2,1,2","1,3,4,2","true","","",""
"null","","html-keyboard-response","374","275728","0.0-374.0","3WJEQKOXA9O7MT0BM05BS3KW77V1AI","A1GRPIBHW72HDU","3URJ6VVYUP9BUCT1SZOT2DFI02L4OC","","<img src=""img/set1/S2.jpg"" width=""540"" height = ""360"" style=""border:16px solid orange"">","null","","","","","","","","","",""
"null","","html-keyboard-response","375","275939","0.0-375.0","3WJEQKOXA9O7MT0BM05BS3KW77V1AI","A1GRPIBHW72HDU","3URJ6VVYUP9BUCT1SZOT2DFI02L4OC","","","null","","","","","","","","","",""
"649","","image-keyboard-response","376","276589","0.0-376.0","3WJEQKOXA9O7MT0BM05BS3KW77V1AI","A1GRPIBHW72HDU","3URJ6VVYUP9BUCT1SZOT2DFI02L4OC","","img/set1/S3.jpg","72","3","structured_incentive","72","structured_incentive,structured_normal,structured_load,random","2,3,4,2,1,2","1,3,4,2","true","","",""
"null","","html-keyboard-response","377","276948","0.0-377.0","3WJEQKOXA9O7MT0BM05BS3KW77V1AI","A1GRPIBHW72HDU","3URJ6VVYUP9BUCT1SZOT2DFI02L4OC","","<img src=""img/set1/S3.jpg"" width=""540"" height = ""360"" style=""border:16px solid orange"">","null","","","","","","","","","",""
"null","","html-keyboard-response","378","277161","0.0-378.0","3WJEQKOXA9O7MT0BM05BS3KW77V1AI","A1GRPIBHW72HDU","3URJ6VVYUP9BUCT1SZOT2DFI02L4OC","","","null","","","","","","","","","",""
"833","","image-keyboard-response","379","277996","0.0-379.0","3WJEQKOXA9O7MT0BM05BS3KW77V1AI","A1GRPIBHW72HDU","3URJ6VVYUP9BUCT1SZOT2DFI02L4OC","","img/set1/S2.jpg","68","2","structured_incentive","68","structured_incentive,structured_normal,structured_load,random","2,3,4,2,1,2","1,3,4,2","true","","",""
"null","","html-keyboard-response","380","278358","0.0-380.0","3WJEQKOXA9O7MT0BM05BS3KW77V1AI","A1GRPIBHW72HDU","3URJ6VVYUP9BUCT1SZOT2DFI02L4OC","","<img src=""img/set1/S2.jpg"" width=""540"" height = ""360"" style=""border:16px solid orange"">","null","","","","","","","","","",""
"null","","html-keyboard-response","381","278560","0.0-381.0","3WJEQKOXA9O7MT0BM05BS3KW77V1AI","A1GRPIBHW72HDU","3URJ6VVYUP9BUCT1SZOT2DFI02L4OC","","","null","","","","","","","","","",""
"626","","image-keyboard-response","382","279188","0.0-382.0","3WJEQKOXA9O7MT0BM05BS3KW77V1AI","A1GRPIBHW72HDU","3URJ6VVYUP9BUCT1SZOT2DFI02L4OC","","img/set1/S3.jpg","72","3","structured_incentive","72","structured_incentive,structured_normal,structured_load,random","2,3,4,2,1,2","1,3,4,2","true","","",""
"null","","html-keyboard-response","383","279548","0.0-383.0","3WJEQKOXA9O7MT0BM05BS3KW77V1AI","A1GRPIBHW72HDU","3URJ6VVYUP9BUCT1SZOT2DFI02L4OC","","<img src=""img/set1/S3.jpg"" width=""540"" height = ""360"" style=""border:16px solid orange"">","null","","","","","","","","","",""
"null","","html-keyboard-response","384","279760","0.0-384.0","3WJEQKOXA9O7MT0BM05BS3KW77V1AI","A1GRPIBHW72HDU","3URJ6VVYUP9BUCT1SZOT2DFI02L4OC","","","null","","","","","","","","","",""
