"rt","url","trial_type","trial_index","time_elapsed","internal_node_id","view_history","stimulus","key_press","state","test_part","correct_response","order_block","order_chunk","correct","responses","bonus"
"6483.400000095367","consent.html","external-html","0","6730","0.0-0.0","","","","","","","","","","",""
"11351.699999809265","","instructions","1","18084","0.0-1.0","[{""page_index"":0,""viewing_time"":1587.2999997138977},{""page_index"":1,""viewing_time"":859.9000000953674},{""page_index"":2,""viewing_time"":846.5},{""page_index"":3,""viewing_time"":3811.0999999046326},{""page_index"":4,""viewing_time"":1279.2000002861023},{""page_index"":5,""viewing_time"":1593},{""page_index"":6,""viewing_time"":1373.3999996185303}]","","","","","","","","","",""
"1645.7000002861023","","instructions","2","19731","0.0-2.0","[{""page_index"":0,""viewing_time"":1645.0999999046326}]","","","","","","","","","",""
"1406.8000001907349","","instructions","3","21139","0.0-3.0","[{""page_index"":0,""viewing_time"":1406.3000001907349}]","","","","","","","","","",""
"1831","","image-keyboard-response","4","22973","0.0-4.0","","img/set1/S2.jpg","83","2","random","68","random,structured_normal,structured_load,structured_incentive","2,3,2,1,3,4","false","",""
"null","","html-keyboard-response","5","23332","0.0-5.0","","<img src=""img/set1/S2.jpg"" width=""540"" height = ""360"">","null","","","","","","","",""
"null","","html-keyboard-response","6","23537","0.0-6.0","","","null","","","","","","","",""
"7.599999904632568","","image-keyboard-response","7","23546","0.0-7.0","","img/set1/S2.jpg","68","2","random","68","random,structured_normal,structured_load,structured_incentive","2,3,2,1,3,4","true","",""
"null","","html-keyboard-response","8","23918","0.0-8.0","","<img src=""img/set1/S2.jpg"" width=""540"" height = ""360"" style=""border:16px solid orange"">","null","","","","","","","",""
"null","","html-keyboard-response","9","24123","0.0-9.0","","","null","","","","","","","",""
"61.80000019073486","","image-keyboard-response","10","24187","0.0-10.0","","img/set1/S2.jpg","68","2","random","68","random,structured_normal,structured_load,structured_incentive","2,3,2,1,3,4","true","",""
"null","","html-keyboard-response","11","24541","0.0-11.0","","<img src=""img/set1/S2.jpg"" width=""540"" height = ""360"" style=""border:16px solid orange"">","null","","","","","","","",""
"null","","html-keyboard-response","12","24754","0.0-12.0","","","null","","","","","","","",""
"96.90000009536743","","image-keyboard-response","13","24852","0.0-13.0","","img/set1/S1.jpg","68","1","random","83","random,structured_normal,structured_load,structured_incentive","2,3,2,1,3,4","false","",""
"null","","html-keyboard-response","14","25214","0.0-14.0","","<img src=""img/set1/S1.jpg"" width=""540"" height = ""360"">","null","","","","","","","",""
"null","","html-keyboard-response","15","25425","0.0-15.0","","","null","","","","","","","",""
"271.59999990463257","","image-keyboard-response","16","25697","0.0-16.0","","img/set1/S3.jpg","68","3","random","72","random,structured_normal,structured_load,structured_incentive","2,3,2,1,3,4","false","",""
"null","","html-keyboard-response","17","26054","0.0-17.0","","<img src=""img/set1/S3.jpg"" width=""540"" height = ""360"">","null","","","","","","","",""
"null","","html-keyboard-response","18","26256","0.0-18.0","","","null","","","","","","","",""
"264.09999990463257","","image-keyboard-response","19","26521","0.0-19.0","","img/set1/S3.jpg","68","3","random","72","random,structured_normal,structured_load,structured_incentive","2,3,2,1,3,4","false","",""
"null","","html-keyboard-response","20","26874","0.0-20.0","","<img src=""img/set1/S3.jpg"" width=""540"" height = ""360"">","null","","","","","","","",""
"null","","html-keyboard-response","21","27085","0.0-21.0","","","null","","","","","","","",""
"300.69999980926514","","image-keyboard-response","22","27387","0.0-22.0","","img/set1/S1.jpg","83","1","random","83","random,structured_normal,structured_load,structured_incentive","2,3,2,1,3,4","true","",""
"null","","html-keyboard-response","23","27751","0.0-23.0","","<img src=""img/set1/S1.jpg"" width=""540"" height = ""360"" style=""border:16px solid orange"">","null","","","","","","","",""
"null","","html-keyboard-response","24","27966","0.0-24.0","","","null","","","","","","","",""
"316.7000002861023","","image-keyboard-response","25","28284","0.0-25.0","","img/set1/S3.jpg","72","3","random","72","random,structured_normal,structured_load,structured_incentive","2,3,2,1,3,4","true","",""
"null","","html-keyboard-response","26","28638","0.0-26.0","","<img src=""img/set1/S3.jpg"" width=""540"" height = ""360"" style=""border:16px solid orange"">","null","","","","","","","",""
"null","","html-keyboard-response","27","28851","0.0-27.0","","","null","","","","","","","",""
"8.400000095367432","","image-keyboard-response","28","28861","0.0-28.0","","img/set1/S2.jpg","74","2","random","68","random,structured_normal,structured_load,structured_incentive","2,3,2,1,3,4","false","",""
"null","","html-keyboard-response","29","29217","0.0-29.0","","<img src=""img/set1/S2.jpg"" width=""540"" height = ""360"">","null","","","","","","","",""
"null","","html-keyboard-response","30","29431","0.0-30.0","","","null","","","","","","","",""
"203.2999997138977","","image-keyboard-response","31","29635","0.0-31.0","","img/set1/S2.jpg","74","2","random","68","random,structured_normal,structured_load,structured_incentive","2,3,2,1,3,4","false","",""
"null","","html-keyboard-response","32","29995","0.0-32.0","","<img src=""img/set1/S2.jpg"" width=""540"" height = ""360"">","null","","","","","","","",""
"null","","html-keyboard-response","33","30204","0.0-33.0","","","null","","","","","","","",""
"194.40000009536743","","image-keyboard-response","34","30400","0.0-34.0","","img/set1/S3.jpg","74","3","random","72","random,structured_normal,structured_load,structured_incentive","2,3,2,1,3,4","false","",""
"null","","html-keyboard-response","35","30767","0.0-35.0","","<img src=""img/set1/S3.jpg"" width=""540"" height = ""360"">","null","","","","","","","",""
"null","","html-keyboard-response","36","30981","0.0-36.0","","","null","","","","","","","",""
"171.7000002861023","","image-keyboard-response","37","31154","0.0-37.0","","img/set1/S3.jpg","74","3","random","72","random,structured_normal,structured_load,structured_incentive","2,3,2,1,3,4","false","",""
"null","","html-keyboard-response","38","31519","0.0-38.0","","<img src=""img/set1/S3.jpg"" width=""540"" height = ""360"">","null","","","","","","","",""
"null","","html-keyboard-response","39","31733","0.0-39.0","","","null","","","","","","","",""
"130.59999990463257","","image-keyboard-response","40","31865","0.0-40.0","","img/set1/S3.jpg","72","3","random","72","random,structured_normal,structured_load,structured_incentive","2,3,2,1,3,4","true","",""
"null","","html-keyboard-response","41","32232","0.0-41.0","","<img src=""img/set1/S3.jpg"" width=""540"" height = ""360"" style=""border:16px solid orange"">","null","","","","","","","",""
"null","","html-keyboard-response","42","32434","0.0-42.0","","","null","","","","","","","",""
"129.40000009536743","","image-keyboard-response","43","32565","0.0-43.0","","img/set1/S4.jpg","74","4","random","74","random,structured_normal,structured_load,structured_incentive","2,3,2,1,3,4","true","",""
"null","","html-keyboard-response","44","32917","0.0-44.0","","<img src=""img/set1/S4.jpg"" width=""540"" height = ""360"" style=""border:16px solid orange"">","null","","","","","","","",""
"null","","html-keyboard-response","45","33133","0.0-45.0","","","null","","","","","","","",""
"42.19999980926514","","image-keyboard-response","46","33177","0.0-46.0","","img/set1/S1.jpg","68","1","random","83","random,structured_normal,structured_load,structured_incentive","2,3,2,1,3,4","false","",""
"null","","html-keyboard-response","47","33533","0.0-47.0","","<img src=""img/set1/S1.jpg"" width=""540"" height = ""360"">","null","","","","","","","",""
"null","","html-keyboard-response","48","33736","0.0-48.0","","","null","","","","","","","",""
"98.90000009536743","","image-keyboard-response","49","33836","0.0-49.0","","img/set1/S1.jpg","68","1","random","83","random,structured_normal,structured_load,structured_incentive","2,3,2,1,3,4","false","",""
"null","","html-keyboard-response","50","34194","0.0-50.0","","<img src=""img/set1/S1.jpg"" width=""540"" height = ""360"">","null","","","","","","","",""
"null","","html-keyboard-response","51","34400","0.0-51.0","","","null","","","","","","","",""
"131.19999980926514","","image-keyboard-response","52","34532","0.0-52.0","","img/set1/S2.jpg","68","2","random","68","random,structured_normal,structured_load,structured_incentive","2,3,2,1,3,4","true","",""
"null","","html-keyboard-response","53","34888","0.0-53.0","","<img src=""img/set1/S2.jpg"" width=""540"" height = ""360"" style=""border:16px solid orange"">","null","","","","","","","",""
"null","","html-keyboard-response","54","35092","0.0-54.0","","","null","","","","","","","",""
"138.19999980926514","","image-keyboard-response","55","35232","0.0-55.0","","img/set1/S4.jpg","83","4","random","74","random,structured_normal,structured_load,structured_incentive","2,3,2,1,3,4","false","",""
"null","","html-keyboard-response","56","35591","0.0-56.0","","<img src=""img/set1/S4.jpg"" width=""540"" height = ""360"">","null","","","","","","","",""
"null","","html-keyboard-response","57","35793","0.0-57.0","","","null","","","","","","","",""
"54.40000009536743","","image-keyboard-response","58","35849","0.0-58.0","","img/set1/S2.jpg","74","2","random","68","random,structured_normal,structured_load,structured_incentive","2,3,2,1,3,4","false","",""
"null","","html-keyboard-response","59","36202","0.0-59.0","","<img src=""img/set1/S2.jpg"" width=""540"" height = ""360"">","null","","","","","","","",""
"null","","html-keyboard-response","60","36407","0.0-60.0","","","null","","","","","","","",""
"0.20000028610229492","","image-keyboard-response","61","36408","0.0-61.0","","img/set1/S4.jpg","72","4","random","74","random,structured_normal,structured_load,structured_incentive","2,3,2,1,3,4","false","",""
"null","","html-keyboard-response","62","36762","0.0-62.0","","<img src=""img/set1/S4.jpg"" width=""540"" height = ""360"">","null","","","","","","","",""
"null","","html-keyboard-response","63","36965","0.0-63.0","","","null","","","","","","","",""
"112.40000009536743","","image-keyboard-response","64","37079","0.0-64.0","","img/set1/S2.jpg","72","2","random","68","random,structured_normal,structured_load,structured_incentive","2,3,2,1,3,4","false","",""
"null","","html-keyboard-response","65","37446","0.0-65.0","","<img src=""img/set1/S2.jpg"" width=""540"" height = ""360"">","null","","","","","","","",""
"null","","html-keyboard-response","66","37651","0.0-66.0","","","null","","","","","","","",""
"196.69999980926514","","image-keyboard-response","67","37849","0.0-67.0","","img/set1/S3.jpg","72","3","random","72","random,structured_normal,structured_load,structured_incentive","2,3,2,1,3,4","true","",""
"null","","html-keyboard-response","68","38204","0.0-68.0","","<img src=""img/set1/S3.jpg"" width=""540"" height = ""360"" style=""border:16px solid orange"">","null","","","","","","","",""
"null","","html-keyboard-response","69","38413","0.0-69.0","","","null","","","","","","","",""
"147.40000009536743","","image-keyboard-response","70","38564","0.0-70.0","","img/set1/S3.jpg","74","3","random","72","random,structured_normal,structured_load,structured_incentive","2,3,2,1,3,4","false","",""
"null","","html-keyboard-response","71","38920","0.0-71.0","","<img src=""img/set1/S3.jpg"" width=""540"" height = ""360"">","null","","","","","","","",""
"null","","html-keyboard-response","72","39132","0.0-72.0","","","null","","","","","","","",""
"31.699999809265137","","image-keyboard-response","73","39167","0.0-73.0","","img/set1/S1.jpg","74","1","random","83","random,structured_normal,structured_load,structured_incentive","2,3,2,1,3,4","false","",""
"null","","html-keyboard-response","74","39524","0.0-74.0","","<img src=""img/set1/S1.jpg"" width=""540"" height = ""360"">","null","","","","","","","",""
"null","","html-keyboard-response","75","39741","0.0-75.0","","","null","","","","","","","",""
"95.40000009536743","","image-keyboard-response","76","39837","0.0-76.0","","img/set1/S2.jpg","68","2","random","68","random,structured_normal,structured_load,structured_incentive","2,3,2,1,3,4","true","",""
"null","","html-keyboard-response","77","40193","0.0-77.0","","<img src=""img/set1/S2.jpg"" width=""540"" height = ""360"" style=""border:16px solid orange"">","null","","","","","","","",""
"null","","html-keyboard-response","78","40400","0.0-78.0","","","null","","","","","","","",""
"26.90000009536743","","image-keyboard-response","79","40430","0.0-79.0","","img/set1/S3.jpg","83","3","random","72","random,structured_normal,structured_load,structured_incentive","2,3,2,1,3,4","false","",""
"null","","html-keyboard-response","80","40782","0.0-80.0","","<img src=""img/set1/S3.jpg"" width=""540"" height = ""360"">","null","","","","","","","",""
"null","","html-keyboard-response","81","40997","0.0-81.0","","","null","","","","","","","",""
"37.40000009536743","","image-keyboard-response","82","41035","0.0-82.0","","img/set1/S2.jpg","83","2","random","68","random,structured_normal,structured_load,structured_incentive","2,3,2,1,3,4","false","",""
"null","","html-keyboard-response","83","41393","0.0-83.0","","<img src=""img/set1/S2.jpg"" width=""540"" height = ""360"">","null","","","","","","","",""
"null","","html-keyboard-response","84","41599","0.0-84.0","","","null","","","","","","","",""
"88.2000002861023","","image-keyboard-response","85","41689","0.0-85.0","","img/set1/S2.jpg","68","2","random","68","random,structured_normal,structured_load,structured_incentive","2,3,2,1,3,4","true","",""
"null","","html-keyboard-response","86","42044","0.0-86.0","","<img src=""img/set1/S2.jpg"" width=""540"" height = ""360"" style=""border:16px solid orange"">","null","","","","","","","",""
"null","","html-keyboard-response","87","42251","0.0-87.0","","","null","","","","","","","",""
"52.200000286102295","","image-keyboard-response","88","42304","0.0-88.0","","img/set1/S4.jpg","72","4","random","74","random,structured_normal,structured_load,structured_incentive","2,3,2,1,3,4","false","",""
"null","","html-keyboard-response","89","42657","0.0-89.0","","<img src=""img/set1/S4.jpg"" width=""540"" height = ""360"">","null","","","","","","","",""
"null","","html-keyboard-response","90","42858","0.0-90.0","","","null","","","","","","","",""
"72.90000009536743","","image-keyboard-response","91","42934","0.0-91.0","","img/set1/S4.jpg","74","4","random","74","random,structured_normal,structured_load,structured_incentive","2,3,2,1,3,4","true","",""
"null","","html-keyboard-response","92","43294","0.0-92.0","","<img src=""img/set1/S4.jpg"" width=""540"" height = ""360"" style=""border:16px solid orange"">","null","","","","","","","",""
"null","","html-keyboard-response","93","43502","0.0-93.0","","","null","","","","","","","",""
"19","","image-keyboard-response","94","43522","0.0-94.0","","img/set1/S2.jpg","72","2","random","68","random,structured_normal,structured_load,structured_incentive","2,3,2,1,3,4","false","",""
"null","","html-keyboard-response","95","43884","0.0-95.0","","<img src=""img/set1/S2.jpg"" width=""540"" height = ""360"">","null","","","","","","","",""
"null","","html-keyboard-response","96","44100","0.0-96.0","","","null","","","","","","","",""
"15.400000095367432","","image-keyboard-response","97","44117","0.0-97.0","","img/set1/S4.jpg","72","4","random","74","random,structured_normal,structured_load,structured_incentive","2,3,2,1,3,4","false","",""
"null","","html-keyboard-response","98","44481","0.0-98.0","","<img src=""img/set1/S4.jpg"" width=""540"" height = ""360"">","null","","","","","","","",""
"null","","html-keyboard-response","99","44697","0.0-99.0","","","null","","","","","","","",""
"51.69999980926514","","image-keyboard-response","100","44749","0.0-100.0","","img/set1/S4.jpg","74","4","random","74","random,structured_normal,structured_load,structured_incentive","2,3,2,1,3,4","true","",""
"null","","html-keyboard-response","101","45103","0.0-101.0","","<img src=""img/set1/S4.jpg"" width=""540"" height = ""360"" style=""border:16px solid orange"">","null","","","","","","","",""
"null","","html-keyboard-response","102","45319","0.0-102.0","","","null","","","","","","","",""
"13.399999618530273","","image-keyboard-response","103","45334","0.0-103.0","","img/set1/S4.jpg","74","4","random","74","random,structured_normal,structured_load,structured_incentive","2,3,2,1,3,4","true","",""
"null","","html-keyboard-response","104","45698","0.0-104.0","","<img src=""img/set1/S4.jpg"" width=""540"" height = ""360"" style=""border:16px solid orange"">","null","","","","","","","",""
"null","","html-keyboard-response","105","45908","0.0-105.0","","","null","","","","","","","",""
"54.39999961853027","","image-keyboard-response","106","45964","0.0-106.0","","img/set1/S2.jpg","72","2","random","68","random,structured_normal,structured_load,structured_incentive","2,3,2,1,3,4","false","",""
"null","","html-keyboard-response","107","46316","0.0-107.0","","<img src=""img/set1/S2.jpg"" width=""540"" height = ""360"">","null","","","","","","","",""
"null","","html-keyboard-response","108","46518","0.0-108.0","","","null","","","","","","","",""
"67.40000009536743","","image-keyboard-response","109","46587","0.0-109.0","","img/set1/S1.jpg","72","1","random","83","random,structured_normal,structured_load,structured_incentive","2,3,2,1,3,4","false","",""
"null","","html-keyboard-response","110","46939","0.0-110.0","","<img src=""img/set1/S1.jpg"" width=""540"" height = ""360"">","null","","","","","","","",""
"null","","html-keyboard-response","111","47141","0.0-111.0","","","null","","","","","","","",""
"79.69999980926514","","image-keyboard-response","112","47222","0.0-112.0","","img/set1/S2.jpg","83","2","random","68","random,structured_normal,structured_load,structured_incentive","2,3,2,1,3,4","false","",""
"null","","html-keyboard-response","113","47584","0.0-113.0","","<img src=""img/set1/S2.jpg"" width=""540"" height = ""360"">","null","","","","","","","",""
"null","","html-keyboard-response","114","47785","0.0-114.0","","","null","","","","","","","",""
"85.7999997138977","","image-keyboard-response","115","47873","0.0-115.0","","img/set1/S1.jpg","83","1","random","83","random,structured_normal,structured_load,structured_incentive","2,3,2,1,3,4","true","",""
"null","","html-keyboard-response","116","48229","0.0-116.0","","<img src=""img/set1/S1.jpg"" width=""540"" height = ""360"" style=""border:16px solid orange"">","null","","","","","","","",""
"null","","html-keyboard-response","117","48446","0.0-117.0","","","null","","","","","","","",""
"78.09999990463257","","image-keyboard-response","118","48525","0.0-118.0","","img/set1/S2.jpg","74","2","random","68","random,structured_normal,structured_load,structured_incentive","2,3,2,1,3,4","false","",""
"null","","html-keyboard-response","119","48886","0.0-119.0","","<img src=""img/set1/S2.jpg"" width=""540"" height = ""360"">","null","","","","","","","",""
"null","","html-keyboard-response","120","49088","0.0-120.0","","","null","","","","","","","",""
"110.80000019073486","","image-keyboard-response","121","49200","0.0-121.0","","img/set1/S1.jpg","68","1","random","83","random,structured_normal,structured_load,structured_incentive","2,3,2,1,3,4","false","",""
"null","","html-keyboard-response","122","49564","0.0-122.0","","<img src=""img/set1/S1.jpg"" width=""540"" height = ""360"">","null","","","","","","","",""
"null","","html-keyboard-response","123","49779","0.0-123.0","","","null","","","","","","","",""
"64.80000019073486","","image-keyboard-response","124","49846","0.0-124.0","","img/set1/S1.jpg","68","1","random","83","random,structured_normal,structured_load,structured_incentive","2,3,2,1,3,4","false","",""
"null","","html-keyboard-response","125","50200","0.0-125.0","","<img src=""img/set1/S1.jpg"" width=""540"" height = ""360"">","null","","","","","","","",""
"null","","html-keyboard-response","126","50414","0.0-126.0","","","null","","","","","","","",""
"100.09999990463257","","image-keyboard-response","127","50516","0.0-127.0","","img/set1/S4.jpg","74","4","random","74","random,structured_normal,structured_load,structured_incentive","2,3,2,1,3,4","true","",""
"null","","html-keyboard-response","128","50872","0.0-128.0","","<img src=""img/set1/S4.jpg"" width=""540"" height = ""360"" style=""border:16px solid orange"">","null","","","","","","","",""
"null","","html-keyboard-response","129","51074","0.0-129.0","","","null","","","","","","","",""
"92.60000038146973","","image-keyboard-response","130","51175","0.0-130.0","","img/set1/S1.jpg","74","1","random","83","random,structured_normal,structured_load,structured_incentive","2,3,2,1,3,4","false","",""
"null","","html-keyboard-response","131","51534","0.0-131.0","","<img src=""img/set1/S1.jpg"" width=""540"" height = ""360"">","null","","","","","","","",""
"null","","html-keyboard-response","132","51749","0.0-132.0","","","null","","","","","","","",""
"92.69999980926514","","image-keyboard-response","133","51843","0.0-133.0","","img/set1/S4.jpg","68","4","random","74","random,structured_normal,structured_load,structured_incentive","2,3,2,1,3,4","false","",""
"null","","html-keyboard-response","134","52206","0.0-134.0","","<img src=""img/set1/S4.jpg"" width=""540"" height = ""360"">","null","","","","","","","",""
"null","","html-keyboard-response","135","52408","0.0-135.0","","","null","","","","","","","",""
"18.40000009536743","","image-keyboard-response","136","52428","0.0-136.0","","img/set1/S3.jpg","68","3","random","72","random,structured_normal,structured_load,structured_incentive","2,3,2,1,3,4","false","",""
"null","","html-keyboard-response","137","52787","0.0-137.0","","<img src=""img/set1/S3.jpg"" width=""540"" height = ""360"">","null","","","","","","","",""
"null","","html-keyboard-response","138","52989","0.0-138.0","","","null","","","","","","","",""
"18","","image-keyboard-response","139","53009","0.0-139.0","","img/set1/S3.jpg","74","3","random","72","random,structured_normal,structured_load,structured_incentive","2,3,2,1,3,4","false","",""
"null","","html-keyboard-response","140","53368","0.0-140.0","","<img src=""img/set1/S3.jpg"" width=""540"" height = ""360"">","null","","","","","","","",""
"null","","html-keyboard-response","141","53580","0.0-141.0","","","null","","","","","","","",""
"38.80000019073486","","image-keyboard-response","142","53620","0.0-142.0","","img/set1/S3.jpg","83","3","random","72","random,structured_normal,structured_load,structured_incentive","2,3,2,1,3,4","false","",""
"null","","html-keyboard-response","143","53986","0.0-143.0","","<img src=""img/set1/S3.jpg"" width=""540"" height = ""360"">","null","","","","","","","",""
"null","","html-keyboard-response","144","54195","0.0-144.0","","","null","","","","","","","",""
"62","","image-keyboard-response","145","54258","0.0-145.0","","img/set1/S2.jpg","83","2","random","68","random,structured_normal,structured_load,structured_incentive","2,3,2,1,3,4","false","",""
"null","","html-keyboard-response","146","54610","0.0-146.0","","<img src=""img/set1/S2.jpg"" width=""540"" height = ""360"">","null","","","","","","","",""
"null","","html-keyboard-response","147","54815","0.0-147.0","","","null","","","","","","","",""
"145.90000009536743","","image-keyboard-response","148","54963","0.0-148.0","","img/set1/S3.jpg","83","3","random","72","random,structured_normal,structured_load,structured_incentive","2,3,2,1,3,4","false","",""
"null","","html-keyboard-response","149","55329","0.0-149.0","","<img src=""img/set1/S3.jpg"" width=""540"" height = ""360"">","null","","","","","","","",""
"null","","html-keyboard-response","150","55534","0.0-150.0","","","null","","","","","","","",""
"162.59999990463257","","image-keyboard-response","151","55698","0.0-151.0","","img/set1/S1.jpg","72","1","random","83","random,structured_normal,structured_load,structured_incentive","2,3,2,1,3,4","false","",""
"null","","html-keyboard-response","152","56061","0.0-152.0","","<img src=""img/set1/S1.jpg"" width=""540"" height = ""360"">","null","","","","","","","",""
"null","","html-keyboard-response","153","56265","0.0-153.0","","","null","","","","","","","",""
"67.90000009536743","","image-keyboard-response","154","56334","0.0-154.0","","img/set1/S3.jpg","68","3","random","72","random,structured_normal,structured_load,structured_incentive","2,3,2,1,3,4","false","",""
"null","","html-keyboard-response","155","56700","0.0-155.0","","<img src=""img/set1/S3.jpg"" width=""540"" height = ""360"">","null","","","","","","","",""
"null","","html-keyboard-response","156","56902","0.0-156.0","","","null","","","","","","","",""
"152.5","","image-keyboard-response","157","57056","0.0-157.0","","img/set1/S2.jpg","83","2","random","68","random,structured_normal,structured_load,structured_incentive","2,3,2,1,3,4","false","",""
"null","","html-keyboard-response","158","57416","0.0-158.0","","<img src=""img/set1/S2.jpg"" width=""540"" height = ""360"">","null","","","","","","","",""
"null","","html-keyboard-response","159","57624","0.0-159.0","","","null","","","","","","","",""
"25","","image-keyboard-response","160","57651","0.0-160.0","","img/set1/S3.jpg","83","3","random","72","random,structured_normal,structured_load,structured_incentive","2,3,2,1,3,4","false","",""
"null","","html-keyboard-response","161","58007","0.0-161.0","","<img src=""img/set1/S3.jpg"" width=""540"" height = ""360"">","null","","","","","","","",""
"null","","html-keyboard-response","162","58213","0.0-162.0","","","null","","","","","","","",""
"20.100000381469727","","image-keyboard-response","163","58234","0.0-163.0","","img/set1/S1.jpg","72","1","random","83","random,structured_normal,structured_load,structured_incentive","2,3,2,1,3,4","false","",""
"null","","html-keyboard-response","164","58598","0.0-164.0","","<img src=""img/set1/S1.jpg"" width=""540"" height = ""360"">","null","","","","","","","",""
"null","","html-keyboard-response","165","58801","0.0-165.0","","","null","","","","","","","",""
"128.80000019073486","","image-keyboard-response","166","58931","0.0-166.0","","img/set1/S3.jpg","72","3","random","72","random,structured_normal,structured_load,structured_incentive","2,3,2,1,3,4","true","",""
"null","","html-keyboard-response","167","59284","0.0-167.0","","<img src=""img/set1/S3.jpg"" width=""540"" height = ""360"" style=""border:16px solid orange"">","null","","","","","","","",""
"null","","html-keyboard-response","168","59487","0.0-168.0","","","null","","","","","","","",""
"131.2000002861023","","image-keyboard-response","169","59620","0.0-169.0","","img/set1/S3.jpg","68","3","random","72","random,structured_normal,structured_load,structured_incentive","2,3,2,1,3,4","false","",""
"null","","html-keyboard-response","170","59975","0.0-170.0","","<img src=""img/set1/S3.jpg"" width=""540"" height = ""360"">","null","","","","","","","",""
"null","","html-keyboard-response","171","60180","0.0-171.0","","","null","","","","","","","",""
"12.300000190734863","","image-keyboard-response","172","60194","0.0-172.0","","img/set1/S1.jpg","74","1","random","83","random,structured_normal,structured_load,structured_incentive","2,3,2,1,3,4","false","",""
"null","","html-keyboard-response","173","60546","0.0-173.0","","<img src=""img/set1/S1.jpg"" width=""540"" height = ""360"">","null","","","","","","","",""
"null","","html-keyboard-response","174","60748","0.0-174.0","","","null","","","","","","","",""
"200.59999990463257","","image-keyboard-response","175","60950","0.0-175.0","","img/set1/S4.jpg","72","4","random","74","random,structured_normal,structured_load,structured_incentive","2,3,2,1,3,4","false","",""
"null","","html-keyboard-response","176","61309","0.0-176.0","","<img src=""img/set1/S4.jpg"" width=""540"" height = ""360"">","null","","","","","","","",""
"null","","html-keyboard-response","177","61526","0.0-177.0","","","null","","","","","","","",""
"117.40000009536743","","image-keyboard-response","178","61645","0.0-178.0","","img/set1/S4.jpg","72","4","random","74","random,structured_normal,structured_load,structured_incentive","2,3,2,1,3,4","false","",""
"null","","html-keyboard-response","179","61999","0.0-179.0","","<img src=""img/set1/S4.jpg"" width=""540"" height = ""360"">","null","","","","","","","",""
"null","","html-keyboard-response","180","62206","0.0-180.0","","","null","","","","","","","",""
"216","","image-keyboard-response","181","62423","0.0-181.0","","img/set1/S2.jpg","74","2","random","68","random,structured_normal,structured_load,structured_incentive","2,3,2,1,3,4","false","",""
"null","","html-keyboard-response","182","62775","0.0-182.0","","<img src=""img/set1/S2.jpg"" width=""540"" height = ""360"">","null","","","","","","","",""
"null","","html-keyboard-response","183","62982","0.0-183.0","","","null","","","","","","","",""
"99.5","","image-keyboard-response","184","63083","0.0-184.0","","img/set1/S4.jpg","83","4","random","74","random,structured_normal,structured_load,structured_incentive","2,3,2,1,3,4","false","",""
"null","","html-keyboard-response","185","63435","0.0-185.0","","<img src=""img/set1/S4.jpg"" width=""540"" height = ""360"">","null","","","","","","","",""
"null","","html-keyboard-response","186","63646","0.0-186.0","","","null","","","","","","","",""
"145.59999990463257","","image-keyboard-response","187","63794","0.0-187.0","","img/set1/S1.jpg","74","1","random","83","random,structured_normal,structured_load,structured_incentive","2,3,2,1,3,4","false","",""
"null","","html-keyboard-response","188","64158","0.0-188.0","","<img src=""img/set1/S1.jpg"" width=""540"" height = ""360"">","null","","","","","","","",""
"null","","html-keyboard-response","189","64369","0.0-189.0","","","null","","","","","","","",""
"105.7999997138977","","image-keyboard-response","190","64479","0.0-190.0","","img/set1/S1.jpg","83","1","random","83","random,structured_normal,structured_load,structured_incentive","2,3,2,1,3,4","true","",""
"null","","html-keyboard-response","191","64842","0.0-191.0","","<img src=""img/set1/S1.jpg"" width=""540"" height = ""360"" style=""border:16px solid orange"">","null","","","","","","","",""
"null","","html-keyboard-response","192","65051","0.0-192.0","","","null","","","","","","","",""
"158.40000009536743","","image-keyboard-response","193","65210","0.0-193.0","","img/set1/S2.jpg","72","2","random","68","random,structured_normal,structured_load,structured_incentive","2,3,2,1,3,4","false","",""
"null","","html-keyboard-response","194","65576","0.0-194.0","","<img src=""img/set1/S2.jpg"" width=""540"" height = ""360"">","null","","","","","","","",""
"null","","html-keyboard-response","195","65778","0.0-195.0","","","null","","","","","","","",""
"50.40000009536743","","image-keyboard-response","196","65830","0.0-196.0","","img/set1/S3.jpg","68","3","random","72","random,structured_normal,structured_load,structured_incentive","2,3,2,1,3,4","false","",""
"null","","html-keyboard-response","197","66187","0.0-197.0","","<img src=""img/set1/S3.jpg"" width=""540"" height = ""360"">","null","","","","","","","",""
"null","","html-keyboard-response","198","66404","0.0-198.0","","","null","","","","","","","",""
"167.5","","image-keyboard-response","199","66572","0.0-199.0","","img/set1/S1.jpg","74","1","random","83","random,structured_normal,structured_load,structured_incentive","2,3,2,1,3,4","false","",""
"null","","html-keyboard-response","200","66927","0.0-200.0","","<img src=""img/set1/S1.jpg"" width=""540"" height = ""360"">","null","","","","","","","",""
"null","","html-keyboard-response","201","67143","0.0-201.0","","","null","","","","","","","",""
"60.80000019073486","","image-keyboard-response","202","67205","0.0-202.0","","img/set1/S3.jpg","83","3","random","72","random,structured_normal,structured_load,structured_incentive","2,3,2,1,3,4","false","",""
"null","","html-keyboard-response","203","67560","0.0-203.0","","<img src=""img/set1/S3.jpg"" width=""540"" height = ""360"">","null","","","","","","","",""
"null","","html-keyboard-response","204","67767","0.0-204.0","","","null","","","","","","","",""
"65.59999990463257","","image-keyboard-response","205","67835","0.0-205.0","","img/set1/S4.jpg","72","4","random","74","random,structured_normal,structured_load,structured_incentive","2,3,2,1,3,4","false","",""
"null","","html-keyboard-response","206","68200","0.0-206.0","","<img src=""img/set1/S4.jpg"" width=""540"" height = ""360"">","null","","","","","","","",""
"null","","html-keyboard-response","207","68401","0.0-207.0","","","null","","","","","","","",""
"61.69999980926514","","image-keyboard-response","208","68464","0.0-208.0","","img/set1/S2.jpg","68","2","random","68","random,structured_normal,structured_load,structured_incentive","2,3,2,1,3,4","true","",""
"null","","html-keyboard-response","209","68842","0.0-209.0","","<img src=""img/set1/S2.jpg"" width=""540"" height = ""360"" style=""border:16px solid orange"">","null","","","","","","","",""
"null","","html-keyboard-response","210","69044","0.0-210.0","","","null","","","","","","","",""
"69.7000002861023","","image-keyboard-response","211","69115","0.0-211.0","","img/set1/S1.jpg","72","1","random","83","random,structured_normal,structured_load,structured_incentive","2,3,2,1,3,4","false","",""
"null","","html-keyboard-response","212","69474","0.0-212.0","","<img src=""img/set1/S1.jpg"" width=""540"" height = ""360"">","null","","","","","","","",""
"null","","html-keyboard-response","213","69691","0.0-213.0","","","null","","","","","","","",""
"123.2999997138977","","image-keyboard-response","214","69816","0.0-214.0","","img/set1/S4.jpg","68","4","random","74","random,structured_normal,structured_load,structured_incentive","2,3,2,1,3,4","false","",""
"null","","html-keyboard-response","215","70169","0.0-215.0","","<img src=""img/set1/S4.jpg"" width=""540"" height = ""360"">","null","","","","","","","",""
"null","","html-keyboard-response","216","70385","0.0-216.0","","","null","","","","","","","",""
"150.90000009536743","","image-keyboard-response","217","70539","0.0-217.0","","img/set1/S2.jpg","74","2","random","68","random,structured_normal,structured_load,structured_incentive","2,3,2,1,3,4","false","",""
"null","","html-keyboard-response","218","70891","0.0-218.0","","<img src=""img/set1/S2.jpg"" width=""540"" height = ""360"">","null","","","","","","","",""
"null","","html-keyboard-response","219","71107","0.0-219.0","","","null","","","","","","","",""
"48.299999713897705","","image-keyboard-response","220","71156","0.0-220.0","","img/set1/S2.jpg","83","2","random","68","random,structured_normal,structured_load,structured_incentive","2,3,2,1,3,4","false","",""
"null","","html-keyboard-response","221","71513","0.0-221.0","","<img src=""img/set1/S2.jpg"" width=""540"" height = ""360"">","null","","","","","","","",""
"null","","html-keyboard-response","222","71718","0.0-222.0","","","null","","","","","","","",""
"132.90000009536743","","image-keyboard-response","223","71852","0.0-223.0","","img/set1/S1.jpg","72","1","random","83","random,structured_normal,structured_load,structured_incentive","2,3,2,1,3,4","false","",""
"null","","html-keyboard-response","224","72205","0.0-224.0","","<img src=""img/set1/S1.jpg"" width=""540"" height = ""360"">","null","","","","","","","",""
"null","","html-keyboard-response","225","72418","0.0-225.0","","","null","","","","","","","",""
"40.30000019073486","","image-keyboard-response","226","72460","0.0-226.0","","img/set1/S4.jpg","68","4","random","74","random,structured_normal,structured_load,structured_incentive","2,3,2,1,3,4","false","",""
"null","","html-keyboard-response","227","72815","0.0-227.0","","<img src=""img/set1/S4.jpg"" width=""540"" height = ""360"">","null","","","","","","","",""
"null","","html-keyboard-response","228","73021","0.0-228.0","","","null","","","","","","","",""
"62.09999990463257","","image-keyboard-response","229","73084","0.0-229.0","","img/set1/S1.jpg","72","1","random","83","random,structured_normal,structured_load,structured_incentive","2,3,2,1,3,4","false","",""
"null","","html-keyboard-response","230","73441","0.0-230.0","","<img src=""img/set1/S1.jpg"" width=""540"" height = ""360"">","null","","","","","","","",""
"null","","html-keyboard-response","231","73645","0.0-231.0","","","null","","","","","","","",""
"122.59999990463257","","image-keyboard-response","232","73769","0.0-232.0","","img/set1/S1.jpg","83","1","random","83","random,structured_normal,structured_load,structured_incentive","2,3,2,1,3,4","true","",""
"null","","html-keyboard-response","233","74131","0.0-233.0","","<img src=""img/set1/S1.jpg"" width=""540"" height = ""360"" style=""border:16px solid orange"">","null","","","","","","","",""
"null","","html-keyboard-response","234","74332","0.0-234.0","","","null","","","","","","","",""
"80.59999990463257","","image-keyboard-response","235","74414","0.0-235.0","","img/set1/S1.jpg","83","1","random","83","random,structured_normal,structured_load,structured_incentive","2,3,2,1,3,4","true","",""
"null","","html-keyboard-response","236","74769","0.0-236.0","","<img src=""img/set1/S1.jpg"" width=""540"" height = ""360"" style=""border:16px solid orange"">","null","","","","","","","",""
"null","","html-keyboard-response","237","74981","0.0-237.0","","","null","","","","","","","",""
"102.89999961853027","","image-keyboard-response","238","75085","0.0-238.0","","img/set1/S1.jpg","83","1","random","83","random,structured_normal,structured_load,structured_incentive","2,3,2,1,3,4","true","",""
"null","","html-keyboard-response","239","75445","0.0-239.0","","<img src=""img/set1/S1.jpg"" width=""540"" height = ""360"" style=""border:16px solid orange"">","null","","","","","","","",""
"null","","html-keyboard-response","240","75652","0.0-240.0","","","null","","","","","","","",""
"124.7999997138977","","image-keyboard-response","241","75779","0.0-241.0","","img/set1/S4.jpg","83","4","random","74","random,structured_normal,structured_load,structured_incentive","2,3,2,1,3,4","false","",""
"null","","html-keyboard-response","242","76140","0.0-242.0","","<img src=""img/set1/S4.jpg"" width=""540"" height = ""360"">","null","","","","","","","",""
"null","","html-keyboard-response","243","76344","0.0-243.0","","","null","","","","","","","",""
"134.2000002861023","","image-keyboard-response","244","76479","0.0-244.0","","img/set1/S3.jpg","72","3","random","72","random,structured_normal,structured_load,structured_incentive","2,3,2,1,3,4","true","",""
"null","","html-keyboard-response","245","76848","0.0-245.0","","<img src=""img/set1/S3.jpg"" width=""540"" height = ""360"" style=""border:16px solid orange"">","null","","","","","","","",""
"null","","html-keyboard-response","246","77052","0.0-246.0","","","null","","","","","","","",""
"75","","image-keyboard-response","247","77128","0.0-247.0","","img/set1/S3.jpg","68","3","random","72","random,structured_normal,structured_load,structured_incentive","2,3,2,1,3,4","false","",""
"null","","html-keyboard-response","248","77481","0.0-248.0","","<img src=""img/set1/S3.jpg"" width=""540"" height = ""360"">","null","","","","","","","",""
"null","","html-keyboard-response","249","77689","0.0-249.0","","","null","","","","","","","",""
"140","","image-keyboard-response","250","77830","0.0-250.0","","img/set1/S3.jpg","68","3","random","72","random,structured_normal,structured_load,structured_incentive","2,3,2,1,3,4","false","",""
"null","","html-keyboard-response","251","78191","0.0-251.0","","<img src=""img/set1/S3.jpg"" width=""540"" height = ""360"">","null","","","","","","","",""
"null","","html-keyboard-response","252","78407","0.0-252.0","","","null","","","","","","","",""
"88.7999997138977","","image-keyboard-response","253","78497","0.0-253.0","","img/set1/S2.jpg","68","2","random","68","random,structured_normal,structured_load,structured_incentive","2,3,2,1,3,4","true","",""
"null","","html-keyboard-response","254","78855","0.0-254.0","","<img src=""img/set1/S2.jpg"" width=""540"" height = ""360"" style=""border:16px solid orange"">","null","","","","","","","",""
"null","","html-keyboard-response","255","79061","0.0-255.0","","","null","","","","","","","",""
"98.40000009536743","","image-keyboard-response","256","79161","0.0-256.0","","img/set1/S2.jpg","68","2","random","68","random,structured_normal,structured_load,structured_incentive","2,3,2,1,3,4","true","",""
"null","","html-keyboard-response","257","79514","0.0-257.0","","<img src=""img/set1/S2.jpg"" width=""540"" height = ""360"" style=""border:16px solid orange"">","null","","","","","","","",""
"null","","html-keyboard-response","258","79726","0.0-258.0","","","null","","","","","","","",""
"104.40000009536743","","image-keyboard-response","259","79832","0.0-259.0","","img/set1/S4.jpg","68","4","random","74","random,structured_normal,structured_load,structured_incentive","2,3,2,1,3,4","false","",""
"null","","html-keyboard-response","260","80192","0.0-260.0","","<img src=""img/set1/S4.jpg"" width=""540"" height = ""360"">","null","","","","","","","",""
"null","","html-keyboard-response","261","80402","0.0-261.0","","","null","","","","","","","",""
"114.2000002861023","","image-keyboard-response","262","80517","0.0-262.0","","img/set1/S4.jpg","74","4","random","74","random,structured_normal,structured_load,structured_incentive","2,3,2,1,3,4","true","",""
"null","","html-keyboard-response","263","80873","0.0-263.0","","<img src=""img/set1/S4.jpg"" width=""540"" height = ""360"" style=""border:16px solid orange"">","null","","","","","","","",""
"null","","html-keyboard-response","264","81084","0.0-264.0","","","null","","","","","","","",""
"43.60000038146973","","image-keyboard-response","265","81129","0.0-265.0","","img/set1/S1.jpg","83","1","random","83","random,structured_normal,structured_load,structured_incentive","2,3,2,1,3,4","true","",""
"null","","html-keyboard-response","266","81481","0.0-266.0","","<img src=""img/set1/S1.jpg"" width=""540"" height = ""360"" style=""border:16px solid orange"">","null","","","","","","","",""
"null","","html-keyboard-response","267","81692","0.0-267.0","","","null","","","","","","","",""
"91.80000019073486","","image-keyboard-response","268","81785","0.0-268.0","","img/set1/S4.jpg","83","4","random","74","random,structured_normal,structured_load,structured_incentive","2,3,2,1,3,4","false","",""
"null","","html-keyboard-response","269","82153","0.0-269.0","","<img src=""img/set1/S4.jpg"" width=""540"" height = ""360"">","null","","","","","","","",""
"null","","html-keyboard-response","270","82356","0.0-270.0","","","null","","","","","","","",""
"82.80000019073486","","image-keyboard-response","271","82440","0.0-271.0","","img/set1/S3.jpg","83","3","random","72","random,structured_normal,structured_load,structured_incentive","2,3,2,1,3,4","false","",""
"null","","html-keyboard-response","272","82792","0.0-272.0","","<img src=""img/set1/S3.jpg"" width=""540"" height = ""360"">","null","","","","","","","",""
"null","","html-keyboard-response","273","82996","0.0-273.0","","","null","","","","","","","",""
"133","","image-keyboard-response","274","83131","0.0-274.0","","img/set1/S1.jpg","68","1","random","83","random,structured_normal,structured_load,structured_incentive","2,3,2,1,3,4","false","",""
"null","","html-keyboard-response","275","83495","0.0-275.0","","<img src=""img/set1/S1.jpg"" width=""540"" height = ""360"">","null","","","","","","","",""
"null","","html-keyboard-response","276","83702","0.0-276.0","","","null","","","","","","","",""
"39.69999980926514","","image-keyboard-response","277","83743","0.0-277.0","","img/set1/S3.jpg","83","3","random","72","random,structured_normal,structured_load,structured_incentive","2,3,2,1,3,4","false","",""
"null","","html-keyboard-response","278","84097","0.0-278.0","","<img src=""img/set1/S3.jpg"" width=""540"" height = ""360"">","null","","","","","","","",""
"null","","html-keyboard-response","279","84316","0.0-279.0","","","null","","","","","","","",""
"21.59999990463257","","image-keyboard-response","280","84339","0.0-280.0","","img/set1/S2.jpg","83","2","random","68","random,structured_normal,structured_load,structured_incentive","2,3,2,1,3,4","false","",""
"null","","html-keyboard-response","281","84695","0.0-281.0","","<img src=""img/set1/S2.jpg"" width=""540"" height = ""360"">","null","","","","","","","",""
"null","","html-keyboard-response","282","84911","0.0-282.0","","","null","","","","","","","",""
"62.89999961853027","","image-keyboard-response","283","84975","0.0-283.0","","img/set1/S2.jpg","83","2","random","68","random,structured_normal,structured_load,structured_incentive","2,3,2,1,3,4","false","",""
"null","","html-keyboard-response","284","85328","0.0-284.0","","<img src=""img/set1/S2.jpg"" width=""540"" height = ""360"">","null","","","","","","","",""
"null","","html-keyboard-response","285","85530","0.0-285.0","","","null","","","","","","","",""
"62.30000019073486","","image-keyboard-response","286","85594","0.0-286.0","","img/set1/S3.jpg","83","3","random","72","random,structured_normal,structured_load,structured_incentive","2,3,2,1,3,4","false","",""
"null","","html-keyboard-response","287","85948","0.0-287.0","","<img src=""img/set1/S3.jpg"" width=""540"" height = ""360"">","null","","","","","","","",""
"null","","html-keyboard-response","288","86157","0.0-288.0","","","null","","","","","","","",""
"133","","image-keyboard-response","289","86291","0.0-289.0","","img/set1/S2.jpg","68","2","random","68","random,structured_normal,structured_load,structured_incentive","2,3,2,1,3,4","true","",""
"null","","html-keyboard-response","290","86657","0.0-290.0","","<img src=""img/set1/S2.jpg"" width=""540"" height = ""360"" style=""border:16px solid orange"">","null","","","","","","","",""
"null","","html-keyboard-response","291","86860","0.0-291.0","","","null","","","","","","","",""
"69","","image-keyboard-response","292","86931","0.0-292.0","","img/set1/S2.jpg","68","2","random","68","random,structured_normal,structured_load,structured_incentive","2,3,2,1,3,4","true","",""
"null","","html-keyboard-response","293","87283","0.0-293.0","","<img src=""img/set1/S2.jpg"" width=""540"" height = ""360"" style=""border:16px solid orange"">","null","","","","","","","",""
"null","","html-keyboard-response","294","87485","0.0-294.0","","","null","","","","","","","",""
"85.09999990463257","","image-keyboard-response","295","87571","0.0-295.0","","img/set1/S4.jpg","68","4","random","74","random,structured_normal,structured_load,structured_incentive","2,3,2,1,3,4","false","",""
"null","","html-keyboard-response","296","87923","0.0-296.0","","<img src=""img/set1/S4.jpg"" width=""540"" height = ""360"">","null","","","","","","","",""
"null","","html-keyboard-response","297","88128","0.0-297.0","","","null","","","","","","","",""
"60.5","","image-keyboard-response","298","88190","0.0-298.0","","img/set1/S1.jpg","68","1","random","83","random,structured_normal,structured_load,structured_incentive","2,3,2,1,3,4","false","",""
"null","","html-keyboard-response","299","88555","0.0-299.0","","<img src=""img/set1/S1.jpg"" width=""540"" height = ""360"">","null","","","","","","","",""
"null","","html-keyboard-response","300","88762","0.0-300.0","","","null","","","","","","","",""
"149.09999990463257","","image-keyboard-response","301","88913","0.0-301.0","","img/set1/S1.jpg","83","1","random","83","random,structured_normal,structured_load,structured_incentive","2,3,2,1,3,4","true","",""
"null","","html-keyboard-response","302","89268","0.0-302.0","","<img src=""img/set1/S1.jpg"" width=""540"" height = ""360"" style=""border:16px solid orange"">","null","","","","","","","",""
"null","","html-keyboard-response","303","89482","0.0-303.0","","","null","","","","","","","",""
"28.59999990463257","","image-keyboard-response","304","89512","0.0-304.0","","img/set1/S1.jpg","83","1","random","83","random,structured_normal,structured_load,structured_incentive","2,3,2,1,3,4","true","",""
"null","","html-keyboard-response","305","89879","0.0-305.0","","<img src=""img/set1/S1.jpg"" width=""540"" height = ""360"" style=""border:16px solid orange"">","null","","","","","","","",""
"null","","html-keyboard-response","306","90088","0.0-306.0","","","null","","","","","","","",""
"163.5","","image-keyboard-response","307","90252","0.0-307.0","","img/set1/S4.jpg","72","4","random","74","random,structured_normal,structured_load,structured_incentive","2,3,2,1,3,4","false","",""
"null","","html-keyboard-response","308","90615","0.0-308.0","","<img src=""img/set1/S4.jpg"" width=""540"" height = ""360"">","null","","","","","","","",""
"null","","html-keyboard-response","309","90818","0.0-309.0","","","null","","","","","","","",""
"85.69999980926514","","image-keyboard-response","310","90905","0.0-310.0","","img/set1/S4.jpg","74","4","random","74","random,structured_normal,structured_load,structured_incentive","2,3,2,1,3,4","true","",""
"null","","html-keyboard-response","311","91264","0.0-311.0","","<img src=""img/set1/S4.jpg"" width=""540"" height = ""360"" style=""border:16px solid orange"">","null","","","","","","","",""
"null","","html-keyboard-response","312","91465","0.0-312.0","","","null","","","","","","","",""
"null","","image-keyboard-response","313","93974","0.0-313.0","","img/set1/S2.jpg","null","2","random","68","random,structured_normal,structured_load,structured_incentive","2,3,2,1,3,4","false","",""
"null","","html-keyboard-response","314","94332","0.0-314.0","","<img src=""img/set1/S2.jpg"" width=""540"" height = ""360"">","null","","","","","","","",""
"null","","html-keyboard-response","315","94546","0.0-315.0","","","null","","","","","","","",""
"null","","image-keyboard-response","316","97052","0.0-316.0","","img/set1/S4.jpg","null","4","random","74","random,structured_normal,structured_load,structured_incentive","2,3,2,1,3,4","false","",""
"null","","html-keyboard-response","317","97419","0.0-317.0","","<img src=""img/set1/S4.jpg"" width=""540"" height = ""360"">","null","","","","","","","",""
"null","","html-keyboard-response","318","97624","0.0-318.0","","","null","","","","","","","",""
"null","","image-keyboard-response","319","100137","0.0-319.0","","img/set1/S4.jpg","null","4","random","74","random,structured_normal,structured_load,structured_incentive","2,3,2,1,3,4","false","",""
"null","","html-keyboard-response","320","100502","0.0-320.0","","<img src=""img/set1/S4.jpg"" width=""540"" height = ""360"">","null","","","","","","","",""
"null","","html-keyboard-response","321","100718","0.0-321.0","","","null","","","","","","","",""
"null","","image-keyboard-response","322","103222","0.0-322.0","","img/set1/S1.jpg","null","1","random","83","random,structured_normal,structured_load,structured_incentive","2,3,2,1,3,4","false","",""
"null","","html-keyboard-response","323","103593","0.0-323.0","","<img src=""img/set1/S1.jpg"" width=""540"" height = ""360"">","null","","","","","","","",""
"null","","html-keyboard-response","324","103830","0.0-324.0","","","null","","","","","","","",""
"null","","image-keyboard-response","325","106341","0.0-325.0","","img/set1/S1.jpg","null","1","random","83","random,structured_normal,structured_load,structured_incentive","2,3,2,1,3,4","false","",""
"null","","html-keyboard-response","326","106702","0.0-326.0","","<img src=""img/set1/S1.jpg"" width=""540"" height = ""360"">","null","","","","","","","",""
"null","","html-keyboard-response","327","106935","0.0-327.0","","","null","","","","","","","",""
"null","","image-keyboard-response","328","109452","0.0-328.0","","img/set1/S1.jpg","null","1","random","83","random,structured_normal,structured_load,structured_incentive","2,3,2,1,3,4","false","",""
"null","","html-keyboard-response","329","109805","0.0-329.0","","<img src=""img/set1/S1.jpg"" width=""540"" height = ""360"">","null","","","","","","","",""
"null","","html-keyboard-response","330","110014","0.0-330.0","","","null","","","","","","","",""
"null","","image-keyboard-response","331","112517","0.0-331.0","","img/set1/S3.jpg","null","3","random","72","random,structured_normal,structured_load,structured_incentive","2,3,2,1,3,4","false","",""
"null","","html-keyboard-response","332","112875","0.0-332.0","","<img src=""img/set1/S3.jpg"" width=""540"" height = ""360"">","null","","","","","","","",""
"null","","html-keyboard-response","333","113092","0.0-333.0","","","null","","","","","","","",""
"null","","image-keyboard-response","334","115600","0.0-334.0","","img/set1/S4.jpg","null","4","random","74","random,structured_normal,structured_load,structured_incentive","2,3,2,1,3,4","false","",""
"null","","html-keyboard-response","335","115968","0.0-335.0","","<img src=""img/set1/S4.jpg"" width=""540"" height = ""360"">","null","","","","","","","",""
"null","","html-keyboard-response","336","116170","0.0-336.0","","","null","","","","","","","",""
"null","","image-keyboard-response","337","118687","0.0-337.0","","img/set1/S3.jpg","null","3","random","72","random,structured_normal,structured_load,structured_incentive","2,3,2,1,3,4","false","",""
"null","","html-keyboard-response","338","119040","0.0-338.0","","<img src=""img/set1/S3.jpg"" width=""540"" height = ""360"">","null","","","","","","","",""
"null","","html-keyboard-response","339","119242","0.0-339.0","","","null","","","","","","","",""
"null","","image-keyboard-response","340","121754","0.0-340.0","","img/set1/S3.jpg","null","3","random","72","random,structured_normal,structured_load,structured_incentive","2,3,2,1,3,4","false","",""
"null","","html-keyboard-response","341","122110","0.0-341.0","","<img src=""img/set1/S3.jpg"" width=""540"" height = ""360"">","null","","","","","","","",""
"null","","html-keyboard-response","342","122312","0.0-342.0","","","null","","","","","","","",""
"null","","image-keyboard-response","343","124846","0.0-343.0","","img/set1/S4.jpg","null","4","random","74","random,structured_normal,structured_load,structured_incentive","2,3,2,1,3,4","false","",""
"null","","html-keyboard-response","344","125199","0.0-344.0","","<img src=""img/set1/S4.jpg"" width=""540"" height = ""360"">","null","","","","","","","",""
"null","","html-keyboard-response","345","125405","0.0-345.0","","","null","","","","","","","",""
"null","","image-keyboard-response","346","127914","0.0-346.0","","img/set1/S4.jpg","null","4","random","74","random,structured_normal,structured_load,structured_incentive","2,3,2,1,3,4","false","",""
"null","","html-keyboard-response","347","128274","0.0-347.0","","<img src=""img/set1/S4.jpg"" width=""540"" height = ""360"">","null","","","","","","","",""
"null","","html-keyboard-response","348","128483","0.0-348.0","","","null","","","","","","","",""
"null","","image-keyboard-response","349","130996","0.0-349.0","","img/set1/S4.jpg","null","4","random","74","random,structured_normal,structured_load,structured_incentive","2,3,2,1,3,4","false","",""
"null","","html-keyboard-response","350","131351","0.0-350.0","","<img src=""img/set1/S4.jpg"" width=""540"" height = ""360"">","null","","","","","","","",""
"null","","html-keyboard-response","351","131561","0.0-351.0","","","null","","","","","","","",""
"null","","image-keyboard-response","352","134072","0.0-352.0","","img/set1/S3.jpg","null","3","random","72","random,structured_normal,structured_load,structured_incentive","2,3,2,1,3,4","false","",""
"null","","html-keyboard-response","353","134424","0.0-353.0","","<img src=""img/set1/S3.jpg"" width=""540"" height = ""360"">","null","","","","","","","",""
"null","","html-keyboard-response","354","134636","0.0-354.0","","","null","","","","","","","",""
"null","","image-keyboard-response","355","137151","0.0-355.0","","img/set1/S4.jpg","null","4","random","74","random,structured_normal,structured_load,structured_incentive","2,3,2,1,3,4","false","",""
"null","","html-keyboard-response","356","137517","0.0-356.0","","<img src=""img/set1/S4.jpg"" width=""540"" height = ""360"">","null","","","","","","","",""
"null","","html-keyboard-response","357","137733","0.0-357.0","","","null","","","","","","","",""
"null","","image-keyboard-response","358","140251","0.0-358.0","","img/set1/S3.jpg","null","3","random","72","random,structured_normal,structured_load,structured_incentive","2,3,2,1,3,4","false","",""
"null","","html-keyboard-response","359","140602","0.0-359.0","","<img src=""img/set1/S3.jpg"" width=""540"" height = ""360"">","null","","","","","","","",""
"null","","html-keyboard-response","360","140807","0.0-360.0","","","null","","","","","","","",""
"null","","image-keyboard-response","361","143311","0.0-361.0","","img/set1/S2.jpg","null","2","random","68","random,structured_normal,structured_load,structured_incentive","2,3,2,1,3,4","false","",""
"null","","html-keyboard-response","362","143671","0.0-362.0","","<img src=""img/set1/S2.jpg"" width=""540"" height = ""360"">","null","","","","","","","",""
"null","","html-keyboard-response","363","143888","0.0-363.0","","","null","","","","","","","",""
"null","","html-keyboard-response","364","203902","0.0-364.0","","<p class=""center-content"">You have completed a block! </p><p class=""center-content"">Press any key on the keyboard to continue, </p><p class=""center-content"">or wait for the automatic progression to the next block after one minute.</p>","null","","","","","","","",""
"71731.40000009537","","instructions","365","275634","0.0-365.0","[{""page_index"":0,""viewing_time"":71730.90000009537}]","","","","","","","","","",""
"1516","","instructions","366","277151","0.0-366.0","[{""page_index"":0,""viewing_time"":1515.4000000953674}]","","","","","","","","","",""
"1186.6999998092651","","image-keyboard-response","367","278339","0.0-367.0","","img/set2/S1.jpg","83","1","structured_normal","83","random,structured_normal,structured_load,structured_incentive","2,3,2,1,3,4","true","",""
"null","","html-keyboard-response","368","278707","0.0-368.0","","<img src=""img/set2/S1.jpg"" width=""540"" height = ""360"" style=""border:16px solid orange"">","null","","","","","","","",""
"null","","html-keyboard-response","369","278954","0.0-369.0","","","null","","","","","","","",""
"139.5","","image-keyboard-response","370","279095","0.0-370.0","","img/set2/S1.jpg","68","1","structured_normal","83","random,structured_normal,structured_load,structured_incentive","2,3,2,1,3,4","false","",""
"null","","html-keyboard-response","371","279447","0.0-371.0","","<img src=""img/set2/S1.jpg"" width=""540"" height = ""360"">","null","","","","","","","",""
"null","","html-keyboard-response","372","279648","0.0-372.0","","","null","","","","","","","",""
"69.40000009536743","","image-keyboard-response","373","279719","0.0-373.0","","img/set2/S1.jpg","83","1","structured_normal","83","random,structured_normal,structured_load,structured_incentive","2,3,2,1,3,4","true","",""
"null","","html-keyboard-response","374","280079","0.0-374.0","","<img src=""img/set2/S1.jpg"" width=""540"" height = ""360"" style=""border:16px solid orange"">","null","","","","","","","",""
"null","","html-keyboard-response","375","280288","0.0-375.0","","","null","","","","","","","",""
"132.09999990463257","","image-keyboard-response","376","280422","0.0-376.0","","img/set2/S2.jpg","83","2","structured_normal","68","random,structured_normal,structured_load,structured_incentive","2,3,2,1,3,4","false","",""
"null","","html-keyboard-response","377","280774","0.0-377.0","","<img src=""img/set2/S2.jpg"" width=""540"" height = ""360"">","null","","","","","","","",""
"null","","html-keyboard-response","378","280977","0.0-378.0","","","null","","","","","","","",""
"75.30000019073486","","image-keyboard-response","379","281054","0.0-379.0","","img/set2/S3.jpg","72","3","structured_normal","72","random,structured_normal,structured_load,structured_incentive","2,3,2,1,3,4","true","",""
"null","","html-keyboard-response","380","281421","0.0-380.0","","<img src=""img/set2/S3.jpg"" width=""540"" height = ""360"" style=""border:16px solid orange"">","null","","","","","","","",""
"null","","html-keyboard-response","381","281625","0.0-381.0","","","null","","","","","","","",""
"90.19999980926514","","image-keyboard-response","382","281717","0.0-382.0","","img/set2/S2.jpg","72","2","structured_normal","68","random,structured_normal,structured_load,structured_incentive","2,3,2,1,3,4","false","",""
"null","","html-keyboard-response","383","282082","0.0-383.0","","<img src=""img/set2/S2.jpg"" width=""540"" height = ""360"">","null","","","","","","","",""
"null","","html-keyboard-response","384","282297","0.0-384.0","","","null","","","","","","","",""
"120.69999980926514","","image-keyboard-response","385","282419","0.0-385.0","","img/set2/S3.jpg","74","3","structured_normal","72","random,structured_normal,structured_load,structured_incentive","2,3,2,1,3,4","false","",""
"null","","html-keyboard-response","386","282771","0.0-386.0","","<img src=""img/set2/S3.jpg"" width=""540"" height = ""360"">","null","","","","","","","",""
"null","","html-keyboard-response","387","282980","0.0-387.0","","","null","","","","","","","",""
"17.59999990463257","","image-keyboard-response","388","282999","0.0-388.0","","img/set2/S1.jpg","74","1","structured_normal","83","random,structured_normal,structured_load,structured_incentive","2,3,2,1,3,4","false","",""
"null","","html-keyboard-response","389","283351","0.0-389.0","","<img src=""img/set2/S1.jpg"" width=""540"" height = ""360"">","null","","","","","","","",""
"null","","html-keyboard-response","390","283553","0.0-390.0","","","null","","","","","","","",""
"110.09999990463257","","image-keyboard-response","391","283664","0.0-391.0","","img/set2/S4.jpg","74","4","structured_normal","74","random,structured_normal,structured_load,structured_incentive","2,3,2,1,3,4","true","",""
"null","","html-keyboard-response","392","284030","0.0-392.0","","<img src=""img/set2/S4.jpg"" width=""540"" height = ""360"" style=""border:16px solid orange"">","null","","","","","","","",""
"null","","html-keyboard-response","393","284232","0.0-393.0","","","null","","","","","","","",""
"226.90000009536743","","image-keyboard-response","394","284461","0.0-394.0","","img/set2/S4.jpg","74","4","structured_normal","74","random,structured_normal,structured_load,structured_incentive","2,3,2,1,3,4","true","",""
"null","","html-keyboard-response","395","284815","0.0-395.0","","<img src=""img/set2/S4.jpg"" width=""540"" height = ""360"" style=""border:16px solid orange"">","null","","","","","","","",""
"null","","html-keyboard-response","396","285031","0.0-396.0","","","null","","","","","","","",""
"55.40000009536743","","image-keyboard-response","397","285088","0.0-397.0","","img/set2/S2.jpg","72","2","structured_normal","68","random,structured_normal,structured_load,structured_incentive","2,3,2,1,3,4","false","",""
"null","","html-keyboard-response","398","285451","0.0-398.0","","<img src=""img/set2/S2.jpg"" width=""540"" height = ""360"">","null","","","","","","","",""
"null","","html-keyboard-response","399","285660","0.0-399.0","","","null","","","","","","","",""
"115.59999990463257","","image-keyboard-response","400","285777","0.0-400.0","","img/set2/S3.jpg","83","3","structured_normal","72","random,structured_normal,structured_load,structured_incentive","2,3,2,1,3,4","false","",""
"null","","html-keyboard-response","401","286138","0.0-401.0","","<img src=""img/set2/S3.jpg"" width=""540"" height = ""360"">","null","","","","","","","",""
"null","","html-keyboard-response","402","286353","0.0-402.0","","","null","","","","","","","",""
"10.599999904632568","","image-keyboard-response","403","286364","0.0-403.0","","img/set2/S4.jpg","68","4","structured_normal","74","random,structured_normal,structured_load,structured_incentive","2,3,2,1,3,4","false","",""
"null","","html-keyboard-response","404","286722","0.0-404.0","","<img src=""img/set2/S4.jpg"" width=""540"" height = ""360"">","null","","","","","","","",""
"null","","html-keyboard-response","405","286931","0.0-405.0","","","null","","","","","","","",""
"34.90000009536743","","image-keyboard-response","406","286967","0.0-406.0","","img/set2/S1.jpg","68","1","structured_normal","83","random,structured_normal,structured_load,structured_incentive","2,3,2,1,3,4","false","",""
"null","","html-keyboard-response","407","287325","0.0-407.0","","<img src=""img/set2/S1.jpg"" width=""540"" height = ""360"">","null","","","","","","","",""
"null","","html-keyboard-response","408","287541","0.0-408.0","","","null","","","","","","","",""
"159.69999980926514","","image-keyboard-response","409","287702","0.0-409.0","","img/set2/S4.jpg","83","4","structured_normal","74","random,structured_normal,structured_load,structured_incentive","2,3,2,1,3,4","false","",""
"null","","html-keyboard-response","410","288055","0.0-410.0","","<img src=""img/set2/S4.jpg"" width=""540"" height = ""360"">","null","","","","","","","",""
"null","","html-keyboard-response","411","288266","0.0-411.0","","","null","","","","","","","",""
"138.5","","image-keyboard-response","412","288406","0.0-412.0","","img/set2/S1.jpg","68","1","structured_normal","83","random,structured_normal,structured_load,structured_incentive","2,3,2,1,3,4","false","",""
"null","","html-keyboard-response","413","288760","0.0-413.0","","<img src=""img/set2/S1.jpg"" width=""540"" height = ""360"">","null","","","","","","","",""
"null","","html-keyboard-response","414","288965","0.0-414.0","","","null","","","","","","","",""
"56.200000286102295","","image-keyboard-response","415","289022","0.0-415.0","","img/set2/S2.jpg","68","2","structured_normal","68","random,structured_normal,structured_load,structured_incentive","2,3,2,1,3,4","true","",""
"null","","html-keyboard-response","416","289376","0.0-416.0","","<img src=""img/set2/S2.jpg"" width=""540"" height = ""360"" style=""border:16px solid orange"">","null","","","","","","","",""
"null","","html-keyboard-response","417","289592","0.0-417.0","","","null","","","","","","","",""
"130.7000002861023","","image-keyboard-response","418","289724","0.0-418.0","","img/set2/S3.jpg","68","3","structured_normal","72","random,structured_normal,structured_load,structured_incentive","2,3,2,1,3,4","false","",""
"null","","html-keyboard-response","419","290087","0.0-419.0","","<img src=""img/set2/S3.jpg"" width=""540"" height = ""360"">","null","","","","","","","",""
"null","","html-keyboard-response","420","290294","0.0-420.0","","","null","","","","","","","",""
"19","","image-keyboard-response","421","290314","0.0-421.0","","img/set2/S2.jpg","72","2","structured_normal","68","random,structured_normal,structured_load,structured_incentive","2,3,2,1,3,4","false","",""
"null","","html-keyboard-response","422","290672","0.0-422.0","","<img src=""img/set2/S2.jpg"" width=""540"" height = ""360"">","null","","","","","","","",""
"null","","html-keyboard-response","423","290875","0.0-423.0","","","null","","","","","","","",""
"104.40000009536743","","image-keyboard-response","424","290981","0.0-424.0","","img/set2/S3.jpg","74","3","structured_normal","72","random,structured_normal,structured_load,structured_incentive","2,3,2,1,3,4","false","",""
"null","","html-keyboard-response","425","291336","0.0-425.0","","<img src=""img/set2/S3.jpg"" width=""540"" height = ""360"">","null","","","","","","","",""
"null","","html-keyboard-response","426","291548","0.0-426.0","","","null","","","","","","","",""
"86.69999980926514","","image-keyboard-response","427","291636","0.0-427.0","","img/set2/S2.jpg","74","2","structured_normal","68","random,structured_normal,structured_load,structured_incentive","2,3,2,1,3,4","false","",""
"null","","html-keyboard-response","428","291994","0.0-428.0","","<img src=""img/set2/S2.jpg"" width=""540"" height = ""360"">","null","","","","","","","",""
"null","","html-keyboard-response","429","292257","0.0-429.0","","","null","","","","","","","",""
"94.09999990463257","","image-keyboard-response","430","292353","0.0-430.0","","img/set2/S3.jpg","72","3","structured_normal","72","random,structured_normal,structured_load,structured_incentive","2,3,2,1,3,4","true","",""
"null","","html-keyboard-response","431","292708","0.0-431.0","","<img src=""img/set2/S3.jpg"" width=""540"" height = ""360"" style=""border:16px solid orange"">","null","","","","","","","",""
"null","","html-keyboard-response","432","292915","0.0-432.0","","","null","","","","","","","",""
"6.699999809265137","","image-keyboard-response","433","292923","0.0-433.0","","img/set2/S4.jpg","72","4","structured_normal","74","random,structured_normal,structured_load,structured_incentive","2,3,2,1,3,4","false","",""
"null","","html-keyboard-response","434","293289","0.0-434.0","","<img src=""img/set2/S4.jpg"" width=""540"" height = ""360"">","null","","","","","","","",""
"null","","html-keyboard-response","435","293491","0.0-435.0","","","null","","","","","","","",""
"98","","image-keyboard-response","436","293591","0.0-436.0","","img/set2/S1.jpg","74","1","structured_normal","83","random,structured_normal,structured_load,structured_incentive","2,3,2,1,3,4","false","",""
"null","","html-keyboard-response","437","293948","0.0-437.0","","<img src=""img/set2/S1.jpg"" width=""540"" height = ""360"">","null","","","","","","","",""
"null","","html-keyboard-response","438","294160","0.0-438.0","","","null","","","","","","","",""
"50.59999990463257","","image-keyboard-response","439","294213","0.0-439.0","","img/set2/S2.jpg","83","2","structured_normal","68","random,structured_normal,structured_load,structured_incentive","2,3,2,1,3,4","false","",""
"null","","html-keyboard-response","440","294574","0.0-440.0","","<img src=""img/set2/S2.jpg"" width=""540"" height = ""360"">","null","","","","","","","",""
"null","","html-keyboard-response","441","294776","0.0-441.0","","","null","","","","","","","",""
"104.40000009536743","","image-keyboard-response","442","294882","0.0-442.0","","img/set2/S3.jpg","83","3","structured_normal","72","random,structured_normal,structured_load,structured_incentive","2,3,2,1,3,4","false","",""
"null","","html-keyboard-response","443","295247","0.0-443.0","","<img src=""img/set2/S3.jpg"" width=""540"" height = ""360"">","null","","","","","","","",""
"null","","html-keyboard-response","444","295463","0.0-444.0","","","null","","","","","","","",""
"185.39999961853027","","image-keyboard-response","445","295650","0.0-445.0","","img/set2/S2.jpg","68","2","structured_normal","68","random,structured_normal,structured_load,structured_incentive","2,3,2,1,3,4","true","",""
"null","","html-keyboard-response","446","296005","0.0-446.0","","<img src=""img/set2/S2.jpg"" width=""540"" height = ""360"" style=""border:16px solid orange"">","null","","","","","","","",""
"null","","html-keyboard-response","447","296218","0.0-447.0","","","null","","","","","","","",""
"160.2999997138977","","image-keyboard-response","448","296380","0.0-448.0","","img/set2/S3.jpg","68","3","structured_normal","72","random,structured_normal,structured_load,structured_incentive","2,3,2,1,3,4","false","",""
"null","","html-keyboard-response","449","296733","0.0-449.0","","<img src=""img/set2/S3.jpg"" width=""540"" height = ""360"">","null","","","","","","","",""
"null","","html-keyboard-response","450","296937","0.0-450.0","","","null","","","","","","","",""
"150.40000009536743","","image-keyboard-response","451","297088","0.0-451.0","","img/set2/S1.jpg","68","1","structured_normal","83","random,structured_normal,structured_load,structured_incentive","2,3,2,1,3,4","false","",""
"null","","html-keyboard-response","452","297451","0.0-452.0","","<img src=""img/set2/S1.jpg"" width=""540"" height = ""360"">","null","","","","","","","",""
"null","","html-keyboard-response","453","297657","0.0-453.0","","","null","","","","","","","",""
"11.299999713897705","","image-keyboard-response","454","297669","0.0-454.0","","img/set2/S4.jpg","83","4","structured_normal","74","random,structured_normal,structured_load,structured_incentive","2,3,2,1,3,4","false","",""
"null","","html-keyboard-response","455","298027","0.0-455.0","","<img src=""img/set2/S4.jpg"" width=""540"" height = ""360"">","null","","","","","","","",""
"null","","html-keyboard-response","456","298244","0.0-456.0","","","null","","","","","","","",""
"93.2000002861023","","image-keyboard-response","457","298338","0.0-457.0","","img/set2/S4.jpg","83","4","structured_normal","74","random,structured_normal,structured_load,structured_incentive","2,3,2,1,3,4","false","",""
"null","","html-keyboard-response","458","298691","0.0-458.0","","<img src=""img/set2/S4.jpg"" width=""540"" height = ""360"">","null","","","","","","","",""
"null","","html-keyboard-response","459","298895","0.0-459.0","","","null","","","","","","","",""
"42.30000019073486","","image-keyboard-response","460","298939","0.0-460.0","","img/set2/S1.jpg","68","1","structured_normal","83","random,structured_normal,structured_load,structured_incentive","2,3,2,1,3,4","false","",""
"null","","html-keyboard-response","461","299291","0.0-461.0","","<img src=""img/set2/S1.jpg"" width=""540"" height = ""360"">","null","","","","","","","",""
"null","","html-keyboard-response","462","299507","0.0-462.0","","","null","","","","","","","",""
"144.80000019073486","","image-keyboard-response","463","299654","0.0-463.0","","img/set2/S2.jpg","72","2","structured_normal","68","random,structured_normal,structured_load,structured_incentive","2,3,2,1,3,4","false","",""
"null","","html-keyboard-response","464","300019","0.0-464.0","","<img src=""img/set2/S2.jpg"" width=""540"" height = ""360"">","null","","","","","","","",""
"null","","html-keyboard-response","465","300229","0.0-465.0","","","null","","","","","","","",""
"94","","image-keyboard-response","466","300324","0.0-466.0","","img/set2/S3.jpg","74","3","structured_normal","72","random,structured_normal,structured_load,structured_incentive","2,3,2,1,3,4","false","",""
"null","","html-keyboard-response","467","300676","0.0-467.0","","<img src=""img/set2/S3.jpg"" width=""540"" height = ""360"">","null","","","","","","","",""
"null","","html-keyboard-response","468","300886","0.0-468.0","","","null","","","","","","","",""
"81.30000019073486","","image-keyboard-response","469","300969","0.0-469.0","","img/set2/S1.jpg","74","1","structured_normal","83","random,structured_normal,structured_load,structured_incentive","2,3,2,1,3,4","false","",""
"null","","html-keyboard-response","470","301331","0.0-470.0","","<img src=""img/set2/S1.jpg"" width=""540"" height = ""360"">","null","","","","","","","",""
"null","","html-keyboard-response","471","301544","0.0-471.0","","","null","","","","","","","",""
"136.59999990463257","","image-keyboard-response","472","301682","0.0-472.0","","img/set2/S4.jpg","72","4","structured_normal","74","random,structured_normal,structured_load,structured_incentive","2,3,2,1,3,4","false","",""
"null","","html-keyboard-response","473","302041","0.0-473.0","","<img src=""img/set2/S4.jpg"" width=""540"" height = ""360"">","null","","","","","","","",""
"null","","html-keyboard-response","474","302250","0.0-474.0","","","null","","","","","","","",""
"30.40000009536743","","image-keyboard-response","475","302281","0.0-475.0","","img/set2/S4.jpg","72","4","structured_normal","74","random,structured_normal,structured_load,structured_incentive","2,3,2,1,3,4","false","",""
"null","","html-keyboard-response","476","302646","0.0-476.0","","<img src=""img/set2/S4.jpg"" width=""540"" height = ""360"">","null","","","","","","","",""
"null","","html-keyboard-response","477","302856","0.0-477.0","","","null","","","","","","","",""
"118.80000019073486","","image-keyboard-response","478","302976","0.0-478.0","","img/set2/S2.jpg","74","2","structured_normal","68","random,structured_normal,structured_load,structured_incentive","2,3,2,1,3,4","false","",""
"null","","html-keyboard-response","479","303344","0.0-479.0","","<img src=""img/set2/S2.jpg"" width=""540"" height = ""360"">","null","","","","","","","",""
"null","","html-keyboard-response","480","303554","0.0-480.0","","","null","","","","","","","",""
"116","","image-keyboard-response","481","303671","0.0-481.0","","img/set2/S3.jpg","72","3","structured_normal","72","random,structured_normal,structured_load,structured_incentive","2,3,2,1,3,4","true","",""
"null","","html-keyboard-response","482","304034","0.0-482.0","","<img src=""img/set2/S3.jpg"" width=""540"" height = ""360"" style=""border:16px solid orange"">","null","","","","","","","",""
"null","","html-keyboard-response","483","304241","0.0-483.0","","","null","","","","","","","",""
"9.100000381469727","","image-keyboard-response","484","304252","0.0-484.0","","img/set2/S2.jpg","72","2","structured_normal","68","random,structured_normal,structured_load,structured_incentive","2,3,2,1,3,4","false","",""
"null","","html-keyboard-response","485","304617","0.0-485.0","","<img src=""img/set2/S2.jpg"" width=""540"" height = ""360"">","null","","","","","","","",""
"null","","html-keyboard-response","486","304819","0.0-486.0","","","null","","","","","","","",""
"23.09999990463257","","image-keyboard-response","487","304844","0.0-487.0","","img/set2/S3.jpg","74","3","structured_normal","72","random,structured_normal,structured_load,structured_incentive","2,3,2,1,3,4","false","",""
"null","","html-keyboard-response","488","305210","0.0-488.0","","<img src=""img/set2/S3.jpg"" width=""540"" height = ""360"">","null","","","","","","","",""
"null","","html-keyboard-response","489","305421","0.0-489.0","","","null","","","","","","","",""
"115.89999961853027","","image-keyboard-response","490","305538","0.0-490.0","","img/set2/S4.jpg","72","4","structured_normal","74","random,structured_normal,structured_load,structured_incentive","2,3,2,1,3,4","false","",""
"null","","html-keyboard-response","491","305904","0.0-491.0","","<img src=""img/set2/S4.jpg"" width=""540"" height = ""360"">","null","","","","","","","",""
"null","","html-keyboard-response","492","306109","0.0-492.0","","","null","","","","","","","",""
"211.90000009536743","","image-keyboard-response","493","306322","0.0-493.0","","img/set2/S4.jpg","83","4","structured_normal","74","random,structured_normal,structured_load,structured_incentive","2,3,2,1,3,4","false","",""
"null","","html-keyboard-response","494","306675","0.0-494.0","","<img src=""img/set2/S4.jpg"" width=""540"" height = ""360"">","null","","","","","","","",""
"null","","html-keyboard-response","495","306887","0.0-495.0","","","null","","","","","","","",""
"319.80000019073486","","image-keyboard-response","496","307208","0.0-496.0","","img/set2/S1.jpg","83","1","structured_normal","83","random,structured_normal,structured_load,structured_incentive","2,3,2,1,3,4","true","",""
"null","","html-keyboard-response","497","307573","0.0-497.0","","<img src=""img/set2/S1.jpg"" width=""540"" height = ""360"" style=""border:16px solid orange"">","null","","","","","","","",""
"null","","html-keyboard-response","498","307775","0.0-498.0","","","null","","","","","","","",""
"161.59999990463257","","image-keyboard-response","499","307939","0.0-499.0","","img/set2/S4.jpg","83","4","structured_normal","74","random,structured_normal,structured_load,structured_incentive","2,3,2,1,3,4","false","",""
"null","","html-keyboard-response","500","308291","0.0-500.0","","<img src=""img/set2/S4.jpg"" width=""540"" height = ""360"">","null","","","","","","","",""
"null","","html-keyboard-response","501","308492","0.0-501.0","","","null","","","","","","","",""
"204.89999961853027","","image-keyboard-response","502","308698","0.0-502.0","","img/set2/S4.jpg","72","4","structured_normal","74","random,structured_normal,structured_load,structured_incentive","2,3,2,1,3,4","false","",""
"null","","html-keyboard-response","503","309055","0.0-503.0","","<img src=""img/set2/S4.jpg"" width=""540"" height = ""360"">","null","","","","","","","",""
"null","","html-keyboard-response","504","309261","0.0-504.0","","","null","","","","","","","",""
"93.89999961853027","","image-keyboard-response","505","309357","0.0-505.0","","img/set2/S4.jpg","74","4","structured_normal","74","random,structured_normal,structured_load,structured_incentive","2,3,2,1,3,4","true","",""
"null","","html-keyboard-response","506","309711","0.0-506.0","","<img src=""img/set2/S4.jpg"" width=""540"" height = ""360"" style=""border:16px solid orange"">","null","","","","","","","",""
"null","","html-keyboard-response","507","309921","0.0-507.0","","","null","","","","","","","",""
"291.59999990463257","","image-keyboard-response","508","310214","0.0-508.0","","img/set2/S1.jpg","74","1","structured_normal","83","random,structured_normal,structured_load,structured_incentive","2,3,2,1,3,4","false","",""
"null","","html-keyboard-response","509","310567","0.0-509.0","","<img src=""img/set2/S1.jpg"" width=""540"" height = ""360"">","null","","","","","","","",""
"null","","html-keyboard-response","510","310770","0.0-510.0","","","null","","","","","","","",""
"32.90000009536743","","image-keyboard-response","511","310804","0.0-511.0","","img/set2/S2.jpg","74","2","structured_normal","68","random,structured_normal,structured_load,structured_incentive","2,3,2,1,3,4","false","",""
"null","","html-keyboard-response","512","311166","0.0-512.0","","<img src=""img/set2/S2.jpg"" width=""540"" height = ""360"">","null","","","","","","","",""
"null","","html-keyboard-response","513","311371","0.0-513.0","","","null","","","","","","","",""
"59.200000286102295","","image-keyboard-response","514","311431","0.0-514.0","","img/set2/S3.jpg","74","3","structured_normal","72","random,structured_normal,structured_load,structured_incentive","2,3,2,1,3,4","false","",""
"null","","html-keyboard-response","515","311796","0.0-515.0","","<img src=""img/set2/S3.jpg"" width=""540"" height = ""360"">","null","","","","","","","",""
"null","","html-keyboard-response","516","312009","0.0-516.0","","","null","","","","","","","",""
"175.2999997138977","","image-keyboard-response","517","312186","0.0-517.0","","img/set2/S2.jpg","68","2","structured_normal","68","random,structured_normal,structured_load,structured_incentive","2,3,2,1,3,4","true","",""
"null","","html-keyboard-response","518","312538","0.0-518.0","","<img src=""img/set2/S2.jpg"" width=""540"" height = ""360"" style=""border:16px solid orange"">","null","","","","","","","",""
"null","","html-keyboard-response","519","312740","0.0-519.0","","","null","","","","","","","",""
"232.40000009536743","","image-keyboard-response","520","312974","0.0-520.0","","img/set2/S3.jpg","83","3","structured_normal","72","random,structured_normal,structured_load,structured_incentive","2,3,2,1,3,4","false","",""
"null","","html-keyboard-response","521","313331","0.0-521.0","","<img src=""img/set2/S3.jpg"" width=""540"" height = ""360"">","null","","","","","","","",""
"null","","html-keyboard-response","522","313533","0.0-522.0","","","null","","","","","","","",""
"132.30000019073486","","image-keyboard-response","523","313667","0.0-523.0","","img/set2/S4.jpg","83","4","structured_normal","74","random,structured_normal,structured_load,structured_incentive","2,3,2,1,3,4","false","",""
"null","","html-keyboard-response","524","314029","0.0-524.0","","<img src=""img/set2/S4.jpg"" width=""540"" height = ""360"">","null","","","","","","","",""
"null","","html-keyboard-response","525","314242","0.0-525.0","","","null","","","","","","","",""
"357.40000009536743","","image-keyboard-response","526","314601","0.0-526.0","","img/set2/S2.jpg","68","2","structured_normal","68","random,structured_normal,structured_load,structured_incentive","2,3,2,1,3,4","true","",""
"null","","html-keyboard-response","527","314963","0.0-527.0","","<img src=""img/set2/S2.jpg"" width=""540"" height = ""360"" style=""border:16px solid orange"">","null","","","","","","","",""
"null","","html-keyboard-response","528","315172","0.0-528.0","","","null","","","","","","","",""
"157.69999980926514","","image-keyboard-response","529","315332","0.0-529.0","","img/set2/S3.jpg","83","3","structured_normal","72","random,structured_normal,structured_load,structured_incentive","2,3,2,1,3,4","false","",""
"null","","html-keyboard-response","530","315688","0.0-530.0","","<img src=""img/set2/S3.jpg"" width=""540"" height = ""360"">","null","","","","","","","",""
"null","","html-keyboard-response","531","315890","0.0-531.0","","","null","","","","","","","",""
"388.90000009536743","","image-keyboard-response","532","316281","0.0-532.0","","img/set2/S1.jpg","83","1","structured_normal","83","random,structured_normal,structured_load,structured_incentive","2,3,2,1,3,4","true","",""
"null","","html-keyboard-response","533","316635","0.0-533.0","","<img src=""img/set2/S1.jpg"" width=""540"" height = ""360"" style=""border:16px solid orange"">","null","","","","","","","",""
"null","","html-keyboard-response","534","316839","0.0-534.0","","","null","","","","","","","",""
"104.5","","image-keyboard-response","535","316945","0.0-535.0","","img/set2/S4.jpg","68","4","structured_normal","74","random,structured_normal,structured_load,structured_incentive","2,3,2,1,3,4","false","",""
"null","","html-keyboard-response","536","317297","0.0-536.0","","<img src=""img/set2/S4.jpg"" width=""540"" height = ""360"">","null","","","","","","","",""
"null","","html-keyboard-response","537","317499","0.0-537.0","","","null","","","","","","","",""
"12.400000095367432","","image-keyboard-response","538","317513","0.0-538.0","","img/set2/S1.jpg","68","1","structured_normal","83","random,structured_normal,structured_load,structured_incentive","2,3,2,1,3,4","false","",""
"null","","html-keyboard-response","539","317895","0.0-539.0","","<img src=""img/set2/S1.jpg"" width=""540"" height = ""360"">","null","","","","","","","",""
"null","","html-keyboard-response","540","318097","0.0-540.0","","","null","","","","","","","",""
"209.59999990463257","","image-keyboard-response","541","318307","0.0-541.0","","img/set2/S4.jpg","72","4","structured_normal","74","random,structured_normal,structured_load,structured_incentive","2,3,2,1,3,4","false","",""
"null","","html-keyboard-response","542","318668","0.0-542.0","","<img src=""img/set2/S4.jpg"" width=""540"" height = ""360"">","null","","","","","","","",""
"null","","html-keyboard-response","543","318876","0.0-543.0","","","null","","","","","","","",""
"74.59999990463257","","image-keyboard-response","544","318952","0.0-544.0","","img/set2/S1.jpg","74","1","structured_normal","83","random,structured_normal,structured_load,structured_incentive","2,3,2,1,3,4","false","",""
"null","","html-keyboard-response","545","319316","0.0-545.0","","<img src=""img/set2/S1.jpg"" width=""540"" height = ""360"">","null","","","","","","","",""
"null","","html-keyboard-response","546","319519","0.0-546.0","","","null","","","","","","","",""
"110.59999990463257","","image-keyboard-response","547","319631","0.0-547.0","","img/set2/S4.jpg","74","4","structured_normal","74","random,structured_normal,structured_load,structured_incentive","2,3,2,1,3,4","true","",""
"null","","html-keyboard-response","548","319984","0.0-548.0","","<img src=""img/set2/S4.jpg"" width=""540"" height = ""360"" style=""border:16px solid orange"">","null","","","","","","","",""
"null","","html-keyboard-response","549","320194","0.0-549.0","","","null","","","","","","","",""
"136.30000019073486","","image-keyboard-response","550","320332","0.0-550.0","","img/set2/S1.jpg","72","1","structured_normal","83","random,structured_normal,structured_load,structured_incentive","2,3,2,1,3,4","false","",""
"null","","html-keyboard-response","551","320685","0.0-551.0","","<img src=""img/set2/S1.jpg"" width=""540"" height = ""360"">","null","","","","","","","",""
"null","","html-keyboard-response","552","320887","0.0-552.0","","","null","","","","","","","",""
"123.40000009536743","","image-keyboard-response","553","321012","0.0-553.0","","img/set2/S1.jpg","72","1","structured_normal","83","random,structured_normal,structured_load,structured_incentive","2,3,2,1,3,4","false","",""
"null","","html-keyboard-response","554","321365","0.0-554.0","","<img src=""img/set2/S1.jpg"" width=""540"" height = ""360"">","null","","","","","","","",""
"null","","html-keyboard-response","555","321576","0.0-555.0","","","null","","","","","","","",""
"87.5","","image-keyboard-response","556","321666","0.0-556.0","","img/set2/S2.jpg","74","2","structured_normal","68","random,structured_normal,structured_load,structured_incentive","2,3,2,1,3,4","false","",""
"null","","html-keyboard-response","557","322026","0.0-557.0","","<img src=""img/set2/S2.jpg"" width=""540"" height = ""360"">","null","","","","","","","",""
"null","","html-keyboard-response","558","322266","0.0-558.0","","","null","","","","","","","",""
"103","","image-keyboard-response","559","322371","0.0-559.0","","img/set2/S3.jpg","74","3","structured_normal","72","random,structured_normal,structured_load,structured_incentive","2,3,2,1,3,4","false","",""
"null","","html-keyboard-response","560","322736","0.0-560.0","","<img src=""img/set2/S3.jpg"" width=""540"" height = ""360"">","null","","","","","","","",""
"null","","html-keyboard-response","561","322951","0.0-561.0","","","null","","","","","","","",""
"139.10000038146973","","image-keyboard-response","562","323092","0.0-562.0","","img/set2/S2.jpg","72","2","structured_normal","68","random,structured_normal,structured_load,structured_incentive","2,3,2,1,3,4","false","",""
"null","","html-keyboard-response","563","323444","0.0-563.0","","<img src=""img/set2/S2.jpg"" width=""540"" height = ""360"">","null","","","","","","","",""
"null","","html-keyboard-response","564","323651","0.0-564.0","","","null","","","","","","","",""
"225.7000002861023","","image-keyboard-response","565","323878","0.0-565.0","","img/set2/S3.jpg","72","3","structured_normal","72","random,structured_normal,structured_load,structured_incentive","2,3,2,1,3,4","true","",""
"null","","html-keyboard-response","566","324238","0.0-566.0","","<img src=""img/set2/S3.jpg"" width=""540"" height = ""360"" style=""border:16px solid orange"">","null","","","","","","","",""
"null","","html-keyboard-response","567","324455","0.0-567.0","","","null","","","","","","","",""
"75.09999990463257","","image-keyboard-response","568","324531","0.0-568.0","","img/set2/S4.jpg","72","4","structured_normal","74","random,structured_normal,structured_load,structured_incentive","2,3,2,1,3,4","false","",""
"null","","html-keyboard-response","569","324901","0.0-569.0","","<img src=""img/set2/S4.jpg"" width=""540"" height = ""360"">","null","","","","","","","",""
"null","","html-keyboard-response","570","325110","0.0-570.0","","","null","","","","","","","",""
"123.60000038146973","","image-keyboard-response","571","325235","0.0-571.0","","img/set2/S1.jpg","74","1","structured_normal","83","random,structured_normal,structured_load,structured_incentive","2,3,2,1,3,4","false","",""
"null","","html-keyboard-response","572","325587","0.0-572.0","","<img src=""img/set2/S1.jpg"" width=""540"" height = ""360"">","null","","","","","","","",""
"null","","html-keyboard-response","573","325822","0.0-573.0","","","null","","","","","","","",""
"56.5","","image-keyboard-response","574","325881","0.0-574.0","","img/set2/S2.jpg","74","2","structured_normal","68","random,structured_normal,structured_load,structured_incentive","2,3,2,1,3,4","false","",""
"null","","html-keyboard-response","575","326234","0.0-575.0","","<img src=""img/set2/S2.jpg"" width=""540"" height = ""360"">","null","","","","","","","",""
"null","","html-keyboard-response","576","326445","0.0-576.0","","","null","","","","","","","",""
"33.5","","image-keyboard-response","577","326479","0.0-577.0","","img/set2/S3.jpg","74","3","structured_normal","72","random,structured_normal,structured_load,structured_incentive","2,3,2,1,3,4","false","",""
"null","","html-keyboard-response","578","326832","0.0-578.0","","<img src=""img/set2/S3.jpg"" width=""540"" height = ""360"">","null","","","","","","","",""
"null","","html-keyboard-response","579","327035","0.0-579.0","","","null","","","","","","","",""
"101.69999980926514","","image-keyboard-response","580","327138","0.0-580.0","","img/set2/S2.jpg","74","2","structured_normal","68","random,structured_normal,structured_load,structured_incentive","2,3,2,1,3,4","false","",""
"null","","html-keyboard-response","581","327491","0.0-581.0","","<img src=""img/set2/S2.jpg"" width=""540"" height = ""360"">","null","","","","","","","",""
"null","","html-keyboard-response","582","327697","0.0-582.0","","","null","","","","","","","",""
"101.19999980926514","","image-keyboard-response","583","327800","0.0-583.0","","img/set2/S3.jpg","74","3","structured_normal","72","random,structured_normal,structured_load,structured_incentive","2,3,2,1,3,4","false","",""
"null","","html-keyboard-response","584","328154","0.0-584.0","","<img src=""img/set2/S3.jpg"" width=""540"" height = ""360"">","null","","","","","","","",""
"null","","html-keyboard-response","585","328363","0.0-585.0","","","null","","","","","","","",""
"45","","image-keyboard-response","586","328409","0.0-586.0","","img/set2/S1.jpg","72","1","structured_normal","83","random,structured_normal,structured_load,structured_incentive","2,3,2,1,3,4","false","",""
"null","","html-keyboard-response","587","328768","0.0-587.0","","<img src=""img/set2/S1.jpg"" width=""540"" height = ""360"">","null","","","","","","","",""
"null","","html-keyboard-response","588","328976","0.0-588.0","","","null","","","","","","","",""
"11.400000095367432","","image-keyboard-response","589","328989","0.0-589.0","","img/set2/S2.jpg","74","2","structured_normal","68","random,structured_normal,structured_load,structured_incentive","2,3,2,1,3,4","false","",""
"null","","html-keyboard-response","590","329344","0.0-590.0","","<img src=""img/set2/S2.jpg"" width=""540"" height = ""360"">","null","","","","","","","",""
"null","","html-keyboard-response","591","329547","0.0-591.0","","","null","","","","","","","",""
"175.2999997138977","","image-keyboard-response","592","329725","0.0-592.0","","img/set2/S3.jpg","72","3","structured_normal","72","random,structured_normal,structured_load,structured_incentive","2,3,2,1,3,4","true","",""
"null","","html-keyboard-response","593","330088","0.0-593.0","","<img src=""img/set2/S3.jpg"" width=""540"" height = ""360"" style=""border:16px solid orange"">","null","","","","","","","",""
"null","","html-keyboard-response","594","330294","0.0-594.0","","","null","","","","","","","",""
"236.09999990463257","","image-keyboard-response","595","330532","0.0-595.0","","img/set2/S2.jpg","74","2","structured_normal","68","random,structured_normal,structured_load,structured_incentive","2,3,2,1,3,4","false","",""
"null","","html-keyboard-response","596","330886","0.0-596.0","","<img src=""img/set2/S2.jpg"" width=""540"" height = ""360"">","null","","","","","","","",""
"null","","html-keyboard-response","597","331098","0.0-597.0","","","null","","","","","","","",""
"149.5","","image-keyboard-response","598","331249","0.0-598.0","","img/set2/S3.jpg","72","3","structured_normal","72","random,structured_normal,structured_load,structured_incentive","2,3,2,1,3,4","true","",""
"null","","html-keyboard-response","599","331604","0.0-599.0","","<img src=""img/set2/S3.jpg"" width=""540"" height = ""360"" style=""border:16px solid orange"">","null","","","","","","","",""
"null","","html-keyboard-response","600","331807","0.0-600.0","","","null","","","","","","","",""
"41.09999990463257","","image-keyboard-response","601","331850","0.0-601.0","","img/set2/S1.jpg","68","1","structured_normal","83","random,structured_normal,structured_load,structured_incentive","2,3,2,1,3,4","false","",""
"null","","html-keyboard-response","602","332215","0.0-602.0","","<img src=""img/set2/S1.jpg"" width=""540"" height = ""360"">","null","","","","","","","",""
"null","","html-keyboard-response","603","332421","0.0-603.0","","","null","","","","","","","",""
"289.59999990463257","","image-keyboard-response","604","332712","0.0-604.0","","img/set2/S2.jpg","83","2","structured_normal","68","random,structured_normal,structured_load,structured_incentive","2,3,2,1,3,4","false","",""
"null","","html-keyboard-response","605","333064","0.0-605.0","","<img src=""img/set2/S2.jpg"" width=""540"" height = ""360"">","null","","","","","","","",""
"null","","html-keyboard-response","606","333267","0.0-606.0","","","null","","","","","","","",""
"29.5","","image-keyboard-response","607","333297","0.0-607.0","","img/set2/S3.jpg","68","3","structured_normal","72","random,structured_normal,structured_load,structured_incentive","2,3,2,1,3,4","false","",""
"null","","html-keyboard-response","608","333649","0.0-608.0","","<img src=""img/set2/S3.jpg"" width=""540"" height = ""360"">","null","","","","","","","",""
"null","","html-keyboard-response","609","333853","0.0-609.0","","","null","","","","","","","",""
"232.90000009536743","","image-keyboard-response","610","334088","0.0-610.0","","img/set2/S4.jpg","68","4","structured_normal","74","random,structured_normal,structured_load,structured_incentive","2,3,2,1,3,4","false","",""
"null","","html-keyboard-response","611","334453","0.0-611.0","","<img src=""img/set2/S4.jpg"" width=""540"" height = ""360"">","null","","","","","","","",""
"null","","html-keyboard-response","612","334654","0.0-612.0","","","null","","","","","","","",""
"190.90000009536743","","image-keyboard-response","613","334847","0.0-613.0","","img/set2/S1.jpg","83","1","structured_normal","83","random,structured_normal,structured_load,structured_incentive","2,3,2,1,3,4","true","",""
"null","","html-keyboard-response","614","335210","0.0-614.0","","<img src=""img/set2/S1.jpg"" width=""540"" height = ""360"" style=""border:16px solid orange"">","null","","","","","","","",""
"null","","html-keyboard-response","615","335419","0.0-615.0","","","null","","","","","","","",""
"170.09999990463257","","image-keyboard-response","616","335590","0.0-616.0","","img/set2/S1.jpg","83","1","structured_normal","83","random,structured_normal,structured_load,structured_incentive","2,3,2,1,3,4","true","",""
"null","","html-keyboard-response","617","335946","0.0-617.0","","<img src=""img/set2/S1.jpg"" width=""540"" height = ""360"" style=""border:16px solid orange"">","null","","","","","","","",""
"null","","html-keyboard-response","618","336149","0.0-618.0","","","null","","","","","","","",""
