"rt","url","trial_type","trial_index","time_elapsed","internal_node_id","view_history","stimulus","key_press","state","test_part","correct_response","order_block","order_chunk","correct","responses","bonus"
"18392.30000001192","consent.html","external-html","0","18464","0.0-0.0","","","","","","","","","","",""
"75229.59999996424","","instructions","1","93696","0.0-1.0","[{""page_index"":0,""viewing_time"":3621.7999999523163},{""page_index"":1,""viewing_time"":5855.400000035763},{""page_index"":2,""viewing_time"":10384},{""page_index"":3,""viewing_time"":19551.899999976158},{""page_index"":4,""viewing_time"":6415.699999988079},{""page_index"":5,""viewing_time"":19072.200000047684},{""page_index"":6,""viewing_time"":10327.899999976158}]","","","","","","","","","",""
"10813.800000011921","","instructions","2","104510","0.0-2.0","[{""page_index"":0,""viewing_time"":10813.600000023842}]","","","","","","","","","",""
"5095.199999988079","","instructions","3","109606","0.0-3.0","[{""page_index"":0,""viewing_time"":5095}]","","","","","","","","","",""
"null","","image-keyboard-response","4","112111","0.0-4.0","","img/set1/S2.jpg","null","2","random","68","random,structured_load,structured_incentive,structured_normal","2,1,2,3,3,4","false","",""
"null","","html-keyboard-response","5","112468","0.0-5.0","","<img src=""img/set1/S2.jpg"" width=""540"" height = ""360"">","null","","","","","","","",""
"null","","html-keyboard-response","6","112672","0.0-6.0","","","null","","","","","","","",""
"680.6999999880791","","image-keyboard-response","7","113358","0.0-7.0","","img/set1/S2.jpg","83","2","random","68","random,structured_load,structured_incentive,structured_normal","2,1,2,3,3,4","false","",""
"null","","html-keyboard-response","8","113714","0.0-8.0","","<img src=""img/set1/S2.jpg"" width=""540"" height = ""360"">","null","","","","","","","",""
"null","","html-keyboard-response","9","113916","0.0-9.0","","","null","","","","","","","",""
"1610.3999999761581","","image-keyboard-response","10","115529","0.0-10.0","","img/set1/S3.jpg","68","3","random","72","random,structured_load,structured_incentive,structured_normal","2,1,2,3,3,4","false","",""
"null","","html-keyboard-response","11","115884","0.0-11.0","","<img src=""img/set1/S3.jpg"" width=""540"" height = ""360"">","null","","","","","","","",""
"null","","html-keyboard-response","12","116088","0.0-12.0","","","null","","","","","","","",""
"1716.199999988079","","image-keyboard-response","13","117806","0.0-13.0","","img/set1/S4.jpg","72","4","random","74","random,structured_load,structured_incentive,structured_normal","2,1,2,3,3,4","false","",""
"null","","html-keyboard-response","14","118159","0.0-14.0","","<img src=""img/set1/S4.jpg"" width=""540"" height = ""360"">","null","","","","","","","",""
"null","","html-keyboard-response","15","118361","0.0-15.0","","","null","","","","","","","",""
"1253.199999988079","","image-keyboard-response","16","119617","0.0-16.0","","img/set1/S4.jpg","83","4","random","74","random,structured_load,structured_incentive,structured_normal","2,1,2,3,3,4","false","",""
"null","","html-keyboard-response","17","119971","0.0-17.0","","<img src=""img/set1/S4.jpg"" width=""540"" height = ""360"">","null","","","","","","","",""
"null","","html-keyboard-response","18","120173","0.0-18.0","","","null","","","","","","","",""
"1631.699999988079","","image-keyboard-response","19","121806","0.0-19.0","","img/set1/S4.jpg","74","4","random","74","random,structured_load,structured_incentive,structured_normal","2,1,2,3,3,4","true","",""
"null","","html-keyboard-response","20","122159","0.0-20.0","","<img src=""img/set1/S4.jpg"" width=""540"" height = ""360"" style=""border:16px solid orange"">","null","","","","","","","",""
"null","","html-keyboard-response","21","122362","0.0-21.0","","","null","","","","","","","",""
"1642.2000000476837","","image-keyboard-response","22","124007","0.0-22.0","","img/set1/S3.jpg","74","3","random","72","random,structured_load,structured_incentive,structured_normal","2,1,2,3,3,4","false","",""
"null","","html-keyboard-response","23","124360","0.0-23.0","","<img src=""img/set1/S3.jpg"" width=""540"" height = ""360"">","null","","","","","","","",""
"null","","html-keyboard-response","24","124562","0.0-24.0","","","null","","","","","","","",""
"1652.300000011921","","image-keyboard-response","25","126217","0.0-25.0","","img/set1/S1.jpg","72","1","random","83","random,structured_load,structured_incentive,structured_normal","2,1,2,3,3,4","false","",""
"null","","html-keyboard-response","26","126571","0.0-26.0","","<img src=""img/set1/S1.jpg"" width=""540"" height = ""360"">","null","","","","","","","",""
"null","","html-keyboard-response","27","126773","0.0-27.0","","","null","","","","","","","",""
"1353","","image-keyboard-response","28","128129","0.0-28.0","","img/set1/S3.jpg","74","3","random","72","random,structured_load,structured_incentive,structured_normal","2,1,2,3,3,4","false","",""
"null","","html-keyboard-response","29","128482","0.0-29.0","","<img src=""img/set1/S3.jpg"" width=""540"" height = ""360"">","null","","","","","","","",""
"null","","html-keyboard-response","30","128684","0.0-30.0","","","null","","","","","","","",""
"626.4000000357628","","image-keyboard-response","31","129313","0.0-31.0","","img/set1/S1.jpg","68","1","random","83","random,structured_load,structured_incentive,structured_normal","2,1,2,3,3,4","false","",""
"null","","html-keyboard-response","32","129667","0.0-32.0","","<img src=""img/set1/S1.jpg"" width=""540"" height = ""360"">","null","","","","","","","",""
"null","","html-keyboard-response","33","129869","0.0-33.0","","","null","","","","","","","",""
"1169.4000000357628","","image-keyboard-response","34","131041","0.0-34.0","","img/set1/S4.jpg","74","4","random","74","random,structured_load,structured_incentive,structured_normal","2,1,2,3,3,4","true","",""
"null","","html-keyboard-response","35","131394","0.0-35.0","","<img src=""img/set1/S4.jpg"" width=""540"" height = ""360"" style=""border:16px solid orange"">","null","","","","","","","",""
"null","","html-keyboard-response","36","131597","0.0-36.0","","","null","","","","","","","",""
"721.6999999880791","","image-keyboard-response","37","132321","0.0-37.0","","img/set1/S2.jpg","83","2","random","68","random,structured_load,structured_incentive,structured_normal","2,1,2,3,3,4","false","",""
"null","","html-keyboard-response","38","132675","0.0-38.0","","<img src=""img/set1/S2.jpg"" width=""540"" height = ""360"">","null","","","","","","","",""
"null","","html-keyboard-response","39","132876","0.0-39.0","","","null","","","","","","","",""
"567.6999999880791","","image-keyboard-response","40","133446","0.0-40.0","","img/set1/S2.jpg","72","2","random","68","random,structured_load,structured_incentive,structured_normal","2,1,2,3,3,4","false","",""
"null","","html-keyboard-response","41","133798","0.0-41.0","","<img src=""img/set1/S2.jpg"" width=""540"" height = ""360"">","null","","","","","","","",""
"null","","html-keyboard-response","42","134000","0.0-42.0","","","null","","","","","","","",""
"1182.4000000357628","","image-keyboard-response","43","135185","0.0-43.0","","img/set1/S3.jpg","68","3","random","72","random,structured_load,structured_incentive,structured_normal","2,1,2,3,3,4","false","",""
"null","","html-keyboard-response","44","135539","0.0-44.0","","<img src=""img/set1/S3.jpg"" width=""540"" height = ""360"">","null","","","","","","","",""
"null","","html-keyboard-response","45","135741","0.0-45.0","","","null","","","","","","","",""
"2206.800000011921","","image-keyboard-response","46","137950","0.0-46.0","","img/set1/S1.jpg","74","1","random","83","random,structured_load,structured_incentive,structured_normal","2,1,2,3,3,4","false","",""
"null","","html-keyboard-response","47","138303","0.0-47.0","","<img src=""img/set1/S1.jpg"" width=""540"" height = ""360"">","null","","","","","","","",""
"null","","html-keyboard-response","48","138504","0.0-48.0","","","null","","","","","","","",""
"1269.699999988079","","image-keyboard-response","49","139777","0.0-49.0","","img/set1/S3.jpg","83","3","random","72","random,structured_load,structured_incentive,structured_normal","2,1,2,3,3,4","false","",""
"null","","html-keyboard-response","50","140130","0.0-50.0","","<img src=""img/set1/S3.jpg"" width=""540"" height = ""360"">","null","","","","","","","",""
"null","","html-keyboard-response","51","140332","0.0-51.0","","","null","","","","","","","",""
"1122.6000000238419","","image-keyboard-response","52","141456","0.0-52.0","","img/set1/S1.jpg","68","1","random","83","random,structured_load,structured_incentive,structured_normal","2,1,2,3,3,4","false","",""
"null","","html-keyboard-response","53","141809","0.0-53.0","","<img src=""img/set1/S1.jpg"" width=""540"" height = ""360"">","null","","","","","","","",""
"null","","html-keyboard-response","54","142011","0.0-54.0","","","null","","","","","","","",""
"764.1999999880791","","image-keyboard-response","55","142777","0.0-55.0","","img/set1/S4.jpg","74","4","random","74","random,structured_load,structured_incentive,structured_normal","2,1,2,3,3,4","true","",""
"null","","html-keyboard-response","56","143138","0.0-56.0","","<img src=""img/set1/S4.jpg"" width=""540"" height = ""360"" style=""border:16px solid orange"">","null","","","","","","","",""
"null","","html-keyboard-response","57","143340","0.0-57.0","","","null","","","","","","","",""
"947.6999999880791","","image-keyboard-response","58","144289","0.0-58.0","","img/set1/S4.jpg","74","4","random","74","random,structured_load,structured_incentive,structured_normal","2,1,2,3,3,4","true","",""
"null","","html-keyboard-response","59","144642","0.0-59.0","","<img src=""img/set1/S4.jpg"" width=""540"" height = ""360"" style=""border:16px solid orange"">","null","","","","","","","",""
"null","","html-keyboard-response","60","144845","0.0-60.0","","","null","","","","","","","",""
"721.1000000238419","","image-keyboard-response","61","145569","0.0-61.0","","img/set1/S4.jpg","74","4","random","74","random,structured_load,structured_incentive,structured_normal","2,1,2,3,3,4","true","",""
"null","","html-keyboard-response","62","145925","0.0-62.0","","<img src=""img/set1/S4.jpg"" width=""540"" height = ""360"" style=""border:16px solid orange"">","null","","","","","","","",""
"null","","html-keyboard-response","63","146128","0.0-63.0","","","null","","","","","","","",""
"1526.300000011921","","image-keyboard-response","64","147657","0.0-64.0","","img/set1/S2.jpg","74","2","random","68","random,structured_load,structured_incentive,structured_normal","2,1,2,3,3,4","false","",""
"null","","html-keyboard-response","65","148011","0.0-65.0","","<img src=""img/set1/S2.jpg"" width=""540"" height = ""360"">","null","","","","","","","",""
"null","","html-keyboard-response","66","148213","0.0-66.0","","","null","","","","","","","",""
"1481.1000000238419","","image-keyboard-response","67","149697","0.0-67.0","","img/set1/S3.jpg","72","3","random","72","random,structured_load,structured_incentive,structured_normal","2,1,2,3,3,4","true","",""
"null","","html-keyboard-response","68","150052","0.0-68.0","","<img src=""img/set1/S3.jpg"" width=""540"" height = ""360"" style=""border:16px solid orange"">","null","","","","","","","",""
"null","","html-keyboard-response","69","150255","0.0-69.0","","","null","","","","","","","",""
"635.1999999880791","","image-keyboard-response","70","150897","0.0-70.0","","img/set1/S3.jpg","72","3","random","72","random,structured_load,structured_incentive,structured_normal","2,1,2,3,3,4","true","",""
"null","","html-keyboard-response","71","151251","0.0-71.0","","<img src=""img/set1/S3.jpg"" width=""540"" height = ""360"" style=""border:16px solid orange"">","null","","","","","","","",""
"null","","html-keyboard-response","72","151460","0.0-72.0","","","null","","","","","","","",""
"625.6999999880791","","image-keyboard-response","73","152089","0.0-73.0","","img/set1/S2.jpg","74","2","random","68","random,structured_load,structured_incentive,structured_normal","2,1,2,3,3,4","false","",""
"null","","html-keyboard-response","74","152444","0.0-74.0","","<img src=""img/set1/S2.jpg"" width=""540"" height = ""360"">","null","","","","","","","",""
"null","","html-keyboard-response","75","152646","0.0-75.0","","","null","","","","","","","",""
"997.5","","image-keyboard-response","76","153646","0.0-76.0","","img/set1/S2.jpg","68","2","random","68","random,structured_load,structured_incentive,structured_normal","2,1,2,3,3,4","true","",""
"null","","html-keyboard-response","77","153998","0.0-77.0","","<img src=""img/set1/S2.jpg"" width=""540"" height = ""360"" style=""border:16px solid orange"">","null","","","","","","","",""
"null","","html-keyboard-response","78","154213","0.0-78.0","","","null","","","","","","","",""
"1042.3999999761581","","image-keyboard-response","79","155257","0.0-79.0","","img/set1/S1.jpg","83","1","random","83","random,structured_load,structured_incentive,structured_normal","2,1,2,3,3,4","true","",""
"null","","html-keyboard-response","80","155610","0.0-80.0","","<img src=""img/set1/S1.jpg"" width=""540"" height = ""360"" style=""border:16px solid orange"">","null","","","","","","","",""
"null","","html-keyboard-response","81","155814","0.0-81.0","","","null","","","","","","","",""
"735.8999999761581","","image-keyboard-response","82","156553","0.0-82.0","","img/set1/S1.jpg","83","1","random","83","random,structured_load,structured_incentive,structured_normal","2,1,2,3,3,4","true","",""
"null","","html-keyboard-response","83","156907","0.0-83.0","","<img src=""img/set1/S1.jpg"" width=""540"" height = ""360"" style=""border:16px solid orange"">","null","","","","","","","",""
"null","","html-keyboard-response","84","157110","0.0-84.0","","","null","","","","","","","",""
"592.1000000238419","","image-keyboard-response","85","157705","0.0-85.0","","img/set1/S1.jpg","83","1","random","83","random,structured_load,structured_incentive,structured_normal","2,1,2,3,3,4","true","",""
"null","","html-keyboard-response","86","158059","0.0-86.0","","<img src=""img/set1/S1.jpg"" width=""540"" height = ""360"" style=""border:16px solid orange"">","null","","","","","","","",""
"null","","html-keyboard-response","87","158261","0.0-87.0","","","null","","","","","","","",""
"1120.699999988079","","image-keyboard-response","88","159385","0.0-88.0","","img/set1/S3.jpg","72","3","random","72","random,structured_load,structured_incentive,structured_normal","2,1,2,3,3,4","true","",""
"null","","html-keyboard-response","89","159739","0.0-89.0","","<img src=""img/set1/S3.jpg"" width=""540"" height = ""360"" style=""border:16px solid orange"">","null","","","","","","","",""
"null","","html-keyboard-response","90","159941","0.0-90.0","","","null","","","","","","","",""
"625.1999999880791","","image-keyboard-response","91","160569","0.0-91.0","","img/set1/S3.jpg","72","3","random","72","random,structured_load,structured_incentive,structured_normal","2,1,2,3,3,4","true","",""
"null","","html-keyboard-response","92","160923","0.0-92.0","","<img src=""img/set1/S3.jpg"" width=""540"" height = ""360"" style=""border:16px solid orange"">","null","","","","","","","",""
"null","","html-keyboard-response","93","161126","0.0-93.0","","","null","","","","","","","",""
"934.1000000238419","","image-keyboard-response","94","162062","0.0-94.0","","img/set1/S2.jpg","68","2","random","68","random,structured_load,structured_incentive,structured_normal","2,1,2,3,3,4","true","",""
"null","","html-keyboard-response","95","162414","0.0-95.0","","<img src=""img/set1/S2.jpg"" width=""540"" height = ""360"" style=""border:16px solid orange"">","null","","","","","","","",""
"null","","html-keyboard-response","96","162616","0.0-96.0","","","null","","","","","","","",""
"485.80000001192093","","image-keyboard-response","97","163103","0.0-97.0","","img/set1/S2.jpg","68","2","random","68","random,structured_load,structured_incentive,structured_normal","2,1,2,3,3,4","true","",""
"null","","html-keyboard-response","98","163459","0.0-98.0","","<img src=""img/set1/S2.jpg"" width=""540"" height = ""360"" style=""border:16px solid orange"">","null","","","","","","","",""
"null","","html-keyboard-response","99","163661","0.0-99.0","","","null","","","","","","","",""
"544.6999999880791","","image-keyboard-response","100","164209","0.0-100.0","","img/set1/S2.jpg","68","2","random","68","random,structured_load,structured_incentive,structured_normal","2,1,2,3,3,4","true","",""
"null","","html-keyboard-response","101","164562","0.0-101.0","","<img src=""img/set1/S2.jpg"" width=""540"" height = ""360"" style=""border:16px solid orange"">","null","","","","","","","",""
"null","","html-keyboard-response","102","164765","0.0-102.0","","","null","","","","","","","",""
"519.1000000238419","","image-keyboard-response","103","165286","0.0-103.0","","img/set1/S2.jpg","68","2","random","68","random,structured_load,structured_incentive,structured_normal","2,1,2,3,3,4","true","",""
"null","","html-keyboard-response","104","165638","0.0-104.0","","<img src=""img/set1/S2.jpg"" width=""540"" height = ""360"" style=""border:16px solid orange"">","null","","","","","","","",""
"null","","html-keyboard-response","105","165839","0.0-105.0","","","null","","","","","","","",""
"791.6999999880791","","image-keyboard-response","106","166633","0.0-106.0","","img/set1/S1.jpg","83","1","random","83","random,structured_load,structured_incentive,structured_normal","2,1,2,3,3,4","true","",""
"null","","html-keyboard-response","107","166987","0.0-107.0","","<img src=""img/set1/S1.jpg"" width=""540"" height = ""360"" style=""border:16px solid orange"">","null","","","","","","","",""
"null","","html-keyboard-response","108","167189","0.0-108.0","","","null","","","","","","","",""
"728.5999999642372","","image-keyboard-response","109","167921","0.0-109.0","","img/set1/S4.jpg","74","4","random","74","random,structured_load,structured_incentive,structured_normal","2,1,2,3,3,4","true","",""
"null","","html-keyboard-response","110","168275","0.0-110.0","","<img src=""img/set1/S4.jpg"" width=""540"" height = ""360"" style=""border:16px solid orange"">","null","","","","","","","",""
"null","","html-keyboard-response","111","168477","0.0-111.0","","","null","","","","","","","",""
"968.9000000357628","","image-keyboard-response","112","169449","0.0-112.0","","img/set1/S3.jpg","72","3","random","72","random,structured_load,structured_incentive,structured_normal","2,1,2,3,3,4","true","",""
"null","","html-keyboard-response","113","169803","0.0-113.0","","<img src=""img/set1/S3.jpg"" width=""540"" height = ""360"" style=""border:16px solid orange"">","null","","","","","","","",""
"null","","html-keyboard-response","114","170005","0.0-114.0","","","null","","","","","","","",""
"697.1999999880791","","image-keyboard-response","115","170705","0.0-115.0","","img/set1/S1.jpg","83","1","random","83","random,structured_load,structured_incentive,structured_normal","2,1,2,3,3,4","true","",""
"null","","html-keyboard-response","116","171058","0.0-116.0","","<img src=""img/set1/S1.jpg"" width=""540"" height = ""360"" style=""border:16px solid orange"">","null","","","","","","","",""
"null","","html-keyboard-response","117","171260","0.0-117.0","","","null","","","","","","","",""
"705.8999999761581","","image-keyboard-response","118","171969","0.0-118.0","","img/set1/S3.jpg","72","3","random","72","random,structured_load,structured_incentive,structured_normal","2,1,2,3,3,4","true","",""
"null","","html-keyboard-response","119","172322","0.0-119.0","","<img src=""img/set1/S3.jpg"" width=""540"" height = ""360"" style=""border:16px solid orange"">","null","","","","","","","",""
"null","","html-keyboard-response","120","172524","0.0-120.0","","","null","","","","","","","",""
"513.6000000238419","","image-keyboard-response","121","173041","0.0-121.0","","img/set1/S2.jpg","74","2","random","68","random,structured_load,structured_incentive,structured_normal","2,1,2,3,3,4","false","",""
"null","","html-keyboard-response","122","173394","0.0-122.0","","<img src=""img/set1/S2.jpg"" width=""540"" height = ""360"">","null","","","","","","","",""
"null","","html-keyboard-response","123","173596","0.0-123.0","","","null","","","","","","","",""
"945.1999999880791","","image-keyboard-response","124","174542","0.0-124.0","","img/set1/S3.jpg","72","3","random","72","random,structured_load,structured_incentive,structured_normal","2,1,2,3,3,4","true","",""
"null","","html-keyboard-response","125","174894","0.0-125.0","","<img src=""img/set1/S3.jpg"" width=""540"" height = ""360"" style=""border:16px solid orange"">","null","","","","","","","",""
"null","","html-keyboard-response","126","175097","0.0-126.0","","","null","","","","","","","",""
"747.3000000119209","","image-keyboard-response","127","175847","0.0-127.0","","img/set1/S4.jpg","74","4","random","74","random,structured_load,structured_incentive,structured_normal","2,1,2,3,3,4","true","",""
"null","","html-keyboard-response","128","176200","0.0-128.0","","<img src=""img/set1/S4.jpg"" width=""540"" height = ""360"" style=""border:16px solid orange"">","null","","","","","","","",""
"null","","html-keyboard-response","129","176402","0.0-129.0","","","null","","","","","","","",""
"738","","image-keyboard-response","130","177142","0.0-130.0","","img/set1/S2.jpg","68","2","random","68","random,structured_load,structured_incentive,structured_normal","2,1,2,3,3,4","true","",""
"null","","html-keyboard-response","131","177494","0.0-131.0","","<img src=""img/set1/S2.jpg"" width=""540"" height = ""360"" style=""border:16px solid orange"">","null","","","","","","","",""
"null","","html-keyboard-response","132","177696","0.0-132.0","","","null","","","","","","","",""
"814","","image-keyboard-response","133","178512","0.0-133.0","","img/set1/S3.jpg","74","3","random","72","random,structured_load,structured_incentive,structured_normal","2,1,2,3,3,4","false","",""
"null","","html-keyboard-response","134","178867","0.0-134.0","","<img src=""img/set1/S3.jpg"" width=""540"" height = ""360"">","null","","","","","","","",""
"null","","html-keyboard-response","135","179069","0.0-135.0","","","null","","","","","","","",""
"511.5","","image-keyboard-response","136","179582","0.0-136.0","","img/set1/S3.jpg","72","3","random","72","random,structured_load,structured_incentive,structured_normal","2,1,2,3,3,4","true","",""
"null","","html-keyboard-response","137","179933","0.0-137.0","","<img src=""img/set1/S3.jpg"" width=""540"" height = ""360"" style=""border:16px solid orange"">","null","","","","","","","",""
"null","","html-keyboard-response","138","180136","0.0-138.0","","","null","","","","","","","",""
"470","","image-keyboard-response","139","180609","0.0-139.0","","img/set1/S4.jpg","68","4","random","74","random,structured_load,structured_incentive,structured_normal","2,1,2,3,3,4","false","",""
"null","","html-keyboard-response","140","180962","0.0-140.0","","<img src=""img/set1/S4.jpg"" width=""540"" height = ""360"">","null","","","","","","","",""
"null","","html-keyboard-response","141","181165","0.0-141.0","","","null","","","","","","","",""
"745.4000000357628","","image-keyboard-response","142","181913","0.0-142.0","","img/set1/S3.jpg","72","3","random","72","random,structured_load,structured_incentive,structured_normal","2,1,2,3,3,4","true","",""
"null","","html-keyboard-response","143","182266","0.0-143.0","","<img src=""img/set1/S3.jpg"" width=""540"" height = ""360"" style=""border:16px solid orange"">","null","","","","","","","",""
"null","","html-keyboard-response","144","182468","0.0-144.0","","","null","","","","","","","",""
"744.6999999880791","","image-keyboard-response","145","183214","0.0-145.0","","img/set1/S3.jpg","72","3","random","72","random,structured_load,structured_incentive,structured_normal","2,1,2,3,3,4","true","",""
"null","","html-keyboard-response","146","183567","0.0-146.0","","<img src=""img/set1/S3.jpg"" width=""540"" height = ""360"" style=""border:16px solid orange"">","null","","","","","","","",""
"null","","html-keyboard-response","147","183770","0.0-147.0","","","null","","","","","","","",""
"756.1999999880791","","image-keyboard-response","148","184528","0.0-148.0","","img/set1/S1.jpg","83","1","random","83","random,structured_load,structured_incentive,structured_normal","2,1,2,3,3,4","true","",""
"null","","html-keyboard-response","149","184882","0.0-149.0","","<img src=""img/set1/S1.jpg"" width=""540"" height = ""360"" style=""border:16px solid orange"">","null","","","","","","","",""
"null","","html-keyboard-response","150","185085","0.0-150.0","","","null","","","","","","","",""
"592.9000000357628","","image-keyboard-response","151","185681","0.0-151.0","","img/set1/S1.jpg","83","1","random","83","random,structured_load,structured_incentive,structured_normal","2,1,2,3,3,4","true","",""
"null","","html-keyboard-response","152","186034","0.0-152.0","","<img src=""img/set1/S1.jpg"" width=""540"" height = ""360"" style=""border:16px solid orange"">","null","","","","","","","",""
"null","","html-keyboard-response","153","186237","0.0-153.0","","","null","","","","","","","",""
"992.5","","image-keyboard-response","154","187230","0.0-154.0","","img/set1/S2.jpg","68","2","random","68","random,structured_load,structured_incentive,structured_normal","2,1,2,3,3,4","true","",""
"null","","html-keyboard-response","155","187584","0.0-155.0","","<img src=""img/set1/S2.jpg"" width=""540"" height = ""360"" style=""border:16px solid orange"">","null","","","","","","","",""
"null","","html-keyboard-response","156","187787","0.0-156.0","","","null","","","","","","","",""
"730.6999999880791","","image-keyboard-response","157","188520","0.0-157.0","","img/set1/S4.jpg","74","4","random","74","random,structured_load,structured_incentive,structured_normal","2,1,2,3,3,4","true","",""
"null","","html-keyboard-response","158","188873","0.0-158.0","","<img src=""img/set1/S4.jpg"" width=""540"" height = ""360"" style=""border:16px solid orange"">","null","","","","","","","",""
"null","","html-keyboard-response","159","189076","0.0-159.0","","","null","","","","","","","",""
"545.8000000119209","","image-keyboard-response","160","189624","0.0-160.0","","img/set1/S4.jpg","74","4","random","74","random,structured_load,structured_incentive,structured_normal","2,1,2,3,3,4","true","",""
"null","","html-keyboard-response","161","189979","0.0-161.0","","<img src=""img/set1/S4.jpg"" width=""540"" height = ""360"" style=""border:16px solid orange"">","null","","","","","","","",""
"null","","html-keyboard-response","162","190181","0.0-162.0","","","null","","","","","","","",""
"466","","image-keyboard-response","163","190650","0.0-163.0","","img/set1/S4.jpg","74","4","random","74","random,structured_load,structured_incentive,structured_normal","2,1,2,3,3,4","true","",""
"null","","html-keyboard-response","164","191003","0.0-164.0","","<img src=""img/set1/S4.jpg"" width=""540"" height = ""360"" style=""border:16px solid orange"">","null","","","","","","","",""
"null","","html-keyboard-response","165","191206","0.0-165.0","","","null","","","","","","","",""
"519.9000000357628","","image-keyboard-response","166","191729","0.0-166.0","","img/set1/S4.jpg","74","4","random","74","random,structured_load,structured_incentive,structured_normal","2,1,2,3,3,4","true","",""
"null","","html-keyboard-response","167","192087","0.0-167.0","","<img src=""img/set1/S4.jpg"" width=""540"" height = ""360"" style=""border:16px solid orange"">","null","","","","","","","",""
"null","","html-keyboard-response","168","192289","0.0-168.0","","","null","","","","","","","",""
"498.5","","image-keyboard-response","169","192790","0.0-169.0","","img/set1/S4.jpg","74","4","random","74","random,structured_load,structured_incentive,structured_normal","2,1,2,3,3,4","true","",""
"null","","html-keyboard-response","170","193142","0.0-170.0","","<img src=""img/set1/S4.jpg"" width=""540"" height = ""360"" style=""border:16px solid orange"">","null","","","","","","","",""
"null","","html-keyboard-response","171","193343","0.0-171.0","","","null","","","","","","","",""
"910.5999999642372","","image-keyboard-response","172","194256","0.0-172.0","","img/set1/S1.jpg","83","1","random","83","random,structured_load,structured_incentive,structured_normal","2,1,2,3,3,4","true","",""
"null","","html-keyboard-response","173","194608","0.0-173.0","","<img src=""img/set1/S1.jpg"" width=""540"" height = ""360"" style=""border:16px solid orange"">","null","","","","","","","",""
"null","","html-keyboard-response","174","194811","0.0-174.0","","","null","","","","","","","",""
"778.4000000357628","","image-keyboard-response","175","195592","0.0-175.0","","img/set1/S4.jpg","74","4","random","74","random,structured_load,structured_incentive,structured_normal","2,1,2,3,3,4","true","",""
"null","","html-keyboard-response","176","195946","0.0-176.0","","<img src=""img/set1/S4.jpg"" width=""540"" height = ""360"" style=""border:16px solid orange"">","null","","","","","","","",""
"null","","html-keyboard-response","177","196148","0.0-177.0","","","null","","","","","","","",""
"865.6000000238419","","image-keyboard-response","178","197017","0.0-178.0","","img/set1/S4.jpg","74","4","random","74","random,structured_load,structured_incentive,structured_normal","2,1,2,3,3,4","true","",""
"null","","html-keyboard-response","179","197370","0.0-179.0","","<img src=""img/set1/S4.jpg"" width=""540"" height = ""360"" style=""border:16px solid orange"">","null","","","","","","","",""
"null","","html-keyboard-response","180","197572","0.0-180.0","","","null","","","","","","","",""
"727.5999999642372","","image-keyboard-response","181","198302","0.0-181.0","","img/set1/S1.jpg","83","1","random","83","random,structured_load,structured_incentive,structured_normal","2,1,2,3,3,4","true","",""
"null","","html-keyboard-response","182","198654","0.0-182.0","","<img src=""img/set1/S1.jpg"" width=""540"" height = ""360"" style=""border:16px solid orange"">","null","","","","","","","",""
"null","","html-keyboard-response","183","198856","0.0-183.0","","","null","","","","","","","",""
"693.6000000238419","","image-keyboard-response","184","199553","0.0-184.0","","img/set1/S3.jpg","72","3","random","72","random,structured_load,structured_incentive,structured_normal","2,1,2,3,3,4","true","",""
"null","","html-keyboard-response","185","199906","0.0-185.0","","<img src=""img/set1/S3.jpg"" width=""540"" height = ""360"" style=""border:16px solid orange"">","null","","","","","","","",""
"null","","html-keyboard-response","186","200109","0.0-186.0","","","null","","","","","","","",""
"714","","image-keyboard-response","187","200826","0.0-187.0","","img/set1/S4.jpg","74","4","random","74","random,structured_load,structured_incentive,structured_normal","2,1,2,3,3,4","true","",""
"null","","html-keyboard-response","188","201179","0.0-188.0","","<img src=""img/set1/S4.jpg"" width=""540"" height = ""360"" style=""border:16px solid orange"">","null","","","","","","","",""
"null","","html-keyboard-response","189","201381","0.0-189.0","","","null","","","","","","","",""
"934.2000000476837","","image-keyboard-response","190","202318","0.0-190.0","","img/set1/S1.jpg","83","1","random","83","random,structured_load,structured_incentive,structured_normal","2,1,2,3,3,4","true","",""
"null","","html-keyboard-response","191","202670","0.0-191.0","","<img src=""img/set1/S1.jpg"" width=""540"" height = ""360"" style=""border:16px solid orange"">","null","","","","","","","",""
"null","","html-keyboard-response","192","202873","0.0-192.0","","","null","","","","","","","",""
"877.3999999761581","","image-keyboard-response","193","203753","0.0-193.0","","img/set1/S2.jpg","72","2","random","68","random,structured_load,structured_incentive,structured_normal","2,1,2,3,3,4","false","",""
"null","","html-keyboard-response","194","204107","0.0-194.0","","<img src=""img/set1/S2.jpg"" width=""540"" height = ""360"">","null","","","","","","","",""
"null","","html-keyboard-response","195","204309","0.0-195.0","","","null","","","","","","","",""
"1170","","image-keyboard-response","196","205480","0.0-196.0","","img/set1/S4.jpg","74","4","random","74","random,structured_load,structured_incentive,structured_normal","2,1,2,3,3,4","true","",""
"null","","html-keyboard-response","197","205834","0.0-197.0","","<img src=""img/set1/S4.jpg"" width=""540"" height = ""360"" style=""border:16px solid orange"">","null","","","","","","","",""
"null","","html-keyboard-response","198","206036","0.0-198.0","","","null","","","","","","","",""
"751.6999999880791","","image-keyboard-response","199","206790","0.0-199.0","","img/set1/S1.jpg","83","1","random","83","random,structured_load,structured_incentive,structured_normal","2,1,2,3,3,4","true","",""
"null","","html-keyboard-response","200","207142","0.0-200.0","","<img src=""img/set1/S1.jpg"" width=""540"" height = ""360"" style=""border:16px solid orange"">","null","","","","","","","",""
"null","","html-keyboard-response","201","207343","0.0-201.0","","","null","","","","","","","",""
"663.4000000357628","","image-keyboard-response","202","208008","0.0-202.0","","img/set1/S3.jpg","72","3","random","72","random,structured_load,structured_incentive,structured_normal","2,1,2,3,3,4","true","",""
"null","","html-keyboard-response","203","208361","0.0-203.0","","<img src=""img/set1/S3.jpg"" width=""540"" height = ""360"" style=""border:16px solid orange"">","null","","","","","","","",""
"null","","html-keyboard-response","204","208564","0.0-204.0","","","null","","","","","","","",""
"577.8000000119209","","image-keyboard-response","205","209144","0.0-205.0","","img/set1/S3.jpg","72","3","random","72","random,structured_load,structured_incentive,structured_normal","2,1,2,3,3,4","true","",""
"null","","html-keyboard-response","206","209498","0.0-206.0","","<img src=""img/set1/S3.jpg"" width=""540"" height = ""360"" style=""border:16px solid orange"">","null","","","","","","","",""
"null","","html-keyboard-response","207","209700","0.0-207.0","","","null","","","","","","","",""
"723.6999999880791","","image-keyboard-response","208","210425","0.0-208.0","","img/set1/S1.jpg","83","1","random","83","random,structured_load,structured_incentive,structured_normal","2,1,2,3,3,4","true","",""
"null","","html-keyboard-response","209","210779","0.0-209.0","","<img src=""img/set1/S1.jpg"" width=""540"" height = ""360"" style=""border:16px solid orange"">","null","","","","","","","",""
"null","","html-keyboard-response","210","210981","0.0-210.0","","","null","","","","","","","",""
"656.6000000238419","","image-keyboard-response","211","211640","0.0-211.0","","img/set1/S2.jpg","68","2","random","68","random,structured_load,structured_incentive,structured_normal","2,1,2,3,3,4","true","",""
"null","","html-keyboard-response","212","211994","0.0-212.0","","<img src=""img/set1/S2.jpg"" width=""540"" height = ""360"" style=""border:16px solid orange"">","null","","","","","","","",""
"null","","html-keyboard-response","213","212196","0.0-213.0","","","null","","","","","","","",""
"681.8999999761581","","image-keyboard-response","214","212880","0.0-214.0","","img/set1/S3.jpg","72","3","random","72","random,structured_load,structured_incentive,structured_normal","2,1,2,3,3,4","true","",""
"null","","html-keyboard-response","215","213234","0.0-215.0","","<img src=""img/set1/S3.jpg"" width=""540"" height = ""360"" style=""border:16px solid orange"">","null","","","","","","","",""
"null","","html-keyboard-response","216","213436","0.0-216.0","","","null","","","","","","","",""
"617.8000000119209","","image-keyboard-response","217","214056","0.0-217.0","","img/set1/S1.jpg","83","1","random","83","random,structured_load,structured_incentive,structured_normal","2,1,2,3,3,4","true","",""
"null","","html-keyboard-response","218","214411","0.0-218.0","","<img src=""img/set1/S1.jpg"" width=""540"" height = ""360"" style=""border:16px solid orange"">","null","","","","","","","",""
"null","","html-keyboard-response","219","214612","0.0-219.0","","","null","","","","","","","",""
"537.3000000119209","","image-keyboard-response","220","215152","0.0-220.0","","img/set1/S4.jpg","74","4","random","74","random,structured_load,structured_incentive,structured_normal","2,1,2,3,3,4","true","",""
"null","","html-keyboard-response","221","215505","0.0-221.0","","<img src=""img/set1/S4.jpg"" width=""540"" height = ""360"" style=""border:16px solid orange"">","null","","","","","","","",""
"null","","html-keyboard-response","222","215708","0.0-222.0","","","null","","","","","","","",""
"377.69999998807907","","image-keyboard-response","223","216088","0.0-223.0","","img/set1/S4.jpg","74","4","random","74","random,structured_load,structured_incentive,structured_normal","2,1,2,3,3,4","true","",""
"null","","html-keyboard-response","224","216441","0.0-224.0","","<img src=""img/set1/S4.jpg"" width=""540"" height = ""360"" style=""border:16px solid orange"">","null","","","","","","","",""
"null","","html-keyboard-response","225","216643","0.0-225.0","","","null","","","","","","","",""
"554.1000000238419","","image-keyboard-response","226","217200","0.0-226.0","","img/set1/S2.jpg","68","2","random","68","random,structured_load,structured_incentive,structured_normal","2,1,2,3,3,4","true","",""
"null","","html-keyboard-response","227","217555","0.0-227.0","","<img src=""img/set1/S2.jpg"" width=""540"" height = ""360"" style=""border:16px solid orange"">","null","","","","","","","",""
"null","","html-keyboard-response","228","217756","0.0-228.0","","","null","","","","","","","",""
"409.10000002384186","","image-keyboard-response","229","218168","0.0-229.0","","img/set1/S2.jpg","68","2","random","68","random,structured_load,structured_incentive,structured_normal","2,1,2,3,3,4","true","",""
"null","","html-keyboard-response","230","218521","0.0-230.0","","<img src=""img/set1/S2.jpg"" width=""540"" height = ""360"" style=""border:16px solid orange"">","null","","","","","","","",""
"null","","html-keyboard-response","231","218723","0.0-231.0","","","null","","","","","","","",""
"865.3000000119209","","image-keyboard-response","232","219591","0.0-232.0","","img/set1/S3.jpg","72","3","random","72","random,structured_load,structured_incentive,structured_normal","2,1,2,3,3,4","true","",""
"null","","html-keyboard-response","233","219955","0.0-233.0","","<img src=""img/set1/S3.jpg"" width=""540"" height = ""360"" style=""border:16px solid orange"">","null","","","","","","","",""
"null","","html-keyboard-response","234","220158","0.0-234.0","","","null","","","","","","","",""
"647.3000000119209","","image-keyboard-response","235","220808","0.0-235.0","","img/set1/S1.jpg","83","1","random","83","random,structured_load,structured_incentive,structured_normal","2,1,2,3,3,4","true","",""
"null","","html-keyboard-response","236","221162","0.0-236.0","","<img src=""img/set1/S1.jpg"" width=""540"" height = ""360"" style=""border:16px solid orange"">","null","","","","","","","",""
"null","","html-keyboard-response","237","221364","0.0-237.0","","","null","","","","","","","",""
"593.3999999761581","","image-keyboard-response","238","221960","0.0-238.0","","img/set1/S4.jpg","74","4","random","74","random,structured_load,structured_incentive,structured_normal","2,1,2,3,3,4","true","",""
"null","","html-keyboard-response","239","222314","0.0-239.0","","<img src=""img/set1/S4.jpg"" width=""540"" height = ""360"" style=""border:16px solid orange"">","null","","","","","","","",""
"null","","html-keyboard-response","240","222516","0.0-240.0","","","null","","","","","","","",""
"617.1999999880791","","image-keyboard-response","241","223136","0.0-241.0","","img/set1/S1.jpg","68","1","random","83","random,structured_load,structured_incentive,structured_normal","2,1,2,3,3,4","false","",""
"null","","html-keyboard-response","242","223490","0.0-242.0","","<img src=""img/set1/S1.jpg"" width=""540"" height = ""360"">","null","","","","","","","",""
"null","","html-keyboard-response","243","223695","0.0-243.0","","","null","","","","","","","",""
"625.1999999880791","","image-keyboard-response","244","224322","0.0-244.0","","img/set1/S1.jpg","83","1","random","83","random,structured_load,structured_incentive,structured_normal","2,1,2,3,3,4","true","",""
"null","","html-keyboard-response","245","224675","0.0-245.0","","<img src=""img/set1/S1.jpg"" width=""540"" height = ""360"" style=""border:16px solid orange"">","null","","","","","","","",""
"null","","html-keyboard-response","246","224878","0.0-246.0","","","null","","","","","","","",""
"570.4000000357628","","image-keyboard-response","247","225450","0.0-247.0","","img/set1/S3.jpg","72","3","random","72","random,structured_load,structured_incentive,structured_normal","2,1,2,3,3,4","true","",""
"null","","html-keyboard-response","248","225803","0.0-248.0","","<img src=""img/set1/S3.jpg"" width=""540"" height = ""360"" style=""border:16px solid orange"">","null","","","","","","","",""
"null","","html-keyboard-response","249","226006","0.0-249.0","","","null","","","","","","","",""
"678.1000000238419","","image-keyboard-response","250","226686","0.0-250.0","","img/set1/S2.jpg","68","2","random","68","random,structured_load,structured_incentive,structured_normal","2,1,2,3,3,4","true","",""
"null","","html-keyboard-response","251","227038","0.0-251.0","","<img src=""img/set1/S2.jpg"" width=""540"" height = ""360"" style=""border:16px solid orange"">","null","","","","","","","",""
"null","","html-keyboard-response","252","227241","0.0-252.0","","","null","","","","","","","",""
"476.10000002384186","","image-keyboard-response","253","227721","0.0-253.0","","img/set1/S2.jpg","68","2","random","68","random,structured_load,structured_incentive,structured_normal","2,1,2,3,3,4","true","",""
"null","","html-keyboard-response","254","228074","0.0-254.0","","<img src=""img/set1/S2.jpg"" width=""540"" height = ""360"" style=""border:16px solid orange"">","null","","","","","","","",""
"null","","html-keyboard-response","255","228276","0.0-255.0","","","null","","","","","","","",""
"1000.5","","image-keyboard-response","256","229278","0.0-256.0","","img/set1/S1.jpg","83","1","random","83","random,structured_load,structured_incentive,structured_normal","2,1,2,3,3,4","true","",""
"null","","html-keyboard-response","257","229630","0.0-257.0","","<img src=""img/set1/S1.jpg"" width=""540"" height = ""360"" style=""border:16px solid orange"">","null","","","","","","","",""
"null","","html-keyboard-response","258","229832","0.0-258.0","","","null","","","","","","","",""
"853.8000000119209","","image-keyboard-response","259","230688","0.0-259.0","","img/set1/S3.jpg","72","3","random","72","random,structured_load,structured_incentive,structured_normal","2,1,2,3,3,4","true","",""
"null","","html-keyboard-response","260","231043","0.0-260.0","","<img src=""img/set1/S3.jpg"" width=""540"" height = ""360"" style=""border:16px solid orange"">","null","","","","","","","",""
"null","","html-keyboard-response","261","231246","0.0-261.0","","","null","","","","","","","",""
"559.9000000357628","","image-keyboard-response","262","231808","0.0-262.0","","img/set1/S2.jpg","68","2","random","68","random,structured_load,structured_incentive,structured_normal","2,1,2,3,3,4","true","",""
"null","","html-keyboard-response","263","232162","0.0-263.0","","<img src=""img/set1/S2.jpg"" width=""540"" height = ""360"" style=""border:16px solid orange"">","null","","","","","","","",""
"null","","html-keyboard-response","264","232364","0.0-264.0","","","null","","","","","","","",""
"729.3000000119209","","image-keyboard-response","265","233097","0.0-265.0","","img/set1/S1.jpg","83","1","random","83","random,structured_load,structured_incentive,structured_normal","2,1,2,3,3,4","true","",""
"null","","html-keyboard-response","266","233450","0.0-266.0","","<img src=""img/set1/S1.jpg"" width=""540"" height = ""360"" style=""border:16px solid orange"">","null","","","","","","","",""
"null","","html-keyboard-response","267","233653","0.0-267.0","","","null","","","","","","","",""
"689.9000000357628","","image-keyboard-response","268","234344","0.0-268.0","","img/set1/S3.jpg","72","3","random","72","random,structured_load,structured_incentive,structured_normal","2,1,2,3,3,4","true","",""
"null","","html-keyboard-response","269","234698","0.0-269.0","","<img src=""img/set1/S3.jpg"" width=""540"" height = ""360"" style=""border:16px solid orange"">","null","","","","","","","",""
"null","","html-keyboard-response","270","234901","0.0-270.0","","","null","","","","","","","",""
"597.5","","image-keyboard-response","271","235500","0.0-271.0","","img/set1/S3.jpg","72","3","random","72","random,structured_load,structured_incentive,structured_normal","2,1,2,3,3,4","true","",""
"null","","html-keyboard-response","272","235853","0.0-272.0","","<img src=""img/set1/S3.jpg"" width=""540"" height = ""360"" style=""border:16px solid orange"">","null","","","","","","","",""
"null","","html-keyboard-response","273","236058","0.0-273.0","","","null","","","","","","","",""
"579.5999999642372","","image-keyboard-response","274","236640","0.0-274.0","","img/set1/S2.jpg","83","2","random","68","random,structured_load,structured_incentive,structured_normal","2,1,2,3,3,4","false","",""
"null","","html-keyboard-response","275","236993","0.0-275.0","","<img src=""img/set1/S2.jpg"" width=""540"" height = ""360"">","null","","","","","","","",""
"null","","html-keyboard-response","276","237195","0.0-276.0","","","null","","","","","","","",""
"562.1999999880791","","image-keyboard-response","277","237760","0.0-277.0","","img/set1/S2.jpg","68","2","random","68","random,structured_load,structured_incentive,structured_normal","2,1,2,3,3,4","true","",""
"null","","html-keyboard-response","278","238114","0.0-278.0","","<img src=""img/set1/S2.jpg"" width=""540"" height = ""360"" style=""border:16px solid orange"">","null","","","","","","","",""
"null","","html-keyboard-response","279","238317","0.0-279.0","","","null","","","","","","","",""
"399.4000000357628","","image-keyboard-response","280","238718","0.0-280.0","","img/set1/S2.jpg","68","2","random","68","random,structured_load,structured_incentive,structured_normal","2,1,2,3,3,4","true","",""
"null","","html-keyboard-response","281","239070","0.0-281.0","","<img src=""img/set1/S2.jpg"" width=""540"" height = ""360"" style=""border:16px solid orange"">","null","","","","","","","",""
"null","","html-keyboard-response","282","239271","0.0-282.0","","","null","","","","","","","",""
"774.1000000238419","","image-keyboard-response","283","240048","0.0-283.0","","img/set1/S3.jpg","72","3","random","72","random,structured_load,structured_incentive,structured_normal","2,1,2,3,3,4","true","",""
"null","","html-keyboard-response","284","240402","0.0-284.0","","<img src=""img/set1/S3.jpg"" width=""540"" height = ""360"" style=""border:16px solid orange"">","null","","","","","","","",""
"null","","html-keyboard-response","285","240604","0.0-285.0","","","null","","","","","","","",""
"665.3999999761581","","image-keyboard-response","286","241272","0.0-286.0","","img/set1/S2.jpg","68","2","random","68","random,structured_load,structured_incentive,structured_normal","2,1,2,3,3,4","true","",""
"null","","html-keyboard-response","287","241626","0.0-287.0","","<img src=""img/set1/S2.jpg"" width=""540"" height = ""360"" style=""border:16px solid orange"">","null","","","","","","","",""
"null","","html-keyboard-response","288","241829","0.0-288.0","","","null","","","","","","","",""
"710.0999999642372","","image-keyboard-response","289","242541","0.0-289.0","","img/set1/S1.jpg","83","1","random","83","random,structured_load,structured_incentive,structured_normal","2,1,2,3,3,4","true","",""
"null","","html-keyboard-response","290","242893","0.0-290.0","","<img src=""img/set1/S1.jpg"" width=""540"" height = ""360"" style=""border:16px solid orange"">","null","","","","","","","",""
"null","","html-keyboard-response","291","243095","0.0-291.0","","","null","","","","","","","",""
"580.6999999880791","","image-keyboard-response","292","243678","0.0-292.0","","img/set1/S1.jpg","83","1","random","83","random,structured_load,structured_incentive,structured_normal","2,1,2,3,3,4","true","",""
"null","","html-keyboard-response","293","244030","0.0-293.0","","<img src=""img/set1/S1.jpg"" width=""540"" height = ""360"" style=""border:16px solid orange"">","null","","","","","","","",""
"null","","html-keyboard-response","294","244232","0.0-294.0","","","null","","","","","","","",""
"717.3999999761581","","image-keyboard-response","295","244953","0.0-295.0","","img/set1/S2.jpg","68","2","random","68","random,structured_load,structured_incentive,structured_normal","2,1,2,3,3,4","true","",""
"null","","html-keyboard-response","296","245306","0.0-296.0","","<img src=""img/set1/S2.jpg"" width=""540"" height = ""360"" style=""border:16px solid orange"">","null","","","","","","","",""
"null","","html-keyboard-response","297","245510","0.0-297.0","","","null","","","","","","","",""
"687.8000000119209","","image-keyboard-response","298","246200","0.0-298.0","","img/set1/S3.jpg","72","3","random","72","random,structured_load,structured_incentive,structured_normal","2,1,2,3,3,4","true","",""
"null","","html-keyboard-response","299","246554","0.0-299.0","","<img src=""img/set1/S3.jpg"" width=""540"" height = ""360"" style=""border:16px solid orange"">","null","","","","","","","",""
"null","","html-keyboard-response","300","246755","0.0-300.0","","","null","","","","","","","",""
"818.2000000476837","","image-keyboard-response","301","247576","0.0-301.0","","img/set1/S4.jpg","74","4","random","74","random,structured_load,structured_incentive,structured_normal","2,1,2,3,3,4","true","",""
"null","","html-keyboard-response","302","247928","0.0-302.0","","<img src=""img/set1/S4.jpg"" width=""540"" height = ""360"" style=""border:16px solid orange"">","null","","","","","","","",""
"null","","html-keyboard-response","303","248131","0.0-303.0","","","null","","","","","","","",""
"1026.699999988079","","image-keyboard-response","304","249160","0.0-304.0","","img/set1/S2.jpg","68","2","random","68","random,structured_load,structured_incentive,structured_normal","2,1,2,3,3,4","true","",""
"null","","html-keyboard-response","305","249514","0.0-305.0","","<img src=""img/set1/S2.jpg"" width=""540"" height = ""360"" style=""border:16px solid orange"">","null","","","","","","","",""
"null","","html-keyboard-response","306","249716","0.0-306.0","","","null","","","","","","","",""
"658.0999999642372","","image-keyboard-response","307","250376","0.0-307.0","","img/set1/S4.jpg","74","4","random","74","random,structured_load,structured_incentive,structured_normal","2,1,2,3,3,4","true","",""
"null","","html-keyboard-response","308","250730","0.0-308.0","","<img src=""img/set1/S4.jpg"" width=""540"" height = ""360"" style=""border:16px solid orange"">","null","","","","","","","",""
"null","","html-keyboard-response","309","250933","0.0-309.0","","","null","","","","","","","",""
"675.5","","image-keyboard-response","310","251610","0.0-310.0","","img/set1/S1.jpg","83","1","random","83","random,structured_load,structured_incentive,structured_normal","2,1,2,3,3,4","true","",""
"null","","html-keyboard-response","311","251963","0.0-311.0","","<img src=""img/set1/S1.jpg"" width=""540"" height = ""360"" style=""border:16px solid orange"">","null","","","","","","","",""
"null","","html-keyboard-response","312","252166","0.0-312.0","","","null","","","","","","","",""
"663.5","","image-keyboard-response","313","252832","0.0-313.0","","img/set1/S4.jpg","74","4","random","74","random,structured_load,structured_incentive,structured_normal","2,1,2,3,3,4","true","",""
"null","","html-keyboard-response","314","253186","0.0-314.0","","<img src=""img/set1/S4.jpg"" width=""540"" height = ""360"" style=""border:16px solid orange"">","null","","","","","","","",""
"null","","html-keyboard-response","315","253389","0.0-315.0","","","null","","","","","","","",""
"616.5999999642372","","image-keyboard-response","316","254008","0.0-316.0","","img/set1/S2.jpg","68","2","random","68","random,structured_load,structured_incentive,structured_normal","2,1,2,3,3,4","true","",""
"null","","html-keyboard-response","317","254364","0.0-317.0","","<img src=""img/set1/S2.jpg"" width=""540"" height = ""360"" style=""border:16px solid orange"">","null","","","","","","","",""
"null","","html-keyboard-response","318","254566","0.0-318.0","","","null","","","","","","","",""
"685.7999999523163","","image-keyboard-response","319","255257","0.0-319.0","","img/set1/S3.jpg","72","3","random","72","random,structured_load,structured_incentive,structured_normal","2,1,2,3,3,4","true","",""
"null","","html-keyboard-response","320","255610","0.0-320.0","","<img src=""img/set1/S3.jpg"" width=""540"" height = ""360"" style=""border:16px solid orange"">","null","","","","","","","",""
"null","","html-keyboard-response","321","255812","0.0-321.0","","","null","","","","","","","",""
"482","","image-keyboard-response","322","256297","0.0-322.0","","img/set1/S3.jpg","72","3","random","72","random,structured_load,structured_incentive,structured_normal","2,1,2,3,3,4","true","",""
"null","","html-keyboard-response","323","256650","0.0-323.0","","<img src=""img/set1/S3.jpg"" width=""540"" height = ""360"" style=""border:16px solid orange"">","null","","","","","","","",""
"null","","html-keyboard-response","324","256852","0.0-324.0","","","null","","","","","","","",""
"545.2999999523163","","image-keyboard-response","325","257398","0.0-325.0","","img/set1/S4.jpg","74","4","random","74","random,structured_load,structured_incentive,structured_normal","2,1,2,3,3,4","true","",""
"null","","html-keyboard-response","326","257751","0.0-326.0","","<img src=""img/set1/S4.jpg"" width=""540"" height = ""360"" style=""border:16px solid orange"">","null","","","","","","","",""
"null","","html-keyboard-response","327","257952","0.0-327.0","","","null","","","","","","","",""
"518.1000000238419","","image-keyboard-response","328","258472","0.0-328.0","","img/set1/S1.jpg","68","1","random","83","random,structured_load,structured_incentive,structured_normal","2,1,2,3,3,4","false","",""
"null","","html-keyboard-response","329","258826","0.0-329.0","","<img src=""img/set1/S1.jpg"" width=""540"" height = ""360"">","null","","","","","","","",""
"null","","html-keyboard-response","330","259028","0.0-330.0","","","null","","","","","","","",""
"697.0999999642372","","image-keyboard-response","331","259730","0.0-331.0","","img/set1/S3.jpg","72","3","random","72","random,structured_load,structured_incentive,structured_normal","2,1,2,3,3,4","true","",""
"null","","html-keyboard-response","332","260084","0.0-332.0","","<img src=""img/set1/S3.jpg"" width=""540"" height = ""360"" style=""border:16px solid orange"">","null","","","","","","","",""
"null","","html-keyboard-response","333","260287","0.0-333.0","","","null","","","","","","","",""
"663.0999999642372","","image-keyboard-response","334","260952","0.0-334.0","","img/set1/S2.jpg","68","2","random","68","random,structured_load,structured_incentive,structured_normal","2,1,2,3,3,4","true","",""
"null","","html-keyboard-response","335","261306","0.0-335.0","","<img src=""img/set1/S2.jpg"" width=""540"" height = ""360"" style=""border:16px solid orange"">","null","","","","","","","",""
"null","","html-keyboard-response","336","261508","0.0-336.0","","","null","","","","","","","",""
"721.6999999880791","","image-keyboard-response","337","262233","0.0-337.0","","img/set1/S1.jpg","83","1","random","83","random,structured_load,structured_incentive,structured_normal","2,1,2,3,3,4","true","",""
"null","","html-keyboard-response","338","262588","0.0-338.0","","<img src=""img/set1/S1.jpg"" width=""540"" height = ""360"" style=""border:16px solid orange"">","null","","","","","","","",""
"null","","html-keyboard-response","339","262791","0.0-339.0","","","null","","","","","","","",""
"790.6000000238419","","image-keyboard-response","340","263585","0.0-340.0","","img/set1/S4.jpg","74","4","random","74","random,structured_load,structured_incentive,structured_normal","2,1,2,3,3,4","true","",""
"null","","html-keyboard-response","341","263938","0.0-341.0","","<img src=""img/set1/S4.jpg"" width=""540"" height = ""360"" style=""border:16px solid orange"">","null","","","","","","","",""
"null","","html-keyboard-response","342","264140","0.0-342.0","","","null","","","","","","","",""
"641.6000000238419","","image-keyboard-response","343","264785","0.0-343.0","","img/set1/S1.jpg","83","1","random","83","random,structured_load,structured_incentive,structured_normal","2,1,2,3,3,4","true","",""
"null","","html-keyboard-response","344","265146","0.0-344.0","","<img src=""img/set1/S1.jpg"" width=""540"" height = ""360"" style=""border:16px solid orange"">","null","","","","","","","",""
"null","","html-keyboard-response","345","265349","0.0-345.0","","","null","","","","","","","",""
"673.0999999642372","","image-keyboard-response","346","266024","0.0-346.0","","img/set1/S4.jpg","72","4","random","74","random,structured_load,structured_incentive,structured_normal","2,1,2,3,3,4","false","",""
"null","","html-keyboard-response","347","266378","0.0-347.0","","<img src=""img/set1/S4.jpg"" width=""540"" height = ""360"">","null","","","","","","","",""
"null","","html-keyboard-response","348","266580","0.0-348.0","","","null","","","","","","","",""
"519.3999999761581","","image-keyboard-response","349","267102","0.0-349.0","","img/set1/S4.jpg","74","4","random","74","random,structured_load,structured_incentive,structured_normal","2,1,2,3,3,4","true","",""
"null","","html-keyboard-response","350","267454","0.0-350.0","","<img src=""img/set1/S4.jpg"" width=""540"" height = ""360"" style=""border:16px solid orange"">","null","","","","","","","",""
"null","","html-keyboard-response","351","267657","0.0-351.0","","","null","","","","","","","",""
"725","","image-keyboard-response","352","268385","0.0-352.0","","img/set1/S1.jpg","83","1","random","83","random,structured_load,structured_incentive,structured_normal","2,1,2,3,3,4","true","",""
"null","","html-keyboard-response","353","268738","0.0-353.0","","<img src=""img/set1/S1.jpg"" width=""540"" height = ""360"" style=""border:16px solid orange"">","null","","","","","","","",""
"null","","html-keyboard-response","354","268939","0.0-354.0","","","null","","","","","","","",""
"658.8000000119209","","image-keyboard-response","355","269601","0.0-355.0","","img/set1/S4.jpg","74","4","random","74","random,structured_load,structured_incentive,structured_normal","2,1,2,3,3,4","true","",""
"null","","html-keyboard-response","356","269954","0.0-356.0","","<img src=""img/set1/S4.jpg"" width=""540"" height = ""360"" style=""border:16px solid orange"">","null","","","","","","","",""
"null","","html-keyboard-response","357","270156","0.0-357.0","","","null","","","","","","","",""
"655.1999999880791","","image-keyboard-response","358","270814","0.0-358.0","","img/set1/S2.jpg","68","2","random","68","random,structured_load,structured_incentive,structured_normal","2,1,2,3,3,4","true","",""
"null","","html-keyboard-response","359","271165","0.0-359.0","","<img src=""img/set1/S2.jpg"" width=""540"" height = ""360"" style=""border:16px solid orange"">","null","","","","","","","",""
"null","","html-keyboard-response","360","271368","0.0-360.0","","","null","","","","","","","",""
"723.6000000238419","","image-keyboard-response","361","272094","0.0-361.0","","img/set1/S1.jpg","83","1","random","83","random,structured_load,structured_incentive,structured_normal","2,1,2,3,3,4","true","",""
"null","","html-keyboard-response","362","272445","0.0-362.0","","<img src=""img/set1/S1.jpg"" width=""540"" height = ""360"" style=""border:16px solid orange"">","null","","","","","","","",""
"null","","html-keyboard-response","363","272649","0.0-363.0","","","null","","","","","","","",""
"10837.399999976158","","html-keyboard-response","364","283489","0.0-364.0","","<p class=""center-content"">You have completed a block! </p><p class=""center-content"">Press any key on the keyboard to continue, </p><p class=""center-content"">or wait for the automatic progression to the next block after one minute.</p>","72","","","","","","","",""
"12620.300000011921","","instructions","365","296111","0.0-365.0","[{""page_index"":0,""viewing_time"":12620.100000023842}]","","","","","","","","","",""
"27142.399999976158","","instructions","366","323254","0.0-366.0","[{""page_index"":0,""viewing_time"":23462.399999976158},{""page_index"":1,""viewing_time"":3679.800000011921}]","","","","","","","","","",""
"1463.699999988079","","image-keyboard-response","367","324719","0.0-367.0","","img/set2/S4.jpg","72","4","structured_load","74","random,structured_load,structured_incentive,structured_normal","2,1,2,3,3,4","false","",""
"null","","html-keyboard-response","368","325071","0.0-368.0","","<img src=""img/set2/S4.jpg"" width=""540"" height = ""360"">","null","","","","","","","",""
"null","","html-keyboard-response","369","325273","0.0-369.0","","","null","","","","","","","",""
"769.2000000476837","","image-keyboard-response","370","326045","0.0-370.0","","img/set2/S4.jpg","74","4","structured_load","74","random,structured_load,structured_incentive,structured_normal","2,1,2,3,3,4","true","",""
"null","","html-keyboard-response","371","326410","0.0-371.0","","<img src=""img/set2/S4.jpg"" width=""540"" height = ""360"" style=""border:16px solid orange"">","null","","","","","","","",""
"null","","html-keyboard-response","372","326611","0.0-372.0","","","null","","","","","","","",""
"842","","image-keyboard-response","373","327457","0.0-373.0","","img/set2/S3.jpg","72","3","structured_load","72","random,structured_load,structured_incentive,structured_normal","2,1,2,3,3,4","true","",""
"null","","html-keyboard-response","374","327811","0.0-374.0","","<img src=""img/set2/S3.jpg"" width=""540"" height = ""360"" style=""border:16px solid orange"">","null","","","","","","","",""
"null","","html-keyboard-response","375","328013","0.0-375.0","","","null","","","","","","","",""
"917.9000000357628","","image-keyboard-response","376","328934","0.0-376.0","","img/set2/S2.jpg","68","2","structured_load","68","random,structured_load,structured_incentive,structured_normal","2,1,2,3,3,4","true","",""
"null","","html-keyboard-response","377","329286","0.0-377.0","","<img src=""img/set2/S2.jpg"" width=""540"" height = ""360"" style=""border:16px solid orange"">","null","","","","","","","",""
"null","","html-keyboard-response","378","329489","0.0-378.0","","","null","","","","","","","",""
"868.2000000476837","","image-keyboard-response","379","330361","0.0-379.0","","img/set2/S1.jpg","83","1","structured_load","83","random,structured_load,structured_incentive,structured_normal","2,1,2,3,3,4","true","",""
"null","","html-keyboard-response","380","330715","0.0-380.0","","<img src=""img/set2/S1.jpg"" width=""540"" height = ""360"" style=""border:16px solid orange"">","null","","","","","","","",""
"null","","html-keyboard-response","381","330917","0.0-381.0","","","null","","","","","","","",""
"872.1999999880791","","image-keyboard-response","382","331793","0.0-382.0","","img/set2/S3.jpg","72","3","structured_load","72","random,structured_load,structured_incentive,structured_normal","2,1,2,3,3,4","true","",""
"null","","html-keyboard-response","383","332147","0.0-383.0","","<img src=""img/set2/S3.jpg"" width=""540"" height = ""360"" style=""border:16px solid orange"">","null","","","","","","","",""
"null","","html-keyboard-response","384","332350","0.0-384.0","","","null","","","","","","","",""
"1641","","image-keyboard-response","385","333992","0.0-385.0","","img/set2/S2.jpg","68","2","structured_load","68","random,structured_load,structured_incentive,structured_normal","2,1,2,3,3,4","true","",""
"null","","html-keyboard-response","386","334346","0.0-386.0","","<img src=""img/set2/S2.jpg"" width=""540"" height = ""360"" style=""border:16px solid orange"">","null","","","","","","","",""
"null","","html-keyboard-response","387","334547","0.0-387.0","","","null","","","","","","","",""
"1131.199999988079","","image-keyboard-response","388","335680","0.0-388.0","","img/set2/S1.jpg","83","1","structured_load","83","random,structured_load,structured_incentive,structured_normal","2,1,2,3,3,4","true","",""
"null","","html-keyboard-response","389","336034","0.0-389.0","","<img src=""img/set2/S1.jpg"" width=""540"" height = ""360"" style=""border:16px solid orange"">","null","","","","","","","",""
"null","","html-keyboard-response","390","336237","0.0-390.0","","","null","","","","","","","",""
"901.6000000238419","","image-keyboard-response","391","337141","0.0-391.0","","img/set2/S2.jpg","72","2","structured_load","68","random,structured_load,structured_incentive,structured_normal","2,1,2,3,3,4","false","",""
"null","","html-keyboard-response","392","337493","0.0-392.0","","<img src=""img/set2/S2.jpg"" width=""540"" height = ""360"">","null","","","","","","","",""
"null","","html-keyboard-response","393","337696","0.0-393.0","","","null","","","","","","","",""
"853.5","","image-keyboard-response","394","338552","0.0-394.0","","img/set2/S1.jpg","83","1","structured_load","83","random,structured_load,structured_incentive,structured_normal","2,1,2,3,3,4","true","",""
"null","","html-keyboard-response","395","338906","0.0-395.0","","<img src=""img/set2/S1.jpg"" width=""540"" height = ""360"" style=""border:16px solid orange"">","null","","","","","","","",""
"null","","html-keyboard-response","396","339109","0.0-396.0","","","null","","","","","","","",""
"936.5","","image-keyboard-response","397","340048","0.0-397.0","","img/set2/S2.jpg","74","2","structured_load","68","random,structured_load,structured_incentive,structured_normal","2,1,2,3,3,4","false","",""
"null","","html-keyboard-response","398","340403","0.0-398.0","","<img src=""img/set2/S2.jpg"" width=""540"" height = ""360"">","null","","","","","","","",""
"null","","html-keyboard-response","399","340605","0.0-399.0","","","null","","","","","","","",""
"799.9000000357628","","image-keyboard-response","400","341409","0.0-400.0","","img/set2/S1.jpg","83","1","structured_load","83","random,structured_load,structured_incentive,structured_normal","2,1,2,3,3,4","true","",""
"null","","html-keyboard-response","401","341763","0.0-401.0","","<img src=""img/set2/S1.jpg"" width=""540"" height = ""360"" style=""border:16px solid orange"">","null","","","","","","","",""
"null","","html-keyboard-response","402","341965","0.0-402.0","","","null","","","","","","","",""
"942.5","","image-keyboard-response","403","342910","0.0-403.0","","img/set2/S3.jpg","72","3","structured_load","72","random,structured_load,structured_incentive,structured_normal","2,1,2,3,3,4","true","",""
"null","","html-keyboard-response","404","343262","0.0-404.0","","<img src=""img/set2/S3.jpg"" width=""540"" height = ""360"" style=""border:16px solid orange"">","null","","","","","","","",""
"null","","html-keyboard-response","405","343465","0.0-405.0","","","null","","","","","","","",""
"651.9000000357628","","image-keyboard-response","406","344119","0.0-406.0","","img/set2/S3.jpg","72","3","structured_load","72","random,structured_load,structured_incentive,structured_normal","2,1,2,3,3,4","true","",""
"null","","html-keyboard-response","407","344472","0.0-407.0","","<img src=""img/set2/S3.jpg"" width=""540"" height = ""360"" style=""border:16px solid orange"">","null","","","","","","","",""
"null","","html-keyboard-response","408","344675","0.0-408.0","","","null","","","","","","","",""
"856.8999999761581","","image-keyboard-response","409","345536","0.0-409.0","","img/set2/S3.jpg","72","3","structured_load","72","random,structured_load,structured_incentive,structured_normal","2,1,2,3,3,4","true","",""
"null","","html-keyboard-response","410","345891","0.0-410.0","","<img src=""img/set2/S3.jpg"" width=""540"" height = ""360"" style=""border:16px solid orange"">","null","","","","","","","",""
"null","","html-keyboard-response","411","346093","0.0-411.0","","","null","","","","","","","",""
"881.9000000357628","","image-keyboard-response","412","346976","0.0-412.0","","img/set2/S2.jpg","68","2","structured_load","68","random,structured_load,structured_incentive,structured_normal","2,1,2,3,3,4","true","",""
"null","","html-keyboard-response","413","347330","0.0-413.0","","<img src=""img/set2/S2.jpg"" width=""540"" height = ""360"" style=""border:16px solid orange"">","null","","","","","","","",""
"null","","html-keyboard-response","414","347533","0.0-414.0","","","null","","","","","","","",""
"792.5","","image-keyboard-response","415","348328","0.0-415.0","","img/set2/S1.jpg","83","1","structured_load","83","random,structured_load,structured_incentive,structured_normal","2,1,2,3,3,4","true","",""
"null","","html-keyboard-response","416","348682","0.0-416.0","","<img src=""img/set2/S1.jpg"" width=""540"" height = ""360"" style=""border:16px solid orange"">","null","","","","","","","",""
"null","","html-keyboard-response","417","348900","0.0-417.0","","","null","","","","","","","",""
"602.5","","image-keyboard-response","418","349504","0.0-418.0","","img/set2/S4.jpg","74","4","structured_load","74","random,structured_load,structured_incentive,structured_normal","2,1,2,3,3,4","true","",""
"null","","html-keyboard-response","419","349858","0.0-419.0","","<img src=""img/set2/S4.jpg"" width=""540"" height = ""360"" style=""border:16px solid orange"">","null","","","","","","","",""
"null","","html-keyboard-response","420","350060","0.0-420.0","","","null","","","","","","","",""
"1248.800000011921","","image-keyboard-response","421","351312","0.0-421.0","","img/set2/S2.jpg","68","2","structured_load","68","random,structured_load,structured_incentive,structured_normal","2,1,2,3,3,4","true","",""
"null","","html-keyboard-response","422","351666","0.0-422.0","","<img src=""img/set2/S2.jpg"" width=""540"" height = ""360"" style=""border:16px solid orange"">","null","","","","","","","",""
"null","","html-keyboard-response","423","351868","0.0-423.0","","","null","","","","","","","",""
"640.8999999761581","","image-keyboard-response","424","352510","0.0-424.0","","img/set2/S1.jpg","83","1","structured_load","83","random,structured_load,structured_incentive,structured_normal","2,1,2,3,3,4","true","",""
"null","","html-keyboard-response","425","352862","0.0-425.0","","<img src=""img/set2/S1.jpg"" width=""540"" height = ""360"" style=""border:16px solid orange"">","null","","","","","","","",""
"null","","html-keyboard-response","426","353064","0.0-426.0","","","null","","","","","","","",""
"620.3999999761581","","image-keyboard-response","427","353685","0.0-427.0","","img/set2/S3.jpg","72","3","structured_load","72","random,structured_load,structured_incentive,structured_normal","2,1,2,3,3,4","true","",""
"null","","html-keyboard-response","428","354038","0.0-428.0","","<img src=""img/set2/S3.jpg"" width=""540"" height = ""360"" style=""border:16px solid orange"">","null","","","","","","","",""
"null","","html-keyboard-response","429","354240","0.0-429.0","","","null","","","","","","","",""
"572.0999999642372","","image-keyboard-response","430","354813","0.0-430.0","","img/set2/S4.jpg","74","4","structured_load","74","random,structured_load,structured_incentive,structured_normal","2,1,2,3,3,4","true","",""
"null","","html-keyboard-response","431","355166","0.0-431.0","","<img src=""img/set2/S4.jpg"" width=""540"" height = ""360"" style=""border:16px solid orange"">","null","","","","","","","",""
"null","","html-keyboard-response","432","355369","0.0-432.0","","","null","","","","","","","",""
"972.3000000119209","","image-keyboard-response","433","356344","0.0-433.0","","img/set2/S3.jpg","83","3","structured_load","72","random,structured_load,structured_incentive,structured_normal","2,1,2,3,3,4","false","",""
"null","","html-keyboard-response","434","356698","0.0-434.0","","<img src=""img/set2/S3.jpg"" width=""540"" height = ""360"">","null","","","","","","","",""
"null","","html-keyboard-response","435","356901","0.0-435.0","","","null","","","","","","","",""
"785","","image-keyboard-response","436","357689","0.0-436.0","","img/set2/S3.jpg","72","3","structured_load","72","random,structured_load,structured_incentive,structured_normal","2,1,2,3,3,4","true","",""
"null","","html-keyboard-response","437","358043","0.0-437.0","","<img src=""img/set2/S3.jpg"" width=""540"" height = ""360"" style=""border:16px solid orange"">","null","","","","","","","",""
"null","","html-keyboard-response","438","358246","0.0-438.0","","","null","","","","","","","",""
"392.4000000357628","","image-keyboard-response","439","358640","0.0-439.0","","img/set2/S3.jpg","72","3","structured_load","72","random,structured_load,structured_incentive,structured_normal","2,1,2,3,3,4","true","",""
"null","","html-keyboard-response","440","358994","0.0-440.0","","<img src=""img/set2/S3.jpg"" width=""540"" height = ""360"" style=""border:16px solid orange"">","null","","","","","","","",""
"null","","html-keyboard-response","441","359196","0.0-441.0","","","null","","","","","","","",""
"809.2000000476837","","image-keyboard-response","442","360008","0.0-442.0","","img/set2/S2.jpg","68","2","structured_load","68","random,structured_load,structured_incentive,structured_normal","2,1,2,3,3,4","true","",""
"null","","html-keyboard-response","443","360362","0.0-443.0","","<img src=""img/set2/S2.jpg"" width=""540"" height = ""360"" style=""border:16px solid orange"">","null","","","","","","","",""
"null","","html-keyboard-response","444","360564","0.0-444.0","","","null","","","","","","","",""
"537.5","","image-keyboard-response","445","361104","0.0-445.0","","img/set2/S1.jpg","83","1","structured_load","83","random,structured_load,structured_incentive,structured_normal","2,1,2,3,3,4","true","",""
"null","","html-keyboard-response","446","361458","0.0-446.0","","<img src=""img/set2/S1.jpg"" width=""540"" height = ""360"" style=""border:16px solid orange"">","null","","","","","","","",""
"null","","html-keyboard-response","447","361661","0.0-447.0","","","null","","","","","","","",""
"592.5","","image-keyboard-response","448","362256","0.0-448.0","","img/set2/S2.jpg","68","2","structured_load","68","random,structured_load,structured_incentive,structured_normal","2,1,2,3,3,4","true","",""
"null","","html-keyboard-response","449","362610","0.0-449.0","","<img src=""img/set2/S2.jpg"" width=""540"" height = ""360"" style=""border:16px solid orange"">","null","","","","","","","",""
"null","","html-keyboard-response","450","362811","0.0-450.0","","","null","","","","","","","",""
"705.6999999880791","","image-keyboard-response","451","363521","0.0-451.0","","img/set2/S1.jpg","72","1","structured_load","83","random,structured_load,structured_incentive,structured_normal","2,1,2,3,3,4","false","",""
"null","","html-keyboard-response","452","363874","0.0-452.0","","<img src=""img/set2/S1.jpg"" width=""540"" height = ""360"">","null","","","","","","","",""
"null","","html-keyboard-response","453","364084","0.0-453.0","","","null","","","","","","","",""
"689.1999999880791","","image-keyboard-response","454","364776","0.0-454.0","","img/set2/S2.jpg","68","2","structured_load","68","random,structured_load,structured_incentive,structured_normal","2,1,2,3,3,4","true","",""
"null","","html-keyboard-response","455","365130","0.0-455.0","","<img src=""img/set2/S2.jpg"" width=""540"" height = ""360"" style=""border:16px solid orange"">","null","","","","","","","",""
"null","","html-keyboard-response","456","365332","0.0-456.0","","","null","","","","","","","",""
"515.0999999642372","","image-keyboard-response","457","365848","0.0-457.0","","img/set2/S1.jpg","83","1","structured_load","83","random,structured_load,structured_incentive,structured_normal","2,1,2,3,3,4","true","",""
"null","","html-keyboard-response","458","366203","0.0-458.0","","<img src=""img/set2/S1.jpg"" width=""540"" height = ""360"" style=""border:16px solid orange"">","null","","","","","","","",""
"null","","html-keyboard-response","459","366405","0.0-459.0","","","null","","","","","","","",""
"656","","image-keyboard-response","460","367064","0.0-460.0","","img/set2/S3.jpg","72","3","structured_load","72","random,structured_load,structured_incentive,structured_normal","2,1,2,3,3,4","true","",""
"null","","html-keyboard-response","461","367418","0.0-461.0","","<img src=""img/set2/S3.jpg"" width=""540"" height = ""360"" style=""border:16px solid orange"">","null","","","","","","","",""
"null","","html-keyboard-response","462","367621","0.0-462.0","","","null","","","","","","","",""
"880.8000000119209","","image-keyboard-response","463","368504","0.0-463.0","","img/set2/S2.jpg","68","2","structured_load","68","random,structured_load,structured_incentive,structured_normal","2,1,2,3,3,4","true","",""
"null","","html-keyboard-response","464","368858","0.0-464.0","","<img src=""img/set2/S2.jpg"" width=""540"" height = ""360"" style=""border:16px solid orange"">","null","","","","","","","",""
"null","","html-keyboard-response","465","369060","0.0-465.0","","","null","","","","","","","",""
"545.3000000119209","","image-keyboard-response","466","369608","0.0-466.0","","img/set2/S1.jpg","83","1","structured_load","83","random,structured_load,structured_incentive,structured_normal","2,1,2,3,3,4","true","",""
"null","","html-keyboard-response","467","369962","0.0-467.0","","<img src=""img/set2/S1.jpg"" width=""540"" height = ""360"" style=""border:16px solid orange"">","null","","","","","","","",""
"null","","html-keyboard-response","468","370164","0.0-468.0","","","null","","","","","","","",""
"783.6999999880791","","image-keyboard-response","469","370952","0.0-469.0","","img/set2/S3.jpg","72","3","structured_load","72","random,structured_load,structured_incentive,structured_normal","2,1,2,3,3,4","true","",""
"null","","html-keyboard-response","470","371306","0.0-470.0","","<img src=""img/set2/S3.jpg"" width=""540"" height = ""360"" style=""border:16px solid orange"">","null","","","","","","","",""
"null","","html-keyboard-response","471","371509","0.0-471.0","","","null","","","","","","","",""
"813.0999999642372","","image-keyboard-response","472","372328","0.0-472.0","","img/set2/S2.jpg","68","2","structured_load","68","random,structured_load,structured_incentive,structured_normal","2,1,2,3,3,4","true","",""
"null","","html-keyboard-response","473","372682","0.0-473.0","","<img src=""img/set2/S2.jpg"" width=""540"" height = ""360"" style=""border:16px solid orange"">","null","","","","","","","",""
"null","","html-keyboard-response","474","372893","0.0-474.0","","","null","","","","","","","",""
"574","","image-keyboard-response","475","373469","0.0-475.0","","img/set2/S1.jpg","83","1","structured_load","83","random,structured_load,structured_incentive,structured_normal","2,1,2,3,3,4","true","",""
"null","","html-keyboard-response","476","373822","0.0-476.0","","<img src=""img/set2/S1.jpg"" width=""540"" height = ""360"" style=""border:16px solid orange"">","null","","","","","","","",""
"null","","html-keyboard-response","477","374024","0.0-477.0","","","null","","","","","","","",""
"564","","image-keyboard-response","478","374592","0.0-478.0","","img/set2/S4.jpg","72","4","structured_load","74","random,structured_load,structured_incentive,structured_normal","2,1,2,3,3,4","false","",""
"null","","html-keyboard-response","479","374946","0.0-479.0","","<img src=""img/set2/S4.jpg"" width=""540"" height = ""360"">","null","","","","","","","",""
"null","","html-keyboard-response","480","375148","0.0-480.0","","","null","","","","","","","",""
"794.1999999880791","","image-keyboard-response","481","375944","0.0-481.0","","img/set2/S3.jpg","72","3","structured_load","72","random,structured_load,structured_incentive,structured_normal","2,1,2,3,3,4","true","",""
"null","","html-keyboard-response","482","376298","0.0-482.0","","<img src=""img/set2/S3.jpg"" width=""540"" height = ""360"" style=""border:16px solid orange"">","null","","","","","","","",""
"null","","html-keyboard-response","483","376501","0.0-483.0","","","null","","","","","","","",""
"527.5999999642372","","image-keyboard-response","484","377032","0.0-484.0","","img/set2/S4.jpg","68","4","structured_load","74","random,structured_load,structured_incentive,structured_normal","2,1,2,3,3,4","false","",""
"null","","html-keyboard-response","485","377398","0.0-485.0","","<img src=""img/set2/S4.jpg"" width=""540"" height = ""360"">","null","","","","","","","",""
"null","","html-keyboard-response","486","377600","0.0-486.0","","","null","","","","","","","",""
"732.6000000238419","","image-keyboard-response","487","378336","0.0-487.0","","img/set2/S3.jpg","72","3","structured_load","72","random,structured_load,structured_incentive,structured_normal","2,1,2,3,3,4","true","",""
"null","","html-keyboard-response","488","378689","0.0-488.0","","<img src=""img/set2/S3.jpg"" width=""540"" height = ""360"" style=""border:16px solid orange"">","null","","","","","","","",""
"null","","html-keyboard-response","489","378892","0.0-489.0","","","null","","","","","","","",""
"560.6999999880791","","image-keyboard-response","490","379453","0.0-490.0","","img/set2/S3.jpg","72","3","structured_load","72","random,structured_load,structured_incentive,structured_normal","2,1,2,3,3,4","true","",""
"null","","html-keyboard-response","491","379806","0.0-491.0","","<img src=""img/set2/S3.jpg"" width=""540"" height = ""360"" style=""border:16px solid orange"">","null","","","","","","","",""
"null","","html-keyboard-response","492","380009","0.0-492.0","","","null","","","","","","","",""
"732","","image-keyboard-response","493","380744","0.0-493.0","","img/set2/S2.jpg","68","2","structured_load","68","random,structured_load,structured_incentive,structured_normal","2,1,2,3,3,4","true","",""
"null","","html-keyboard-response","494","381101","0.0-494.0","","<img src=""img/set2/S2.jpg"" width=""540"" height = ""360"" style=""border:16px solid orange"">","null","","","","","","","",""
"null","","html-keyboard-response","495","381302","0.0-495.0","","","null","","","","","","","",""
"631.6000000238419","","image-keyboard-response","496","381936","0.0-496.0","","img/set2/S1.jpg","83","1","structured_load","83","random,structured_load,structured_incentive,structured_normal","2,1,2,3,3,4","true","",""
"null","","html-keyboard-response","497","382288","0.0-497.0","","<img src=""img/set2/S1.jpg"" width=""540"" height = ""360"" style=""border:16px solid orange"">","null","","","","","","","",""
"null","","html-keyboard-response","498","382490","0.0-498.0","","","null","","","","","","","",""
"756","","image-keyboard-response","499","383247","0.0-499.0","","img/set2/S4.jpg","74","4","structured_load","74","random,structured_load,structured_incentive,structured_normal","2,1,2,3,3,4","true","",""
"null","","html-keyboard-response","500","383600","0.0-500.0","","<img src=""img/set2/S4.jpg"" width=""540"" height = ""360"" style=""border:16px solid orange"">","null","","","","","","","",""
"null","","html-keyboard-response","501","383802","0.0-501.0","","","null","","","","","","","",""
"1098.5","","image-keyboard-response","502","384904","0.0-502.0","","img/set2/S2.jpg","68","2","structured_load","68","random,structured_load,structured_incentive,structured_normal","2,1,2,3,3,4","true","",""
"null","","html-keyboard-response","503","385258","0.0-503.0","","<img src=""img/set2/S2.jpg"" width=""540"" height = ""360"" style=""border:16px solid orange"">","null","","","","","","","",""
"null","","html-keyboard-response","504","385460","0.0-504.0","","","null","","","","","","","",""
"577.5","","image-keyboard-response","505","386040","0.0-505.0","","img/set2/S1.jpg","83","1","structured_load","83","random,structured_load,structured_incentive,structured_normal","2,1,2,3,3,4","true","",""
"null","","html-keyboard-response","506","386394","0.0-506.0","","<img src=""img/set2/S1.jpg"" width=""540"" height = ""360"" style=""border:16px solid orange"">","null","","","","","","","",""
"null","","html-keyboard-response","507","386597","0.0-507.0","","","null","","","","","","","",""
"638.8999999761581","","image-keyboard-response","508","387238","0.0-508.0","","img/set2/S4.jpg","74","4","structured_load","74","random,structured_load,structured_incentive,structured_normal","2,1,2,3,3,4","true","",""
"null","","html-keyboard-response","509","387591","0.0-509.0","","<img src=""img/set2/S4.jpg"" width=""540"" height = ""360"" style=""border:16px solid orange"">","null","","","","","","","",""
"null","","html-keyboard-response","510","387794","0.0-510.0","","","null","","","","","","","",""
"702.6000000238419","","image-keyboard-response","511","388499","0.0-511.0","","img/set2/S3.jpg","72","3","structured_load","72","random,structured_load,structured_incentive,structured_normal","2,1,2,3,3,4","true","",""
"null","","html-keyboard-response","512","388851","0.0-512.0","","<img src=""img/set2/S3.jpg"" width=""540"" height = ""360"" style=""border:16px solid orange"">","null","","","","","","","",""
"null","","html-keyboard-response","513","389054","0.0-513.0","","","null","","","","","","","",""
"671.8999999761581","","image-keyboard-response","514","389728","0.0-514.0","","img/set2/S4.jpg","74","4","structured_load","74","random,structured_load,structured_incentive,structured_normal","2,1,2,3,3,4","true","",""
"null","","html-keyboard-response","515","390083","0.0-515.0","","<img src=""img/set2/S4.jpg"" width=""540"" height = ""360"" style=""border:16px solid orange"">","null","","","","","","","",""
"null","","html-keyboard-response","516","390286","0.0-516.0","","","null","","","","","","","",""
"903.0999999642372","","image-keyboard-response","517","391192","0.0-517.0","","img/set2/S2.jpg","68","2","structured_load","68","random,structured_load,structured_incentive,structured_normal","2,1,2,3,3,4","true","",""
"null","","html-keyboard-response","518","391546","0.0-518.0","","<img src=""img/set2/S2.jpg"" width=""540"" height = ""360"" style=""border:16px solid orange"">","null","","","","","","","",""
"null","","html-keyboard-response","519","391748","0.0-519.0","","","null","","","","","","","",""
"617.8000000119209","","image-keyboard-response","520","392368","0.0-520.0","","img/set2/S1.jpg","83","1","structured_load","83","random,structured_load,structured_incentive,structured_normal","2,1,2,3,3,4","true","",""
"null","","html-keyboard-response","521","392722","0.0-521.0","","<img src=""img/set2/S1.jpg"" width=""540"" height = ""360"" style=""border:16px solid orange"">","null","","","","","","","",""
"null","","html-keyboard-response","522","392928","0.0-522.0","","","null","","","","","","","",""
"684.5","","image-keyboard-response","523","393613","0.0-523.0","","img/set2/S3.jpg","72","3","structured_load","72","random,structured_load,structured_incentive,structured_normal","2,1,2,3,3,4","true","",""
"null","","html-keyboard-response","524","393966","0.0-524.0","","<img src=""img/set2/S3.jpg"" width=""540"" height = ""360"" style=""border:16px solid orange"">","null","","","","","","","",""
"null","","html-keyboard-response","525","394169","0.0-525.0","","","null","","","","","","","",""
"529.6999999880791","","image-keyboard-response","526","394701","0.0-526.0","","img/set2/S4.jpg","74","4","structured_load","74","random,structured_load,structured_incentive,structured_normal","2,1,2,3,3,4","true","",""
"null","","html-keyboard-response","527","395053","0.0-527.0","","<img src=""img/set2/S4.jpg"" width=""540"" height = ""360"" style=""border:16px solid orange"">","null","","","","","","","",""
"null","","html-keyboard-response","528","395254","0.0-528.0","","","null","","","","","","","",""
"806.6999999880791","","image-keyboard-response","529","396064","0.0-529.0","","img/set2/S3.jpg","72","3","structured_load","72","random,structured_load,structured_incentive,structured_normal","2,1,2,3,3,4","true","",""
"null","","html-keyboard-response","530","396419","0.0-530.0","","<img src=""img/set2/S3.jpg"" width=""540"" height = ""360"" style=""border:16px solid orange"">","null","","","","","","","",""
"null","","html-keyboard-response","531","396622","0.0-531.0","","","null","","","","","","","",""
"888.1999999880791","","image-keyboard-response","532","397512","0.0-532.0","","img/set2/S3.jpg","72","3","structured_load","72","random,structured_load,structured_incentive,structured_normal","2,1,2,3,3,4","true","",""
"null","","html-keyboard-response","533","397864","0.0-533.0","","<img src=""img/set2/S3.jpg"" width=""540"" height = ""360"" style=""border:16px solid orange"">","null","","","","","","","",""
"null","","html-keyboard-response","534","398066","0.0-534.0","","","null","","","","","","","",""
"633.0999999642372","","image-keyboard-response","535","398701","0.0-535.0","","img/set2/S3.jpg","72","3","structured_load","72","random,structured_load,structured_incentive,structured_normal","2,1,2,3,3,4","true","",""
"null","","html-keyboard-response","536","399053","0.0-536.0","","<img src=""img/set2/S3.jpg"" width=""540"" height = ""360"" style=""border:16px solid orange"">","null","","","","","","","",""
"null","","html-keyboard-response","537","399256","0.0-537.0","","","null","","","","","","","",""
"1661.3999999761581","","image-keyboard-response","538","400920","0.0-538.0","","img/set2/S2.jpg","68","2","structured_load","68","random,structured_load,structured_incentive,structured_normal","2,1,2,3,3,4","true","",""
"null","","html-keyboard-response","539","401274","0.0-539.0","","<img src=""img/set2/S2.jpg"" width=""540"" height = ""360"" style=""border:16px solid orange"">","null","","","","","","","",""
"null","","html-keyboard-response","540","401476","0.0-540.0","","","null","","","","","","","",""
"849.4000000357628","","image-keyboard-response","541","402328","0.0-541.0","","img/set2/S1.jpg","83","1","structured_load","83","random,structured_load,structured_incentive,structured_normal","2,1,2,3,3,4","true","",""
"null","","html-keyboard-response","542","402682","0.0-542.0","","<img src=""img/set2/S1.jpg"" width=""540"" height = ""360"" style=""border:16px solid orange"">","null","","","","","","","",""
"null","","html-keyboard-response","543","402885","0.0-543.0","","","null","","","","","","","",""
"1544.0999999642372","","image-keyboard-response","544","404432","0.0-544.0","","img/set2/S2.jpg","68","2","structured_load","68","random,structured_load,structured_incentive,structured_normal","2,1,2,3,3,4","true","",""
"null","","html-keyboard-response","545","404786","0.0-545.0","","<img src=""img/set2/S2.jpg"" width=""540"" height = ""360"" style=""border:16px solid orange"">","null","","","","","","","",""
"null","","html-keyboard-response","546","404990","0.0-546.0","","","null","","","","","","","",""
"871.3999999761581","","image-keyboard-response","547","405864","0.0-547.0","","img/set2/S1.jpg","83","1","structured_load","83","random,structured_load,structured_incentive,structured_normal","2,1,2,3,3,4","true","",""
"null","","html-keyboard-response","548","406218","0.0-548.0","","<img src=""img/set2/S1.jpg"" width=""540"" height = ""360"" style=""border:16px solid orange"">","null","","","","","","","",""
"null","","html-keyboard-response","549","406421","0.0-549.0","","","null","","","","","","","",""
"1115.0999999642372","","image-keyboard-response","550","407539","0.0-550.0","","img/set2/S4.jpg","72","4","structured_load","74","random,structured_load,structured_incentive,structured_normal","2,1,2,3,3,4","false","",""
"null","","html-keyboard-response","551","407892","0.0-551.0","","<img src=""img/set2/S4.jpg"" width=""540"" height = ""360"">","null","","","","","","","",""
"null","","html-keyboard-response","552","408094","0.0-552.0","","","null","","","","","","","",""
"445","","image-keyboard-response","553","408541","0.0-553.0","","img/set2/S4.jpg","74","4","structured_load","74","random,structured_load,structured_incentive,structured_normal","2,1,2,3,3,4","true","",""
"null","","html-keyboard-response","554","408893","0.0-554.0","","<img src=""img/set2/S4.jpg"" width=""540"" height = ""360"" style=""border:16px solid orange"">","null","","","","","","","",""
"null","","html-keyboard-response","555","409096","0.0-555.0","","","null","","","","","","","",""
"597.5","","image-keyboard-response","556","409696","0.0-556.0","","img/set2/S4.jpg","74","4","structured_load","74","random,structured_load,structured_incentive,structured_normal","2,1,2,3,3,4","true","",""
"null","","html-keyboard-response","557","410051","0.0-557.0","","<img src=""img/set2/S4.jpg"" width=""540"" height = ""360"" style=""border:16px solid orange"">","null","","","","","","","",""
"null","","html-keyboard-response","558","410253","0.0-558.0","","","null","","","","","","","",""
"1274.5","","image-keyboard-response","559","411530","0.0-559.0","","img/set2/S4.jpg","74","4","structured_load","74","random,structured_load,structured_incentive,structured_normal","2,1,2,3,3,4","true","",""
"null","","html-keyboard-response","560","411885","0.0-560.0","","<img src=""img/set2/S4.jpg"" width=""540"" height = ""360"" style=""border:16px solid orange"">","null","","","","","","","",""
"null","","html-keyboard-response","561","412087","0.0-561.0","","","null","","","","","","","",""
"711.6999999880791","","image-keyboard-response","562","412800","0.0-562.0","","img/set2/S3.jpg","72","3","structured_load","72","random,structured_load,structured_incentive,structured_normal","2,1,2,3,3,4","true","",""
"null","","html-keyboard-response","563","413153","0.0-563.0","","<img src=""img/set2/S3.jpg"" width=""540"" height = ""360"" style=""border:16px solid orange"">","null","","","","","","","",""
"null","","html-keyboard-response","564","413355","0.0-564.0","","","null","","","","","","","",""
"1499.300000011921","","image-keyboard-response","565","414856","0.0-565.0","","img/set2/S2.jpg","68","2","structured_load","68","random,structured_load,structured_incentive,structured_normal","2,1,2,3,3,4","true","",""
"null","","html-keyboard-response","566","415210","0.0-566.0","","<img src=""img/set2/S2.jpg"" width=""540"" height = ""360"" style=""border:16px solid orange"">","null","","","","","","","",""
"null","","html-keyboard-response","567","415412","0.0-567.0","","","null","","","","","","","",""
"1191.699999988079","","image-keyboard-response","568","416605","0.0-568.0","","img/set2/S1.jpg","83","1","structured_load","83","random,structured_load,structured_incentive,structured_normal","2,1,2,3,3,4","true","",""
"null","","html-keyboard-response","569","416957","0.0-569.0","","<img src=""img/set2/S1.jpg"" width=""540"" height = ""360"" style=""border:16px solid orange"">","null","","","","","","","",""
"null","","html-keyboard-response","570","417159","0.0-570.0","","","null","","","","","","","",""
"885.3000000119209","","image-keyboard-response","571","418048","0.0-571.0","","img/set2/S4.jpg","74","4","structured_load","74","random,structured_load,structured_incentive,structured_normal","2,1,2,3,3,4","true","",""
"null","","html-keyboard-response","572","418402","0.0-572.0","","<img src=""img/set2/S4.jpg"" width=""540"" height = ""360"" style=""border:16px solid orange"">","null","","","","","","","",""
"null","","html-keyboard-response","573","418604","0.0-573.0","","","null","","","","","","","",""
"642","","image-keyboard-response","574","419248","0.0-574.0","","img/set2/S4.jpg","74","4","structured_load","74","random,structured_load,structured_incentive,structured_normal","2,1,2,3,3,4","true","",""
"null","","html-keyboard-response","575","419602","0.0-575.0","","<img src=""img/set2/S4.jpg"" width=""540"" height = ""360"" style=""border:16px solid orange"">","null","","","","","","","",""
"null","","html-keyboard-response","576","419804","0.0-576.0","","","null","","","","","","","",""
"592","","image-keyboard-response","577","420399","0.0-577.0","","img/set2/S4.jpg","74","4","structured_load","74","random,structured_load,structured_incentive,structured_normal","2,1,2,3,3,4","true","",""
"null","","html-keyboard-response","578","420754","0.0-578.0","","<img src=""img/set2/S4.jpg"" width=""540"" height = ""360"" style=""border:16px solid orange"">","null","","","","","","","",""
"null","","html-keyboard-response","579","420956","0.0-579.0","","","null","","","","","","","",""
"670.6999999880791","","image-keyboard-response","580","421629","0.0-580.0","","img/set2/S3.jpg","68","3","structured_load","72","random,structured_load,structured_incentive,structured_normal","2,1,2,3,3,4","false","",""
"null","","html-keyboard-response","581","421981","0.0-581.0","","<img src=""img/set2/S3.jpg"" width=""540"" height = ""360"">","null","","","","","","","",""
"null","","html-keyboard-response","582","422184","0.0-582.0","","","null","","","","","","","",""
"605.1000000238419","","image-keyboard-response","583","422792","0.0-583.0","","img/set2/S2.jpg","68","2","structured_load","68","random,structured_load,structured_incentive,structured_normal","2,1,2,3,3,4","true","",""
"null","","html-keyboard-response","584","423146","0.0-584.0","","<img src=""img/set2/S2.jpg"" width=""540"" height = ""360"" style=""border:16px solid orange"">","null","","","","","","","",""
"null","","html-keyboard-response","585","423348","0.0-585.0","","","null","","","","","","","",""
"584.6999999880791","","image-keyboard-response","586","423936","0.0-586.0","","img/set2/S1.jpg","83","1","structured_load","83","random,structured_load,structured_incentive,structured_normal","2,1,2,3,3,4","true","",""
"null","","html-keyboard-response","587","424290","0.0-587.0","","<img src=""img/set2/S1.jpg"" width=""540"" height = ""360"" style=""border:16px solid orange"">","null","","","","","","","",""
"null","","html-keyboard-response","588","424492","0.0-588.0","","","null","","","","","","","",""
"688.6999999880791","","image-keyboard-response","589","425184","0.0-589.0","","img/set2/S4.jpg","74","4","structured_load","74","random,structured_load,structured_incentive,structured_normal","2,1,2,3,3,4","true","",""
"null","","html-keyboard-response","590","425538","0.0-590.0","","<img src=""img/set2/S4.jpg"" width=""540"" height = ""360"" style=""border:16px solid orange"">","null","","","","","","","",""
"null","","html-keyboard-response","591","425740","0.0-591.0","","","null","","","","","","","",""
"1430.800000011921","","image-keyboard-response","592","427173","0.0-592.0","","img/set2/S2.jpg","68","2","structured_load","68","random,structured_load,structured_incentive,structured_normal","2,1,2,3,3,4","true","",""
"null","","html-keyboard-response","593","427526","0.0-593.0","","<img src=""img/set2/S2.jpg"" width=""540"" height = ""360"" style=""border:16px solid orange"">","null","","","","","","","",""
"null","","html-keyboard-response","594","427729","0.0-594.0","","","null","","","","","","","",""
