rt,url,trial_type,trial_index,time_elapsed,internal_node_id,assignmentID,mturkID,hitID,view_history,stimulus,key_press,state,test_part,correct_response,order_block,order_chunk,correct,bonus,responses
3123.39999997616,consent.html,external-html,0,3216,0.0-0.0,3M1CVSFP61RV3XKS7FVQT4S4F36QAP,A1JXSNKXAXT9OU,30OITAWPBQP2Z1DQ5HPUZCTXABIH90,,,,,,,,,,,
44857.6999999285,,instructions,1,48077,0.0-1.0,3M1CVSFP61RV3XKS7FVQT4S4F36QAP,A1JXSNKXAXT9OU,30OITAWPBQP2Z1DQ5HPUZCTXABIH90,"[{""page_index"":0,""viewing_time"":4136.600000023842},{""page_index"":1,""viewing_time"":4400.799999952316},{""page_index"":2,""viewing_time"":5246},{""page_index"":3,""viewing_time"":13039.899999976158},{""page_index"":4,""viewing_time"":4506.800000071526},{""page_index"":5,""viewing_time"":8451.899999976158},{""page_index"":6,""viewing_time"":5075}]",,,,,,,,,,
6757.79999995232,,instructions,2,54835,0.0-2.0,3M1CVSFP61RV3XKS7FVQT4S4F36QAP,A1JXSNKXAXT9OU,30OITAWPBQP2Z1DQ5HPUZCTXABIH90,"[{""page_index"":0,""viewing_time"":6757.600000023842}]",,,,,,,,,,
3087.10000002384,,instructions,3,57923,0.0-3.0,3M1CVSFP61RV3XKS7FVQT4S4F36QAP,A1JXSNKXAXT9OU,30OITAWPBQP2Z1DQ5HPUZCTXABIH90,"[{""page_index"":0,""viewing_time"":3086.899999976158}]",,,,,,,,,,
null,,image-keyboard-response,4,60430,0.0-4.0,3M1CVSFP61RV3XKS7FVQT4S4F36QAP,A1JXSNKXAXT9OU,30OITAWPBQP2Z1DQ5HPUZCTXABIH90,,img/set1/S4.jpg,null,4,structured_normal,74,"structured_normal,structured_incentive,random","2,3,1,2",FALSE,,
null,,html-keyboard-response,5,60791,0.0-5.0,3M1CVSFP61RV3XKS7FVQT4S4F36QAP,A1JXSNKXAXT9OU,30OITAWPBQP2Z1DQ5HPUZCTXABIH90,,"<img src=""img/set1/S4.jpg"" width=""540"" height = ""360"">",null,,,,,,,,
null,,html-keyboard-response,6,60993,0.0-6.0,3M1CVSFP61RV3XKS7FVQT4S4F36QAP,A1JXSNKXAXT9OU,30OITAWPBQP2Z1DQ5HPUZCTXABIH90,,,null,,,,,,,,
621,,image-keyboard-response,7,61616,0.0-7.0,3M1CVSFP61RV3XKS7FVQT4S4F36QAP,A1JXSNKXAXT9OU,30OITAWPBQP2Z1DQ5HPUZCTXABIH90,,img/set1/S4.jpg,72,4,structured_normal,74,"structured_normal,structured_incentive,random","2,3,1,2",FALSE,,
null,,html-keyboard-response,8,61969,0.0-8.0,3M1CVSFP61RV3XKS7FVQT4S4F36QAP,A1JXSNKXAXT9OU,30OITAWPBQP2Z1DQ5HPUZCTXABIH90,,"<img src=""img/set1/S4.jpg"" width=""540"" height = ""360"">",null,,,,,,,,
null,,html-keyboard-response,9,62173,0.0-9.0,3M1CVSFP61RV3XKS7FVQT4S4F36QAP,A1JXSNKXAXT9OU,30OITAWPBQP2Z1DQ5HPUZCTXABIH90,,,null,,,,,,,,
777.100000023842,,image-keyboard-response,10,62951,0.0-10.0,3M1CVSFP61RV3XKS7FVQT4S4F36QAP,A1JXSNKXAXT9OU,30OITAWPBQP2Z1DQ5HPUZCTXABIH90,,img/set1/S2.jpg,83,2,structured_normal,68,"structured_normal,structured_incentive,random","2,3,1,2",FALSE,,
null,,html-keyboard-response,11,63311,0.0-11.0,3M1CVSFP61RV3XKS7FVQT4S4F36QAP,A1JXSNKXAXT9OU,30OITAWPBQP2Z1DQ5HPUZCTXABIH90,,"<img src=""img/set1/S2.jpg"" width=""540"" height = ""360"">",null,,,,,,,,
null,,html-keyboard-response,12,63515,0.0-12.0,3M1CVSFP61RV3XKS7FVQT4S4F36QAP,A1JXSNKXAXT9OU,30OITAWPBQP2Z1DQ5HPUZCTXABIH90,,,null,,,,,,,,
1947.19999992847,,image-keyboard-response,13,65463,0.0-13.0,3M1CVSFP61RV3XKS7FVQT4S4F36QAP,A1JXSNKXAXT9OU,30OITAWPBQP2Z1DQ5HPUZCTXABIH90,,img/set1/S3.jpg,72,3,structured_normal,72,"structured_normal,structured_incentive,random","2,3,1,2",TRUE,,
null,,html-keyboard-response,14,65827,0.0-14.0,3M1CVSFP61RV3XKS7FVQT4S4F36QAP,A1JXSNKXAXT9OU,30OITAWPBQP2Z1DQ5HPUZCTXABIH90,,"<img src=""img/set1/S3.jpg"" width=""540"" height = ""360"" style=""border:16px solid orange"">",null,,,,,,,,
null,,html-keyboard-response,15,66032,0.0-15.0,3M1CVSFP61RV3XKS7FVQT4S4F36QAP,A1JXSNKXAXT9OU,30OITAWPBQP2Z1DQ5HPUZCTXABIH90,,,null,,,,,,,,
1046,,image-keyboard-response,16,67078,0.0-16.0,3M1CVSFP61RV3XKS7FVQT4S4F36QAP,A1JXSNKXAXT9OU,30OITAWPBQP2Z1DQ5HPUZCTXABIH90,,img/set1/S2.jpg,83,2,structured_normal,68,"structured_normal,structured_incentive,random","2,3,1,2",FALSE,,
null,,html-keyboard-response,17,67432,0.0-17.0,3M1CVSFP61RV3XKS7FVQT4S4F36QAP,A1JXSNKXAXT9OU,30OITAWPBQP2Z1DQ5HPUZCTXABIH90,,"<img src=""img/set1/S2.jpg"" width=""540"" height = ""360"">",null,,,,,,,,
null,,html-keyboard-response,18,67636,0.0-18.0,3M1CVSFP61RV3XKS7FVQT4S4F36QAP,A1JXSNKXAXT9OU,30OITAWPBQP2Z1DQ5HPUZCTXABIH90,,,null,,,,,,,,
618,,image-keyboard-response,19,68255,0.0-19.0,3M1CVSFP61RV3XKS7FVQT4S4F36QAP,A1JXSNKXAXT9OU,30OITAWPBQP2Z1DQ5HPUZCTXABIH90,,img/set1/S3.jpg,72,3,structured_normal,72,"structured_normal,structured_incentive,random","2,3,1,2",TRUE,,
null,,html-keyboard-response,20,68619,0.0-20.0,3M1CVSFP61RV3XKS7FVQT4S4F36QAP,A1JXSNKXAXT9OU,30OITAWPBQP2Z1DQ5HPUZCTXABIH90,,"<img src=""img/set1/S3.jpg"" width=""540"" height = ""360"" style=""border:16px solid orange"">",null,,,,,,,,
null,,html-keyboard-response,21,68825,0.0-21.0,3M1CVSFP61RV3XKS7FVQT4S4F36QAP,A1JXSNKXAXT9OU,30OITAWPBQP2Z1DQ5HPUZCTXABIH90,,,null,,,,,,,,
508.800000071526,,image-keyboard-response,22,69335,0.0-22.0,3M1CVSFP61RV3XKS7FVQT4S4F36QAP,A1JXSNKXAXT9OU,30OITAWPBQP2Z1DQ5HPUZCTXABIH90,,img/set1/S1.jpg,72,1,structured_normal,83,"structured_normal,structured_incentive,random","2,3,1,2",FALSE,,
null,,html-keyboard-response,23,69698,0.0-23.0,3M1CVSFP61RV3XKS7FVQT4S4F36QAP,A1JXSNKXAXT9OU,30OITAWPBQP2Z1DQ5HPUZCTXABIH90,,"<img src=""img/set1/S1.jpg"" width=""540"" height = ""360"">",null,,,,,,,,
null,,html-keyboard-response,24,69913,0.0-24.0,3M1CVSFP61RV3XKS7FVQT4S4F36QAP,A1JXSNKXAXT9OU,30OITAWPBQP2Z1DQ5HPUZCTXABIH90,,,null,,,,,,,,
444.699999928474,,image-keyboard-response,25,70359,0.0-25.0,3M1CVSFP61RV3XKS7FVQT4S4F36QAP,A1JXSNKXAXT9OU,30OITAWPBQP2Z1DQ5HPUZCTXABIH90,,img/set1/S2.jpg,72,2,structured_normal,68,"structured_normal,structured_incentive,random","2,3,1,2",FALSE,,
null,,html-keyboard-response,26,70725,0.0-26.0,3M1CVSFP61RV3XKS7FVQT4S4F36QAP,A1JXSNKXAXT9OU,30OITAWPBQP2Z1DQ5HPUZCTXABIH90,,"<img src=""img/set1/S2.jpg"" width=""540"" height = ""360"">",null,,,,,,,,
null,,html-keyboard-response,27,70927,0.0-27.0,3M1CVSFP61RV3XKS7FVQT4S4F36QAP,A1JXSNKXAXT9OU,30OITAWPBQP2Z1DQ5HPUZCTXABIH90,,,null,,,,,,,,
407,,image-keyboard-response,28,71335,0.0-28.0,3M1CVSFP61RV3XKS7FVQT4S4F36QAP,A1JXSNKXAXT9OU,30OITAWPBQP2Z1DQ5HPUZCTXABIH90,,img/set1/S3.jpg,74,3,structured_normal,72,"structured_normal,structured_incentive,random","2,3,1,2",FALSE,,
null,,html-keyboard-response,29,71690,0.0-29.0,3M1CVSFP61RV3XKS7FVQT4S4F36QAP,A1JXSNKXAXT9OU,30OITAWPBQP2Z1DQ5HPUZCTXABIH90,,"<img src=""img/set1/S3.jpg"" width=""540"" height = ""360"">",null,,,,,,,,
null,,html-keyboard-response,30,71894,0.0-30.0,3M1CVSFP61RV3XKS7FVQT4S4F36QAP,A1JXSNKXAXT9OU,30OITAWPBQP2Z1DQ5HPUZCTXABIH90,,,null,,,,,,,,
352.200000047684,,image-keyboard-response,31,72247,0.0-31.0,3M1CVSFP61RV3XKS7FVQT4S4F36QAP,A1JXSNKXAXT9OU,30OITAWPBQP2Z1DQ5HPUZCTXABIH90,,img/set1/S4.jpg,72,4,structured_normal,74,"structured_normal,structured_incentive,random","2,3,1,2",FALSE,,
null,,html-keyboard-response,32,72606,0.0-32.0,3M1CVSFP61RV3XKS7FVQT4S4F36QAP,A1JXSNKXAXT9OU,30OITAWPBQP2Z1DQ5HPUZCTXABIH90,,"<img src=""img/set1/S4.jpg"" width=""540"" height = ""360"">",null,,,,,,,,
null,,html-keyboard-response,33,72809,0.0-33.0,3M1CVSFP61RV3XKS7FVQT4S4F36QAP,A1JXSNKXAXT9OU,30OITAWPBQP2Z1DQ5HPUZCTXABIH90,,,null,,,,,,,,
852.699999928474,,image-keyboard-response,34,73663,0.0-34.0,3M1CVSFP61RV3XKS7FVQT4S4F36QAP,A1JXSNKXAXT9OU,30OITAWPBQP2Z1DQ5HPUZCTXABIH90,,img/set1/S1.jpg,72,1,structured_normal,83,"structured_normal,structured_incentive,random","2,3,1,2",FALSE,,
null,,html-keyboard-response,35,74020,0.0-35.0,3M1CVSFP61RV3XKS7FVQT4S4F36QAP,A1JXSNKXAXT9OU,30OITAWPBQP2Z1DQ5HPUZCTXABIH90,,"<img src=""img/set1/S1.jpg"" width=""540"" height = ""360"">",null,,,,,,,,
null,,html-keyboard-response,36,74222,0.0-36.0,3M1CVSFP61RV3XKS7FVQT4S4F36QAP,A1JXSNKXAXT9OU,30OITAWPBQP2Z1DQ5HPUZCTXABIH90,,,null,,,,,,,,
359.800000071526,,image-keyboard-response,37,74583,0.0-37.0,3M1CVSFP61RV3XKS7FVQT4S4F36QAP,A1JXSNKXAXT9OU,30OITAWPBQP2Z1DQ5HPUZCTXABIH90,,img/set1/S1.jpg,74,1,structured_normal,83,"structured_normal,structured_incentive,random","2,3,1,2",FALSE,,
null,,html-keyboard-response,38,74939,0.0-38.0,3M1CVSFP61RV3XKS7FVQT4S4F36QAP,A1JXSNKXAXT9OU,30OITAWPBQP2Z1DQ5HPUZCTXABIH90,,"<img src=""img/set1/S1.jpg"" width=""540"" height = ""360"">",null,,,,,,,,
null,,html-keyboard-response,39,75141,0.0-39.0,3M1CVSFP61RV3XKS7FVQT4S4F36QAP,A1JXSNKXAXT9OU,30OITAWPBQP2Z1DQ5HPUZCTXABIH90,,,null,,,,,,,,
568.799999952316,,image-keyboard-response,40,75711,0.0-40.0,3M1CVSFP61RV3XKS7FVQT4S4F36QAP,A1JXSNKXAXT9OU,30OITAWPBQP2Z1DQ5HPUZCTXABIH90,,img/set1/S2.jpg,74,2,structured_normal,68,"structured_normal,structured_incentive,random","2,3,1,2",FALSE,,
null,,html-keyboard-response,41,76078,0.0-41.0,3M1CVSFP61RV3XKS7FVQT4S4F36QAP,A1JXSNKXAXT9OU,30OITAWPBQP2Z1DQ5HPUZCTXABIH90,,"<img src=""img/set1/S2.jpg"" width=""540"" height = ""360"">",null,,,,,,,,
null,,html-keyboard-response,42,76280,0.0-42.0,3M1CVSFP61RV3XKS7FVQT4S4F36QAP,A1JXSNKXAXT9OU,30OITAWPBQP2Z1DQ5HPUZCTXABIH90,,,null,,,,,,,,
421.600000023842,,image-keyboard-response,43,76703,0.0-43.0,3M1CVSFP61RV3XKS7FVQT4S4F36QAP,A1JXSNKXAXT9OU,30OITAWPBQP2Z1DQ5HPUZCTXABIH90,,img/set1/S4.jpg,74,4,structured_normal,74,"structured_normal,structured_incentive,random","2,3,1,2",TRUE,,
null,,html-keyboard-response,44,77059,0.0-44.0,3M1CVSFP61RV3XKS7FVQT4S4F36QAP,A1JXSNKXAXT9OU,30OITAWPBQP2Z1DQ5HPUZCTXABIH90,,"<img src=""img/set1/S4.jpg"" width=""540"" height = ""360"" style=""border:16px solid orange"">",null,,,,,,,,
null,,html-keyboard-response,45,77262,0.0-45.0,3M1CVSFP61RV3XKS7FVQT4S4F36QAP,A1JXSNKXAXT9OU,30OITAWPBQP2Z1DQ5HPUZCTXABIH90,,,null,,,,,,,,
752.200000047684,,image-keyboard-response,46,78015,0.0-46.0,3M1CVSFP61RV3XKS7FVQT4S4F36QAP,A1JXSNKXAXT9OU,30OITAWPBQP2Z1DQ5HPUZCTXABIH90,,img/set1/S2.jpg,74,2,structured_normal,68,"structured_normal,structured_incentive,random","2,3,1,2",FALSE,,
null,,html-keyboard-response,47,78381,0.0-47.0,3M1CVSFP61RV3XKS7FVQT4S4F36QAP,A1JXSNKXAXT9OU,30OITAWPBQP2Z1DQ5HPUZCTXABIH90,,"<img src=""img/set1/S2.jpg"" width=""540"" height = ""360"">",null,,,,,,,,
null,,html-keyboard-response,48,78584,0.0-48.0,3M1CVSFP61RV3XKS7FVQT4S4F36QAP,A1JXSNKXAXT9OU,30OITAWPBQP2Z1DQ5HPUZCTXABIH90,,,null,,,,,,,,
494.300000071526,,image-keyboard-response,49,79079,0.0-49.0,3M1CVSFP61RV3XKS7FVQT4S4F36QAP,A1JXSNKXAXT9OU,30OITAWPBQP2Z1DQ5HPUZCTXABIH90,,img/set1/S3.jpg,72,3,structured_normal,72,"structured_normal,structured_incentive,random","2,3,1,2",TRUE,,
null,,html-keyboard-response,50,79443,0.0-50.0,3M1CVSFP61RV3XKS7FVQT4S4F36QAP,A1JXSNKXAXT9OU,30OITAWPBQP2Z1DQ5HPUZCTXABIH90,,"<img src=""img/set1/S3.jpg"" width=""540"" height = ""360"" style=""border:16px solid orange"">",null,,,,,,,,
null,,html-keyboard-response,51,79645,0.0-51.0,3M1CVSFP61RV3XKS7FVQT4S4F36QAP,A1JXSNKXAXT9OU,30OITAWPBQP2Z1DQ5HPUZCTXABIH90,,,null,,,,,,,,
736.600000023842,,image-keyboard-response,52,80383,0.0-52.0,3M1CVSFP61RV3XKS7FVQT4S4F36QAP,A1JXSNKXAXT9OU,30OITAWPBQP2Z1DQ5HPUZCTXABIH90,,img/set1/S2.jpg,74,2,structured_normal,68,"structured_normal,structured_incentive,random","2,3,1,2",FALSE,,
null,,html-keyboard-response,53,80738,0.0-53.0,3M1CVSFP61RV3XKS7FVQT4S4F36QAP,A1JXSNKXAXT9OU,30OITAWPBQP2Z1DQ5HPUZCTXABIH90,,"<img src=""img/set1/S2.jpg"" width=""540"" height = ""360"">",null,,,,,,,,
null,,html-keyboard-response,54,80940,0.0-54.0,3M1CVSFP61RV3XKS7FVQT4S4F36QAP,A1JXSNKXAXT9OU,30OITAWPBQP2Z1DQ5HPUZCTXABIH90,,,null,,,,,,,,
657.600000023842,,image-keyboard-response,55,81598,0.0-55.0,3M1CVSFP61RV3XKS7FVQT4S4F36QAP,A1JXSNKXAXT9OU,30OITAWPBQP2Z1DQ5HPUZCTXABIH90,,img/set1/S3.jpg,72,3,structured_normal,72,"structured_normal,structured_incentive,random","2,3,1,2",TRUE,,
null,,html-keyboard-response,56,81951,0.0-56.0,3M1CVSFP61RV3XKS7FVQT4S4F36QAP,A1JXSNKXAXT9OU,30OITAWPBQP2Z1DQ5HPUZCTXABIH90,,"<img src=""img/set1/S3.jpg"" width=""540"" height = ""360"" style=""border:16px solid orange"">",null,,,,,,,,
null,,html-keyboard-response,57,82153,0.0-57.0,3M1CVSFP61RV3XKS7FVQT4S4F36QAP,A1JXSNKXAXT9OU,30OITAWPBQP2Z1DQ5HPUZCTXABIH90,,,null,,,,,,,,
468.800000071526,,image-keyboard-response,58,82623,0.0-58.0,3M1CVSFP61RV3XKS7FVQT4S4F36QAP,A1JXSNKXAXT9OU,30OITAWPBQP2Z1DQ5HPUZCTXABIH90,,img/set1/S2.jpg,74,2,structured_normal,68,"structured_normal,structured_incentive,random","2,3,1,2",FALSE,,
null,,html-keyboard-response,59,82978,0.0-59.0,3M1CVSFP61RV3XKS7FVQT4S4F36QAP,A1JXSNKXAXT9OU,30OITAWPBQP2Z1DQ5HPUZCTXABIH90,,"<img src=""img/set1/S2.jpg"" width=""540"" height = ""360"">",null,,,,,,,,
null,,html-keyboard-response,60,83180,0.0-60.0,3M1CVSFP61RV3XKS7FVQT4S4F36QAP,A1JXSNKXAXT9OU,30OITAWPBQP2Z1DQ5HPUZCTXABIH90,,,null,,,,,,,,
674.100000023842,,image-keyboard-response,61,83854,0.0-61.0,3M1CVSFP61RV3XKS7FVQT4S4F36QAP,A1JXSNKXAXT9OU,30OITAWPBQP2Z1DQ5HPUZCTXABIH90,,img/set1/S4.jpg,83,4,structured_normal,74,"structured_normal,structured_incentive,random","2,3,1,2",FALSE,,
null,,html-keyboard-response,62,84209,0.0-62.0,3M1CVSFP61RV3XKS7FVQT4S4F36QAP,A1JXSNKXAXT9OU,30OITAWPBQP2Z1DQ5HPUZCTXABIH90,,"<img src=""img/set1/S4.jpg"" width=""540"" height = ""360"">",null,,,,,,,,
null,,html-keyboard-response,63,84425,0.0-63.0,3M1CVSFP61RV3XKS7FVQT4S4F36QAP,A1JXSNKXAXT9OU,30OITAWPBQP2Z1DQ5HPUZCTXABIH90,,,null,,,,,,,,
453,,image-keyboard-response,64,84879,0.0-64.0,3M1CVSFP61RV3XKS7FVQT4S4F36QAP,A1JXSNKXAXT9OU,30OITAWPBQP2Z1DQ5HPUZCTXABIH90,,img/set1/S4.jpg,74,4,structured_normal,74,"structured_normal,structured_incentive,random","2,3,1,2",TRUE,,
null,,html-keyboard-response,65,85236,0.0-65.0,3M1CVSFP61RV3XKS7FVQT4S4F36QAP,A1JXSNKXAXT9OU,30OITAWPBQP2Z1DQ5HPUZCTXABIH90,,"<img src=""img/set1/S4.jpg"" width=""540"" height = ""360"" style=""border:16px solid orange"">",null,,,,,,,,
null,,html-keyboard-response,66,85439,0.0-66.0,3M1CVSFP61RV3XKS7FVQT4S4F36QAP,A1JXSNKXAXT9OU,30OITAWPBQP2Z1DQ5HPUZCTXABIH90,,,null,,,,,,,,
567,,image-keyboard-response,67,86007,0.0-67.0,3M1CVSFP61RV3XKS7FVQT4S4F36QAP,A1JXSNKXAXT9OU,30OITAWPBQP2Z1DQ5HPUZCTXABIH90,,img/set1/S4.jpg,72,4,structured_normal,74,"structured_normal,structured_incentive,random","2,3,1,2",FALSE,,
null,,html-keyboard-response,68,86358,0.0-68.0,3M1CVSFP61RV3XKS7FVQT4S4F36QAP,A1JXSNKXAXT9OU,30OITAWPBQP2Z1DQ5HPUZCTXABIH90,,"<img src=""img/set1/S4.jpg"" width=""540"" height = ""360"">",null,,,,,,,,
null,,html-keyboard-response,69,86561,0.0-69.0,3M1CVSFP61RV3XKS7FVQT4S4F36QAP,A1JXSNKXAXT9OU,30OITAWPBQP2Z1DQ5HPUZCTXABIH90,,,null,,,,,,,,
844.100000023842,,image-keyboard-response,70,87407,0.0-70.0,3M1CVSFP61RV3XKS7FVQT4S4F36QAP,A1JXSNKXAXT9OU,30OITAWPBQP2Z1DQ5HPUZCTXABIH90,,img/set1/S1.jpg,72,1,structured_normal,83,"structured_normal,structured_incentive,random","2,3,1,2",FALSE,,
null,,html-keyboard-response,71,87762,0.0-71.0,3M1CVSFP61RV3XKS7FVQT4S4F36QAP,A1JXSNKXAXT9OU,30OITAWPBQP2Z1DQ5HPUZCTXABIH90,,"<img src=""img/set1/S1.jpg"" width=""540"" height = ""360"">",null,,,,,,,,
null,,html-keyboard-response,72,87965,0.0-72.0,3M1CVSFP61RV3XKS7FVQT4S4F36QAP,A1JXSNKXAXT9OU,30OITAWPBQP2Z1DQ5HPUZCTXABIH90,,,null,,,,,,,,
520.5,,image-keyboard-response,73,88487,0.0-73.0,3M1CVSFP61RV3XKS7FVQT4S4F36QAP,A1JXSNKXAXT9OU,30OITAWPBQP2Z1DQ5HPUZCTXABIH90,,img/set1/S3.jpg,72,3,structured_normal,72,"structured_normal,structured_incentive,random","2,3,1,2",TRUE,,
null,,html-keyboard-response,74,88850,0.0-74.0,3M1CVSFP61RV3XKS7FVQT4S4F36QAP,A1JXSNKXAXT9OU,30OITAWPBQP2Z1DQ5HPUZCTXABIH90,,"<img src=""img/set1/S3.jpg"" width=""540"" height = ""360"" style=""border:16px solid orange"">",null,,,,,,,,
null,,html-keyboard-response,75,89052,0.0-75.0,3M1CVSFP61RV3XKS7FVQT4S4F36QAP,A1JXSNKXAXT9OU,30OITAWPBQP2Z1DQ5HPUZCTXABIH90,,,null,,,,,,,,
417.900000095367,,image-keyboard-response,76,89471,0.0-76.0,3M1CVSFP61RV3XKS7FVQT4S4F36QAP,A1JXSNKXAXT9OU,30OITAWPBQP2Z1DQ5HPUZCTXABIH90,,img/set1/S1.jpg,74,1,structured_normal,83,"structured_normal,structured_incentive,random","2,3,1,2",FALSE,,
null,,html-keyboard-response,77,89825,0.0-77.0,3M1CVSFP61RV3XKS7FVQT4S4F36QAP,A1JXSNKXAXT9OU,30OITAWPBQP2Z1DQ5HPUZCTXABIH90,,"<img src=""img/set1/S1.jpg"" width=""540"" height = ""360"">",null,,,,,,,,
null,,html-keyboard-response,78,90028,0.0-78.0,3M1CVSFP61RV3XKS7FVQT4S4F36QAP,A1JXSNKXAXT9OU,30OITAWPBQP2Z1DQ5HPUZCTXABIH90,,,null,,,,,,,,
593.800000071526,,image-keyboard-response,79,90622,0.0-79.0,3M1CVSFP61RV3XKS7FVQT4S4F36QAP,A1JXSNKXAXT9OU,30OITAWPBQP2Z1DQ5HPUZCTXABIH90,,img/set1/S2.jpg,72,2,structured_normal,68,"structured_normal,structured_incentive,random","2,3,1,2",FALSE,,
null,,html-keyboard-response,80,90975,0.0-80.0,3M1CVSFP61RV3XKS7FVQT4S4F36QAP,A1JXSNKXAXT9OU,30OITAWPBQP2Z1DQ5HPUZCTXABIH90,,"<img src=""img/set1/S2.jpg"" width=""540"" height = ""360"">",null,,,,,,,,
null,,html-keyboard-response,81,91177,0.0-81.0,3M1CVSFP61RV3XKS7FVQT4S4F36QAP,A1JXSNKXAXT9OU,30OITAWPBQP2Z1DQ5HPUZCTXABIH90,,,null,,,,,,,,
540.800000071526,,image-keyboard-response,82,91718,0.0-82.0,3M1CVSFP61RV3XKS7FVQT4S4F36QAP,A1JXSNKXAXT9OU,30OITAWPBQP2Z1DQ5HPUZCTXABIH90,,img/set1/S3.jpg,72,3,structured_normal,72,"structured_normal,structured_incentive,random","2,3,1,2",TRUE,,
null,,html-keyboard-response,83,92080,0.0-83.0,3M1CVSFP61RV3XKS7FVQT4S4F36QAP,A1JXSNKXAXT9OU,30OITAWPBQP2Z1DQ5HPUZCTXABIH90,,"<img src=""img/set1/S3.jpg"" width=""540"" height = ""360"" style=""border:16px solid orange"">",null,,,,,,,,
null,,html-keyboard-response,84,92282,0.0-84.0,3M1CVSFP61RV3XKS7FVQT4S4F36QAP,A1JXSNKXAXT9OU,30OITAWPBQP2Z1DQ5HPUZCTXABIH90,,,null,,,,,,,,
523.399999976158,,image-keyboard-response,85,92807,0.0-85.0,3M1CVSFP61RV3XKS7FVQT4S4F36QAP,A1JXSNKXAXT9OU,30OITAWPBQP2Z1DQ5HPUZCTXABIH90,,img/set1/S4.jpg,83,4,structured_normal,74,"structured_normal,structured_incentive,random","2,3,1,2",FALSE,,
null,,html-keyboard-response,86,93161,0.0-86.0,3M1CVSFP61RV3XKS7FVQT4S4F36QAP,A1JXSNKXAXT9OU,30OITAWPBQP2Z1DQ5HPUZCTXABIH90,,"<img src=""img/set1/S4.jpg"" width=""540"" height = ""360"">",null,,,,,,,,
null,,html-keyboard-response,87,93363,0.0-87.0,3M1CVSFP61RV3XKS7FVQT4S4F36QAP,A1JXSNKXAXT9OU,30OITAWPBQP2Z1DQ5HPUZCTXABIH90,,,null,,,,,,,,
506.700000047684,,image-keyboard-response,88,93870,0.0-88.0,3M1CVSFP61RV3XKS7FVQT4S4F36QAP,A1JXSNKXAXT9OU,30OITAWPBQP2Z1DQ5HPUZCTXABIH90,,img/set1/S4.jpg,74,4,structured_normal,74,"structured_normal,structured_incentive,random","2,3,1,2",TRUE,,
null,,html-keyboard-response,89,94235,0.0-89.0,3M1CVSFP61RV3XKS7FVQT4S4F36QAP,A1JXSNKXAXT9OU,30OITAWPBQP2Z1DQ5HPUZCTXABIH90,,"<img src=""img/set1/S4.jpg"" width=""540"" height = ""360"" style=""border:16px solid orange"">",null,,,,,,,,
null,,html-keyboard-response,90,94438,0.0-90.0,3M1CVSFP61RV3XKS7FVQT4S4F36QAP,A1JXSNKXAXT9OU,30OITAWPBQP2Z1DQ5HPUZCTXABIH90,,,null,,,,,,,,
575.900000095367,,image-keyboard-response,91,95014,0.0-91.0,3M1CVSFP61RV3XKS7FVQT4S4F36QAP,A1JXSNKXAXT9OU,30OITAWPBQP2Z1DQ5HPUZCTXABIH90,,img/set1/S4.jpg,74,4,structured_normal,74,"structured_normal,structured_incentive,random","2,3,1,2",TRUE,,
null,,html-keyboard-response,92,95376,0.0-92.0,3M1CVSFP61RV3XKS7FVQT4S4F36QAP,A1JXSNKXAXT9OU,30OITAWPBQP2Z1DQ5HPUZCTXABIH90,,"<img src=""img/set1/S4.jpg"" width=""540"" height = ""360"" style=""border:16px solid orange"">",null,,,,,,,,
null,,html-keyboard-response,93,95578,0.0-93.0,3M1CVSFP61RV3XKS7FVQT4S4F36QAP,A1JXSNKXAXT9OU,30OITAWPBQP2Z1DQ5HPUZCTXABIH90,,,null,,,,,,,,
596.299999952316,,image-keyboard-response,94,96175,0.0-94.0,3M1CVSFP61RV3XKS7FVQT4S4F36QAP,A1JXSNKXAXT9OU,30OITAWPBQP2Z1DQ5HPUZCTXABIH90,,img/set1/S2.jpg,83,2,structured_normal,68,"structured_normal,structured_incentive,random","2,3,1,2",FALSE,,
null,,html-keyboard-response,95,96529,0.0-95.0,3M1CVSFP61RV3XKS7FVQT4S4F36QAP,A1JXSNKXAXT9OU,30OITAWPBQP2Z1DQ5HPUZCTXABIH90,,"<img src=""img/set1/S2.jpg"" width=""540"" height = ""360"">",null,,,,,,,,
null,,html-keyboard-response,96,96731,0.0-96.0,3M1CVSFP61RV3XKS7FVQT4S4F36QAP,A1JXSNKXAXT9OU,30OITAWPBQP2Z1DQ5HPUZCTXABIH90,,,null,,,,,,,,
618.5,,image-keyboard-response,97,97350,0.0-97.0,3M1CVSFP61RV3XKS7FVQT4S4F36QAP,A1JXSNKXAXT9OU,30OITAWPBQP2Z1DQ5HPUZCTXABIH90,,img/set1/S4.jpg,74,4,structured_normal,74,"structured_normal,structured_incentive,random","2,3,1,2",TRUE,,
null,,html-keyboard-response,98,97712,0.0-98.0,3M1CVSFP61RV3XKS7FVQT4S4F36QAP,A1JXSNKXAXT9OU,30OITAWPBQP2Z1DQ5HPUZCTXABIH90,,"<img src=""img/set1/S4.jpg"" width=""540"" height = ""360"" style=""border:16px solid orange"">",null,,,,,,,,
null,,html-keyboard-response,99,97914,0.0-99.0,3M1CVSFP61RV3XKS7FVQT4S4F36QAP,A1JXSNKXAXT9OU,30OITAWPBQP2Z1DQ5HPUZCTXABIH90,,,null,,,,,,,,
756,,image-keyboard-response,100,98670,0.0-100.0,3M1CVSFP61RV3XKS7FVQT4S4F36QAP,A1JXSNKXAXT9OU,30OITAWPBQP2Z1DQ5HPUZCTXABIH90,,img/set1/S2.jpg,68,2,structured_normal,68,"structured_normal,structured_incentive,random","2,3,1,2",TRUE,,
null,,html-keyboard-response,101,99022,0.0-101.0,3M1CVSFP61RV3XKS7FVQT4S4F36QAP,A1JXSNKXAXT9OU,30OITAWPBQP2Z1DQ5HPUZCTXABIH90,,"<img src=""img/set1/S2.jpg"" width=""540"" height = ""360"" style=""border:16px solid orange"">",null,,,,,,,,
null,,html-keyboard-response,102,99238,0.0-102.0,3M1CVSFP61RV3XKS7FVQT4S4F36QAP,A1JXSNKXAXT9OU,30OITAWPBQP2Z1DQ5HPUZCTXABIH90,,,null,,,,,,,,
519.700000047684,,image-keyboard-response,103,99758,0.0-103.0,3M1CVSFP61RV3XKS7FVQT4S4F36QAP,A1JXSNKXAXT9OU,30OITAWPBQP2Z1DQ5HPUZCTXABIH90,,img/set1/S3.jpg,72,3,structured_normal,72,"structured_normal,structured_incentive,random","2,3,1,2",TRUE,,
null,,html-keyboard-response,104,100113,0.0-104.0,3M1CVSFP61RV3XKS7FVQT4S4F36QAP,A1JXSNKXAXT9OU,30OITAWPBQP2Z1DQ5HPUZCTXABIH90,,"<img src=""img/set1/S3.jpg"" width=""540"" height = ""360"" style=""border:16px solid orange"">",null,,,,,,,,
null,,html-keyboard-response,105,100329,0.0-105.0,3M1CVSFP61RV3XKS7FVQT4S4F36QAP,A1JXSNKXAXT9OU,30OITAWPBQP2Z1DQ5HPUZCTXABIH90,,,null,,,,,,,,
765.100000023842,,image-keyboard-response,106,101094,0.0-106.0,3M1CVSFP61RV3XKS7FVQT4S4F36QAP,A1JXSNKXAXT9OU,30OITAWPBQP2Z1DQ5HPUZCTXABIH90,,img/set1/S1.jpg,83,1,structured_normal,83,"structured_normal,structured_incentive,random","2,3,1,2",TRUE,,
null,,html-keyboard-response,107,101454,0.0-107.0,3M1CVSFP61RV3XKS7FVQT4S4F36QAP,A1JXSNKXAXT9OU,30OITAWPBQP2Z1DQ5HPUZCTXABIH90,,"<img src=""img/set1/S1.jpg"" width=""540"" height = ""360"" style=""border:16px solid orange"">",null,,,,,,,,
null,,html-keyboard-response,108,101656,0.0-108.0,3M1CVSFP61RV3XKS7FVQT4S4F36QAP,A1JXSNKXAXT9OU,30OITAWPBQP2Z1DQ5HPUZCTXABIH90,,,null,,,,,,,,
885.800000071526,,image-keyboard-response,109,102543,0.0-109.0,3M1CVSFP61RV3XKS7FVQT4S4F36QAP,A1JXSNKXAXT9OU,30OITAWPBQP2Z1DQ5HPUZCTXABIH90,,img/set1/S2.jpg,68,2,structured_normal,68,"structured_normal,structured_incentive,random","2,3,1,2",TRUE,,
null,,html-keyboard-response,110,102900,0.0-110.0,3M1CVSFP61RV3XKS7FVQT4S4F36QAP,A1JXSNKXAXT9OU,30OITAWPBQP2Z1DQ5HPUZCTXABIH90,,"<img src=""img/set1/S2.jpg"" width=""540"" height = ""360"" style=""border:16px solid orange"">",null,,,,,,,,
null,,html-keyboard-response,111,103104,0.0-111.0,3M1CVSFP61RV3XKS7FVQT4S4F36QAP,A1JXSNKXAXT9OU,30OITAWPBQP2Z1DQ5HPUZCTXABIH90,,,null,,,,,,,,
686,,image-keyboard-response,112,103791,0.0-112.0,3M1CVSFP61RV3XKS7FVQT4S4F36QAP,A1JXSNKXAXT9OU,30OITAWPBQP2Z1DQ5HPUZCTXABIH90,,img/set1/S3.jpg,72,3,structured_normal,72,"structured_normal,structured_incentive,random","2,3,1,2",TRUE,,
null,,html-keyboard-response,113,104147,0.0-113.0,3M1CVSFP61RV3XKS7FVQT4S4F36QAP,A1JXSNKXAXT9OU,30OITAWPBQP2Z1DQ5HPUZCTXABIH90,,"<img src=""img/set1/S3.jpg"" width=""540"" height = ""360"" style=""border:16px solid orange"">",null,,,,,,,,
null,,html-keyboard-response,114,104363,0.0-114.0,3M1CVSFP61RV3XKS7FVQT4S4F36QAP,A1JXSNKXAXT9OU,30OITAWPBQP2Z1DQ5HPUZCTXABIH90,,,null,,,,,,,,
746.600000023842,,image-keyboard-response,115,105110,0.0-115.0,3M1CVSFP61RV3XKS7FVQT4S4F36QAP,A1JXSNKXAXT9OU,30OITAWPBQP2Z1DQ5HPUZCTXABIH90,,img/set1/S1.jpg,74,1,structured_normal,83,"structured_normal,structured_incentive,random","2,3,1,2",FALSE,,
null,,html-keyboard-response,116,105471,0.0-116.0,3M1CVSFP61RV3XKS7FVQT4S4F36QAP,A1JXSNKXAXT9OU,30OITAWPBQP2Z1DQ5HPUZCTXABIH90,,"<img src=""img/set1/S1.jpg"" width=""540"" height = ""360"">",null,,,,,,,,
null,,html-keyboard-response,117,105673,0.0-117.0,3M1CVSFP61RV3XKS7FVQT4S4F36QAP,A1JXSNKXAXT9OU,30OITAWPBQP2Z1DQ5HPUZCTXABIH90,,,null,,,,,,,,
924.700000047684,,image-keyboard-response,118,106599,0.0-118.0,3M1CVSFP61RV3XKS7FVQT4S4F36QAP,A1JXSNKXAXT9OU,30OITAWPBQP2Z1DQ5HPUZCTXABIH90,,img/set1/S2.jpg,83,2,structured_normal,68,"structured_normal,structured_incentive,random","2,3,1,2",FALSE,,
null,,html-keyboard-response,119,106954,0.0-119.0,3M1CVSFP61RV3XKS7FVQT4S4F36QAP,A1JXSNKXAXT9OU,30OITAWPBQP2Z1DQ5HPUZCTXABIH90,,"<img src=""img/set1/S2.jpg"" width=""540"" height = ""360"">",null,,,,,,,,
null,,html-keyboard-response,120,107158,0.0-120.0,3M1CVSFP61RV3XKS7FVQT4S4F36QAP,A1JXSNKXAXT9OU,30OITAWPBQP2Z1DQ5HPUZCTXABIH90,,,null,,,,,,,,
527.700000047684,,image-keyboard-response,121,107686,0.0-121.0,3M1CVSFP61RV3XKS7FVQT4S4F36QAP,A1JXSNKXAXT9OU,30OITAWPBQP2Z1DQ5HPUZCTXABIH90,,img/set1/S3.jpg,72,3,structured_normal,72,"structured_normal,structured_incentive,random","2,3,1,2",TRUE,,
null,,html-keyboard-response,122,108045,0.0-122.0,3M1CVSFP61RV3XKS7FVQT4S4F36QAP,A1JXSNKXAXT9OU,30OITAWPBQP2Z1DQ5HPUZCTXABIH90,,"<img src=""img/set1/S3.jpg"" width=""540"" height = ""360"" style=""border:16px solid orange"">",null,,,,,,,,
null,,html-keyboard-response,123,108249,0.0-123.0,3M1CVSFP61RV3XKS7FVQT4S4F36QAP,A1JXSNKXAXT9OU,30OITAWPBQP2Z1DQ5HPUZCTXABIH90,,,null,,,,,,,,
741.100000023842,,image-keyboard-response,124,108991,0.0-124.0,3M1CVSFP61RV3XKS7FVQT4S4F36QAP,A1JXSNKXAXT9OU,30OITAWPBQP2Z1DQ5HPUZCTXABIH90,,img/set1/S1.jpg,68,1,structured_normal,83,"structured_normal,structured_incentive,random","2,3,1,2",FALSE,,
null,,html-keyboard-response,125,109354,0.0-125.0,3M1CVSFP61RV3XKS7FVQT4S4F36QAP,A1JXSNKXAXT9OU,30OITAWPBQP2Z1DQ5HPUZCTXABIH90,,"<img src=""img/set1/S1.jpg"" width=""540"" height = ""360"">",null,,,,,,,,
null,,html-keyboard-response,126,109556,0.0-126.0,3M1CVSFP61RV3XKS7FVQT4S4F36QAP,A1JXSNKXAXT9OU,30OITAWPBQP2Z1DQ5HPUZCTXABIH90,,,null,,,,,,,,
697.899999976158,,image-keyboard-response,127,110255,0.0-127.0,3M1CVSFP61RV3XKS7FVQT4S4F36QAP,A1JXSNKXAXT9OU,30OITAWPBQP2Z1DQ5HPUZCTXABIH90,,img/set1/S1.jpg,83,1,structured_normal,83,"structured_normal,structured_incentive,random","2,3,1,2",TRUE,,
null,,html-keyboard-response,128,110618,0.0-128.0,3M1CVSFP61RV3XKS7FVQT4S4F36QAP,A1JXSNKXAXT9OU,30OITAWPBQP2Z1DQ5HPUZCTXABIH90,,"<img src=""img/set1/S1.jpg"" width=""540"" height = ""360"" style=""border:16px solid orange"">",null,,,,,,,,
null,,html-keyboard-response,129,110819,0.0-129.0,3M1CVSFP61RV3XKS7FVQT4S4F36QAP,A1JXSNKXAXT9OU,30OITAWPBQP2Z1DQ5HPUZCTXABIH90,,,null,,,,,,,,
963,,image-keyboard-response,130,111783,0.0-130.0,3M1CVSFP61RV3XKS7FVQT4S4F36QAP,A1JXSNKXAXT9OU,30OITAWPBQP2Z1DQ5HPUZCTXABIH90,,img/set1/S4.jpg,83,4,structured_normal,74,"structured_normal,structured_incentive,random","2,3,1,2",FALSE,,
null,,html-keyboard-response,131,112145,0.0-131.0,3M1CVSFP61RV3XKS7FVQT4S4F36QAP,A1JXSNKXAXT9OU,30OITAWPBQP2Z1DQ5HPUZCTXABIH90,,"<img src=""img/set1/S4.jpg"" width=""540"" height = ""360"">",null,,,,,,,,
null,,html-keyboard-response,132,112347,0.0-132.0,3M1CVSFP61RV3XKS7FVQT4S4F36QAP,A1JXSNKXAXT9OU,30OITAWPBQP2Z1DQ5HPUZCTXABIH90,,,null,,,,,,,,
707.200000047684,,image-keyboard-response,133,113055,0.0-133.0,3M1CVSFP61RV3XKS7FVQT4S4F36QAP,A1JXSNKXAXT9OU,30OITAWPBQP2Z1DQ5HPUZCTXABIH90,,img/set1/S2.jpg,74,2,structured_normal,68,"structured_normal,structured_incentive,random","2,3,1,2",FALSE,,
null,,html-keyboard-response,134,113408,0.0-134.0,3M1CVSFP61RV3XKS7FVQT4S4F36QAP,A1JXSNKXAXT9OU,30OITAWPBQP2Z1DQ5HPUZCTXABIH90,,"<img src=""img/set1/S2.jpg"" width=""540"" height = ""360"">",null,,,,,,,,
null,,html-keyboard-response,135,113609,0.0-135.0,3M1CVSFP61RV3XKS7FVQT4S4F36QAP,A1JXSNKXAXT9OU,30OITAWPBQP2Z1DQ5HPUZCTXABIH90,,,null,,,,,,,,
477.100000023842,,image-keyboard-response,136,114087,0.0-136.0,3M1CVSFP61RV3XKS7FVQT4S4F36QAP,A1JXSNKXAXT9OU,30OITAWPBQP2Z1DQ5HPUZCTXABIH90,,img/set1/S3.jpg,72,3,structured_normal,72,"structured_normal,structured_incentive,random","2,3,1,2",TRUE,,
null,,html-keyboard-response,137,114450,0.0-137.0,3M1CVSFP61RV3XKS7FVQT4S4F36QAP,A1JXSNKXAXT9OU,30OITAWPBQP2Z1DQ5HPUZCTXABIH90,,"<img src=""img/set1/S3.jpg"" width=""540"" height = ""360"" style=""border:16px solid orange"">",null,,,,,,,,
null,,html-keyboard-response,138,114654,0.0-138.0,3M1CVSFP61RV3XKS7FVQT4S4F36QAP,A1JXSNKXAXT9OU,30OITAWPBQP2Z1DQ5HPUZCTXABIH90,,,null,,,,,,,,
776.300000071526,,image-keyboard-response,139,115431,0.0-139.0,3M1CVSFP61RV3XKS7FVQT4S4F36QAP,A1JXSNKXAXT9OU,30OITAWPBQP2Z1DQ5HPUZCTXABIH90,,img/set1/S2.jpg,68,2,structured_normal,68,"structured_normal,structured_incentive,random","2,3,1,2",TRUE,,
null,,html-keyboard-response,140,115790,0.0-140.0,3M1CVSFP61RV3XKS7FVQT4S4F36QAP,A1JXSNKXAXT9OU,30OITAWPBQP2Z1DQ5HPUZCTXABIH90,,"<img src=""img/set1/S2.jpg"" width=""540"" height = ""360"" style=""border:16px solid orange"">",null,,,,,,,,
null,,html-keyboard-response,141,115993,0.0-141.0,3M1CVSFP61RV3XKS7FVQT4S4F36QAP,A1JXSNKXAXT9OU,30OITAWPBQP2Z1DQ5HPUZCTXABIH90,,,null,,,,,,,,
700.899999976158,,image-keyboard-response,142,116695,0.0-142.0,3M1CVSFP61RV3XKS7FVQT4S4F36QAP,A1JXSNKXAXT9OU,30OITAWPBQP2Z1DQ5HPUZCTXABIH90,,img/set1/S3.jpg,72,3,structured_normal,72,"structured_normal,structured_incentive,random","2,3,1,2",TRUE,,
null,,html-keyboard-response,143,117051,0.0-143.0,3M1CVSFP61RV3XKS7FVQT4S4F36QAP,A1JXSNKXAXT9OU,30OITAWPBQP2Z1DQ5HPUZCTXABIH90,,"<img src=""img/set1/S3.jpg"" width=""540"" height = ""360"" style=""border:16px solid orange"">",null,,,,,,,,
null,,html-keyboard-response,144,117253,0.0-144.0,3M1CVSFP61RV3XKS7FVQT4S4F36QAP,A1JXSNKXAXT9OU,30OITAWPBQP2Z1DQ5HPUZCTXABIH90,,,null,,,,,,,,
688.800000071526,,image-keyboard-response,145,117943,0.0-145.0,3M1CVSFP61RV3XKS7FVQT4S4F36QAP,A1JXSNKXAXT9OU,30OITAWPBQP2Z1DQ5HPUZCTXABIH90,,img/set1/S4.jpg,83,4,structured_normal,74,"structured_normal,structured_incentive,random","2,3,1,2",FALSE,,
null,,html-keyboard-response,146,118296,0.0-146.0,3M1CVSFP61RV3XKS7FVQT4S4F36QAP,A1JXSNKXAXT9OU,30OITAWPBQP2Z1DQ5HPUZCTXABIH90,,"<img src=""img/set1/S4.jpg"" width=""540"" height = ""360"">",null,,,,,,,,
null,,html-keyboard-response,147,118500,0.0-147.0,3M1CVSFP61RV3XKS7FVQT4S4F36QAP,A1JXSNKXAXT9OU,30OITAWPBQP2Z1DQ5HPUZCTXABIH90,,,null,,,,,,,,
905.899999976158,,image-keyboard-response,148,119407,0.0-148.0,3M1CVSFP61RV3XKS7FVQT4S4F36QAP,A1JXSNKXAXT9OU,30OITAWPBQP2Z1DQ5HPUZCTXABIH90,,img/set1/S1.jpg,74,1,structured_normal,83,"structured_normal,structured_incentive,random","2,3,1,2",FALSE,,
null,,html-keyboard-response,149,119760,0.0-149.0,3M1CVSFP61RV3XKS7FVQT4S4F36QAP,A1JXSNKXAXT9OU,30OITAWPBQP2Z1DQ5HPUZCTXABIH90,,"<img src=""img/set1/S1.jpg"" width=""540"" height = ""360"">",null,,,,,,,,
null,,html-keyboard-response,150,119962,0.0-150.0,3M1CVSFP61RV3XKS7FVQT4S4F36QAP,A1JXSNKXAXT9OU,30OITAWPBQP2Z1DQ5HPUZCTXABIH90,,,null,,,,,,,,
747.900000095367,,image-keyboard-response,151,120711,0.0-151.0,3M1CVSFP61RV3XKS7FVQT4S4F36QAP,A1JXSNKXAXT9OU,30OITAWPBQP2Z1DQ5HPUZCTXABIH90,,img/set1/S1.jpg,83,1,structured_normal,83,"structured_normal,structured_incentive,random","2,3,1,2",TRUE,,
null,,html-keyboard-response,152,121065,0.0-152.0,3M1CVSFP61RV3XKS7FVQT4S4F36QAP,A1JXSNKXAXT9OU,30OITAWPBQP2Z1DQ5HPUZCTXABIH90,,"<img src=""img/set1/S1.jpg"" width=""540"" height = ""360"" style=""border:16px solid orange"">",null,,,,,,,,
null,,html-keyboard-response,153,121267,0.0-153.0,3M1CVSFP61RV3XKS7FVQT4S4F36QAP,A1JXSNKXAXT9OU,30OITAWPBQP2Z1DQ5HPUZCTXABIH90,,,null,,,,,,,,
675.200000047684,,image-keyboard-response,154,121943,0.0-154.0,3M1CVSFP61RV3XKS7FVQT4S4F36QAP,A1JXSNKXAXT9OU,30OITAWPBQP2Z1DQ5HPUZCTXABIH90,,img/set1/S3.jpg,72,3,structured_normal,72,"structured_normal,structured_incentive,random","2,3,1,2",TRUE,,
null,,html-keyboard-response,155,122297,0.0-155.0,3M1CVSFP61RV3XKS7FVQT4S4F36QAP,A1JXSNKXAXT9OU,30OITAWPBQP2Z1DQ5HPUZCTXABIH90,,"<img src=""img/set1/S3.jpg"" width=""540"" height = ""360"" style=""border:16px solid orange"">",null,,,,,,,,
null,,html-keyboard-response,156,122498,0.0-156.0,3M1CVSFP61RV3XKS7FVQT4S4F36QAP,A1JXSNKXAXT9OU,30OITAWPBQP2Z1DQ5HPUZCTXABIH90,,,null,,,,,,,,
764.300000071526,,image-keyboard-response,157,123263,0.0-157.0,3M1CVSFP61RV3XKS7FVQT4S4F36QAP,A1JXSNKXAXT9OU,30OITAWPBQP2Z1DQ5HPUZCTXABIH90,,img/set1/S4.jpg,83,4,structured_normal,74,"structured_normal,structured_incentive,random","2,3,1,2",FALSE,,
null,,html-keyboard-response,158,123619,0.0-158.0,3M1CVSFP61RV3XKS7FVQT4S4F36QAP,A1JXSNKXAXT9OU,30OITAWPBQP2Z1DQ5HPUZCTXABIH90,,"<img src=""img/set1/S4.jpg"" width=""540"" height = ""360"">",null,,,,,,,,
null,,html-keyboard-response,159,123822,0.0-159.0,3M1CVSFP61RV3XKS7FVQT4S4F36QAP,A1JXSNKXAXT9OU,30OITAWPBQP2Z1DQ5HPUZCTXABIH90,,,null,,,,,,,,
1511.80000007153,,image-keyboard-response,160,125335,0.0-160.0,3M1CVSFP61RV3XKS7FVQT4S4F36QAP,A1JXSNKXAXT9OU,30OITAWPBQP2Z1DQ5HPUZCTXABIH90,,img/set1/S2.jpg,68,2,structured_normal,68,"structured_normal,structured_incentive,random","2,3,1,2",TRUE,,
null,,html-keyboard-response,161,125689,0.0-161.0,3M1CVSFP61RV3XKS7FVQT4S4F36QAP,A1JXSNKXAXT9OU,30OITAWPBQP2Z1DQ5HPUZCTXABIH90,,"<img src=""img/set1/S2.jpg"" width=""540"" height = ""360"" style=""border:16px solid orange"">",null,,,,,,,,
null,,html-keyboard-response,162,125891,0.0-162.0,3M1CVSFP61RV3XKS7FVQT4S4F36QAP,A1JXSNKXAXT9OU,30OITAWPBQP2Z1DQ5HPUZCTXABIH90,,,null,,,,,,,,
499.300000071526,,image-keyboard-response,163,126391,0.0-163.0,3M1CVSFP61RV3XKS7FVQT4S4F36QAP,A1JXSNKXAXT9OU,30OITAWPBQP2Z1DQ5HPUZCTXABIH90,,img/set1/S3.jpg,72,3,structured_normal,72,"structured_normal,structured_incentive,random","2,3,1,2",TRUE,,
null,,html-keyboard-response,164,126746,0.0-164.0,3M1CVSFP61RV3XKS7FVQT4S4F36QAP,A1JXSNKXAXT9OU,30OITAWPBQP2Z1DQ5HPUZCTXABIH90,,"<img src=""img/set1/S3.jpg"" width=""540"" height = ""360"" style=""border:16px solid orange"">",null,,,,,,,,
null,,html-keyboard-response,165,126948,0.0-165.0,3M1CVSFP61RV3XKS7FVQT4S4F36QAP,A1JXSNKXAXT9OU,30OITAWPBQP2Z1DQ5HPUZCTXABIH90,,,null,,,,,,,,
522.099999904633,,image-keyboard-response,166,127471,0.0-166.0,3M1CVSFP61RV3XKS7FVQT4S4F36QAP,A1JXSNKXAXT9OU,30OITAWPBQP2Z1DQ5HPUZCTXABIH90,,img/set1/S4.jpg,74,4,structured_normal,74,"structured_normal,structured_incentive,random","2,3,1,2",TRUE,,
null,,html-keyboard-response,167,127835,0.0-167.0,3M1CVSFP61RV3XKS7FVQT4S4F36QAP,A1JXSNKXAXT9OU,30OITAWPBQP2Z1DQ5HPUZCTXABIH90,,"<img src=""img/set1/S4.jpg"" width=""540"" height = ""360"" style=""border:16px solid orange"">",null,,,,,,,,
null,,html-keyboard-response,168,128038,0.0-168.0,3M1CVSFP61RV3XKS7FVQT4S4F36QAP,A1JXSNKXAXT9OU,30OITAWPBQP2Z1DQ5HPUZCTXABIH90,,,null,,,,,,,,
1328,,image-keyboard-response,169,129367,0.0-169.0,3M1CVSFP61RV3XKS7FVQT4S4F36QAP,A1JXSNKXAXT9OU,30OITAWPBQP2Z1DQ5HPUZCTXABIH90,,img/set1/S1.jpg,83,1,structured_normal,83,"structured_normal,structured_incentive,random","2,3,1,2",TRUE,,
null,,html-keyboard-response,170,129720,0.0-170.0,3M1CVSFP61RV3XKS7FVQT4S4F36QAP,A1JXSNKXAXT9OU,30OITAWPBQP2Z1DQ5HPUZCTXABIH90,,"<img src=""img/set1/S1.jpg"" width=""540"" height = ""360"" style=""border:16px solid orange"">",null,,,,,,,,
null,,html-keyboard-response,171,129923,0.0-171.0,3M1CVSFP61RV3XKS7FVQT4S4F36QAP,A1JXSNKXAXT9OU,30OITAWPBQP2Z1DQ5HPUZCTXABIH90,,,null,,,,,,,,
546.900000095367,,image-keyboard-response,172,130471,0.0-172.0,3M1CVSFP61RV3XKS7FVQT4S4F36QAP,A1JXSNKXAXT9OU,30OITAWPBQP2Z1DQ5HPUZCTXABIH90,,img/set1/S1.jpg,83,1,structured_normal,83,"structured_normal,structured_incentive,random","2,3,1,2",TRUE,,
null,,html-keyboard-response,173,130824,0.0-173.0,3M1CVSFP61RV3XKS7FVQT4S4F36QAP,A1JXSNKXAXT9OU,30OITAWPBQP2Z1DQ5HPUZCTXABIH90,,"<img src=""img/set1/S1.jpg"" width=""540"" height = ""360"" style=""border:16px solid orange"">",null,,,,,,,,
null,,html-keyboard-response,174,131027,0.0-174.0,3M1CVSFP61RV3XKS7FVQT4S4F36QAP,A1JXSNKXAXT9OU,30OITAWPBQP2Z1DQ5HPUZCTXABIH90,,,null,,,,,,,,
507,,image-keyboard-response,175,131535,0.0-175.0,3M1CVSFP61RV3XKS7FVQT4S4F36QAP,A1JXSNKXAXT9OU,30OITAWPBQP2Z1DQ5HPUZCTXABIH90,,img/set1/S2.jpg,68,2,structured_normal,68,"structured_normal,structured_incentive,random","2,3,1,2",TRUE,,
null,,html-keyboard-response,176,131897,0.0-176.0,3M1CVSFP61RV3XKS7FVQT4S4F36QAP,A1JXSNKXAXT9OU,30OITAWPBQP2Z1DQ5HPUZCTXABIH90,,"<img src=""img/set1/S2.jpg"" width=""540"" height = ""360"" style=""border:16px solid orange"">",null,,,,,,,,
null,,html-keyboard-response,177,132100,0.0-177.0,3M1CVSFP61RV3XKS7FVQT4S4F36QAP,A1JXSNKXAXT9OU,30OITAWPBQP2Z1DQ5HPUZCTXABIH90,,,null,,,,,,,,
585.899999976158,,image-keyboard-response,178,132687,0.0-178.0,3M1CVSFP61RV3XKS7FVQT4S4F36QAP,A1JXSNKXAXT9OU,30OITAWPBQP2Z1DQ5HPUZCTXABIH90,,img/set1/S3.jpg,72,3,structured_normal,72,"structured_normal,structured_incentive,random","2,3,1,2",TRUE,,
null,,html-keyboard-response,179,133051,0.0-179.0,3M1CVSFP61RV3XKS7FVQT4S4F36QAP,A1JXSNKXAXT9OU,30OITAWPBQP2Z1DQ5HPUZCTXABIH90,,"<img src=""img/set1/S3.jpg"" width=""540"" height = ""360"" style=""border:16px solid orange"">",null,,,,,,,,
null,,html-keyboard-response,180,133256,0.0-180.0,3M1CVSFP61RV3XKS7FVQT4S4F36QAP,A1JXSNKXAXT9OU,30OITAWPBQP2Z1DQ5HPUZCTXABIH90,,,null,,,,,,,,
1174.40000009537,,image-keyboard-response,181,134431,0.0-181.0,3M1CVSFP61RV3XKS7FVQT4S4F36QAP,A1JXSNKXAXT9OU,30OITAWPBQP2Z1DQ5HPUZCTXABIH90,,img/set1/S1.jpg,83,1,structured_normal,83,"structured_normal,structured_incentive,random","2,3,1,2",TRUE,,
null,,html-keyboard-response,182,134783,0.0-182.0,3M1CVSFP61RV3XKS7FVQT4S4F36QAP,A1JXSNKXAXT9OU,30OITAWPBQP2Z1DQ5HPUZCTXABIH90,,"<img src=""img/set1/S1.jpg"" width=""540"" height = ""360"" style=""border:16px solid orange"">",null,,,,,,,,
null,,html-keyboard-response,183,134985,0.0-183.0,3M1CVSFP61RV3XKS7FVQT4S4F36QAP,A1JXSNKXAXT9OU,30OITAWPBQP2Z1DQ5HPUZCTXABIH90,,,null,,,,,,,,
828.899999976158,,image-keyboard-response,184,135815,0.0-184.0,3M1CVSFP61RV3XKS7FVQT4S4F36QAP,A1JXSNKXAXT9OU,30OITAWPBQP2Z1DQ5HPUZCTXABIH90,,img/set1/S3.jpg,72,3,structured_normal,72,"structured_normal,structured_incentive,random","2,3,1,2",TRUE,,
null,,html-keyboard-response,185,136172,0.0-185.0,3M1CVSFP61RV3XKS7FVQT4S4F36QAP,A1JXSNKXAXT9OU,30OITAWPBQP2Z1DQ5HPUZCTXABIH90,,"<img src=""img/set1/S3.jpg"" width=""540"" height = ""360"" style=""border:16px solid orange"">",null,,,,,,,,
null,,html-keyboard-response,186,136374,0.0-186.0,3M1CVSFP61RV3XKS7FVQT4S4F36QAP,A1JXSNKXAXT9OU,30OITAWPBQP2Z1DQ5HPUZCTXABIH90,,,null,,,,,,,,
663.800000071526,,image-keyboard-response,187,137039,0.0-187.0,3M1CVSFP61RV3XKS7FVQT4S4F36QAP,A1JXSNKXAXT9OU,30OITAWPBQP2Z1DQ5HPUZCTXABIH90,,img/set1/S1.jpg,83,1,structured_normal,83,"structured_normal,structured_incentive,random","2,3,1,2",TRUE,,
null,,html-keyboard-response,188,137401,0.0-188.0,3M1CVSFP61RV3XKS7FVQT4S4F36QAP,A1JXSNKXAXT9OU,30OITAWPBQP2Z1DQ5HPUZCTXABIH90,,"<img src=""img/set1/S1.jpg"" width=""540"" height = ""360"" style=""border:16px solid orange"">",null,,,,,,,,
null,,html-keyboard-response,189,137603,0.0-189.0,3M1CVSFP61RV3XKS7FVQT4S4F36QAP,A1JXSNKXAXT9OU,30OITAWPBQP2Z1DQ5HPUZCTXABIH90,,,null,,,,,,,,
627.299999952316,,image-keyboard-response,190,138231,0.0-190.0,3M1CVSFP61RV3XKS7FVQT4S4F36QAP,A1JXSNKXAXT9OU,30OITAWPBQP2Z1DQ5HPUZCTXABIH90,,img/set1/S2.jpg,68,2,structured_normal,68,"structured_normal,structured_incentive,random","2,3,1,2",TRUE,,
null,,html-keyboard-response,191,138584,0.0-191.0,3M1CVSFP61RV3XKS7FVQT4S4F36QAP,A1JXSNKXAXT9OU,30OITAWPBQP2Z1DQ5HPUZCTXABIH90,,"<img src=""img/set1/S2.jpg"" width=""540"" height = ""360"" style=""border:16px solid orange"">",null,,,,,,,,
null,,html-keyboard-response,192,138786,0.0-192.0,3M1CVSFP61RV3XKS7FVQT4S4F36QAP,A1JXSNKXAXT9OU,30OITAWPBQP2Z1DQ5HPUZCTXABIH90,,,null,,,,,,,,
660,,image-keyboard-response,193,139447,0.0-193.0,3M1CVSFP61RV3XKS7FVQT4S4F36QAP,A1JXSNKXAXT9OU,30OITAWPBQP2Z1DQ5HPUZCTXABIH90,,img/set1/S3.jpg,72,3,structured_normal,72,"structured_normal,structured_incentive,random","2,3,1,2",TRUE,,
null,,html-keyboard-response,194,139815,0.0-194.0,3M1CVSFP61RV3XKS7FVQT4S4F36QAP,A1JXSNKXAXT9OU,30OITAWPBQP2Z1DQ5HPUZCTXABIH90,,"<img src=""img/set1/S3.jpg"" width=""540"" height = ""360"" style=""border:16px solid orange"">",null,,,,,,,,
null,,html-keyboard-response,195,140016,0.0-195.0,3M1CVSFP61RV3XKS7FVQT4S4F36QAP,A1JXSNKXAXT9OU,30OITAWPBQP2Z1DQ5HPUZCTXABIH90,,,null,,,,,,,,
813.899999976158,,image-keyboard-response,196,140831,0.0-196.0,3M1CVSFP61RV3XKS7FVQT4S4F36QAP,A1JXSNKXAXT9OU,30OITAWPBQP2Z1DQ5HPUZCTXABIH90,,img/set1/S4.jpg,74,4,structured_normal,74,"structured_normal,structured_incentive,random","2,3,1,2",TRUE,,
null,,html-keyboard-response,197,141197,0.0-197.0,3M1CVSFP61RV3XKS7FVQT4S4F36QAP,A1JXSNKXAXT9OU,30OITAWPBQP2Z1DQ5HPUZCTXABIH90,,"<img src=""img/set1/S4.jpg"" width=""540"" height = ""360"" style=""border:16px solid orange"">",null,,,,,,,,
null,,html-keyboard-response,198,141400,0.0-198.0,3M1CVSFP61RV3XKS7FVQT4S4F36QAP,A1JXSNKXAXT9OU,30OITAWPBQP2Z1DQ5HPUZCTXABIH90,,,null,,,,,,,,
398.100000023842,,image-keyboard-response,199,141799,0.0-199.0,3M1CVSFP61RV3XKS7FVQT4S4F36QAP,A1JXSNKXAXT9OU,30OITAWPBQP2Z1DQ5HPUZCTXABIH90,,img/set1/S3.jpg,72,3,structured_normal,72,"structured_normal,structured_incentive,random","2,3,1,2",TRUE,,
null,,html-keyboard-response,200,142163,0.0-200.0,3M1CVSFP61RV3XKS7FVQT4S4F36QAP,A1JXSNKXAXT9OU,30OITAWPBQP2Z1DQ5HPUZCTXABIH90,,"<img src=""img/set1/S3.jpg"" width=""540"" height = ""360"" style=""border:16px solid orange"">",null,,,,,,,,
null,,html-keyboard-response,201,142366,0.0-201.0,3M1CVSFP61RV3XKS7FVQT4S4F36QAP,A1JXSNKXAXT9OU,30OITAWPBQP2Z1DQ5HPUZCTXABIH90,,,null,,,,,,,,
631.899999976158,,image-keyboard-response,202,142999,0.0-202.0,3M1CVSFP61RV3XKS7FVQT4S4F36QAP,A1JXSNKXAXT9OU,30OITAWPBQP2Z1DQ5HPUZCTXABIH90,,img/set1/S2.jpg,68,2,structured_normal,68,"structured_normal,structured_incentive,random","2,3,1,2",TRUE,,
null,,html-keyboard-response,203,143363,0.0-203.0,3M1CVSFP61RV3XKS7FVQT4S4F36QAP,A1JXSNKXAXT9OU,30OITAWPBQP2Z1DQ5HPUZCTXABIH90,,"<img src=""img/set1/S2.jpg"" width=""540"" height = ""360"" style=""border:16px solid orange"">",null,,,,,,,,
null,,html-keyboard-response,204,143579,0.0-204.0,3M1CVSFP61RV3XKS7FVQT4S4F36QAP,A1JXSNKXAXT9OU,30OITAWPBQP2Z1DQ5HPUZCTXABIH90,,,null,,,,,,,,
611.399999976158,,image-keyboard-response,205,144191,0.0-205.0,3M1CVSFP61RV3XKS7FVQT4S4F36QAP,A1JXSNKXAXT9OU,30OITAWPBQP2Z1DQ5HPUZCTXABIH90,,img/set1/S3.jpg,72,3,structured_normal,72,"structured_normal,structured_incentive,random","2,3,1,2",TRUE,,
null,,html-keyboard-response,206,144544,0.0-206.0,3M1CVSFP61RV3XKS7FVQT4S4F36QAP,A1JXSNKXAXT9OU,30OITAWPBQP2Z1DQ5HPUZCTXABIH90,,"<img src=""img/set1/S3.jpg"" width=""540"" height = ""360"" style=""border:16px solid orange"">",null,,,,,,,,
null,,html-keyboard-response,207,144747,0.0-207.0,3M1CVSFP61RV3XKS7FVQT4S4F36QAP,A1JXSNKXAXT9OU,30OITAWPBQP2Z1DQ5HPUZCTXABIH90,,,null,,,,,,,,
1107.40000009537,,image-keyboard-response,208,145855,0.0-208.0,3M1CVSFP61RV3XKS7FVQT4S4F36QAP,A1JXSNKXAXT9OU,30OITAWPBQP2Z1DQ5HPUZCTXABIH90,,img/set1/S2.jpg,68,2,structured_normal,68,"structured_normal,structured_incentive,random","2,3,1,2",TRUE,,
null,,html-keyboard-response,209,146220,0.0-209.0,3M1CVSFP61RV3XKS7FVQT4S4F36QAP,A1JXSNKXAXT9OU,30OITAWPBQP2Z1DQ5HPUZCTXABIH90,,"<img src=""img/set1/S2.jpg"" width=""540"" height = ""360"" style=""border:16px solid orange"">",null,,,,,,,,
null,,html-keyboard-response,210,146436,0.0-210.0,3M1CVSFP61RV3XKS7FVQT4S4F36QAP,A1JXSNKXAXT9OU,30OITAWPBQP2Z1DQ5HPUZCTXABIH90,,,null,,,,,,,,
642.200000047684,,image-keyboard-response,211,147079,0.0-211.0,3M1CVSFP61RV3XKS7FVQT4S4F36QAP,A1JXSNKXAXT9OU,30OITAWPBQP2Z1DQ5HPUZCTXABIH90,,img/set1/S4.jpg,74,4,structured_normal,74,"structured_normal,structured_incentive,random","2,3,1,2",TRUE,,
null,,html-keyboard-response,212,147432,0.0-212.0,3M1CVSFP61RV3XKS7FVQT4S4F36QAP,A1JXSNKXAXT9OU,30OITAWPBQP2Z1DQ5HPUZCTXABIH90,,"<img src=""img/set1/S4.jpg"" width=""540"" height = ""360"" style=""border:16px solid orange"">",null,,,,,,,,
null,,html-keyboard-response,213,147648,0.0-213.0,3M1CVSFP61RV3XKS7FVQT4S4F36QAP,A1JXSNKXAXT9OU,30OITAWPBQP2Z1DQ5HPUZCTXABIH90,,,null,,,,,,,,
598.599999904633,,image-keyboard-response,214,148247,0.0-214.0,3M1CVSFP61RV3XKS7FVQT4S4F36QAP,A1JXSNKXAXT9OU,30OITAWPBQP2Z1DQ5HPUZCTXABIH90,,img/set1/S2.jpg,68,2,structured_normal,68,"structured_normal,structured_incentive,random","2,3,1,2",TRUE,,
null,,html-keyboard-response,215,148611,0.0-215.0,3M1CVSFP61RV3XKS7FVQT4S4F36QAP,A1JXSNKXAXT9OU,30OITAWPBQP2Z1DQ5HPUZCTXABIH90,,"<img src=""img/set1/S2.jpg"" width=""540"" height = ""360"" style=""border:16px solid orange"">",null,,,,,,,,
null,,html-keyboard-response,216,148815,0.0-216.0,3M1CVSFP61RV3XKS7FVQT4S4F36QAP,A1JXSNKXAXT9OU,30OITAWPBQP2Z1DQ5HPUZCTXABIH90,,,null,,,,,,,,
583.200000047684,,image-keyboard-response,217,149399,0.0-217.0,3M1CVSFP61RV3XKS7FVQT4S4F36QAP,A1JXSNKXAXT9OU,30OITAWPBQP2Z1DQ5HPUZCTXABIH90,,img/set1/S3.jpg,72,3,structured_normal,72,"structured_normal,structured_incentive,random","2,3,1,2",TRUE,,
null,,html-keyboard-response,218,149750,0.0-218.0,3M1CVSFP61RV3XKS7FVQT4S4F36QAP,A1JXSNKXAXT9OU,30OITAWPBQP2Z1DQ5HPUZCTXABIH90,,"<img src=""img/set1/S3.jpg"" width=""540"" height = ""360"" style=""border:16px solid orange"">",null,,,,,,,,
null,,html-keyboard-response,219,149951,0.0-219.0,3M1CVSFP61RV3XKS7FVQT4S4F36QAP,A1JXSNKXAXT9OU,30OITAWPBQP2Z1DQ5HPUZCTXABIH90,,,null,,,,,,,,
479.200000047684,,image-keyboard-response,220,150431,0.0-220.0,3M1CVSFP61RV3XKS7FVQT4S4F36QAP,A1JXSNKXAXT9OU,30OITAWPBQP2Z1DQ5HPUZCTXABIH90,,img/set1/S1.jpg,83,1,structured_normal,83,"structured_normal,structured_incentive,random","2,3,1,2",TRUE,,
null,,html-keyboard-response,221,150794,0.0-221.0,3M1CVSFP61RV3XKS7FVQT4S4F36QAP,A1JXSNKXAXT9OU,30OITAWPBQP2Z1DQ5HPUZCTXABIH90,,"<img src=""img/set1/S1.jpg"" width=""540"" height = ""360"" style=""border:16px solid orange"">",null,,,,,,,,
null,,html-keyboard-response,222,150998,0.0-222.0,3M1CVSFP61RV3XKS7FVQT4S4F36QAP,A1JXSNKXAXT9OU,30OITAWPBQP2Z1DQ5HPUZCTXABIH90,,,null,,,,,,,,
512.300000071526,,image-keyboard-response,223,151511,0.0-223.0,3M1CVSFP61RV3XKS7FVQT4S4F36QAP,A1JXSNKXAXT9OU,30OITAWPBQP2Z1DQ5HPUZCTXABIH90,,img/set1/S1.jpg,83,1,structured_normal,83,"structured_normal,structured_incentive,random","2,3,1,2",TRUE,,
null,,html-keyboard-response,224,151871,0.0-224.0,3M1CVSFP61RV3XKS7FVQT4S4F36QAP,A1JXSNKXAXT9OU,30OITAWPBQP2Z1DQ5HPUZCTXABIH90,,"<img src=""img/set1/S1.jpg"" width=""540"" height = ""360"" style=""border:16px solid orange"">",null,,,,,,,,
null,,html-keyboard-response,225,152074,0.0-225.0,3M1CVSFP61RV3XKS7FVQT4S4F36QAP,A1JXSNKXAXT9OU,30OITAWPBQP2Z1DQ5HPUZCTXABIH90,,,null,,,,,,,,
627.600000023842,,image-keyboard-response,226,152703,0.0-226.0,3M1CVSFP61RV3XKS7FVQT4S4F36QAP,A1JXSNKXAXT9OU,30OITAWPBQP2Z1DQ5HPUZCTXABIH90,,img/set1/S4.jpg,74,4,structured_normal,74,"structured_normal,structured_incentive,random","2,3,1,2",TRUE,,
null,,html-keyboard-response,227,153058,0.0-227.0,3M1CVSFP61RV3XKS7FVQT4S4F36QAP,A1JXSNKXAXT9OU,30OITAWPBQP2Z1DQ5HPUZCTXABIH90,,"<img src=""img/set1/S4.jpg"" width=""540"" height = ""360"" style=""border:16px solid orange"">",null,,,,,,,,
null,,html-keyboard-response,228,153262,0.0-228.0,3M1CVSFP61RV3XKS7FVQT4S4F36QAP,A1JXSNKXAXT9OU,30OITAWPBQP2Z1DQ5HPUZCTXABIH90,,,null,,,,,,,,
407.899999976158,,image-keyboard-response,229,153671,0.0-229.0,3M1CVSFP61RV3XKS7FVQT4S4F36QAP,A1JXSNKXAXT9OU,30OITAWPBQP2Z1DQ5HPUZCTXABIH90,,img/set1/S4.jpg,74,4,structured_normal,74,"structured_normal,structured_incentive,random","2,3,1,2",TRUE,,
null,,html-keyboard-response,230,154023,0.0-230.0,3M1CVSFP61RV3XKS7FVQT4S4F36QAP,A1JXSNKXAXT9OU,30OITAWPBQP2Z1DQ5HPUZCTXABIH90,,"<img src=""img/set1/S4.jpg"" width=""540"" height = ""360"" style=""border:16px solid orange"">",null,,,,,,,,
null,,html-keyboard-response,231,154239,0.0-231.0,3M1CVSFP61RV3XKS7FVQT4S4F36QAP,A1JXSNKXAXT9OU,30OITAWPBQP2Z1DQ5HPUZCTXABIH90,,,null,,,,,,,,
583.100000023842,,image-keyboard-response,232,154823,0.0-232.0,3M1CVSFP61RV3XKS7FVQT4S4F36QAP,A1JXSNKXAXT9OU,30OITAWPBQP2Z1DQ5HPUZCTXABIH90,,img/set1/S1.jpg,83,1,structured_normal,83,"structured_normal,structured_incentive,random","2,3,1,2",TRUE,,
null,,html-keyboard-response,233,155179,0.0-233.0,3M1CVSFP61RV3XKS7FVQT4S4F36QAP,A1JXSNKXAXT9OU,30OITAWPBQP2Z1DQ5HPUZCTXABIH90,,"<img src=""img/set1/S1.jpg"" width=""540"" height = ""360"" style=""border:16px solid orange"">",null,,,,,,,,
null,,html-keyboard-response,234,155382,0.0-234.0,3M1CVSFP61RV3XKS7FVQT4S4F36QAP,A1JXSNKXAXT9OU,30OITAWPBQP2Z1DQ5HPUZCTXABIH90,,,null,,,,,,,,
688,,image-keyboard-response,235,156071,0.0-235.0,3M1CVSFP61RV3XKS7FVQT4S4F36QAP,A1JXSNKXAXT9OU,30OITAWPBQP2Z1DQ5HPUZCTXABIH90,,img/set1/S2.jpg,68,2,structured_normal,68,"structured_normal,structured_incentive,random","2,3,1,2",TRUE,,
null,,html-keyboard-response,236,156424,0.0-236.0,3M1CVSFP61RV3XKS7FVQT4S4F36QAP,A1JXSNKXAXT9OU,30OITAWPBQP2Z1DQ5HPUZCTXABIH90,,"<img src=""img/set1/S2.jpg"" width=""540"" height = ""360"" style=""border:16px solid orange"">",null,,,,,,,,
null,,html-keyboard-response,237,156627,0.0-237.0,3M1CVSFP61RV3XKS7FVQT4S4F36QAP,A1JXSNKXAXT9OU,30OITAWPBQP2Z1DQ5HPUZCTXABIH90,,,null,,,,,,,,
378.700000047684,,image-keyboard-response,238,157007,0.0-238.0,3M1CVSFP61RV3XKS7FVQT4S4F36QAP,A1JXSNKXAXT9OU,30OITAWPBQP2Z1DQ5HPUZCTXABIH90,,img/set1/S3.jpg,72,3,structured_normal,72,"structured_normal,structured_incentive,random","2,3,1,2",TRUE,,
null,,html-keyboard-response,239,157374,0.0-239.0,3M1CVSFP61RV3XKS7FVQT4S4F36QAP,A1JXSNKXAXT9OU,30OITAWPBQP2Z1DQ5HPUZCTXABIH90,,"<img src=""img/set1/S3.jpg"" width=""540"" height = ""360"" style=""border:16px solid orange"">",null,,,,,,,,
null,,html-keyboard-response,240,157575,0.0-240.0,3M1CVSFP61RV3XKS7FVQT4S4F36QAP,A1JXSNKXAXT9OU,30OITAWPBQP2Z1DQ5HPUZCTXABIH90,,,null,,,,,,,,
638.800000071526,,image-keyboard-response,241,158215,0.0-241.0,3M1CVSFP61RV3XKS7FVQT4S4F36QAP,A1JXSNKXAXT9OU,30OITAWPBQP2Z1DQ5HPUZCTXABIH90,,img/set1/S4.jpg,74,4,structured_normal,74,"structured_normal,structured_incentive,random","2,3,1,2",TRUE,,
null,,html-keyboard-response,242,158573,0.0-242.0,3M1CVSFP61RV3XKS7FVQT4S4F36QAP,A1JXSNKXAXT9OU,30OITAWPBQP2Z1DQ5HPUZCTXABIH90,,"<img src=""img/set1/S4.jpg"" width=""540"" height = ""360"" style=""border:16px solid orange"">",null,,,,,,,,
null,,html-keyboard-response,243,158775,0.0-243.0,3M1CVSFP61RV3XKS7FVQT4S4F36QAP,A1JXSNKXAXT9OU,30OITAWPBQP2Z1DQ5HPUZCTXABIH90,,,null,,,,,,,,
583,,image-keyboard-response,244,159359,0.0-244.0,3M1CVSFP61RV3XKS7FVQT4S4F36QAP,A1JXSNKXAXT9OU,30OITAWPBQP2Z1DQ5HPUZCTXABIH90,,img/set1/S2.jpg,68,2,structured_normal,68,"structured_normal,structured_incentive,random","2,3,1,2",TRUE,,
null,,html-keyboard-response,245,159715,0.0-245.0,3M1CVSFP61RV3XKS7FVQT4S4F36QAP,A1JXSNKXAXT9OU,30OITAWPBQP2Z1DQ5HPUZCTXABIH90,,"<img src=""img/set1/S2.jpg"" width=""540"" height = ""360"" style=""border:16px solid orange"">",null,,,,,,,,
null,,html-keyboard-response,246,159917,0.0-246.0,3M1CVSFP61RV3XKS7FVQT4S4F36QAP,A1JXSNKXAXT9OU,30OITAWPBQP2Z1DQ5HPUZCTXABIH90,,,null,,,,,,,,
312.800000071526,,image-keyboard-response,247,160231,0.0-247.0,3M1CVSFP61RV3XKS7FVQT4S4F36QAP,A1JXSNKXAXT9OU,30OITAWPBQP2Z1DQ5HPUZCTXABIH90,,img/set1/S3.jpg,72,3,structured_normal,72,"structured_normal,structured_incentive,random","2,3,1,2",TRUE,,
null,,html-keyboard-response,248,160587,0.0-248.0,3M1CVSFP61RV3XKS7FVQT4S4F36QAP,A1JXSNKXAXT9OU,30OITAWPBQP2Z1DQ5HPUZCTXABIH90,,"<img src=""img/set1/S3.jpg"" width=""540"" height = ""360"" style=""border:16px solid orange"">",null,,,,,,,,
null,,html-keyboard-response,249,160790,0.0-249.0,3M1CVSFP61RV3XKS7FVQT4S4F36QAP,A1JXSNKXAXT9OU,30OITAWPBQP2Z1DQ5HPUZCTXABIH90,,,null,,,,,,,,
615.599999904633,,image-keyboard-response,250,161407,0.0-250.0,3M1CVSFP61RV3XKS7FVQT4S4F36QAP,A1JXSNKXAXT9OU,30OITAWPBQP2Z1DQ5HPUZCTXABIH90,,img/set1/S4.jpg,74,4,structured_normal,74,"structured_normal,structured_incentive,random","2,3,1,2",TRUE,,
null,,html-keyboard-response,251,161771,0.0-251.0,3M1CVSFP61RV3XKS7FVQT4S4F36QAP,A1JXSNKXAXT9OU,30OITAWPBQP2Z1DQ5HPUZCTXABIH90,,"<img src=""img/set1/S4.jpg"" width=""540"" height = ""360"" style=""border:16px solid orange"">",null,,,,,,,,
null,,html-keyboard-response,252,161972,0.0-252.0,3M1CVSFP61RV3XKS7FVQT4S4F36QAP,A1JXSNKXAXT9OU,30OITAWPBQP2Z1DQ5HPUZCTXABIH90,,,null,,,,,,,,
697.800000071526,,image-keyboard-response,253,162671,0.0-253.0,3M1CVSFP61RV3XKS7FVQT4S4F36QAP,A1JXSNKXAXT9OU,30OITAWPBQP2Z1DQ5HPUZCTXABIH90,,img/set1/S2.jpg,68,2,structured_normal,68,"structured_normal,structured_incentive,random","2,3,1,2",TRUE,,
null,,html-keyboard-response,254,163032,0.0-254.0,3M1CVSFP61RV3XKS7FVQT4S4F36QAP,A1JXSNKXAXT9OU,30OITAWPBQP2Z1DQ5HPUZCTXABIH90,,"<img src=""img/set1/S2.jpg"" width=""540"" height = ""360"" style=""border:16px solid orange"">",null,,,,,,,,
null,,html-keyboard-response,255,163233,0.0-255.0,3M1CVSFP61RV3XKS7FVQT4S4F36QAP,A1JXSNKXAXT9OU,30OITAWPBQP2Z1DQ5HPUZCTXABIH90,,,null,,,,,,,,
636.900000095367,,image-keyboard-response,256,163871,0.0-256.0,3M1CVSFP61RV3XKS7FVQT4S4F36QAP,A1JXSNKXAXT9OU,30OITAWPBQP2Z1DQ5HPUZCTXABIH90,,img/set1/S3.jpg,68,3,structured_normal,72,"structured_normal,structured_incentive,random","2,3,1,2",FALSE,,
null,,html-keyboard-response,257,164228,0.0-257.0,3M1CVSFP61RV3XKS7FVQT4S4F36QAP,A1JXSNKXAXT9OU,30OITAWPBQP2Z1DQ5HPUZCTXABIH90,,"<img src=""img/set1/S3.jpg"" width=""540"" height = ""360"">",null,,,,,,,,
null,,html-keyboard-response,258,164432,0.0-258.0,3M1CVSFP61RV3XKS7FVQT4S4F36QAP,A1JXSNKXAXT9OU,30OITAWPBQP2Z1DQ5HPUZCTXABIH90,,,null,,,,,,,,
870.100000023842,,image-keyboard-response,259,165303,0.0-259.0,3M1CVSFP61RV3XKS7FVQT4S4F36QAP,A1JXSNKXAXT9OU,30OITAWPBQP2Z1DQ5HPUZCTXABIH90,,img/set1/S2.jpg,68,2,structured_normal,68,"structured_normal,structured_incentive,random","2,3,1,2",TRUE,,
null,,html-keyboard-response,260,165660,0.0-260.0,3M1CVSFP61RV3XKS7FVQT4S4F36QAP,A1JXSNKXAXT9OU,30OITAWPBQP2Z1DQ5HPUZCTXABIH90,,"<img src=""img/set1/S2.jpg"" width=""540"" height = ""360"" style=""border:16px solid orange"">",null,,,,,,,,
null,,html-keyboard-response,261,165864,0.0-261.0,3M1CVSFP61RV3XKS7FVQT4S4F36QAP,A1JXSNKXAXT9OU,30OITAWPBQP2Z1DQ5HPUZCTXABIH90,,,null,,,,,,,,
405.900000095367,,image-keyboard-response,262,166271,0.0-262.0,3M1CVSFP61RV3XKS7FVQT4S4F36QAP,A1JXSNKXAXT9OU,30OITAWPBQP2Z1DQ5HPUZCTXABIH90,,img/set1/S3.jpg,72,3,structured_normal,72,"structured_normal,structured_incentive,random","2,3,1,2",TRUE,,
null,,html-keyboard-response,263,166628,0.0-263.0,3M1CVSFP61RV3XKS7FVQT4S4F36QAP,A1JXSNKXAXT9OU,30OITAWPBQP2Z1DQ5HPUZCTXABIH90,,"<img src=""img/set1/S3.jpg"" width=""540"" height = ""360"" style=""border:16px solid orange"">",null,,,,,,,,
null,,html-keyboard-response,264,166831,0.0-264.0,3M1CVSFP61RV3XKS7FVQT4S4F36QAP,A1JXSNKXAXT9OU,30OITAWPBQP2Z1DQ5HPUZCTXABIH90,,,null,,,,,,,,
431.399999976158,,image-keyboard-response,265,167263,0.0-265.0,3M1CVSFP61RV3XKS7FVQT4S4F36QAP,A1JXSNKXAXT9OU,30OITAWPBQP2Z1DQ5HPUZCTXABIH90,,img/set1/S3.jpg,72,3,structured_normal,72,"structured_normal,structured_incentive,random","2,3,1,2",TRUE,,
null,,html-keyboard-response,266,167624,0.0-266.0,3M1CVSFP61RV3XKS7FVQT4S4F36QAP,A1JXSNKXAXT9OU,30OITAWPBQP2Z1DQ5HPUZCTXABIH90,,"<img src=""img/set1/S3.jpg"" width=""540"" height = ""360"" style=""border:16px solid orange"">",null,,,,,,,,
null,,html-keyboard-response,267,167827,0.0-267.0,3M1CVSFP61RV3XKS7FVQT4S4F36QAP,A1JXSNKXAXT9OU,30OITAWPBQP2Z1DQ5HPUZCTXABIH90,,,null,,,,,,,,
563.600000023842,,image-keyboard-response,268,168391,0.0-268.0,3M1CVSFP61RV3XKS7FVQT4S4F36QAP,A1JXSNKXAXT9OU,30OITAWPBQP2Z1DQ5HPUZCTXABIH90,,img/set1/S4.jpg,83,4,structured_normal,74,"structured_normal,structured_incentive,random","2,3,1,2",FALSE,,
null,,html-keyboard-response,269,168751,0.0-269.0,3M1CVSFP61RV3XKS7FVQT4S4F36QAP,A1JXSNKXAXT9OU,30OITAWPBQP2Z1DQ5HPUZCTXABIH90,,"<img src=""img/set1/S4.jpg"" width=""540"" height = ""360"">",null,,,,,,,,
null,,html-keyboard-response,270,168955,0.0-270.0,3M1CVSFP61RV3XKS7FVQT4S4F36QAP,A1JXSNKXAXT9OU,30OITAWPBQP2Z1DQ5HPUZCTXABIH90,,,null,,,,,,,,
499.599999904633,,image-keyboard-response,271,169455,0.0-271.0,3M1CVSFP61RV3XKS7FVQT4S4F36QAP,A1JXSNKXAXT9OU,30OITAWPBQP2Z1DQ5HPUZCTXABIH90,,img/set1/S4.jpg,74,4,structured_normal,74,"structured_normal,structured_incentive,random","2,3,1,2",TRUE,,
null,,html-keyboard-response,272,169817,0.0-272.0,3M1CVSFP61RV3XKS7FVQT4S4F36QAP,A1JXSNKXAXT9OU,30OITAWPBQP2Z1DQ5HPUZCTXABIH90,,"<img src=""img/set1/S4.jpg"" width=""540"" height = ""360"" style=""border:16px solid orange"">",null,,,,,,,,
null,,html-keyboard-response,273,170017,0.0-273.0,3M1CVSFP61RV3XKS7FVQT4S4F36QAP,A1JXSNKXAXT9OU,30OITAWPBQP2Z1DQ5HPUZCTXABIH90,,,null,,,,,,,,
628.900000095367,,image-keyboard-response,274,170647,0.0-274.0,3M1CVSFP61RV3XKS7FVQT4S4F36QAP,A1JXSNKXAXT9OU,30OITAWPBQP2Z1DQ5HPUZCTXABIH90,,img/set1/S2.jpg,68,2,structured_normal,68,"structured_normal,structured_incentive,random","2,3,1,2",TRUE,,
null,,html-keyboard-response,275,171000,0.0-275.0,3M1CVSFP61RV3XKS7FVQT4S4F36QAP,A1JXSNKXAXT9OU,30OITAWPBQP2Z1DQ5HPUZCTXABIH90,,"<img src=""img/set1/S2.jpg"" width=""540"" height = ""360"" style=""border:16px solid orange"">",null,,,,,,,,
null,,html-keyboard-response,276,171203,0.0-276.0,3M1CVSFP61RV3XKS7FVQT4S4F36QAP,A1JXSNKXAXT9OU,30OITAWPBQP2Z1DQ5HPUZCTXABIH90,,,null,,,,,,,,
699.200000047684,,image-keyboard-response,277,171903,0.0-277.0,3M1CVSFP61RV3XKS7FVQT4S4F36QAP,A1JXSNKXAXT9OU,30OITAWPBQP2Z1DQ5HPUZCTXABIH90,,img/set1/S4.jpg,74,4,structured_normal,74,"structured_normal,structured_incentive,random","2,3,1,2",TRUE,,
null,,html-keyboard-response,278,172261,0.0-278.0,3M1CVSFP61RV3XKS7FVQT4S4F36QAP,A1JXSNKXAXT9OU,30OITAWPBQP2Z1DQ5HPUZCTXABIH90,,"<img src=""img/set1/S4.jpg"" width=""540"" height = ""360"" style=""border:16px solid orange"">",null,,,,,,,,
null,,html-keyboard-response,279,172464,0.0-279.0,3M1CVSFP61RV3XKS7FVQT4S4F36QAP,A1JXSNKXAXT9OU,30OITAWPBQP2Z1DQ5HPUZCTXABIH90,,,null,,,,,,,,
606.699999928474,,image-keyboard-response,280,173071,0.0-280.0,3M1CVSFP61RV3XKS7FVQT4S4F36QAP,A1JXSNKXAXT9OU,30OITAWPBQP2Z1DQ5HPUZCTXABIH90,,img/set1/S2.jpg,68,2,structured_normal,68,"structured_normal,structured_incentive,random","2,3,1,2",TRUE,,
null,,html-keyboard-response,281,173429,0.0-281.0,3M1CVSFP61RV3XKS7FVQT4S4F36QAP,A1JXSNKXAXT9OU,30OITAWPBQP2Z1DQ5HPUZCTXABIH90,,"<img src=""img/set1/S2.jpg"" width=""540"" height = ""360"" style=""border:16px solid orange"">",null,,,,,,,,
null,,html-keyboard-response,282,173631,0.0-282.0,3M1CVSFP61RV3XKS7FVQT4S4F36QAP,A1JXSNKXAXT9OU,30OITAWPBQP2Z1DQ5HPUZCTXABIH90,,,null,,,,,,,,
639,,image-keyboard-response,283,174271,0.0-283.0,3M1CVSFP61RV3XKS7FVQT4S4F36QAP,A1JXSNKXAXT9OU,30OITAWPBQP2Z1DQ5HPUZCTXABIH90,,img/set1/S4.jpg,74,4,structured_normal,74,"structured_normal,structured_incentive,random","2,3,1,2",TRUE,,
null,,html-keyboard-response,284,174630,0.0-284.0,3M1CVSFP61RV3XKS7FVQT4S4F36QAP,A1JXSNKXAXT9OU,30OITAWPBQP2Z1DQ5HPUZCTXABIH90,,"<img src=""img/set1/S4.jpg"" width=""540"" height = ""360"" style=""border:16px solid orange"">",null,,,,,,,,
null,,html-keyboard-response,285,174832,0.0-285.0,3M1CVSFP61RV3XKS7FVQT4S4F36QAP,A1JXSNKXAXT9OU,30OITAWPBQP2Z1DQ5HPUZCTXABIH90,,,null,,,,,,,,
614,,image-keyboard-response,286,175447,0.0-286.0,3M1CVSFP61RV3XKS7FVQT4S4F36QAP,A1JXSNKXAXT9OU,30OITAWPBQP2Z1DQ5HPUZCTXABIH90,,img/set1/S1.jpg,83,1,structured_normal,83,"structured_normal,structured_incentive,random","2,3,1,2",TRUE,,
null,,html-keyboard-response,287,175812,0.0-287.0,3M1CVSFP61RV3XKS7FVQT4S4F36QAP,A1JXSNKXAXT9OU,30OITAWPBQP2Z1DQ5HPUZCTXABIH90,,"<img src=""img/set1/S1.jpg"" width=""540"" height = ""360"" style=""border:16px solid orange"">",null,,,,,,,,
null,,html-keyboard-response,288,176016,0.0-288.0,3M1CVSFP61RV3XKS7FVQT4S4F36QAP,A1JXSNKXAXT9OU,30OITAWPBQP2Z1DQ5HPUZCTXABIH90,,,null,,,,,,,,
590.200000047684,,image-keyboard-response,289,176607,0.0-289.0,3M1CVSFP61RV3XKS7FVQT4S4F36QAP,A1JXSNKXAXT9OU,30OITAWPBQP2Z1DQ5HPUZCTXABIH90,,img/set1/S2.jpg,68,2,structured_normal,68,"structured_normal,structured_incentive,random","2,3,1,2",TRUE,,
null,,html-keyboard-response,290,176965,0.0-290.0,3M1CVSFP61RV3XKS7FVQT4S4F36QAP,A1JXSNKXAXT9OU,30OITAWPBQP2Z1DQ5HPUZCTXABIH90,,"<img src=""img/set1/S2.jpg"" width=""540"" height = ""360"" style=""border:16px solid orange"">",null,,,,,,,,
null,,html-keyboard-response,291,177168,0.0-291.0,3M1CVSFP61RV3XKS7FVQT4S4F36QAP,A1JXSNKXAXT9OU,30OITAWPBQP2Z1DQ5HPUZCTXABIH90,,,null,,,,,,,,
678,,image-keyboard-response,292,177847,0.0-292.0,3M1CVSFP61RV3XKS7FVQT4S4F36QAP,A1JXSNKXAXT9OU,30OITAWPBQP2Z1DQ5HPUZCTXABIH90,,img/set1/S3.jpg,72,3,structured_normal,72,"structured_normal,structured_incentive,random","2,3,1,2",TRUE,,
null,,html-keyboard-response,293,178201,0.0-293.0,3M1CVSFP61RV3XKS7FVQT4S4F36QAP,A1JXSNKXAXT9OU,30OITAWPBQP2Z1DQ5HPUZCTXABIH90,,"<img src=""img/set1/S3.jpg"" width=""540"" height = ""360"" style=""border:16px solid orange"">",null,,,,,,,,
null,,html-keyboard-response,294,178404,0.0-294.0,3M1CVSFP61RV3XKS7FVQT4S4F36QAP,A1JXSNKXAXT9OU,30OITAWPBQP2Z1DQ5HPUZCTXABIH90,,,null,,,,,,,,
538.400000095367,,image-keyboard-response,295,178943,0.0-295.0,3M1CVSFP61RV3XKS7FVQT4S4F36QAP,A1JXSNKXAXT9OU,30OITAWPBQP2Z1DQ5HPUZCTXABIH90,,img/set1/S2.jpg,68,2,structured_normal,68,"structured_normal,structured_incentive,random","2,3,1,2",TRUE,,
null,,html-keyboard-response,296,179308,0.0-296.0,3M1CVSFP61RV3XKS7FVQT4S4F36QAP,A1JXSNKXAXT9OU,30OITAWPBQP2Z1DQ5HPUZCTXABIH90,,"<img src=""img/set1/S2.jpg"" width=""540"" height = ""360"" style=""border:16px solid orange"">",null,,,,,,,,
null,,html-keyboard-response,297,179525,0.0-297.0,3M1CVSFP61RV3XKS7FVQT4S4F36QAP,A1JXSNKXAXT9OU,30OITAWPBQP2Z1DQ5HPUZCTXABIH90,,,null,,,,,,,,
497.699999928474,,image-keyboard-response,298,180023,0.0-298.0,3M1CVSFP61RV3XKS7FVQT4S4F36QAP,A1JXSNKXAXT9OU,30OITAWPBQP2Z1DQ5HPUZCTXABIH90,,img/set1/S3.jpg,72,3,structured_normal,72,"structured_normal,structured_incentive,random","2,3,1,2",TRUE,,
null,,html-keyboard-response,299,180380,0.0-299.0,3M1CVSFP61RV3XKS7FVQT4S4F36QAP,A1JXSNKXAXT9OU,30OITAWPBQP2Z1DQ5HPUZCTXABIH90,,"<img src=""img/set1/S3.jpg"" width=""540"" height = ""360"" style=""border:16px solid orange"">",null,,,,,,,,
null,,html-keyboard-response,300,180584,0.0-300.0,3M1CVSFP61RV3XKS7FVQT4S4F36QAP,A1JXSNKXAXT9OU,30OITAWPBQP2Z1DQ5HPUZCTXABIH90,,,null,,,,,,,,
590.100000023842,,image-keyboard-response,301,181175,0.0-301.0,3M1CVSFP61RV3XKS7FVQT4S4F36QAP,A1JXSNKXAXT9OU,30OITAWPBQP2Z1DQ5HPUZCTXABIH90,,img/set1/S1.jpg,83,1,structured_normal,83,"structured_normal,structured_incentive,random","2,3,1,2",TRUE,,
null,,html-keyboard-response,302,181532,0.0-302.0,3M1CVSFP61RV3XKS7FVQT4S4F36QAP,A1JXSNKXAXT9OU,30OITAWPBQP2Z1DQ5HPUZCTXABIH90,,"<img src=""img/set1/S1.jpg"" width=""540"" height = ""360"" style=""border:16px solid orange"">",null,,,,,,,,
null,,html-keyboard-response,303,181734,0.0-303.0,3M1CVSFP61RV3XKS7FVQT4S4F36QAP,A1JXSNKXAXT9OU,30OITAWPBQP2Z1DQ5HPUZCTXABIH90,,,null,,,,,,,,
592.100000023842,,image-keyboard-response,304,182327,0.0-304.0,3M1CVSFP61RV3XKS7FVQT4S4F36QAP,A1JXSNKXAXT9OU,30OITAWPBQP2Z1DQ5HPUZCTXABIH90,,img/set1/S1.jpg,83,1,structured_normal,83,"structured_normal,structured_incentive,random","2,3,1,2",TRUE,,
null,,html-keyboard-response,305,182683,0.0-305.0,3M1CVSFP61RV3XKS7FVQT4S4F36QAP,A1JXSNKXAXT9OU,30OITAWPBQP2Z1DQ5HPUZCTXABIH90,,"<img src=""img/set1/S1.jpg"" width=""540"" height = ""360"" style=""border:16px solid orange"">",null,,,,,,,,
null,,html-keyboard-response,306,182900,0.0-306.0,3M1CVSFP61RV3XKS7FVQT4S4F36QAP,A1JXSNKXAXT9OU,30OITAWPBQP2Z1DQ5HPUZCTXABIH90,,,null,,,,,,,,
386.600000023842,,image-keyboard-response,307,183287,0.0-307.0,3M1CVSFP61RV3XKS7FVQT4S4F36QAP,A1JXSNKXAXT9OU,30OITAWPBQP2Z1DQ5HPUZCTXABIH90,,img/set1/S1.jpg,83,1,structured_normal,83,"structured_normal,structured_incentive,random","2,3,1,2",TRUE,,
null,,html-keyboard-response,308,183647,0.0-308.0,3M1CVSFP61RV3XKS7FVQT4S4F36QAP,A1JXSNKXAXT9OU,30OITAWPBQP2Z1DQ5HPUZCTXABIH90,,"<img src=""img/set1/S1.jpg"" width=""540"" height = ""360"" style=""border:16px solid orange"">",null,,,,,,,,
null,,html-keyboard-response,309,183850,0.0-309.0,3M1CVSFP61RV3XKS7FVQT4S4F36QAP,A1JXSNKXAXT9OU,30OITAWPBQP2Z1DQ5HPUZCTXABIH90,,,null,,,,,,,,
596.100000023842,,image-keyboard-response,310,184447,0.0-310.0,3M1CVSFP61RV3XKS7FVQT4S4F36QAP,A1JXSNKXAXT9OU,30OITAWPBQP2Z1DQ5HPUZCTXABIH90,,img/set1/S2.jpg,68,2,structured_normal,68,"structured_normal,structured_incentive,random","2,3,1,2",TRUE,,
null,,html-keyboard-response,311,184812,0.0-311.0,3M1CVSFP61RV3XKS7FVQT4S4F36QAP,A1JXSNKXAXT9OU,30OITAWPBQP2Z1DQ5HPUZCTXABIH90,,"<img src=""img/set1/S2.jpg"" width=""540"" height = ""360"" style=""border:16px solid orange"">",null,,,,,,,,
null,,html-keyboard-response,312,185028,0.0-312.0,3M1CVSFP61RV3XKS7FVQT4S4F36QAP,A1JXSNKXAXT9OU,30OITAWPBQP2Z1DQ5HPUZCTXABIH90,,,null,,,,,,,,
763.100000023842,,image-keyboard-response,313,185791,0.0-313.0,3M1CVSFP61RV3XKS7FVQT4S4F36QAP,A1JXSNKXAXT9OU,30OITAWPBQP2Z1DQ5HPUZCTXABIH90,,img/set1/S4.jpg,74,4,structured_normal,74,"structured_normal,structured_incentive,random","2,3,1,2",TRUE,,
null,,html-keyboard-response,314,186150,0.0-314.0,3M1CVSFP61RV3XKS7FVQT4S4F36QAP,A1JXSNKXAXT9OU,30OITAWPBQP2Z1DQ5HPUZCTXABIH90,,"<img src=""img/set1/S4.jpg"" width=""540"" height = ""360"" style=""border:16px solid orange"">",null,,,,,,,,
null,,html-keyboard-response,315,186352,0.0-315.0,3M1CVSFP61RV3XKS7FVQT4S4F36QAP,A1JXSNKXAXT9OU,30OITAWPBQP2Z1DQ5HPUZCTXABIH90,,,null,,,,,,,,
590.200000047684,,image-keyboard-response,316,186943,0.0-316.0,3M1CVSFP61RV3XKS7FVQT4S4F36QAP,A1JXSNKXAXT9OU,30OITAWPBQP2Z1DQ5HPUZCTXABIH90,,img/set1/S1.jpg,83,1,structured_normal,83,"structured_normal,structured_incentive,random","2,3,1,2",TRUE,,
null,,html-keyboard-response,317,187305,0.0-317.0,3M1CVSFP61RV3XKS7FVQT4S4F36QAP,A1JXSNKXAXT9OU,30OITAWPBQP2Z1DQ5HPUZCTXABIH90,,"<img src=""img/set1/S1.jpg"" width=""540"" height = ""360"" style=""border:16px solid orange"">",null,,,,,,,,
null,,html-keyboard-response,318,187506,0.0-318.0,3M1CVSFP61RV3XKS7FVQT4S4F36QAP,A1JXSNKXAXT9OU,30OITAWPBQP2Z1DQ5HPUZCTXABIH90,,,null,,,,,,,,
804.200000047684,,image-keyboard-response,319,188311,0.0-319.0,3M1CVSFP61RV3XKS7FVQT4S4F36QAP,A1JXSNKXAXT9OU,30OITAWPBQP2Z1DQ5HPUZCTXABIH90,,img/set1/S4.jpg,74,4,structured_normal,74,"structured_normal,structured_incentive,random","2,3,1,2",TRUE,,
null,,html-keyboard-response,320,188669,0.0-320.0,3M1CVSFP61RV3XKS7FVQT4S4F36QAP,A1JXSNKXAXT9OU,30OITAWPBQP2Z1DQ5HPUZCTXABIH90,,"<img src=""img/set1/S4.jpg"" width=""540"" height = ""360"" style=""border:16px solid orange"">",null,,,,,,,,
null,,html-keyboard-response,321,188872,0.0-321.0,3M1CVSFP61RV3XKS7FVQT4S4F36QAP,A1JXSNKXAXT9OU,30OITAWPBQP2Z1DQ5HPUZCTXABIH90,,,null,,,,,,,,
358,,image-keyboard-response,322,189231,0.0-322.0,3M1CVSFP61RV3XKS7FVQT4S4F36QAP,A1JXSNKXAXT9OU,30OITAWPBQP2Z1DQ5HPUZCTXABIH90,,img/set1/S4.jpg,74,4,structured_normal,74,"structured_normal,structured_incentive,random","2,3,1,2",TRUE,,
null,,html-keyboard-response,323,189583,0.0-323.0,3M1CVSFP61RV3XKS7FVQT4S4F36QAP,A1JXSNKXAXT9OU,30OITAWPBQP2Z1DQ5HPUZCTXABIH90,,"<img src=""img/set1/S4.jpg"" width=""540"" height = ""360"" style=""border:16px solid orange"">",null,,,,,,,,
null,,html-keyboard-response,324,189785,0.0-324.0,3M1CVSFP61RV3XKS7FVQT4S4F36QAP,A1JXSNKXAXT9OU,30OITAWPBQP2Z1DQ5HPUZCTXABIH90,,,null,,,,,,,,
557.199999928474,,image-keyboard-response,325,190343,0.0-325.0,3M1CVSFP61RV3XKS7FVQT4S4F36QAP,A1JXSNKXAXT9OU,30OITAWPBQP2Z1DQ5HPUZCTXABIH90,,img/set1/S2.jpg,68,2,structured_normal,68,"structured_normal,structured_incentive,random","2,3,1,2",TRUE,,
null,,html-keyboard-response,326,190708,0.0-326.0,3M1CVSFP61RV3XKS7FVQT4S4F36QAP,A1JXSNKXAXT9OU,30OITAWPBQP2Z1DQ5HPUZCTXABIH90,,"<img src=""img/set1/S2.jpg"" width=""540"" height = ""360"" style=""border:16px solid orange"">",null,,,,,,,,
null,,html-keyboard-response,327,190911,0.0-327.0,3M1CVSFP61RV3XKS7FVQT4S4F36QAP,A1JXSNKXAXT9OU,30OITAWPBQP2Z1DQ5HPUZCTXABIH90,,,null,,,,,,,,
431.800000071526,,image-keyboard-response,328,191343,0.0-328.0,3M1CVSFP61RV3XKS7FVQT4S4F36QAP,A1JXSNKXAXT9OU,30OITAWPBQP2Z1DQ5HPUZCTXABIH90,,img/set1/S3.jpg,72,3,structured_normal,72,"structured_normal,structured_incentive,random","2,3,1,2",TRUE,,
null,,html-keyboard-response,329,191706,0.0-329.0,3M1CVSFP61RV3XKS7FVQT4S4F36QAP,A1JXSNKXAXT9OU,30OITAWPBQP2Z1DQ5HPUZCTXABIH90,,"<img src=""img/set1/S3.jpg"" width=""540"" height = ""360"" style=""border:16px solid orange"">",null,,,,,,,,
null,,html-keyboard-response,330,191911,0.0-330.0,3M1CVSFP61RV3XKS7FVQT4S4F36QAP,A1JXSNKXAXT9OU,30OITAWPBQP2Z1DQ5HPUZCTXABIH90,,,null,,,,,,,,
664,,image-keyboard-response,331,192575,0.0-331.0,3M1CVSFP61RV3XKS7FVQT4S4F36QAP,A1JXSNKXAXT9OU,30OITAWPBQP2Z1DQ5HPUZCTXABIH90,,img/set1/S2.jpg,68,2,structured_normal,68,"structured_normal,structured_incentive,random","2,3,1,2",TRUE,,
null,,html-keyboard-response,332,192934,0.0-332.0,3M1CVSFP61RV3XKS7FVQT4S4F36QAP,A1JXSNKXAXT9OU,30OITAWPBQP2Z1DQ5HPUZCTXABIH90,,"<img src=""img/set1/S2.jpg"" width=""540"" height = ""360"" style=""border:16px solid orange"">",null,,,,,,,,
null,,html-keyboard-response,333,193135,0.0-333.0,3M1CVSFP61RV3XKS7FVQT4S4F36QAP,A1JXSNKXAXT9OU,30OITAWPBQP2Z1DQ5HPUZCTXABIH90,,,null,,,,,,,,
623.399999976158,,image-keyboard-response,334,193759,0.0-334.0,3M1CVSFP61RV3XKS7FVQT4S4F36QAP,A1JXSNKXAXT9OU,30OITAWPBQP2Z1DQ5HPUZCTXABIH90,,img/set1/S4.jpg,74,4,structured_normal,74,"structured_normal,structured_incentive,random","2,3,1,2",TRUE,,
null,,html-keyboard-response,335,194119,0.0-335.0,3M1CVSFP61RV3XKS7FVQT4S4F36QAP,A1JXSNKXAXT9OU,30OITAWPBQP2Z1DQ5HPUZCTXABIH90,,"<img src=""img/set1/S4.jpg"" width=""540"" height = ""360"" style=""border:16px solid orange"">",null,,,,,,,,
null,,html-keyboard-response,336,194320,0.0-336.0,3M1CVSFP61RV3XKS7FVQT4S4F36QAP,A1JXSNKXAXT9OU,30OITAWPBQP2Z1DQ5HPUZCTXABIH90,,,null,,,,,,,,
533.800000071526,,image-keyboard-response,337,194855,0.0-337.0,3M1CVSFP61RV3XKS7FVQT4S4F36QAP,A1JXSNKXAXT9OU,30OITAWPBQP2Z1DQ5HPUZCTXABIH90,,img/set1/S1.jpg,83,1,structured_normal,83,"structured_normal,structured_incentive,random","2,3,1,2",TRUE,,
null,,html-keyboard-response,338,195212,0.0-338.0,3M1CVSFP61RV3XKS7FVQT4S4F36QAP,A1JXSNKXAXT9OU,30OITAWPBQP2Z1DQ5HPUZCTXABIH90,,"<img src=""img/set1/S1.jpg"" width=""540"" height = ""360"" style=""border:16px solid orange"">",null,,,,,,,,
null,,html-keyboard-response,339,195416,0.0-339.0,3M1CVSFP61RV3XKS7FVQT4S4F36QAP,A1JXSNKXAXT9OU,30OITAWPBQP2Z1DQ5HPUZCTXABIH90,,,null,,,,,,,,
518.300000071526,,image-keyboard-response,340,195935,0.0-340.0,3M1CVSFP61RV3XKS7FVQT4S4F36QAP,A1JXSNKXAXT9OU,30OITAWPBQP2Z1DQ5HPUZCTXABIH90,,img/set1/S2.jpg,72,2,structured_normal,68,"structured_normal,structured_incentive,random","2,3,1,2",FALSE,,
null,,html-keyboard-response,341,196294,0.0-341.0,3M1CVSFP61RV3XKS7FVQT4S4F36QAP,A1JXSNKXAXT9OU,30OITAWPBQP2Z1DQ5HPUZCTXABIH90,,"<img src=""img/set1/S2.jpg"" width=""540"" height = ""360"">",null,,,,,,,,
null,,html-keyboard-response,342,196510,0.0-342.0,3M1CVSFP61RV3XKS7FVQT4S4F36QAP,A1JXSNKXAXT9OU,30OITAWPBQP2Z1DQ5HPUZCTXABIH90,,,null,,,,,,,,
560,,image-keyboard-response,343,197071,0.0-343.0,3M1CVSFP61RV3XKS7FVQT4S4F36QAP,A1JXSNKXAXT9OU,30OITAWPBQP2Z1DQ5HPUZCTXABIH90,,img/set1/S3.jpg,72,3,structured_normal,72,"structured_normal,structured_incentive,random","2,3,1,2",TRUE,,
null,,html-keyboard-response,344,197429,0.0-344.0,3M1CVSFP61RV3XKS7FVQT4S4F36QAP,A1JXSNKXAXT9OU,30OITAWPBQP2Z1DQ5HPUZCTXABIH90,,"<img src=""img/set1/S3.jpg"" width=""540"" height = ""360"" style=""border:16px solid orange"">",null,,,,,,,,
null,,html-keyboard-response,345,197633,0.0-345.0,3M1CVSFP61RV3XKS7FVQT4S4F36QAP,A1JXSNKXAXT9OU,30OITAWPBQP2Z1DQ5HPUZCTXABIH90,,,null,,,,,,,,
669,,image-keyboard-response,346,198303,0.0-346.0,3M1CVSFP61RV3XKS7FVQT4S4F36QAP,A1JXSNKXAXT9OU,30OITAWPBQP2Z1DQ5HPUZCTXABIH90,,img/set1/S1.jpg,83,1,structured_normal,83,"structured_normal,structured_incentive,random","2,3,1,2",TRUE,,
null,,html-keyboard-response,347,198660,0.0-347.0,3M1CVSFP61RV3XKS7FVQT4S4F36QAP,A1JXSNKXAXT9OU,30OITAWPBQP2Z1DQ5HPUZCTXABIH90,,"<img src=""img/set1/S1.jpg"" width=""540"" height = ""360"" style=""border:16px solid orange"">",null,,,,,,,,
null,,html-keyboard-response,348,198862,0.0-348.0,3M1CVSFP61RV3XKS7FVQT4S4F36QAP,A1JXSNKXAXT9OU,30OITAWPBQP2Z1DQ5HPUZCTXABIH90,,,null,,,,,,,,
600,,image-keyboard-response,349,199463,0.0-349.0,3M1CVSFP61RV3XKS7FVQT4S4F36QAP,A1JXSNKXAXT9OU,30OITAWPBQP2Z1DQ5HPUZCTXABIH90,,img/set1/S4.jpg,74,4,structured_normal,74,"structured_normal,structured_incentive,random","2,3,1,2",TRUE,,
null,,html-keyboard-response,350,199818,0.0-350.0,3M1CVSFP61RV3XKS7FVQT4S4F36QAP,A1JXSNKXAXT9OU,30OITAWPBQP2Z1DQ5HPUZCTXABIH90,,"<img src=""img/set1/S4.jpg"" width=""540"" height = ""360"" style=""border:16px solid orange"">",null,,,,,,,,
null,,html-keyboard-response,351,200022,0.0-351.0,3M1CVSFP61RV3XKS7FVQT4S4F36QAP,A1JXSNKXAXT9OU,30OITAWPBQP2Z1DQ5HPUZCTXABIH90,,,null,,,,,,,,
592.199999928474,,image-keyboard-response,352,200615,0.0-352.0,3M1CVSFP61RV3XKS7FVQT4S4F36QAP,A1JXSNKXAXT9OU,30OITAWPBQP2Z1DQ5HPUZCTXABIH90,,img/set1/S1.jpg,83,1,structured_normal,83,"structured_normal,structured_incentive,random","2,3,1,2",TRUE,,
null,,html-keyboard-response,353,200975,0.0-353.0,3M1CVSFP61RV3XKS7FVQT4S4F36QAP,A1JXSNKXAXT9OU,30OITAWPBQP2Z1DQ5HPUZCTXABIH90,,"<img src=""img/set1/S1.jpg"" width=""540"" height = ""360"" style=""border:16px solid orange"">",null,,,,,,,,
null,,html-keyboard-response,354,201191,0.0-354.0,3M1CVSFP61RV3XKS7FVQT4S4F36QAP,A1JXSNKXAXT9OU,30OITAWPBQP2Z1DQ5HPUZCTXABIH90,,,null,,,,,,,,
567.599999904633,,image-keyboard-response,355,201759,0.0-355.0,3M1CVSFP61RV3XKS7FVQT4S4F36QAP,A1JXSNKXAXT9OU,30OITAWPBQP2Z1DQ5HPUZCTXABIH90,,img/set1/S1.jpg,83,1,structured_normal,83,"structured_normal,structured_incentive,random","2,3,1,2",TRUE,,
null,,html-keyboard-response,356,202118,0.0-356.0,3M1CVSFP61RV3XKS7FVQT4S4F36QAP,A1JXSNKXAXT9OU,30OITAWPBQP2Z1DQ5HPUZCTXABIH90,,"<img src=""img/set1/S1.jpg"" width=""540"" height = ""360"" style=""border:16px solid orange"">",null,,,,,,,,
null,,html-keyboard-response,357,202321,0.0-357.0,3M1CVSFP61RV3XKS7FVQT4S4F36QAP,A1JXSNKXAXT9OU,30OITAWPBQP2Z1DQ5HPUZCTXABIH90,,,null,,,,,,,,
389.199999928474,,image-keyboard-response,358,202711,0.0-358.0,3M1CVSFP61RV3XKS7FVQT4S4F36QAP,A1JXSNKXAXT9OU,30OITAWPBQP2Z1DQ5HPUZCTXABIH90,,img/set1/S1.jpg,83,1,structured_normal,83,"structured_normal,structured_incentive,random","2,3,1,2",TRUE,,
null,,html-keyboard-response,359,203072,0.0-359.0,3M1CVSFP61RV3XKS7FVQT4S4F36QAP,A1JXSNKXAXT9OU,30OITAWPBQP2Z1DQ5HPUZCTXABIH90,,"<img src=""img/set1/S1.jpg"" width=""540"" height = ""360"" style=""border:16px solid orange"">",null,,,,,,,,
null,,html-keyboard-response,360,203286,0.0-360.0,3M1CVSFP61RV3XKS7FVQT4S4F36QAP,A1JXSNKXAXT9OU,30OITAWPBQP2Z1DQ5HPUZCTXABIH90,,,null,,,,,,,,
743.800000071526,,image-keyboard-response,361,204031,0.0-361.0,3M1CVSFP61RV3XKS7FVQT4S4F36QAP,A1JXSNKXAXT9OU,30OITAWPBQP2Z1DQ5HPUZCTXABIH90,,img/set1/S3.jpg,72,3,structured_normal,72,"structured_normal,structured_incentive,random","2,3,1,2",TRUE,,
null,,html-keyboard-response,362,204397,0.0-362.0,3M1CVSFP61RV3XKS7FVQT4S4F36QAP,A1JXSNKXAXT9OU,30OITAWPBQP2Z1DQ5HPUZCTXABIH90,,"<img src=""img/set1/S3.jpg"" width=""540"" height = ""360"" style=""border:16px solid orange"">",null,,,,,,,,
null,,html-keyboard-response,363,204600,0.0-363.0,3M1CVSFP61RV3XKS7FVQT4S4F36QAP,A1JXSNKXAXT9OU,30OITAWPBQP2Z1DQ5HPUZCTXABIH90,,,null,,,,,,,,
494.600000023842,,image-keyboard-response,364,205095,0.0-364.0,3M1CVSFP61RV3XKS7FVQT4S4F36QAP,A1JXSNKXAXT9OU,30OITAWPBQP2Z1DQ5HPUZCTXABIH90,,img/set1/S2.jpg,68,2,structured_normal,68,"structured_normal,structured_incentive,random","2,3,1,2",TRUE,,
null,,html-keyboard-response,365,205460,0.0-365.0,3M1CVSFP61RV3XKS7FVQT4S4F36QAP,A1JXSNKXAXT9OU,30OITAWPBQP2Z1DQ5HPUZCTXABIH90,,"<img src=""img/set1/S2.jpg"" width=""540"" height = ""360"" style=""border:16px solid orange"">",null,,,,,,,,
null,,html-keyboard-response,366,205665,0.0-366.0,3M1CVSFP61RV3XKS7FVQT4S4F36QAP,A1JXSNKXAXT9OU,30OITAWPBQP2Z1DQ5HPUZCTXABIH90,,,null,,,,,,,,
572.900000095367,,image-keyboard-response,367,206239,0.0-367.0,3M1CVSFP61RV3XKS7FVQT4S4F36QAP,A1JXSNKXAXT9OU,30OITAWPBQP2Z1DQ5HPUZCTXABIH90,,img/set1/S4.jpg,74,4,structured_normal,74,"structured_normal,structured_incentive,random","2,3,1,2",TRUE,,
null,,html-keyboard-response,368,206598,0.0-368.0,3M1CVSFP61RV3XKS7FVQT4S4F36QAP,A1JXSNKXAXT9OU,30OITAWPBQP2Z1DQ5HPUZCTXABIH90,,"<img src=""img/set1/S4.jpg"" width=""540"" height = ""360"" style=""border:16px solid orange"">",null,,,,,,,,
null,,html-keyboard-response,369,206814,0.0-369.0,3M1CVSFP61RV3XKS7FVQT4S4F36QAP,A1JXSNKXAXT9OU,30OITAWPBQP2Z1DQ5HPUZCTXABIH90,,,null,,,,,,,,
384.300000071526,,image-keyboard-response,370,207199,0.0-370.0,3M1CVSFP61RV3XKS7FVQT4S4F36QAP,A1JXSNKXAXT9OU,30OITAWPBQP2Z1DQ5HPUZCTXABIH90,,img/set1/S4.jpg,74,4,structured_normal,74,"structured_normal,structured_incentive,random","2,3,1,2",TRUE,,
null,,html-keyboard-response,371,207565,0.0-371.0,3M1CVSFP61RV3XKS7FVQT4S4F36QAP,A1JXSNKXAXT9OU,30OITAWPBQP2Z1DQ5HPUZCTXABIH90,,"<img src=""img/set1/S4.jpg"" width=""540"" height = ""360"" style=""border:16px solid orange"">",null,,,,,,,,
null,,html-keyboard-response,372,207769,0.0-372.0,3M1CVSFP61RV3XKS7FVQT4S4F36QAP,A1JXSNKXAXT9OU,30OITAWPBQP2Z1DQ5HPUZCTXABIH90,,,null,,,,,,,,
541.100000023842,,image-keyboard-response,373,208311,0.0-373.0,3M1CVSFP61RV3XKS7FVQT4S4F36QAP,A1JXSNKXAXT9OU,30OITAWPBQP2Z1DQ5HPUZCTXABIH90,,img/set1/S3.jpg,68,3,structured_normal,72,"structured_normal,structured_incentive,random","2,3,1,2",FALSE,,
null,,html-keyboard-response,374,208664,0.0-374.0,3M1CVSFP61RV3XKS7FVQT4S4F36QAP,A1JXSNKXAXT9OU,30OITAWPBQP2Z1DQ5HPUZCTXABIH90,,"<img src=""img/set1/S3.jpg"" width=""540"" height = ""360"">",null,,,,,,,,
null,,html-keyboard-response,375,208868,0.0-375.0,3M1CVSFP61RV3XKS7FVQT4S4F36QAP,A1JXSNKXAXT9OU,30OITAWPBQP2Z1DQ5HPUZCTXABIH90,,,null,,,,,,,,
553.899999976158,,image-keyboard-response,376,209423,0.0-376.0,3M1CVSFP61RV3XKS7FVQT4S4F36QAP,A1JXSNKXAXT9OU,30OITAWPBQP2Z1DQ5HPUZCTXABIH90,,img/set1/S4.jpg,74,4,structured_normal,74,"structured_normal,structured_incentive,random","2,3,1,2",TRUE,,
null,,html-keyboard-response,377,209777,0.0-377.0,3M1CVSFP61RV3XKS7FVQT4S4F36QAP,A1JXSNKXAXT9OU,30OITAWPBQP2Z1DQ5HPUZCTXABIH90,,"<img src=""img/set1/S4.jpg"" width=""540"" height = ""360"" style=""border:16px solid orange"">",null,,,,,,,,
null,,html-keyboard-response,378,209980,0.0-378.0,3M1CVSFP61RV3XKS7FVQT4S4F36QAP,A1JXSNKXAXT9OU,30OITAWPBQP2Z1DQ5HPUZCTXABIH90,,,null,,,,,,,,
402.600000023842,,image-keyboard-response,379,210383,0.0-379.0,3M1CVSFP61RV3XKS7FVQT4S4F36QAP,A1JXSNKXAXT9OU,30OITAWPBQP2Z1DQ5HPUZCTXABIH90,,img/set1/S3.jpg,72,3,structured_normal,72,"structured_normal,structured_incentive,random","2,3,1,2",TRUE,,
null,,html-keyboard-response,380,210744,0.0-380.0,3M1CVSFP61RV3XKS7FVQT4S4F36QAP,A1JXSNKXAXT9OU,30OITAWPBQP2Z1DQ5HPUZCTXABIH90,,"<img src=""img/set1/S3.jpg"" width=""540"" height = ""360"" style=""border:16px solid orange"">",null,,,,,,,,
null,,html-keyboard-response,381,210948,0.0-381.0,3M1CVSFP61RV3XKS7FVQT4S4F36QAP,A1JXSNKXAXT9OU,30OITAWPBQP2Z1DQ5HPUZCTXABIH90,,,null,,,,,,,,
586.199999928474,,image-keyboard-response,382,211535,0.0-382.0,3M1CVSFP61RV3XKS7FVQT4S4F36QAP,A1JXSNKXAXT9OU,30OITAWPBQP2Z1DQ5HPUZCTXABIH90,,img/set1/S1.jpg,83,1,structured_normal,83,"structured_normal,structured_incentive,random","2,3,1,2",TRUE,,
null,,html-keyboard-response,383,211887,0.0-383.0,3M1CVSFP61RV3XKS7FVQT4S4F36QAP,A1JXSNKXAXT9OU,30OITAWPBQP2Z1DQ5HPUZCTXABIH90,,"<img src=""img/set1/S1.jpg"" width=""540"" height = ""360"" style=""border:16px solid orange"">",null,,,,,,,,
null,,html-keyboard-response,384,212092,0.0-384.0,3M1CVSFP61RV3XKS7FVQT4S4F36QAP,A1JXSNKXAXT9OU,30OITAWPBQP2Z1DQ5HPUZCTXABIH90,,,null,,,,,,,,
714.5,,image-keyboard-response,385,212807,0.0-385.0,3M1CVSFP61RV3XKS7FVQT4S4F36QAP,A1JXSNKXAXT9OU,30OITAWPBQP2Z1DQ5HPUZCTXABIH90,,img/set1/S2.jpg,68,2,structured_normal,68,"structured_normal,structured_incentive,random","2,3,1,2",TRUE,,
null,,html-keyboard-response,386,213170,0.0-386.0,3M1CVSFP61RV3XKS7FVQT4S4F36QAP,A1JXSNKXAXT9OU,30OITAWPBQP2Z1DQ5HPUZCTXABIH90,,"<img src=""img/set1/S2.jpg"" width=""540"" height = ""360"" style=""border:16px solid orange"">",null,,,,,,,,
null,,html-keyboard-response,387,213372,0.0-387.0,3M1CVSFP61RV3XKS7FVQT4S4F36QAP,A1JXSNKXAXT9OU,30OITAWPBQP2Z1DQ5HPUZCTXABIH90,,,null,,,,,,,,
666.100000023842,,image-keyboard-response,388,214039,0.0-388.0,3M1CVSFP61RV3XKS7FVQT4S4F36QAP,A1JXSNKXAXT9OU,30OITAWPBQP2Z1DQ5HPUZCTXABIH90,,img/set1/S3.jpg,72,3,structured_normal,72,"structured_normal,structured_incentive,random","2,3,1,2",TRUE,,
null,,html-keyboard-response,389,214404,0.0-389.0,3M1CVSFP61RV3XKS7FVQT4S4F36QAP,A1JXSNKXAXT9OU,30OITAWPBQP2Z1DQ5HPUZCTXABIH90,,"<img src=""img/set1/S3.jpg"" width=""540"" height = ""360"" style=""border:16px solid orange"">",null,,,,,,,,
null,,html-keyboard-response,390,214607,0.0-390.0,3M1CVSFP61RV3XKS7FVQT4S4F36QAP,A1JXSNKXAXT9OU,30OITAWPBQP2Z1DQ5HPUZCTXABIH90,,,null,,,,,,,,
575.5,,image-keyboard-response,391,215183,0.0-391.0,3M1CVSFP61RV3XKS7FVQT4S4F36QAP,A1JXSNKXAXT9OU,30OITAWPBQP2Z1DQ5HPUZCTXABIH90,,img/set1/S1.jpg,83,1,structured_normal,83,"structured_normal,structured_incentive,random","2,3,1,2",TRUE,,
null,,html-keyboard-response,392,215547,0.0-392.0,3M1CVSFP61RV3XKS7FVQT4S4F36QAP,A1JXSNKXAXT9OU,30OITAWPBQP2Z1DQ5HPUZCTXABIH90,,"<img src=""img/set1/S1.jpg"" width=""540"" height = ""360"" style=""border:16px solid orange"">",null,,,,,,,,
null,,html-keyboard-response,393,215750,0.0-393.0,3M1CVSFP61RV3XKS7FVQT4S4F36QAP,A1JXSNKXAXT9OU,30OITAWPBQP2Z1DQ5HPUZCTXABIH90,,,null,,,,,,,,
568,,image-keyboard-response,394,216319,0.0-394.0,3M1CVSFP61RV3XKS7FVQT4S4F36QAP,A1JXSNKXAXT9OU,30OITAWPBQP2Z1DQ5HPUZCTXABIH90,,img/set1/S2.jpg,68,2,structured_normal,68,"structured_normal,structured_incentive,random","2,3,1,2",TRUE,,
null,,html-keyboard-response,395,216685,0.0-395.0,3M1CVSFP61RV3XKS7FVQT4S4F36QAP,A1JXSNKXAXT9OU,30OITAWPBQP2Z1DQ5HPUZCTXABIH90,,"<img src=""img/set1/S2.jpg"" width=""540"" height = ""360"" style=""border:16px solid orange"">",null,,,,,,,,
null,,html-keyboard-response,396,216889,0.0-396.0,3M1CVSFP61RV3XKS7FVQT4S4F36QAP,A1JXSNKXAXT9OU,30OITAWPBQP2Z1DQ5HPUZCTXABIH90,,,null,,,,,,,,
629.100000023842,,image-keyboard-response,397,217519,0.0-397.0,3M1CVSFP61RV3XKS7FVQT4S4F36QAP,A1JXSNKXAXT9OU,30OITAWPBQP2Z1DQ5HPUZCTXABIH90,,img/set1/S4.jpg,74,4,structured_normal,74,"structured_normal,structured_incentive,random","2,3,1,2",TRUE,,
null,,html-keyboard-response,398,217874,0.0-398.0,3M1CVSFP61RV3XKS7FVQT4S4F36QAP,A1JXSNKXAXT9OU,30OITAWPBQP2Z1DQ5HPUZCTXABIH90,,"<img src=""img/set1/S4.jpg"" width=""540"" height = ""360"" style=""border:16px solid orange"">",null,,,,,,,,
null,,html-keyboard-response,399,218076,0.0-399.0,3M1CVSFP61RV3XKS7FVQT4S4F36QAP,A1JXSNKXAXT9OU,30OITAWPBQP2Z1DQ5HPUZCTXABIH90,,,null,,,,,,,,
465.899999976158,,image-keyboard-response,400,218543,0.0-400.0,3M1CVSFP61RV3XKS7FVQT4S4F36QAP,A1JXSNKXAXT9OU,30OITAWPBQP2Z1DQ5HPUZCTXABIH90,,img/set1/S4.jpg,74,4,structured_normal,74,"structured_normal,structured_incentive,random","2,3,1,2",TRUE,,
null,,html-keyboard-response,401,218900,0.0-401.0,3M1CVSFP61RV3XKS7FVQT4S4F36QAP,A1JXSNKXAXT9OU,30OITAWPBQP2Z1DQ5HPUZCTXABIH90,,"<img src=""img/set1/S4.jpg"" width=""540"" height = ""360"" style=""border:16px solid orange"">",null,,,,,,,,
null,,html-keyboard-response,402,219103,0.0-402.0,3M1CVSFP61RV3XKS7FVQT4S4F36QAP,A1JXSNKXAXT9OU,30OITAWPBQP2Z1DQ5HPUZCTXABIH90,,,null,,,,,,,,
343.100000023842,,image-keyboard-response,403,219447,0.0-403.0,3M1CVSFP61RV3XKS7FVQT4S4F36QAP,A1JXSNKXAXT9OU,30OITAWPBQP2Z1DQ5HPUZCTXABIH90,,img/set1/S4.jpg,74,4,structured_normal,74,"structured_normal,structured_incentive,random","2,3,1,2",TRUE,,
null,,html-keyboard-response,404,219807,0.0-404.0,3M1CVSFP61RV3XKS7FVQT4S4F36QAP,A1JXSNKXAXT9OU,30OITAWPBQP2Z1DQ5HPUZCTXABIH90,,"<img src=""img/set1/S4.jpg"" width=""540"" height = ""360"" style=""border:16px solid orange"">",null,,,,,,,,
null,,html-keyboard-response,405,220009,0.0-405.0,3M1CVSFP61RV3XKS7FVQT4S4F36QAP,A1JXSNKXAXT9OU,30OITAWPBQP2Z1DQ5HPUZCTXABIH90,,,null,,,,,,,,
757.700000047684,,image-keyboard-response,406,220767,0.0-406.0,3M1CVSFP61RV3XKS7FVQT4S4F36QAP,A1JXSNKXAXT9OU,30OITAWPBQP2Z1DQ5HPUZCTXABIH90,,img/set1/S1.jpg,83,1,structured_normal,83,"structured_normal,structured_incentive,random","2,3,1,2",TRUE,,
null,,html-keyboard-response,407,221129,0.0-407.0,3M1CVSFP61RV3XKS7FVQT4S4F36QAP,A1JXSNKXAXT9OU,30OITAWPBQP2Z1DQ5HPUZCTXABIH90,,"<img src=""img/set1/S1.jpg"" width=""540"" height = ""360"" style=""border:16px solid orange"">",null,,,,,,,,
null,,html-keyboard-response,408,221332,0.0-408.0,3M1CVSFP61RV3XKS7FVQT4S4F36QAP,A1JXSNKXAXT9OU,30OITAWPBQP2Z1DQ5HPUZCTXABIH90,,,null,,,,,,,,
362,,image-keyboard-response,409,221695,0.0-409.0,3M1CVSFP61RV3XKS7FVQT4S4F36QAP,A1JXSNKXAXT9OU,30OITAWPBQP2Z1DQ5HPUZCTXABIH90,,img/set1/S1.jpg,83,1,structured_normal,83,"structured_normal,structured_incentive,random","2,3,1,2",TRUE,,
null,,html-keyboard-response,410,222054,0.0-410.0,3M1CVSFP61RV3XKS7FVQT4S4F36QAP,A1JXSNKXAXT9OU,30OITAWPBQP2Z1DQ5HPUZCTXABIH90,,"<img src=""img/set1/S1.jpg"" width=""540"" height = ""360"" style=""border:16px solid orange"">",null,,,,,,,,
null,,html-keyboard-response,411,222269,0.0-411.0,3M1CVSFP61RV3XKS7FVQT4S4F36QAP,A1JXSNKXAXT9OU,30OITAWPBQP2Z1DQ5HPUZCTXABIH90,,,null,,,,,,,,
528.899999976158,,image-keyboard-response,412,222799,0.0-412.0,3M1CVSFP61RV3XKS7FVQT4S4F36QAP,A1JXSNKXAXT9OU,30OITAWPBQP2Z1DQ5HPUZCTXABIH90,,img/set1/S4.jpg,74,4,structured_normal,74,"structured_normal,structured_incentive,random","2,3,1,2",TRUE,,
null,,html-keyboard-response,413,223158,0.0-413.0,3M1CVSFP61RV3XKS7FVQT4S4F36QAP,A1JXSNKXAXT9OU,30OITAWPBQP2Z1DQ5HPUZCTXABIH90,,"<img src=""img/set1/S4.jpg"" width=""540"" height = ""360"" style=""border:16px solid orange"">",null,,,,,,,,
null,,html-keyboard-response,414,223361,0.0-414.0,3M1CVSFP61RV3XKS7FVQT4S4F36QAP,A1JXSNKXAXT9OU,30OITAWPBQP2Z1DQ5HPUZCTXABIH90,,,null,,,,,,,,
389.600000023842,,image-keyboard-response,415,223751,0.0-415.0,3M1CVSFP61RV3XKS7FVQT4S4F36QAP,A1JXSNKXAXT9OU,30OITAWPBQP2Z1DQ5HPUZCTXABIH90,,img/set1/S4.jpg,74,4,structured_normal,74,"structured_normal,structured_incentive,random","2,3,1,2",TRUE,,
null,,html-keyboard-response,416,224109,0.0-416.0,3M1CVSFP61RV3XKS7FVQT4S4F36QAP,A1JXSNKXAXT9OU,30OITAWPBQP2Z1DQ5HPUZCTXABIH90,,"<img src=""img/set1/S4.jpg"" width=""540"" height = ""360"" style=""border:16px solid orange"">",null,,,,,,,,
null,,html-keyboard-response,417,224312,0.0-417.0,3M1CVSFP61RV3XKS7FVQT4S4F36QAP,A1JXSNKXAXT9OU,30OITAWPBQP2Z1DQ5HPUZCTXABIH90,,,null,,,,,,,,
654.700000047684,,image-keyboard-response,418,224967,0.0-418.0,3M1CVSFP61RV3XKS7FVQT4S4F36QAP,A1JXSNKXAXT9OU,30OITAWPBQP2Z1DQ5HPUZCTXABIH90,,img/set1/S2.jpg,68,2,structured_normal,68,"structured_normal,structured_incentive,random","2,3,1,2",TRUE,,
null,,html-keyboard-response,419,225321,0.0-419.0,3M1CVSFP61RV3XKS7FVQT4S4F36QAP,A1JXSNKXAXT9OU,30OITAWPBQP2Z1DQ5HPUZCTXABIH90,,"<img src=""img/set1/S2.jpg"" width=""540"" height = ""360"" style=""border:16px solid orange"">",null,,,,,,,,
null,,html-keyboard-response,420,225525,0.0-420.0,3M1CVSFP61RV3XKS7FVQT4S4F36QAP,A1JXSNKXAXT9OU,30OITAWPBQP2Z1DQ5HPUZCTXABIH90,,,null,,,,,,,,
481,,image-keyboard-response,421,226007,0.0-421.0,3M1CVSFP61RV3XKS7FVQT4S4F36QAP,A1JXSNKXAXT9OU,30OITAWPBQP2Z1DQ5HPUZCTXABIH90,,img/set1/S3.jpg,72,3,structured_normal,72,"structured_normal,structured_incentive,random","2,3,1,2",TRUE,,
null,,html-keyboard-response,422,226365,0.0-422.0,3M1CVSFP61RV3XKS7FVQT4S4F36QAP,A1JXSNKXAXT9OU,30OITAWPBQP2Z1DQ5HPUZCTXABIH90,,"<img src=""img/set1/S3.jpg"" width=""540"" height = ""360"" style=""border:16px solid orange"">",null,,,,,,,,
null,,html-keyboard-response,423,226569,0.0-423.0,3M1CVSFP61RV3XKS7FVQT4S4F36QAP,A1JXSNKXAXT9OU,30OITAWPBQP2Z1DQ5HPUZCTXABIH90,,,null,,,,,,,,
549.200000047684,,image-keyboard-response,424,227119,0.0-424.0,3M1CVSFP61RV3XKS7FVQT4S4F36QAP,A1JXSNKXAXT9OU,30OITAWPBQP2Z1DQ5HPUZCTXABIH90,,img/set1/S1.jpg,83,1,structured_normal,83,"structured_normal,structured_incentive,random","2,3,1,2",TRUE,,
null,,html-keyboard-response,425,227479,0.0-425.0,3M1CVSFP61RV3XKS7FVQT4S4F36QAP,A1JXSNKXAXT9OU,30OITAWPBQP2Z1DQ5HPUZCTXABIH90,,"<img src=""img/set1/S1.jpg"" width=""540"" height = ""360"" style=""border:16px solid orange"">",null,,,,,,,,
null,,html-keyboard-response,426,227681,0.0-426.0,3M1CVSFP61RV3XKS7FVQT4S4F36QAP,A1JXSNKXAXT9OU,30OITAWPBQP2Z1DQ5HPUZCTXABIH90,,,null,,,,,,,,
645.700000047684,,image-keyboard-response,427,228328,0.0-427.0,3M1CVSFP61RV3XKS7FVQT4S4F36QAP,A1JXSNKXAXT9OU,30OITAWPBQP2Z1DQ5HPUZCTXABIH90,,img/set1/S2.jpg,68,2,structured_normal,68,"structured_normal,structured_incentive,random","2,3,1,2",TRUE,,
null,,html-keyboard-response,428,228679,0.0-428.0,3M1CVSFP61RV3XKS7FVQT4S4F36QAP,A1JXSNKXAXT9OU,30OITAWPBQP2Z1DQ5HPUZCTXABIH90,,"<img src=""img/set1/S2.jpg"" width=""540"" height = ""360"" style=""border:16px solid orange"">",null,,,,,,,,
null,,html-keyboard-response,429,228882,0.0-429.0,3M1CVSFP61RV3XKS7FVQT4S4F36QAP,A1JXSNKXAXT9OU,30OITAWPBQP2Z1DQ5HPUZCTXABIH90,,,null,,,,,,,,
772,,image-keyboard-response,430,229655,0.0-430.0,3M1CVSFP61RV3XKS7FVQT4S4F36QAP,A1JXSNKXAXT9OU,30OITAWPBQP2Z1DQ5HPUZCTXABIH90,,img/set1/S3.jpg,72,3,structured_normal,72,"structured_normal,structured_incentive,random","2,3,1,2",TRUE,,
null,,html-keyboard-response,431,230019,0.0-431.0,3M1CVSFP61RV3XKS7FVQT4S4F36QAP,A1JXSNKXAXT9OU,30OITAWPBQP2Z1DQ5HPUZCTXABIH90,,"<img src=""img/set1/S3.jpg"" width=""540"" height = ""360"" style=""border:16px solid orange"">",null,,,,,,,,
null,,html-keyboard-response,432,230221,0.0-432.0,3M1CVSFP61RV3XKS7FVQT4S4F36QAP,A1JXSNKXAXT9OU,30OITAWPBQP2Z1DQ5HPUZCTXABIH90,,,null,,,,,,,,
513.800000071526,,image-keyboard-response,433,230735,0.0-433.0,3M1CVSFP61RV3XKS7FVQT4S4F36QAP,A1JXSNKXAXT9OU,30OITAWPBQP2Z1DQ5HPUZCTXABIH90,,img/set1/S4.jpg,74,4,structured_normal,74,"structured_normal,structured_incentive,random","2,3,1,2",TRUE,,
null,,html-keyboard-response,434,231101,0.0-434.0,3M1CVSFP61RV3XKS7FVQT4S4F36QAP,A1JXSNKXAXT9OU,30OITAWPBQP2Z1DQ5HPUZCTXABIH90,,"<img src=""img/set1/S4.jpg"" width=""540"" height = ""360"" style=""border:16px solid orange"">",null,,,,,,,,
null,,html-keyboard-response,435,231317,0.0-435.0,3M1CVSFP61RV3XKS7FVQT4S4F36QAP,A1JXSNKXAXT9OU,30OITAWPBQP2Z1DQ5HPUZCTXABIH90,,,null,,,,,,,,
537.5,,image-keyboard-response,436,231855,0.0-436.0,3M1CVSFP61RV3XKS7FVQT4S4F36QAP,A1JXSNKXAXT9OU,30OITAWPBQP2Z1DQ5HPUZCTXABIH90,,img/set1/S2.jpg,68,2,structured_normal,68,"structured_normal,structured_incentive,random","2,3,1,2",TRUE,,
null,,html-keyboard-response,437,232220,0.0-437.0,3M1CVSFP61RV3XKS7FVQT4S4F36QAP,A1JXSNKXAXT9OU,30OITAWPBQP2Z1DQ5HPUZCTXABIH90,,"<img src=""img/set1/S2.jpg"" width=""540"" height = ""360"" style=""border:16px solid orange"">",null,,,,,,,,
null,,html-keyboard-response,438,232422,0.0-438.0,3M1CVSFP61RV3XKS7FVQT4S4F36QAP,A1JXSNKXAXT9OU,30OITAWPBQP2Z1DQ5HPUZCTXABIH90,,,null,,,,,,,,
728.200000047684,,image-keyboard-response,439,233151,0.0-439.0,3M1CVSFP61RV3XKS7FVQT4S4F36QAP,A1JXSNKXAXT9OU,30OITAWPBQP2Z1DQ5HPUZCTXABIH90,,img/set1/S3.jpg,72,3,structured_normal,72,"structured_normal,structured_incentive,random","2,3,1,2",TRUE,,
null,,html-keyboard-response,440,233505,0.0-440.0,3M1CVSFP61RV3XKS7FVQT4S4F36QAP,A1JXSNKXAXT9OU,30OITAWPBQP2Z1DQ5HPUZCTXABIH90,,"<img src=""img/set1/S3.jpg"" width=""540"" height = ""360"" style=""border:16px solid orange"">",null,,,,,,,,
null,,html-keyboard-response,441,233708,0.0-441.0,3M1CVSFP61RV3XKS7FVQT4S4F36QAP,A1JXSNKXAXT9OU,30OITAWPBQP2Z1DQ5HPUZCTXABIH90,,,null,,,,,,,,
562.400000095367,,image-keyboard-response,442,234271,0.0-442.0,3M1CVSFP61RV3XKS7FVQT4S4F36QAP,A1JXSNKXAXT9OU,30OITAWPBQP2Z1DQ5HPUZCTXABIH90,,img/set1/S1.jpg,68,1,structured_normal,83,"structured_normal,structured_incentive,random","2,3,1,2",FALSE,,
null,,html-keyboard-response,443,234627,0.0-443.0,3M1CVSFP61RV3XKS7FVQT4S4F36QAP,A1JXSNKXAXT9OU,30OITAWPBQP2Z1DQ5HPUZCTXABIH90,,"<img src=""img/set1/S1.jpg"" width=""540"" height = ""360"">",null,,,,,,,,
null,,html-keyboard-response,444,234831,0.0-444.0,3M1CVSFP61RV3XKS7FVQT4S4F36QAP,A1JXSNKXAXT9OU,30OITAWPBQP2Z1DQ5HPUZCTXABIH90,,,null,,,,,,,,
455.900000095367,,image-keyboard-response,445,235287,0.0-445.0,3M1CVSFP61RV3XKS7FVQT4S4F36QAP,A1JXSNKXAXT9OU,30OITAWPBQP2Z1DQ5HPUZCTXABIH90,,img/set1/S1.jpg,83,1,structured_normal,83,"structured_normal,structured_incentive,random","2,3,1,2",TRUE,,
null,,html-keyboard-response,446,235641,0.0-446.0,3M1CVSFP61RV3XKS7FVQT4S4F36QAP,A1JXSNKXAXT9OU,30OITAWPBQP2Z1DQ5HPUZCTXABIH90,,"<img src=""img/set1/S1.jpg"" width=""540"" height = ""360"" style=""border:16px solid orange"">",null,,,,,,,,
null,,html-keyboard-response,447,235843,0.0-447.0,3M1CVSFP61RV3XKS7FVQT4S4F36QAP,A1JXSNKXAXT9OU,30OITAWPBQP2Z1DQ5HPUZCTXABIH90,,,null,,,,,,,,
675.700000047684,,image-keyboard-response,448,236519,0.0-448.0,3M1CVSFP61RV3XKS7FVQT4S4F36QAP,A1JXSNKXAXT9OU,30OITAWPBQP2Z1DQ5HPUZCTXABIH90,,img/set1/S4.jpg,74,4,structured_normal,74,"structured_normal,structured_incentive,random","2,3,1,2",TRUE,,
null,,html-keyboard-response,449,236873,0.0-449.0,3M1CVSFP61RV3XKS7FVQT4S4F36QAP,A1JXSNKXAXT9OU,30OITAWPBQP2Z1DQ5HPUZCTXABIH90,,"<img src=""img/set1/S4.jpg"" width=""540"" height = ""360"" style=""border:16px solid orange"">",null,,,,,,,,
null,,html-keyboard-response,450,237075,0.0-450.0,3M1CVSFP61RV3XKS7FVQT4S4F36QAP,A1JXSNKXAXT9OU,30OITAWPBQP2Z1DQ5HPUZCTXABIH90,,,null,,,,,,,,
595,,image-keyboard-response,451,237671,0.0-451.0,3M1CVSFP61RV3XKS7FVQT4S4F36QAP,A1JXSNKXAXT9OU,30OITAWPBQP2Z1DQ5HPUZCTXABIH90,,img/set1/S2.jpg,68,2,structured_normal,68,"structured_normal,structured_incentive,random","2,3,1,2",TRUE,,
null,,html-keyboard-response,452,238027,0.0-452.0,3M1CVSFP61RV3XKS7FVQT4S4F36QAP,A1JXSNKXAXT9OU,30OITAWPBQP2Z1DQ5HPUZCTXABIH90,,"<img src=""img/set1/S2.jpg"" width=""540"" height = ""360"" style=""border:16px solid orange"">",null,,,,,,,,
null,,html-keyboard-response,453,238232,0.0-453.0,3M1CVSFP61RV3XKS7FVQT4S4F36QAP,A1JXSNKXAXT9OU,30OITAWPBQP2Z1DQ5HPUZCTXABIH90,,,null,,,,,,,,
870.899999976158,,image-keyboard-response,454,239103,0.0-454.0,3M1CVSFP61RV3XKS7FVQT4S4F36QAP,A1JXSNKXAXT9OU,30OITAWPBQP2Z1DQ5HPUZCTXABIH90,,img/set1/S3.jpg,72,3,structured_normal,72,"structured_normal,structured_incentive,random","2,3,1,2",TRUE,,
null,,html-keyboard-response,455,239465,0.0-455.0,3M1CVSFP61RV3XKS7FVQT4S4F36QAP,A1JXSNKXAXT9OU,30OITAWPBQP2Z1DQ5HPUZCTXABIH90,,"<img src=""img/set1/S3.jpg"" width=""540"" height = ""360"" style=""border:16px solid orange"">",null,,,,,,,,
null,,html-keyboard-response,456,239668,0.0-456.0,3M1CVSFP61RV3XKS7FVQT4S4F36QAP,A1JXSNKXAXT9OU,30OITAWPBQP2Z1DQ5HPUZCTXABIH90,,,null,,,,,,,,
602.700000047684,,image-keyboard-response,457,240271,0.0-457.0,3M1CVSFP61RV3XKS7FVQT4S4F36QAP,A1JXSNKXAXT9OU,30OITAWPBQP2Z1DQ5HPUZCTXABIH90,,img/set1/S1.jpg,83,1,structured_normal,83,"structured_normal,structured_incentive,random","2,3,1,2",TRUE,,
null,,html-keyboard-response,458,240634,0.0-458.0,3M1CVSFP61RV3XKS7FVQT4S4F36QAP,A1JXSNKXAXT9OU,30OITAWPBQP2Z1DQ5HPUZCTXABIH90,,"<img src=""img/set1/S1.jpg"" width=""540"" height = ""360"" style=""border:16px solid orange"">",null,,,,,,,,
null,,html-keyboard-response,459,240837,0.0-459.0,3M1CVSFP61RV3XKS7FVQT4S4F36QAP,A1JXSNKXAXT9OU,30OITAWPBQP2Z1DQ5HPUZCTXABIH90,,,null,,,,,,,,
601.600000023842,,image-keyboard-response,460,241439,0.0-460.0,3M1CVSFP61RV3XKS7FVQT4S4F36QAP,A1JXSNKXAXT9OU,30OITAWPBQP2Z1DQ5HPUZCTXABIH90,,img/set1/S4.jpg,74,4,structured_normal,74,"structured_normal,structured_incentive,random","2,3,1,2",TRUE,,
null,,html-keyboard-response,461,241799,0.0-461.0,3M1CVSFP61RV3XKS7FVQT4S4F36QAP,A1JXSNKXAXT9OU,30OITAWPBQP2Z1DQ5HPUZCTXABIH90,,"<img src=""img/set1/S4.jpg"" width=""540"" height = ""360"" style=""border:16px solid orange"">",null,,,,,,,,
null,,html-keyboard-response,462,242001,0.0-462.0,3M1CVSFP61RV3XKS7FVQT4S4F36QAP,A1JXSNKXAXT9OU,30OITAWPBQP2Z1DQ5HPUZCTXABIH90,,,null,,,,,,,,
701.699999928474,,image-keyboard-response,463,242703,0.0-463.0,3M1CVSFP61RV3XKS7FVQT4S4F36QAP,A1JXSNKXAXT9OU,30OITAWPBQP2Z1DQ5HPUZCTXABIH90,,img/set1/S1.jpg,83,1,structured_normal,83,"structured_normal,structured_incentive,random","2,3,1,2",TRUE,,
null,,html-keyboard-response,464,243068,0.0-464.0,3M1CVSFP61RV3XKS7FVQT4S4F36QAP,A1JXSNKXAXT9OU,30OITAWPBQP2Z1DQ5HPUZCTXABIH90,,"<img src=""img/set1/S1.jpg"" width=""540"" height = ""360"" style=""border:16px solid orange"">",null,,,,,,,,
null,,html-keyboard-response,465,243272,0.0-465.0,3M1CVSFP61RV3XKS7FVQT4S4F36QAP,A1JXSNKXAXT9OU,30OITAWPBQP2Z1DQ5HPUZCTXABIH90,,,null,,,,,,,,
870.900000095367,,image-keyboard-response,466,244143,0.0-466.0,3M1CVSFP61RV3XKS7FVQT4S4F36QAP,A1JXSNKXAXT9OU,30OITAWPBQP2Z1DQ5HPUZCTXABIH90,,img/set1/S2.jpg,68,2,structured_normal,68,"structured_normal,structured_incentive,random","2,3,1,2",TRUE,,
null,,html-keyboard-response,467,244506,0.0-467.0,3M1CVSFP61RV3XKS7FVQT4S4F36QAP,A1JXSNKXAXT9OU,30OITAWPBQP2Z1DQ5HPUZCTXABIH90,,"<img src=""img/set1/S2.jpg"" width=""540"" height = ""360"" style=""border:16px solid orange"">",null,,,,,,,,
null,,html-keyboard-response,468,244710,0.0-468.0,3M1CVSFP61RV3XKS7FVQT4S4F36QAP,A1JXSNKXAXT9OU,30OITAWPBQP2Z1DQ5HPUZCTXABIH90,,,null,,,,,,,,
681.200000047684,,image-keyboard-response,469,245392,0.0-469.0,3M1CVSFP61RV3XKS7FVQT4S4F36QAP,A1JXSNKXAXT9OU,30OITAWPBQP2Z1DQ5HPUZCTXABIH90,,img/set1/S3.jpg,72,3,structured_normal,72,"structured_normal,structured_incentive,random","2,3,1,2",TRUE,,
null,,html-keyboard-response,470,245756,0.0-470.0,3M1CVSFP61RV3XKS7FVQT4S4F36QAP,A1JXSNKXAXT9OU,30OITAWPBQP2Z1DQ5HPUZCTXABIH90,,"<img src=""img/set1/S3.jpg"" width=""540"" height = ""360"" style=""border:16px solid orange"">",null,,,,,,,,
null,,html-keyboard-response,471,245958,0.0-471.0,3M1CVSFP61RV3XKS7FVQT4S4F36QAP,A1JXSNKXAXT9OU,30OITAWPBQP2Z1DQ5HPUZCTXABIH90,,,null,,,,,,,,
528.600000023842,,image-keyboard-response,472,246487,0.0-472.0,3M1CVSFP61RV3XKS7FVQT4S4F36QAP,A1JXSNKXAXT9OU,30OITAWPBQP2Z1DQ5HPUZCTXABIH90,,img/set1/S2.jpg,83,2,structured_normal,68,"structured_normal,structured_incentive,random","2,3,1,2",FALSE,,
null,,html-keyboard-response,473,246844,0.0-473.0,3M1CVSFP61RV3XKS7FVQT4S4F36QAP,A1JXSNKXAXT9OU,30OITAWPBQP2Z1DQ5HPUZCTXABIH90,,"<img src=""img/set1/S2.jpg"" width=""540"" height = ""360"">",null,,,,,,,,
null,,html-keyboard-response,474,247046,0.0-474.0,3M1CVSFP61RV3XKS7FVQT4S4F36QAP,A1JXSNKXAXT9OU,30OITAWPBQP2Z1DQ5HPUZCTXABIH90,,,null,,,,,,,,
576.5,,image-keyboard-response,475,247623,0.0-475.0,3M1CVSFP61RV3XKS7FVQT4S4F36QAP,A1JXSNKXAXT9OU,30OITAWPBQP2Z1DQ5HPUZCTXABIH90,,img/set1/S3.jpg,72,3,structured_normal,72,"structured_normal,structured_incentive,random","2,3,1,2",TRUE,,
null,,html-keyboard-response,476,247980,0.0-476.0,3M1CVSFP61RV3XKS7FVQT4S4F36QAP,A1JXSNKXAXT9OU,30OITAWPBQP2Z1DQ5HPUZCTXABIH90,,"<img src=""img/set1/S3.jpg"" width=""540"" height = ""360"" style=""border:16px solid orange"">",null,,,,,,,,
null,,html-keyboard-response,477,248183,0.0-477.0,3M1CVSFP61RV3XKS7FVQT4S4F36QAP,A1JXSNKXAXT9OU,30OITAWPBQP2Z1DQ5HPUZCTXABIH90,,,null,,,,,,,,
615.900000095367,,image-keyboard-response,478,248799,0.0-478.0,3M1CVSFP61RV3XKS7FVQT4S4F36QAP,A1JXSNKXAXT9OU,30OITAWPBQP2Z1DQ5HPUZCTXABIH90,,img/set1/S1.jpg,83,1,structured_normal,83,"structured_normal,structured_incentive,random","2,3,1,2",TRUE,,
null,,html-keyboard-response,479,249166,0.0-479.0,3M1CVSFP61RV3XKS7FVQT4S4F36QAP,A1JXSNKXAXT9OU,30OITAWPBQP2Z1DQ5HPUZCTXABIH90,,"<img src=""img/set1/S1.jpg"" width=""540"" height = ""360"" style=""border:16px solid orange"">",null,,,,,,,,
null,,html-keyboard-response,480,249382,0.0-480.0,3M1CVSFP61RV3XKS7FVQT4S4F36QAP,A1JXSNKXAXT9OU,30OITAWPBQP2Z1DQ5HPUZCTXABIH90,,,null,,,,,,,,
