"rt","url","trial_type","trial_index","time_elapsed","internal_node_id","view_history","stimulus","key_press","state","test_part","correct_response","order_block","order_chunk","order_freq","correct","responses","question_order","bonus"
"24389.800000000745","consent.html","external-html","0","24463","0.0-0.0","","","","","","","","","","","","",""
"112681.79999999888","","instructions","1","137146","0.0-1.0","[{""page_index"":0,""viewing_time"":16566.799999998882},{""page_index"":1,""viewing_time"":11593.300000000745},{""page_index"":2,""viewing_time"":12644.099999999627},{""page_index"":3,""viewing_time"":13757.599999999627},{""page_index"":4,""viewing_time"":8949.200000001118},{""page_index"":5,""viewing_time"":16293.599999999627},{""page_index"":6,""viewing_time"":32876.5}]","","","","","","","","","","","",""
"11138.39999999851","","instructions","2","148285","0.0-2.0","[{""page_index"":0,""viewing_time"":11138.099999999627}]","","","","","","","","","","","",""
"18027.5","","instructions","3","166314","0.0-3.0","[{""page_index"":0,""viewing_time"":12808.5},{""page_index"":1,""viewing_time"":5218.699999999255}]","","","","","","","","","","","",""
"1604.2999999988824","","image-keyboard-response","4","167920","0.0-4.0","","img/set1/S4.jpg","72","4","structured_load","74","structured_load,random,structured_normal,structured_incentive","2,3,2,1,3,4","2,3,4,1","false","","",""
"null","","html-keyboard-response","5","168273","0.0-5.0","","<img src=""img/set1/S4.jpg"" width=""540"" height = ""360"">","null","","","","","","","","","",""
"null","","html-keyboard-response","6","168474","0.0-6.0","","","null","","","","","","","","","",""
"860.2000000011176","","image-keyboard-response","7","169336","0.0-7.0","","img/set1/S2.jpg","74","2","structured_load","68","structured_load,random,structured_normal,structured_incentive","2,3,2,1,3,4","2,3,4,1","false","","",""
"null","","html-keyboard-response","8","169688","0.0-8.0","","<img src=""img/set1/S2.jpg"" width=""540"" height = ""360"">","null","","","","","","","","","",""
"null","","html-keyboard-response","9","169889","0.0-9.0","","","null","","","","","","","","","",""
"1045","","image-keyboard-response","10","170935","0.0-10.0","","img/set1/S3.jpg","68","3","structured_load","72","structured_load,random,structured_normal,structured_incentive","2,3,2,1,3,4","2,3,4,1","false","","",""
"null","","html-keyboard-response","11","171287","0.0-11.0","","<img src=""img/set1/S3.jpg"" width=""540"" height = ""360"">","null","","","","","","","","","",""
"null","","html-keyboard-response","12","171489","0.0-12.0","","","null","","","","","","","","","",""
"805.2000000011176","","image-keyboard-response","13","172295","0.0-13.0","","img/set1/S4.jpg","83","4","structured_load","74","structured_load,random,structured_normal,structured_incentive","2,3,2,1,3,4","2,3,4,1","false","","",""
"null","","html-keyboard-response","14","172647","0.0-14.0","","<img src=""img/set1/S4.jpg"" width=""540"" height = ""360"">","null","","","","","","","","","",""
"null","","html-keyboard-response","15","172848","0.0-15.0","","","null","","","","","","","","","",""
"973.5","","image-keyboard-response","16","173823","0.0-16.0","","img/set1/S2.jpg","68","2","structured_load","68","structured_load,random,structured_normal,structured_incentive","2,3,2,1,3,4","2,3,4,1","true","","",""
"null","","html-keyboard-response","17","174180","0.0-17.0","","<img src=""img/set1/S2.jpg"" width=""540"" height = ""360"" style=""border:16px solid orange"">","null","","","","","","","","","",""
"null","","html-keyboard-response","18","174382","0.0-18.0","","","null","","","","","","","","","",""
"783.6999999992549","","image-keyboard-response","19","175167","0.0-19.0","","img/set1/S3.jpg","83","3","structured_load","72","structured_load,random,structured_normal,structured_incentive","2,3,2,1,3,4","2,3,4,1","false","","",""
"null","","html-keyboard-response","20","175520","0.0-20.0","","<img src=""img/set1/S3.jpg"" width=""540"" height = ""360"">","null","","","","","","","","","",""
"null","","html-keyboard-response","21","175721","0.0-21.0","","","null","","","","","","","","","",""
"837","","image-keyboard-response","22","176559","0.0-22.0","","img/set1/S1.jpg","68","1","structured_load","83","structured_load,random,structured_normal,structured_incentive","2,3,2,1,3,4","2,3,4,1","false","","",""
"null","","html-keyboard-response","23","176911","0.0-23.0","","<img src=""img/set1/S1.jpg"" width=""540"" height = ""360"">","null","","","","","","","","","",""
"null","","html-keyboard-response","24","177112","0.0-24.0","","","null","","","","","","","","","",""
"732.5","","image-keyboard-response","25","177845","0.0-25.0","","img/set1/S1.jpg","72","1","structured_load","83","structured_load,random,structured_normal,structured_incentive","2,3,2,1,3,4","2,3,4,1","false","","",""
"null","","html-keyboard-response","26","178198","0.0-26.0","","<img src=""img/set1/S1.jpg"" width=""540"" height = ""360"">","null","","","","","","","","","",""
"null","","html-keyboard-response","27","178400","0.0-27.0","","","null","","","","","","","","","",""
"502.5","","image-keyboard-response","28","178903","0.0-28.0","","img/set1/S1.jpg","74","1","structured_load","83","structured_load,random,structured_normal,structured_incentive","2,3,2,1,3,4","2,3,4,1","false","","",""
"null","","html-keyboard-response","29","179254","0.0-29.0","","<img src=""img/set1/S1.jpg"" width=""540"" height = ""360"">","null","","","","","","","","","",""
"null","","html-keyboard-response","30","179456","0.0-30.0","","","null","","","","","","","","","",""
"1073.2999999988824","","image-keyboard-response","31","180530","0.0-31.0","","img/set1/S2.jpg","68","2","structured_load","68","structured_load,random,structured_normal,structured_incentive","2,3,2,1,3,4","2,3,4,1","true","","",""
"null","","html-keyboard-response","32","180882","0.0-32.0","","<img src=""img/set1/S2.jpg"" width=""540"" height = ""360"" style=""border:16px solid orange"">","null","","","","","","","","","",""
"null","","html-keyboard-response","33","181083","0.0-33.0","","","null","","","","","","","","","",""
"706.8000000007451","","image-keyboard-response","34","181790","0.0-34.0","","img/set1/S3.jpg","68","3","structured_load","72","structured_load,random,structured_normal,structured_incentive","2,3,2,1,3,4","2,3,4,1","false","","",""
"null","","html-keyboard-response","35","182143","0.0-35.0","","<img src=""img/set1/S3.jpg"" width=""540"" height = ""360"">","null","","","","","","","","","",""
"null","","html-keyboard-response","36","182344","0.0-36.0","","","null","","","","","","","","","",""
"846.0999999996275","","image-keyboard-response","37","183191","0.0-37.0","","img/set1/S2.jpg","68","2","structured_load","68","structured_load,random,structured_normal,structured_incentive","2,3,2,1,3,4","2,3,4,1","true","","",""
"null","","html-keyboard-response","38","183542","0.0-38.0","","<img src=""img/set1/S2.jpg"" width=""540"" height = ""360"" style=""border:16px solid orange"">","null","","","","","","","","","",""
"null","","html-keyboard-response","39","183743","0.0-39.0","","","null","","","","","","","","","",""
"894.2000000011176","","image-keyboard-response","40","184638","0.0-40.0","","img/set1/S3.jpg","68","3","structured_load","72","structured_load,random,structured_normal,structured_incentive","2,3,2,1,3,4","2,3,4,1","false","","",""
"null","","html-keyboard-response","41","184990","0.0-41.0","","<img src=""img/set1/S3.jpg"" width=""540"" height = ""360"">","null","","","","","","","","","",""
"null","","html-keyboard-response","42","185191","0.0-42.0","","","null","","","","","","","","","",""
"638.5999999996275","","image-keyboard-response","43","185830","0.0-43.0","","img/set1/S2.jpg","68","2","structured_load","68","structured_load,random,structured_normal,structured_incentive","2,3,2,1,3,4","2,3,4,1","true","","",""
"null","","html-keyboard-response","44","186182","0.0-44.0","","<img src=""img/set1/S2.jpg"" width=""540"" height = ""360"" style=""border:16px solid orange"">","null","","","","","","","","","",""
"null","","html-keyboard-response","45","186384","0.0-45.0","","","null","","","","","","","","","",""
"533.5","","image-keyboard-response","46","186918","0.0-46.0","","img/set1/S3.jpg","83","3","structured_load","72","structured_load,random,structured_normal,structured_incentive","2,3,2,1,3,4","2,3,4,1","false","","",""
"null","","html-keyboard-response","47","187270","0.0-47.0","","<img src=""img/set1/S3.jpg"" width=""540"" height = ""360"">","null","","","","","","","","","",""
"null","","html-keyboard-response","48","187471","0.0-48.0","","","null","","","","","","","","","",""
"1007","","image-keyboard-response","49","188479","0.0-49.0","","img/set1/S4.jpg","83","4","structured_load","74","structured_load,random,structured_normal,structured_incentive","2,3,2,1,3,4","2,3,4,1","false","","",""
"null","","html-keyboard-response","50","188832","0.0-50.0","","<img src=""img/set1/S4.jpg"" width=""540"" height = ""360"">","null","","","","","","","","","",""
"null","","html-keyboard-response","51","189033","0.0-51.0","","","null","","","","","","","","","",""
"572.5999999996275","","image-keyboard-response","52","189606","0.0-52.0","","img/set1/S4.jpg","72","4","structured_load","74","structured_load,random,structured_normal,structured_incentive","2,3,2,1,3,4","2,3,4,1","false","","",""
"null","","html-keyboard-response","53","189958","0.0-53.0","","<img src=""img/set1/S4.jpg"" width=""540"" height = ""360"">","null","","","","","","","","","",""
"null","","html-keyboard-response","54","190160","0.0-54.0","","","null","","","","","","","","","",""
"918.2000000011176","","image-keyboard-response","55","191079","0.0-55.0","","img/set1/S1.jpg","83","1","structured_load","83","structured_load,random,structured_normal,structured_incentive","2,3,2,1,3,4","2,3,4,1","true","","",""
"null","","html-keyboard-response","56","191431","0.0-56.0","","<img src=""img/set1/S1.jpg"" width=""540"" height = ""360"" style=""border:16px solid orange"">","null","","","","","","","","","",""
"null","","html-keyboard-response","57","191632","0.0-57.0","","","null","","","","","","","","","",""
"600","","image-keyboard-response","58","192233","0.0-58.0","","img/set1/S2.jpg","68","2","structured_load","68","structured_load,random,structured_normal,structured_incentive","2,3,2,1,3,4","2,3,4,1","true","","",""
"null","","html-keyboard-response","59","192584","0.0-59.0","","<img src=""img/set1/S2.jpg"" width=""540"" height = ""360"" style=""border:16px solid orange"">","null","","","","","","","","","",""
"null","","html-keyboard-response","60","192786","0.0-60.0","","","null","","","","","","","","","",""
"1011.7000000011176","","image-keyboard-response","61","193798","0.0-61.0","","img/set1/S3.jpg","74","3","structured_load","72","structured_load,random,structured_normal,structured_incentive","2,3,2,1,3,4","2,3,4,1","false","","",""
"null","","html-keyboard-response","62","194150","0.0-62.0","","<img src=""img/set1/S3.jpg"" width=""540"" height = ""360"">","null","","","","","","","","","",""
"null","","html-keyboard-response","63","194352","0.0-63.0","","","null","","","","","","","","","",""
"1213.2000000011176","","image-keyboard-response","64","195566","0.0-64.0","","img/set1/S4.jpg","72","4","structured_load","74","structured_load,random,structured_normal,structured_incentive","2,3,2,1,3,4","2,3,4,1","false","","",""
"null","","html-keyboard-response","65","195918","0.0-65.0","","<img src=""img/set1/S4.jpg"" width=""540"" height = ""360"">","null","","","","","","","","","",""
"null","","html-keyboard-response","66","196119","0.0-66.0","","","null","","","","","","","","","",""
"1071.1000000014901","","image-keyboard-response","67","197191","0.0-67.0","","img/set1/S1.jpg","83","1","structured_load","83","structured_load,random,structured_normal,structured_incentive","2,3,2,1,3,4","2,3,4,1","true","","",""
"null","","html-keyboard-response","68","197543","0.0-68.0","","<img src=""img/set1/S1.jpg"" width=""540"" height = ""360"" style=""border:16px solid orange"">","null","","","","","","","","","",""
"null","","html-keyboard-response","69","197744","0.0-69.0","","","null","","","","","","","","","",""
"526.5","","image-keyboard-response","70","198271","0.0-70.0","","img/set1/S1.jpg","83","1","structured_load","83","structured_load,random,structured_normal,structured_incentive","2,3,2,1,3,4","2,3,4,1","true","","",""
"null","","html-keyboard-response","71","198623","0.0-71.0","","<img src=""img/set1/S1.jpg"" width=""540"" height = ""360"" style=""border:16px solid orange"">","null","","","","","","","","","",""
"null","","html-keyboard-response","72","198824","0.0-72.0","","","null","","","","","","","","","",""
"461.90000000037253","","image-keyboard-response","73","199286","0.0-73.0","","img/set1/S1.jpg","83","1","structured_load","83","structured_load,random,structured_normal,structured_incentive","2,3,2,1,3,4","2,3,4,1","true","","",""
"null","","html-keyboard-response","74","199638","0.0-74.0","","<img src=""img/set1/S1.jpg"" width=""540"" height = ""360"" style=""border:16px solid orange"">","null","","","","","","","","","",""
"null","","html-keyboard-response","75","199840","0.0-75.0","","","null","","","","","","","","","",""
"469.90000000037253","","image-keyboard-response","76","200311","0.0-76.0","","img/set1/S1.jpg","83","1","structured_load","83","structured_load,random,structured_normal,structured_incentive","2,3,2,1,3,4","2,3,4,1","true","","",""
"null","","html-keyboard-response","77","200663","0.0-77.0","","<img src=""img/set1/S1.jpg"" width=""540"" height = ""360"" style=""border:16px solid orange"">","null","","","","","","","","","",""
"null","","html-keyboard-response","78","200864","0.0-78.0","","","null","","","","","","","","","",""
"925.5999999996275","","image-keyboard-response","79","201790","0.0-79.0","","img/set1/S4.jpg","72","4","structured_load","74","structured_load,random,structured_normal,structured_incentive","2,3,2,1,3,4","2,3,4,1","false","","",""
"null","","html-keyboard-response","80","202142","0.0-80.0","","<img src=""img/set1/S4.jpg"" width=""540"" height = ""360"">","null","","","","","","","","","",""
"null","","html-keyboard-response","81","202345","0.0-81.0","","","null","","","","","","","","","",""
"644.2000000011176","","image-keyboard-response","82","202990","0.0-82.0","","img/set1/S2.jpg","68","2","structured_load","68","structured_load,random,structured_normal,structured_incentive","2,3,2,1,3,4","2,3,4,1","true","","",""
"null","","html-keyboard-response","83","203342","0.0-83.0","","<img src=""img/set1/S2.jpg"" width=""540"" height = ""360"" style=""border:16px solid orange"">","null","","","","","","","","","",""
"null","","html-keyboard-response","84","203545","0.0-84.0","","","null","","","","","","","","","",""
"533","","image-keyboard-response","85","204078","0.0-85.0","","img/set1/S3.jpg","68","3","structured_load","72","structured_load,random,structured_normal,structured_incentive","2,3,2,1,3,4","2,3,4,1","false","","",""
"null","","html-keyboard-response","86","204431","0.0-86.0","","<img src=""img/set1/S3.jpg"" width=""540"" height = ""360"">","null","","","","","","","","","",""
"null","","html-keyboard-response","87","204632","0.0-87.0","","","null","","","","","","","","","",""
"621.8000000007451","","image-keyboard-response","88","205255","0.0-88.0","","img/set1/S2.jpg","68","2","structured_load","68","structured_load,random,structured_normal,structured_incentive","2,3,2,1,3,4","2,3,4,1","true","","",""
"null","","html-keyboard-response","89","205606","0.0-89.0","","<img src=""img/set1/S2.jpg"" width=""540"" height = ""360"" style=""border:16px solid orange"">","null","","","","","","","","","",""
"null","","html-keyboard-response","90","205808","0.0-90.0","","","null","","","","","","","","","",""
"550.2000000011176","","image-keyboard-response","91","206359","0.0-91.0","","img/set1/S3.jpg","72","3","structured_load","72","structured_load,random,structured_normal,structured_incentive","2,3,2,1,3,4","2,3,4,1","true","","",""
"null","","html-keyboard-response","92","206711","0.0-92.0","","<img src=""img/set1/S3.jpg"" width=""540"" height = ""360"" style=""border:16px solid orange"">","null","","","","","","","","","",""
"null","","html-keyboard-response","93","206912","0.0-93.0","","","null","","","","","","","","","",""
"1333.5999999996275","","image-keyboard-response","94","208246","0.0-94.0","","img/set1/S4.jpg","68","4","structured_load","74","structured_load,random,structured_normal,structured_incentive","2,3,2,1,3,4","2,3,4,1","false","","",""
"null","","html-keyboard-response","95","208598","0.0-95.0","","<img src=""img/set1/S4.jpg"" width=""540"" height = ""360"">","null","","","","","","","","","",""
"null","","html-keyboard-response","96","208800","0.0-96.0","","","null","","","","","","","","","",""
"606.3000000007451","","image-keyboard-response","97","209407","0.0-97.0","","img/set1/S2.jpg","68","2","structured_load","68","structured_load,random,structured_normal,structured_incentive","2,3,2,1,3,4","2,3,4,1","true","","",""
"null","","html-keyboard-response","98","209759","0.0-98.0","","<img src=""img/set1/S2.jpg"" width=""540"" height = ""360"" style=""border:16px solid orange"">","null","","","","","","","","","",""
"null","","html-keyboard-response","99","209961","0.0-99.0","","","null","","","","","","","","","",""
"844.8000000007451","","image-keyboard-response","100","210806","0.0-100.0","","img/set1/S3.jpg","83","3","structured_load","72","structured_load,random,structured_normal,structured_incentive","2,3,2,1,3,4","2,3,4,1","false","","",""
"null","","html-keyboard-response","101","211158","0.0-101.0","","<img src=""img/set1/S3.jpg"" width=""540"" height = ""360"">","null","","","","","","","","","",""
"null","","html-keyboard-response","102","211360","0.0-102.0","","","null","","","","","","","","","",""
"1358","","image-keyboard-response","103","212719","0.0-103.0","","img/set1/S4.jpg","72","4","structured_load","74","structured_load,random,structured_normal,structured_incentive","2,3,2,1,3,4","2,3,4,1","false","","",""
"null","","html-keyboard-response","104","213071","0.0-104.0","","<img src=""img/set1/S4.jpg"" width=""540"" height = ""360"">","null","","","","","","","","","",""
"null","","html-keyboard-response","105","213272","0.0-105.0","","","null","","","","","","","","","",""
"502","","image-keyboard-response","106","213775","0.0-106.0","","img/set1/S2.jpg","68","2","structured_load","68","structured_load,random,structured_normal,structured_incentive","2,3,2,1,3,4","2,3,4,1","true","","",""
"null","","html-keyboard-response","107","214126","0.0-107.0","","<img src=""img/set1/S2.jpg"" width=""540"" height = ""360"" style=""border:16px solid orange"">","null","","","","","","","","","",""
"null","","html-keyboard-response","108","214327","0.0-108.0","","","null","","","","","","","","","",""
"1390.5","","image-keyboard-response","109","215719","0.0-109.0","","img/set1/S3.jpg","74","3","structured_load","72","structured_load,random,structured_normal,structured_incentive","2,3,2,1,3,4","2,3,4,1","false","","",""
"null","","html-keyboard-response","110","216070","0.0-110.0","","<img src=""img/set1/S3.jpg"" width=""540"" height = ""360"">","null","","","","","","","","","",""
"null","","html-keyboard-response","111","216271","0.0-111.0","","","null","","","","","","","","","",""
"542.7000000011176","","image-keyboard-response","112","216815","0.0-112.0","","img/set1/S2.jpg","68","2","structured_load","68","structured_load,random,structured_normal,structured_incentive","2,3,2,1,3,4","2,3,4,1","true","","",""
"null","","html-keyboard-response","113","217167","0.0-113.0","","<img src=""img/set1/S2.jpg"" width=""540"" height = ""360"" style=""border:16px solid orange"">","null","","","","","","","","","",""
"null","","html-keyboard-response","114","217368","0.0-114.0","","","null","","","","","","","","","",""
"965.3000000007451","","image-keyboard-response","115","218335","0.0-115.0","","img/set1/S3.jpg","83","3","structured_load","72","structured_load,random,structured_normal,structured_incentive","2,3,2,1,3,4","2,3,4,1","false","","",""
"null","","html-keyboard-response","116","218687","0.0-116.0","","<img src=""img/set1/S3.jpg"" width=""540"" height = ""360"">","null","","","","","","","","","",""
"null","","html-keyboard-response","117","218889","0.0-117.0","","","null","","","","","","","","","",""
"540.9000000003725","","image-keyboard-response","118","219430","0.0-118.0","","img/set1/S2.jpg","68","2","structured_load","68","structured_load,random,structured_normal,structured_incentive","2,3,2,1,3,4","2,3,4,1","true","","",""
"null","","html-keyboard-response","119","219782","0.0-119.0","","<img src=""img/set1/S2.jpg"" width=""540"" height = ""360"" style=""border:16px solid orange"">","null","","","","","","","","","",""
"null","","html-keyboard-response","120","219983","0.0-120.0","","","null","","","","","","","","","",""
"542.0999999996275","","image-keyboard-response","121","220526","0.0-121.0","","img/set1/S3.jpg","72","3","structured_load","72","structured_load,random,structured_normal,structured_incentive","2,3,2,1,3,4","2,3,4,1","true","","",""
"null","","html-keyboard-response","122","220879","0.0-122.0","","<img src=""img/set1/S3.jpg"" width=""540"" height = ""360"" style=""border:16px solid orange"">","null","","","","","","","","","",""
"null","","html-keyboard-response","123","221080","0.0-123.0","","","null","","","","","","","","","",""
"773.4000000003725","","image-keyboard-response","124","221854","0.0-124.0","","img/set1/S1.jpg","83","1","structured_load","83","structured_load,random,structured_normal,structured_incentive","2,3,2,1,3,4","2,3,4,1","true","","",""
"null","","html-keyboard-response","125","222206","0.0-125.0","","<img src=""img/set1/S1.jpg"" width=""540"" height = ""360"" style=""border:16px solid orange"">","null","","","","","","","","","",""
"null","","html-keyboard-response","126","222407","0.0-126.0","","","null","","","","","","","","","",""
"766.7000000011176","","image-keyboard-response","127","223174","0.0-127.0","","img/set1/S4.jpg","72","4","structured_load","74","structured_load,random,structured_normal,structured_incentive","2,3,2,1,3,4","2,3,4,1","false","","",""
"null","","html-keyboard-response","128","223536","0.0-128.0","","<img src=""img/set1/S4.jpg"" width=""540"" height = ""360"">","null","","","","","","","","","",""
"null","","html-keyboard-response","129","223737","0.0-129.0","","","null","","","","","","","","","",""
"780.1999999992549","","image-keyboard-response","130","224518","0.0-130.0","","img/set1/S1.jpg","83","1","structured_load","83","structured_load,random,structured_normal,structured_incentive","2,3,2,1,3,4","2,3,4,1","true","","",""
"null","","html-keyboard-response","131","224870","0.0-131.0","","<img src=""img/set1/S1.jpg"" width=""540"" height = ""360"" style=""border:16px solid orange"">","null","","","","","","","","","",""
"null","","html-keyboard-response","132","225071","0.0-132.0","","","null","","","","","","","","","",""
"567.3000000007451","","image-keyboard-response","133","225639","0.0-133.0","","img/set1/S2.jpg","68","2","structured_load","68","structured_load,random,structured_normal,structured_incentive","2,3,2,1,3,4","2,3,4,1","true","","",""
"null","","html-keyboard-response","134","225991","0.0-134.0","","<img src=""img/set1/S2.jpg"" width=""540"" height = ""360"" style=""border:16px solid orange"">","null","","","","","","","","","",""
"null","","html-keyboard-response","135","226191","0.0-135.0","","","null","","","","","","","","","",""
"550.2999999988824","","image-keyboard-response","136","226743","0.0-136.0","","img/set1/S3.jpg","74","3","structured_load","72","structured_load,random,structured_normal,structured_incentive","2,3,2,1,3,4","2,3,4,1","false","","",""
"null","","html-keyboard-response","137","227095","0.0-137.0","","<img src=""img/set1/S3.jpg"" width=""540"" height = ""360"">","null","","","","","","","","","",""
"null","","html-keyboard-response","138","227295","0.0-138.0","","","null","","","","","","","","","",""
"894.0999999996275","","image-keyboard-response","139","228190","0.0-139.0","","img/set1/S4.jpg","72","4","structured_load","74","structured_load,random,structured_normal,structured_incentive","2,3,2,1,3,4","2,3,4,1","false","","",""
"null","","html-keyboard-response","140","228542","0.0-140.0","","<img src=""img/set1/S4.jpg"" width=""540"" height = ""360"">","null","","","","","","","","","",""
"null","","html-keyboard-response","141","228744","0.0-141.0","","","null","","","","","","","","","",""
"637.8000000007451","","image-keyboard-response","142","229383","0.0-142.0","","img/set1/S2.jpg","68","2","structured_load","68","structured_load,random,structured_normal,structured_incentive","2,3,2,1,3,4","2,3,4,1","true","","",""
"null","","html-keyboard-response","143","229734","0.0-143.0","","<img src=""img/set1/S2.jpg"" width=""540"" height = ""360"" style=""border:16px solid orange"">","null","","","","","","","","","",""
"null","","html-keyboard-response","144","229935","0.0-144.0","","","null","","","","","","","","","",""
"1086.300000000745","","image-keyboard-response","145","231022","0.0-145.0","","img/set1/S3.jpg","72","3","structured_load","72","structured_load,random,structured_normal,structured_incentive","2,3,2,1,3,4","2,3,4,1","true","","",""
"null","","html-keyboard-response","146","231375","0.0-146.0","","<img src=""img/set1/S3.jpg"" width=""540"" height = ""360"" style=""border:16px solid orange"">","null","","","","","","","","","",""
"null","","html-keyboard-response","147","231576","0.0-147.0","","","null","","","","","","","","","",""
"645.6000000014901","","image-keyboard-response","148","232223","0.0-148.0","","img/set1/S2.jpg","68","2","structured_load","68","structured_load,random,structured_normal,structured_incentive","2,3,2,1,3,4","2,3,4,1","true","","",""
"null","","html-keyboard-response","149","232575","0.0-149.0","","<img src=""img/set1/S2.jpg"" width=""540"" height = ""360"" style=""border:16px solid orange"">","null","","","","","","","","","",""
"null","","html-keyboard-response","150","232776","0.0-150.0","","","null","","","","","","","","","",""
"757.5999999996275","","image-keyboard-response","151","233534","0.0-151.0","","img/set1/S3.jpg","83","3","structured_load","72","structured_load,random,structured_normal,structured_incentive","2,3,2,1,3,4","2,3,4,1","false","","",""
"null","","html-keyboard-response","152","233886","0.0-152.0","","<img src=""img/set1/S3.jpg"" width=""540"" height = ""360"">","null","","","","","","","","","",""
"null","","html-keyboard-response","153","234088","0.0-153.0","","","null","","","","","","","","","",""
"1261.9000000003725","","image-keyboard-response","154","235350","0.0-154.0","","img/set1/S4.jpg","83","4","structured_load","74","structured_load,random,structured_normal,structured_incentive","2,3,2,1,3,4","2,3,4,1","false","","",""
"null","","html-keyboard-response","155","235703","0.0-155.0","","<img src=""img/set1/S4.jpg"" width=""540"" height = ""360"">","null","","","","","","","","","",""
"null","","html-keyboard-response","156","235904","0.0-156.0","","","null","","","","","","","","","",""
"525.5999999996275","","image-keyboard-response","157","236430","0.0-157.0","","img/set1/S4.jpg","68","4","structured_load","74","structured_load,random,structured_normal,structured_incentive","2,3,2,1,3,4","2,3,4,1","false","","",""
"null","","html-keyboard-response","158","236781","0.0-158.0","","<img src=""img/set1/S4.jpg"" width=""540"" height = ""360"">","null","","","","","","","","","",""
"null","","html-keyboard-response","159","236983","0.0-159.0","","","null","","","","","","","","","",""
"599.0999999996275","","image-keyboard-response","160","237583","0.0-160.0","","img/set1/S1.jpg","83","1","structured_load","83","structured_load,random,structured_normal,structured_incentive","2,3,2,1,3,4","2,3,4,1","true","","",""
"null","","html-keyboard-response","161","237935","0.0-161.0","","<img src=""img/set1/S1.jpg"" width=""540"" height = ""360"" style=""border:16px solid orange"">","null","","","","","","","","","",""
"null","","html-keyboard-response","162","238136","0.0-162.0","","","null","","","","","","","","","",""
"517.5","","image-keyboard-response","163","238655","0.0-163.0","","img/set1/S1.jpg","83","1","structured_load","83","structured_load,random,structured_normal,structured_incentive","2,3,2,1,3,4","2,3,4,1","true","","",""
"null","","html-keyboard-response","164","239007","0.0-164.0","","<img src=""img/set1/S1.jpg"" width=""540"" height = ""360"" style=""border:16px solid orange"">","null","","","","","","","","","",""
"null","","html-keyboard-response","165","239208","0.0-165.0","","","null","","","","","","","","","",""
"1053.7000000011176","","image-keyboard-response","166","240262","0.0-166.0","","img/set1/S4.jpg","72","4","structured_load","74","structured_load,random,structured_normal,structured_incentive","2,3,2,1,3,4","2,3,4,1","false","","",""
"null","","html-keyboard-response","167","240614","0.0-167.0","","<img src=""img/set1/S4.jpg"" width=""540"" height = ""360"">","null","","","","","","","","","",""
"null","","html-keyboard-response","168","240815","0.0-168.0","","","null","","","","","","","","","",""
"621.9000000003725","","image-keyboard-response","169","241438","0.0-169.0","","img/set1/S1.jpg","68","1","structured_load","83","structured_load,random,structured_normal,structured_incentive","2,3,2,1,3,4","2,3,4,1","false","","",""
"null","","html-keyboard-response","170","241790","0.0-170.0","","<img src=""img/set1/S1.jpg"" width=""540"" height = ""360"">","null","","","","","","","","","",""
"null","","html-keyboard-response","171","241992","0.0-171.0","","","null","","","","","","","","","",""
"668.8000000007451","","image-keyboard-response","172","242662","0.0-172.0","","img/set1/S1.jpg","83","1","structured_load","83","structured_load,random,structured_normal,structured_incentive","2,3,2,1,3,4","2,3,4,1","true","","",""
"null","","html-keyboard-response","173","243013","0.0-173.0","","<img src=""img/set1/S1.jpg"" width=""540"" height = ""360"" style=""border:16px solid orange"">","null","","","","","","","","","",""
"null","","html-keyboard-response","174","243215","0.0-174.0","","","null","","","","","","","","","",""
"933.8000000007451","","image-keyboard-response","175","244150","0.0-175.0","","img/set1/S4.jpg","74","4","structured_load","74","structured_load,random,structured_normal,structured_incentive","2,3,2,1,3,4","2,3,4,1","true","","",""
"null","","html-keyboard-response","176","244502","0.0-176.0","","<img src=""img/set1/S4.jpg"" width=""540"" height = ""360"" style=""border:16px solid orange"">","null","","","","","","","","","",""
"null","","html-keyboard-response","177","244703","0.0-177.0","","","null","","","","","","","","","",""
"685.7000000011176","","image-keyboard-response","178","245390","0.0-178.0","","img/set1/S1.jpg","83","1","structured_load","83","structured_load,random,structured_normal,structured_incentive","2,3,2,1,3,4","2,3,4,1","true","","",""
"null","","html-keyboard-response","179","245742","0.0-179.0","","<img src=""img/set1/S1.jpg"" width=""540"" height = ""360"" style=""border:16px solid orange"">","null","","","","","","","","","",""
"null","","html-keyboard-response","180","245943","0.0-180.0","","","null","","","","","","","","","",""
"621.8000000007451","","image-keyboard-response","181","246566","0.0-181.0","","img/set1/S2.jpg","68","2","structured_load","68","structured_load,random,structured_normal,structured_incentive","2,3,2,1,3,4","2,3,4,1","true","","",""
"null","","html-keyboard-response","182","246918","0.0-182.0","","<img src=""img/set1/S2.jpg"" width=""540"" height = ""360"" style=""border:16px solid orange"">","null","","","","","","","","","",""
"null","","html-keyboard-response","183","247119","0.0-183.0","","","null","","","","","","","","","",""
"1174","","image-keyboard-response","184","248294","0.0-184.0","","img/set1/S3.jpg","72","3","structured_load","72","structured_load,random,structured_normal,structured_incentive","2,3,2,1,3,4","2,3,4,1","true","","",""
"null","","html-keyboard-response","185","248646","0.0-185.0","","<img src=""img/set1/S3.jpg"" width=""540"" height = ""360"" style=""border:16px solid orange"">","null","","","","","","","","","",""
"null","","html-keyboard-response","186","248847","0.0-186.0","","","null","","","","","","","","","",""
"734.2999999988824","","image-keyboard-response","187","249582","0.0-187.0","","img/set1/S1.jpg","83","1","structured_load","83","structured_load,random,structured_normal,structured_incentive","2,3,2,1,3,4","2,3,4,1","true","","",""
"null","","html-keyboard-response","188","249935","0.0-188.0","","<img src=""img/set1/S1.jpg"" width=""540"" height = ""360"" style=""border:16px solid orange"">","null","","","","","","","","","",""
"null","","html-keyboard-response","189","250136","0.0-189.0","","","null","","","","","","","","","",""
"541.4000000003725","","image-keyboard-response","190","250678","0.0-190.0","","img/set1/S1.jpg","83","1","structured_load","83","structured_load,random,structured_normal,structured_incentive","2,3,2,1,3,4","2,3,4,1","true","","",""
"null","","html-keyboard-response","191","251031","0.0-191.0","","<img src=""img/set1/S1.jpg"" width=""540"" height = ""360"" style=""border:16px solid orange"">","null","","","","","","","","","",""
"null","","html-keyboard-response","192","251232","0.0-192.0","","","null","","","","","","","","","",""
"413.30000000074506","","image-keyboard-response","193","251646","0.0-193.0","","img/set1/S1.jpg","83","1","structured_load","83","structured_load,random,structured_normal,structured_incentive","2,3,2,1,3,4","2,3,4,1","true","","",""
"null","","html-keyboard-response","194","251998","0.0-194.0","","<img src=""img/set1/S1.jpg"" width=""540"" height = ""360"" style=""border:16px solid orange"">","null","","","","","","","","","",""
"null","","html-keyboard-response","195","252200","0.0-195.0","","","null","","","","","","","","","",""
"381","","image-keyboard-response","196","252582","0.0-196.0","","img/set1/S1.jpg","83","1","structured_load","83","structured_load,random,structured_normal,structured_incentive","2,3,2,1,3,4","2,3,4,1","true","","",""
"null","","html-keyboard-response","197","252933","0.0-197.0","","<img src=""img/set1/S1.jpg"" width=""540"" height = ""360"" style=""border:16px solid orange"">","null","","","","","","","","","",""
"null","","html-keyboard-response","198","253134","0.0-198.0","","","null","","","","","","","","","",""
"766.9000000003725","","image-keyboard-response","199","253902","0.0-199.0","","img/set1/S4.jpg","74","4","structured_load","74","structured_load,random,structured_normal,structured_incentive","2,3,2,1,3,4","2,3,4,1","true","","",""
"null","","html-keyboard-response","200","254256","0.0-200.0","","<img src=""img/set1/S4.jpg"" width=""540"" height = ""360"" style=""border:16px solid orange"">","null","","","","","","","","","",""
"null","","html-keyboard-response","201","254458","0.0-201.0","","","null","","","","","","","","","",""
"491.19999999925494","","image-keyboard-response","202","254950","0.0-202.0","","img/set1/S4.jpg","74","4","structured_load","74","structured_load,random,structured_normal,structured_incentive","2,3,2,1,3,4","2,3,4,1","true","","",""
"null","","html-keyboard-response","203","255302","0.0-203.0","","<img src=""img/set1/S4.jpg"" width=""540"" height = ""360"" style=""border:16px solid orange"">","null","","","","","","","","","",""
"null","","html-keyboard-response","204","255503","0.0-204.0","","","null","","","","","","","","","",""
"702.3000000007451","","image-keyboard-response","205","256206","0.0-205.0","","img/set1/S1.jpg","83","1","structured_load","83","structured_load,random,structured_normal,structured_incentive","2,3,2,1,3,4","2,3,4,1","true","","",""
"null","","html-keyboard-response","206","256558","0.0-206.0","","<img src=""img/set1/S1.jpg"" width=""540"" height = ""360"" style=""border:16px solid orange"">","null","","","","","","","","","",""
"null","","html-keyboard-response","207","256759","0.0-207.0","","","null","","","","","","","","","",""
"557.5","","image-keyboard-response","208","257318","0.0-208.0","","img/set1/S2.jpg","68","2","structured_load","68","structured_load,random,structured_normal,structured_incentive","2,3,2,1,3,4","2,3,4,1","true","","",""
"null","","html-keyboard-response","209","257670","0.0-209.0","","<img src=""img/set1/S2.jpg"" width=""540"" height = ""360"" style=""border:16px solid orange"">","null","","","","","","","","","",""
"null","","html-keyboard-response","210","257871","0.0-210.0","","","null","","","","","","","","","",""
"798.1999999992549","","image-keyboard-response","211","258670","0.0-211.0","","img/set1/S3.jpg","72","3","structured_load","72","structured_load,random,structured_normal,structured_incentive","2,3,2,1,3,4","2,3,4,1","true","","",""
"null","","html-keyboard-response","212","259023","0.0-212.0","","<img src=""img/set1/S3.jpg"" width=""540"" height = ""360"" style=""border:16px solid orange"">","null","","","","","","","","","",""
"null","","html-keyboard-response","213","259223","0.0-213.0","","","null","","","","","","","","","",""
"637.7000000011176","","image-keyboard-response","214","259862","0.0-214.0","","img/set1/S2.jpg","68","2","structured_load","68","structured_load,random,structured_normal,structured_incentive","2,3,2,1,3,4","2,3,4,1","true","","",""
"null","","html-keyboard-response","215","260214","0.0-215.0","","<img src=""img/set1/S2.jpg"" width=""540"" height = ""360"" style=""border:16px solid orange"">","null","","","","","","","","","",""
"null","","html-keyboard-response","216","260415","0.0-216.0","","","null","","","","","","","","","",""
"966","","image-keyboard-response","217","261382","0.0-217.0","","img/set1/S3.jpg","72","3","structured_load","72","structured_load,random,structured_normal,structured_incentive","2,3,2,1,3,4","2,3,4,1","true","","",""
"null","","html-keyboard-response","218","261734","0.0-218.0","","<img src=""img/set1/S3.jpg"" width=""540"" height = ""360"" style=""border:16px solid orange"">","null","","","","","","","","","",""
"null","","html-keyboard-response","219","261934","0.0-219.0","","","null","","","","","","","","","",""
"537.3000000007451","","image-keyboard-response","220","262473","0.0-220.0","","img/set1/S2.jpg","68","2","structured_load","68","structured_load,random,structured_normal,structured_incentive","2,3,2,1,3,4","2,3,4,1","true","","",""
"null","","html-keyboard-response","221","262825","0.0-221.0","","<img src=""img/set1/S2.jpg"" width=""540"" height = ""360"" style=""border:16px solid orange"">","null","","","","","","","","","",""
"null","","html-keyboard-response","222","263026","0.0-222.0","","","null","","","","","","","","","",""
"866.7000000011176","","image-keyboard-response","223","263894","0.0-223.0","","img/set1/S3.jpg","72","3","structured_load","72","structured_load,random,structured_normal,structured_incentive","2,3,2,1,3,4","2,3,4,1","true","","",""
"null","","html-keyboard-response","224","264245","0.0-224.0","","<img src=""img/set1/S3.jpg"" width=""540"" height = ""360"" style=""border:16px solid orange"">","null","","","","","","","","","",""
"null","","html-keyboard-response","225","264447","0.0-225.0","","","null","","","","","","","","","",""
"637.5","","image-keyboard-response","226","265086","0.0-226.0","","img/set1/S1.jpg","83","1","structured_load","83","structured_load,random,structured_normal,structured_incentive","2,3,2,1,3,4","2,3,4,1","true","","",""
"null","","html-keyboard-response","227","265438","0.0-227.0","","<img src=""img/set1/S1.jpg"" width=""540"" height = ""360"" style=""border:16px solid orange"">","null","","","","","","","","","",""
"null","","html-keyboard-response","228","265640","0.0-228.0","","","null","","","","","","","","","",""
"405.19999999925494","","image-keyboard-response","229","266046","0.0-229.0","","img/set1/S1.jpg","83","1","structured_load","83","structured_load,random,structured_normal,structured_incentive","2,3,2,1,3,4","2,3,4,1","true","","",""
"null","","html-keyboard-response","230","266398","0.0-230.0","","<img src=""img/set1/S1.jpg"" width=""540"" height = ""360"" style=""border:16px solid orange"">","null","","","","","","","","","",""
"null","","html-keyboard-response","231","266600","0.0-231.0","","","null","","","","","","","","","",""
"772.3000000007451","","image-keyboard-response","232","267373","0.0-232.0","","img/set1/S4.jpg","74","4","structured_load","74","structured_load,random,structured_normal,structured_incentive","2,3,2,1,3,4","2,3,4,1","true","","",""
"null","","html-keyboard-response","233","267733","0.0-233.0","","<img src=""img/set1/S4.jpg"" width=""540"" height = ""360"" style=""border:16px solid orange"">","null","","","","","","","","","",""
"null","","html-keyboard-response","234","267935","0.0-234.0","","","null","","","","","","","","","",""
"733.8000000007451","","image-keyboard-response","235","268670","0.0-235.0","","img/set1/S1.jpg","83","1","structured_load","83","structured_load,random,structured_normal,structured_incentive","2,3,2,1,3,4","2,3,4,1","true","","",""
"null","","html-keyboard-response","236","269021","0.0-236.0","","<img src=""img/set1/S1.jpg"" width=""540"" height = ""360"" style=""border:16px solid orange"">","null","","","","","","","","","",""
"null","","html-keyboard-response","237","269222","0.0-237.0","","","null","","","","","","","","","",""
"574.3000000007451","","image-keyboard-response","238","269798","0.0-238.0","","img/set1/S1.jpg","83","1","structured_load","83","structured_load,random,structured_normal,structured_incentive","2,3,2,1,3,4","2,3,4,1","true","","",""
"null","","html-keyboard-response","239","270150","0.0-239.0","","<img src=""img/set1/S1.jpg"" width=""540"" height = ""360"" style=""border:16px solid orange"">","null","","","","","","","","","",""
"null","","html-keyboard-response","240","270351","0.0-240.0","","","null","","","","","","","","","",""
"797.5","","image-keyboard-response","241","271150","0.0-241.0","","img/set1/S4.jpg","74","4","structured_load","74","structured_load,random,structured_normal,structured_incentive","2,3,2,1,3,4","2,3,4,1","true","","",""
"null","","html-keyboard-response","242","271502","0.0-242.0","","<img src=""img/set1/S4.jpg"" width=""540"" height = ""360"" style=""border:16px solid orange"">","null","","","","","","","","","",""
"null","","html-keyboard-response","243","271704","0.0-243.0","","","null","","","","","","","","","",""
"445.2000000011176","","image-keyboard-response","244","272150","0.0-244.0","","img/set1/S4.jpg","74","4","structured_load","74","structured_load,random,structured_normal,structured_incentive","2,3,2,1,3,4","2,3,4,1","true","","",""
"null","","html-keyboard-response","245","272502","0.0-245.0","","<img src=""img/set1/S4.jpg"" width=""540"" height = ""360"" style=""border:16px solid orange"">","null","","","","","","","","","",""
"null","","html-keyboard-response","246","272704","0.0-246.0","","","null","","","","","","","","","",""
"412.90000000037253","","image-keyboard-response","247","273118","0.0-247.0","","img/set1/S4.jpg","74","4","structured_load","74","structured_load,random,structured_normal,structured_incentive","2,3,2,1,3,4","2,3,4,1","true","","",""
"null","","html-keyboard-response","248","273470","0.0-248.0","","<img src=""img/set1/S4.jpg"" width=""540"" height = ""360"" style=""border:16px solid orange"">","null","","","","","","","","","",""
"null","","html-keyboard-response","249","273671","0.0-249.0","","","null","","","","","","","","","",""
"597.7000000011176","","image-keyboard-response","250","274270","0.0-250.0","","img/set1/S2.jpg","68","2","structured_load","68","structured_load,random,structured_normal,structured_incentive","2,3,2,1,3,4","2,3,4,1","true","","",""
"null","","html-keyboard-response","251","274621","0.0-251.0","","<img src=""img/set1/S2.jpg"" width=""540"" height = ""360"" style=""border:16px solid orange"">","null","","","","","","","","","",""
"null","","html-keyboard-response","252","274823","0.0-252.0","","","null","","","","","","","","","",""
"822.2000000011176","","image-keyboard-response","253","275646","0.0-253.0","","img/set1/S3.jpg","72","3","structured_load","72","structured_load,random,structured_normal,structured_incentive","2,3,2,1,3,4","2,3,4,1","true","","",""
"null","","html-keyboard-response","254","275997","0.0-254.0","","<img src=""img/set1/S3.jpg"" width=""540"" height = ""360"" style=""border:16px solid orange"">","null","","","","","","","","","",""
"null","","html-keyboard-response","255","276199","0.0-255.0","","","null","","","","","","","","","",""
"749.3000000007451","","image-keyboard-response","256","276950","0.0-256.0","","img/set1/S4.jpg","74","4","structured_load","74","structured_load,random,structured_normal,structured_incentive","2,3,2,1,3,4","2,3,4,1","true","","",""
"null","","html-keyboard-response","257","277302","0.0-257.0","","<img src=""img/set1/S4.jpg"" width=""540"" height = ""360"" style=""border:16px solid orange"">","null","","","","","","","","","",""
"null","","html-keyboard-response","258","277504","0.0-258.0","","","null","","","","","","","","","",""
"653.4000000003725","","image-keyboard-response","259","278158","0.0-259.0","","img/set1/S2.jpg","68","2","structured_load","68","structured_load,random,structured_normal,structured_incentive","2,3,2,1,3,4","2,3,4,1","true","","",""
"null","","html-keyboard-response","260","278510","0.0-260.0","","<img src=""img/set1/S2.jpg"" width=""540"" height = ""360"" style=""border:16px solid orange"">","null","","","","","","","","","",""
"null","","html-keyboard-response","261","278712","0.0-261.0","","","null","","","","","","","","","",""
"669.0999999996275","","image-keyboard-response","262","279382","0.0-262.0","","img/set1/S3.jpg","74","3","structured_load","72","structured_load,random,structured_normal,structured_incentive","2,3,2,1,3,4","2,3,4,1","false","","",""
"null","","html-keyboard-response","263","279733","0.0-263.0","","<img src=""img/set1/S3.jpg"" width=""540"" height = ""360"">","null","","","","","","","","","",""
"null","","html-keyboard-response","264","279935","0.0-264.0","","","null","","","","","","","","","",""
"1005.7000000011176","","image-keyboard-response","265","280942","0.0-265.0","","img/set1/S2.jpg","68","2","structured_load","68","structured_load,random,structured_normal,structured_incentive","2,3,2,1,3,4","2,3,4,1","true","","",""
"null","","html-keyboard-response","266","281293","0.0-266.0","","<img src=""img/set1/S2.jpg"" width=""540"" height = ""360"" style=""border:16px solid orange"">","null","","","","","","","","","",""
"null","","html-keyboard-response","267","281495","0.0-267.0","","","null","","","","","","","","","",""
"614.0999999996275","","image-keyboard-response","268","282110","0.0-268.0","","img/set1/S3.jpg","72","3","structured_load","72","structured_load,random,structured_normal,structured_incentive","2,3,2,1,3,4","2,3,4,1","true","","",""
"null","","html-keyboard-response","269","282462","0.0-269.0","","<img src=""img/set1/S3.jpg"" width=""540"" height = ""360"" style=""border:16px solid orange"">","null","","","","","","","","","",""
"null","","html-keyboard-response","270","282663","0.0-270.0","","","null","","","","","","","","","",""
"742.2999999988824","","image-keyboard-response","271","283406","0.0-271.0","","img/set1/S4.jpg","74","4","structured_load","74","structured_load,random,structured_normal,structured_incentive","2,3,2,1,3,4","2,3,4,1","true","","",""
"null","","html-keyboard-response","272","283758","0.0-272.0","","<img src=""img/set1/S4.jpg"" width=""540"" height = ""360"" style=""border:16px solid orange"">","null","","","","","","","","","",""
"null","","html-keyboard-response","273","283959","0.0-273.0","","","null","","","","","","","","","",""
"494.3999999985099","","image-keyboard-response","274","284454","0.0-274.0","","img/set1/S4.jpg","74","4","structured_load","74","structured_load,random,structured_normal,structured_incentive","2,3,2,1,3,4","2,3,4,1","true","","",""
"null","","html-keyboard-response","275","284806","0.0-275.0","","<img src=""img/set1/S4.jpg"" width=""540"" height = ""360"" style=""border:16px solid orange"">","null","","","","","","","","","",""
"null","","html-keyboard-response","276","285007","0.0-276.0","","","null","","","","","","","","","",""
"430","","image-keyboard-response","277","285438","0.0-277.0","","img/set1/S4.jpg","74","4","structured_load","74","structured_load,random,structured_normal,structured_incentive","2,3,2,1,3,4","2,3,4,1","true","","",""
"null","","html-keyboard-response","278","285791","0.0-278.0","","<img src=""img/set1/S4.jpg"" width=""540"" height = ""360"" style=""border:16px solid orange"">","null","","","","","","","","","",""
"null","","html-keyboard-response","279","285992","0.0-279.0","","","null","","","","","","","","","",""
"373.5","","image-keyboard-response","280","286366","0.0-280.0","","img/set1/S4.jpg","74","4","structured_load","74","structured_load,random,structured_normal,structured_incentive","2,3,2,1,3,4","2,3,4,1","true","","",""
"null","","html-keyboard-response","281","286719","0.0-281.0","","<img src=""img/set1/S4.jpg"" width=""540"" height = ""360"" style=""border:16px solid orange"">","null","","","","","","","","","",""
"null","","html-keyboard-response","282","286920","0.0-282.0","","","null","","","","","","","","","",""
"565.6000000014901","","image-keyboard-response","283","287486","0.0-283.0","","img/set1/S2.jpg","68","2","structured_load","68","structured_load,random,structured_normal,structured_incentive","2,3,2,1,3,4","2,3,4,1","true","","",""
"null","","html-keyboard-response","284","287838","0.0-284.0","","<img src=""img/set1/S2.jpg"" width=""540"" height = ""360"" style=""border:16px solid orange"">","null","","","","","","","","","",""
"null","","html-keyboard-response","285","288040","0.0-285.0","","","null","","","","","","","","","",""
"837","","image-keyboard-response","286","288878","0.0-286.0","","img/set1/S3.jpg","74","3","structured_load","72","structured_load,random,structured_normal,structured_incentive","2,3,2,1,3,4","2,3,4,1","false","","",""
"null","","html-keyboard-response","287","289230","0.0-287.0","","<img src=""img/set1/S3.jpg"" width=""540"" height = ""360"">","null","","","","","","","","","",""
"null","","html-keyboard-response","288","289432","0.0-288.0","","","null","","","","","","","","","",""
"532.8000000007451","","image-keyboard-response","289","289966","0.0-289.0","","img/set1/S2.jpg","68","2","structured_load","68","structured_load,random,structured_normal,structured_incentive","2,3,2,1,3,4","2,3,4,1","true","","",""
"null","","html-keyboard-response","290","290318","0.0-290.0","","<img src=""img/set1/S2.jpg"" width=""540"" height = ""360"" style=""border:16px solid orange"">","null","","","","","","","","","",""
"null","","html-keyboard-response","291","290520","0.0-291.0","","","null","","","","","","","","","",""
"413.2000000011176","","image-keyboard-response","292","290934","0.0-292.0","","img/set1/S3.jpg","72","3","structured_load","72","structured_load,random,structured_normal,structured_incentive","2,3,2,1,3,4","2,3,4,1","true","","",""
"null","","html-keyboard-response","293","291285","0.0-293.0","","<img src=""img/set1/S3.jpg"" width=""540"" height = ""360"" style=""border:16px solid orange"">","null","","","","","","","","","",""
"null","","html-keyboard-response","294","291486","0.0-294.0","","","null","","","","","","","","","",""
"654.2000000011176","","image-keyboard-response","295","292142","0.0-295.0","","img/set1/S1.jpg","83","1","structured_load","83","structured_load,random,structured_normal,structured_incentive","2,3,2,1,3,4","2,3,4,1","true","","",""
"null","","html-keyboard-response","296","292494","0.0-296.0","","<img src=""img/set1/S1.jpg"" width=""540"" height = ""360"" style=""border:16px solid orange"">","null","","","","","","","","","",""
"null","","html-keyboard-response","297","292695","0.0-297.0","","","null","","","","","","","","","",""
"367.19999999925494","","image-keyboard-response","298","293063","0.0-298.0","","img/set1/S1.jpg","83","1","structured_load","83","structured_load,random,structured_normal,structured_incentive","2,3,2,1,3,4","2,3,4,1","true","","",""
"null","","html-keyboard-response","299","293415","0.0-299.0","","<img src=""img/set1/S1.jpg"" width=""540"" height = ""360"" style=""border:16px solid orange"">","null","","","","","","","","","",""
"null","","html-keyboard-response","300","293616","0.0-300.0","","","null","","","","","","","","","",""
"332.5","","image-keyboard-response","301","293950","0.0-301.0","","img/set1/S2.jpg","83","2","structured_load","68","structured_load,random,structured_normal,structured_incentive","2,3,2,1,3,4","2,3,4,1","false","","",""
"null","","html-keyboard-response","302","294301","0.0-302.0","","<img src=""img/set1/S2.jpg"" width=""540"" height = ""360"">","null","","","","","","","","","",""
"null","","html-keyboard-response","303","294502","0.0-303.0","","","null","","","","","","","","","",""
"854.5","","image-keyboard-response","304","295358","0.0-304.0","","img/set1/S3.jpg","74","3","structured_load","72","structured_load,random,structured_normal,structured_incentive","2,3,2,1,3,4","2,3,4,1","false","","",""
"null","","html-keyboard-response","305","295710","0.0-305.0","","<img src=""img/set1/S3.jpg"" width=""540"" height = ""360"">","null","","","","","","","","","",""
"null","","html-keyboard-response","306","295911","0.0-306.0","","","null","","","","","","","","","",""
"629.7999999988824","","image-keyboard-response","307","296542","0.0-307.0","","img/set1/S4.jpg","74","4","structured_load","74","structured_load,random,structured_normal,structured_incentive","2,3,2,1,3,4","2,3,4,1","true","","",""
"null","","html-keyboard-response","308","296896","0.0-308.0","","<img src=""img/set1/S4.jpg"" width=""540"" height = ""360"" style=""border:16px solid orange"">","null","","","","","","","","","",""
"null","","html-keyboard-response","309","297098","0.0-309.0","","","null","","","","","","","","","",""
"403.40000000037253","","image-keyboard-response","310","297502","0.0-310.0","","img/set1/S4.jpg","74","4","structured_load","74","structured_load,random,structured_normal,structured_incentive","2,3,2,1,3,4","2,3,4,1","true","","",""
"null","","html-keyboard-response","311","297854","0.0-311.0","","<img src=""img/set1/S4.jpg"" width=""540"" height = ""360"" style=""border:16px solid orange"">","null","","","","","","","","","",""
"null","","html-keyboard-response","312","298056","0.0-312.0","","","null","","","","","","","","","",""
"353.2999999988824","","image-keyboard-response","313","298410","0.0-313.0","","img/set1/S4.jpg","74","4","structured_load","74","structured_load,random,structured_normal,structured_incentive","2,3,2,1,3,4","2,3,4,1","true","","",""
"null","","html-keyboard-response","314","298763","0.0-314.0","","<img src=""img/set1/S4.jpg"" width=""540"" height = ""360"" style=""border:16px solid orange"">","null","","","","","","","","","",""
"null","","html-keyboard-response","315","298963","0.0-315.0","","","null","","","","","","","","","",""
"321.30000000074506","","image-keyboard-response","316","299286","0.0-316.0","","img/set1/S4.jpg","74","4","structured_load","74","structured_load,random,structured_normal,structured_incentive","2,3,2,1,3,4","2,3,4,1","true","","",""
"null","","html-keyboard-response","317","299638","0.0-317.0","","<img src=""img/set1/S4.jpg"" width=""540"" height = ""360"" style=""border:16px solid orange"">","null","","","","","","","","","",""
"null","","html-keyboard-response","318","299839","0.0-318.0","","","null","","","","","","","","","",""
"790.0999999996275","","image-keyboard-response","319","300630","0.0-319.0","","img/set1/S1.jpg","83","1","structured_load","83","structured_load,random,structured_normal,structured_incentive","2,3,2,1,3,4","2,3,4,1","true","","",""
"null","","html-keyboard-response","320","300981","0.0-320.0","","<img src=""img/set1/S1.jpg"" width=""540"" height = ""360"" style=""border:16px solid orange"">","null","","","","","","","","","",""
"null","","html-keyboard-response","321","301182","0.0-321.0","","","null","","","","","","","","","",""
"1063.5","","image-keyboard-response","322","302246","0.0-322.0","","img/set1/S4.jpg","72","4","structured_load","74","structured_load,random,structured_normal,structured_incentive","2,3,2,1,3,4","2,3,4,1","false","","",""
"null","","html-keyboard-response","323","302597","0.0-323.0","","<img src=""img/set1/S4.jpg"" width=""540"" height = ""360"">","null","","","","","","","","","",""
"null","","html-keyboard-response","324","302799","0.0-324.0","","","null","","","","","","","","","",""
"573.7000000011176","","image-keyboard-response","325","303374","0.0-325.0","","img/set1/S4.jpg","68","4","structured_load","74","structured_load,random,structured_normal,structured_incentive","2,3,2,1,3,4","2,3,4,1","false","","",""
"null","","html-keyboard-response","326","303725","0.0-326.0","","<img src=""img/set1/S4.jpg"" width=""540"" height = ""360"">","null","","","","","","","","","",""
"null","","html-keyboard-response","327","303927","0.0-327.0","","","null","","","","","","","","","",""
"574.6000000014901","","image-keyboard-response","328","304502","0.0-328.0","","img/set1/S1.jpg","83","1","structured_load","83","structured_load,random,structured_normal,structured_incentive","2,3,2,1,3,4","2,3,4,1","true","","",""
"null","","html-keyboard-response","329","304854","0.0-329.0","","<img src=""img/set1/S1.jpg"" width=""540"" height = ""360"" style=""border:16px solid orange"">","null","","","","","","","","","",""
"null","","html-keyboard-response","330","305055","0.0-330.0","","","null","","","","","","","","","",""
"925.0999999996275","","image-keyboard-response","331","305982","0.0-331.0","","img/set1/S2.jpg","68","2","structured_load","68","structured_load,random,structured_normal,structured_incentive","2,3,2,1,3,4","2,3,4,1","true","","",""
"null","","html-keyboard-response","332","306334","0.0-332.0","","<img src=""img/set1/S2.jpg"" width=""540"" height = ""360"" style=""border:16px solid orange"">","null","","","","","","","","","",""
"null","","html-keyboard-response","333","306535","0.0-333.0","","","null","","","","","","","","","",""
"1046.2999999988824","","image-keyboard-response","334","307582","0.0-334.0","","img/set1/S3.jpg","72","3","structured_load","72","structured_load,random,structured_normal,structured_incentive","2,3,2,1,3,4","2,3,4,1","true","","",""
"null","","html-keyboard-response","335","307934","0.0-335.0","","<img src=""img/set1/S3.jpg"" width=""540"" height = ""360"" style=""border:16px solid orange"">","null","","","","","","","","","",""
"null","","html-keyboard-response","336","308135","0.0-336.0","","","null","","","","","","","","","",""
"694.0999999996275","","image-keyboard-response","337","308831","0.0-337.0","","img/set1/S2.jpg","68","2","structured_load","68","structured_load,random,structured_normal,structured_incentive","2,3,2,1,3,4","2,3,4,1","true","","",""
"null","","html-keyboard-response","338","309188","0.0-338.0","","<img src=""img/set1/S2.jpg"" width=""540"" height = ""360"" style=""border:16px solid orange"">","null","","","","","","","","","",""
"null","","html-keyboard-response","339","309389","0.0-339.0","","","null","","","","","","","","","",""
"1328.2999999988824","","image-keyboard-response","340","310718","0.0-340.0","","img/set1/S3.jpg","83","3","structured_load","72","structured_load,random,structured_normal,structured_incentive","2,3,2,1,3,4","2,3,4,1","false","","",""
"null","","html-keyboard-response","341","311070","0.0-341.0","","<img src=""img/set1/S3.jpg"" width=""540"" height = ""360"">","null","","","","","","","","","",""
"null","","html-keyboard-response","342","311271","0.0-342.0","","","null","","","","","","","","","",""
"510.7000000011176","","image-keyboard-response","343","311782","0.0-343.0","","img/set1/S2.jpg","68","2","structured_load","68","structured_load,random,structured_normal,structured_incentive","2,3,2,1,3,4","2,3,4,1","true","","",""
"null","","html-keyboard-response","344","312135","0.0-344.0","","<img src=""img/set1/S2.jpg"" width=""540"" height = ""360"" style=""border:16px solid orange"">","null","","","","","","","","","",""
"null","","html-keyboard-response","345","312336","0.0-345.0","","","null","","","","","","","","","",""
"1004.7999999988824","","image-keyboard-response","346","313342","0.0-346.0","","img/set1/S3.jpg","72","3","structured_load","72","structured_load,random,structured_normal,structured_incentive","2,3,2,1,3,4","2,3,4,1","true","","",""
"null","","html-keyboard-response","347","313694","0.0-347.0","","<img src=""img/set1/S3.jpg"" width=""540"" height = ""360"" style=""border:16px solid orange"">","null","","","","","","","","","",""
"null","","html-keyboard-response","348","313895","0.0-348.0","","","null","","","","","","","","","",""
"566.9000000003725","","image-keyboard-response","349","314462","0.0-349.0","","img/set1/S2.jpg","83","2","structured_load","68","structured_load,random,structured_normal,structured_incentive","2,3,2,1,3,4","2,3,4,1","false","","",""
"null","","html-keyboard-response","350","314814","0.0-350.0","","<img src=""img/set1/S2.jpg"" width=""540"" height = ""360"">","null","","","","","","","","","",""
"null","","html-keyboard-response","351","315015","0.0-351.0","","","null","","","","","","","","","",""
"461.6000000014901","","image-keyboard-response","352","315478","0.0-352.0","","img/set1/S3.jpg","68","3","structured_load","72","structured_load,random,structured_normal,structured_incentive","2,3,2,1,3,4","2,3,4,1","false","","",""
"null","","html-keyboard-response","353","315829","0.0-353.0","","<img src=""img/set1/S3.jpg"" width=""540"" height = ""360"">","null","","","","","","","","","",""
"null","","html-keyboard-response","354","316030","0.0-354.0","","","null","","","","","","","","","",""
"551.0999999996275","","image-keyboard-response","355","316582","0.0-355.0","","img/set1/S2.jpg","68","2","structured_load","68","structured_load,random,structured_normal,structured_incentive","2,3,2,1,3,4","2,3,4,1","true","","",""
"null","","html-keyboard-response","356","316934","0.0-356.0","","<img src=""img/set1/S2.jpg"" width=""540"" height = ""360"" style=""border:16px solid orange"">","null","","","","","","","","","",""
"null","","html-keyboard-response","357","317135","0.0-357.0","","","null","","","","","","","","","",""
"510.2000000011176","","image-keyboard-response","358","317646","0.0-358.0","","img/set1/S3.jpg","72","3","structured_load","72","structured_load,random,structured_normal,structured_incentive","2,3,2,1,3,4","2,3,4,1","true","","",""
"null","","html-keyboard-response","359","317998","0.0-359.0","","<img src=""img/set1/S3.jpg"" width=""540"" height = ""360"" style=""border:16px solid orange"">","null","","","","","","","","","",""
"null","","html-keyboard-response","360","318200","0.0-360.0","","","null","","","","","","","","","",""
"765.6999999992549","","image-keyboard-response","361","318966","0.0-361.0","","img/set1/S1.jpg","83","1","structured_load","83","structured_load,random,structured_normal,structured_incentive","2,3,2,1,3,4","2,3,4,1","true","","",""
"null","","html-keyboard-response","362","319318","0.0-362.0","","<img src=""img/set1/S1.jpg"" width=""540"" height = ""360"" style=""border:16px solid orange"">","null","","","","","","","","","",""
"null","","html-keyboard-response","363","319520","0.0-363.0","","","null","","","","","","","","","",""
"5780.5","","survey-multi-choice","364","325302","0.0-364.0","","","","","","","","","","","{""Q0"":""Picture A""}","[0]",""
"2510.300000000745","","html-keyboard-response","365","327814","0.0-365.0","","<p class=""center-content"">Underfortunately, the answer you selected was incorrect. </p><p class=""center-content"">Please press any key to continue. </p>","32","","","","","","","","","",""
"3908.60000000149","","html-keyboard-response","366","331723","0.0-366.0","","<p class=""center-content"">You have completed a block! </p><p class=""center-content"">Press any key on the keyboard to continue, </p><p class=""center-content"">or wait for the automatic progression to the next block after one minute.</p>","32","","","","","","","","","",""
"3756.5999999996275","","instructions","367","335480","0.0-367.0","[{""page_index"":0,""viewing_time"":3756.2999999988824}]","","","","","","","","","","","",""
"2710.699999999255","","instructions","368","338192","0.0-368.0","[{""page_index"":0,""viewing_time"":2710.5}]","","","","","","","","","","","",""
"null","","image-keyboard-response","369","340694","0.0-369.0","","img/set2/S1.jpg","null","1","random","83","structured_load,random,structured_normal,structured_incentive","2,3,2,1,3,4","2,3,4,1","false","","",""
"null","","html-keyboard-response","370","341045","0.0-370.0","","<img src=""img/set2/S1.jpg"" width=""540"" height = ""360"">","null","","","","","","","","","",""
"null","","html-keyboard-response","371","341246","0.0-371.0","","","null","","","","","","","","","",""
"1342.9000000003725","","image-keyboard-response","372","342590","0.0-372.0","","img/set2/S3.jpg","72","3","random","72","structured_load,random,structured_normal,structured_incentive","2,3,2,1,3,4","2,3,4,1","true","","",""
"null","","html-keyboard-response","373","342942","0.0-373.0","","<img src=""img/set2/S3.jpg"" width=""540"" height = ""360"" style=""border:16px solid orange"">","null","","","","","","","","","",""
"null","","html-keyboard-response","374","343143","0.0-374.0","","","null","","","","","","","","","",""
"879.7999999988824","","image-keyboard-response","375","344024","0.0-375.0","","img/set2/S1.jpg","72","1","random","83","structured_load,random,structured_normal,structured_incentive","2,3,2,1,3,4","2,3,4,1","false","","",""
"null","","html-keyboard-response","376","344388","0.0-376.0","","<img src=""img/set2/S1.jpg"" width=""540"" height = ""360"">","null","","","","","","","","","",""
"null","","html-keyboard-response","377","344589","0.0-377.0","","","null","","","","","","","","","",""
"488.09999999962747","","image-keyboard-response","378","345078","0.0-378.0","","img/set2/S1.jpg","74","1","random","83","structured_load,random,structured_normal,structured_incentive","2,3,2,1,3,4","2,3,4,1","false","","",""
"null","","html-keyboard-response","379","345430","0.0-379.0","","<img src=""img/set2/S1.jpg"" width=""540"" height = ""360"">","null","","","","","","","","","",""
"null","","html-keyboard-response","380","345632","0.0-380.0","","","null","","","","","","","","","",""
"892.2000000011176","","image-keyboard-response","381","346525","0.0-381.0","","img/set2/S4.jpg","72","4","random","74","structured_load,random,structured_normal,structured_incentive","2,3,2,1,3,4","2,3,4,1","false","","",""
"null","","html-keyboard-response","382","346877","0.0-382.0","","<img src=""img/set2/S4.jpg"" width=""540"" height = ""360"">","null","","","","","","","","","",""
"null","","html-keyboard-response","383","347079","0.0-383.0","","","null","","","","","","","","","",""
"606.5999999996275","","image-keyboard-response","384","347686","0.0-384.0","","img/set2/S2.jpg","68","2","random","68","structured_load,random,structured_normal,structured_incentive","2,3,2,1,3,4","2,3,4,1","true","","",""
"null","","html-keyboard-response","385","348038","0.0-385.0","","<img src=""img/set2/S2.jpg"" width=""540"" height = ""360"" style=""border:16px solid orange"">","null","","","","","","","","","",""
"null","","html-keyboard-response","386","348240","0.0-386.0","","","null","","","","","","","","","",""
"742.7999999988824","","image-keyboard-response","387","348983","0.0-387.0","","img/set2/S1.jpg","83","1","random","83","structured_load,random,structured_normal,structured_incentive","2,3,2,1,3,4","2,3,4,1","true","","",""
"null","","html-keyboard-response","388","349335","0.0-388.0","","<img src=""img/set2/S1.jpg"" width=""540"" height = ""360"" style=""border:16px solid orange"">","null","","","","","","","","","",""
"null","","html-keyboard-response","389","349537","0.0-389.0","","","null","","","","","","","","","",""
"724.7000000011176","","image-keyboard-response","390","350262","0.0-390.0","","img/set2/S2.jpg","68","2","random","68","structured_load,random,structured_normal,structured_incentive","2,3,2,1,3,4","2,3,4,1","true","","",""
"null","","html-keyboard-response","391","350615","0.0-391.0","","<img src=""img/set2/S2.jpg"" width=""540"" height = ""360"" style=""border:16px solid orange"">","null","","","","","","","","","",""
"null","","html-keyboard-response","392","350816","0.0-392.0","","","null","","","","","","","","","",""
"693.4000000003725","","image-keyboard-response","393","351510","0.0-393.0","","img/set2/S1.jpg","83","1","random","83","structured_load,random,structured_normal,structured_incentive","2,3,2,1,3,4","2,3,4,1","true","","",""
"null","","html-keyboard-response","394","351862","0.0-394.0","","<img src=""img/set2/S1.jpg"" width=""540"" height = ""360"" style=""border:16px solid orange"">","null","","","","","","","","","",""
"null","","html-keyboard-response","395","352064","0.0-395.0","","","null","","","","","","","","","",""
"821.5999999996275","","image-keyboard-response","396","352886","0.0-396.0","","img/set2/S3.jpg","74","3","random","72","structured_load,random,structured_normal,structured_incentive","2,3,2,1,3,4","2,3,4,1","false","","",""
"null","","html-keyboard-response","397","353238","0.0-397.0","","<img src=""img/set2/S3.jpg"" width=""540"" height = ""360"">","null","","","","","","","","","",""
"null","","html-keyboard-response","398","353440","0.0-398.0","","","null","","","","","","","","","",""
"862.0999999996275","","image-keyboard-response","399","354303","0.0-399.0","","img/set2/S1.jpg","68","1","random","83","structured_load,random,structured_normal,structured_incentive","2,3,2,1,3,4","2,3,4,1","false","","",""
"null","","html-keyboard-response","400","354655","0.0-400.0","","<img src=""img/set2/S1.jpg"" width=""540"" height = ""360"">","null","","","","","","","","","",""
"null","","html-keyboard-response","401","354856","0.0-401.0","","","null","","","","","","","","","",""
"901.0999999996275","","image-keyboard-response","402","355759","0.0-402.0","","img/set2/S4.jpg","68","4","random","74","structured_load,random,structured_normal,structured_incentive","2,3,2,1,3,4","2,3,4,1","false","","",""
"null","","html-keyboard-response","403","356110","0.0-403.0","","<img src=""img/set2/S4.jpg"" width=""540"" height = ""360"">","null","","","","","","","","","",""
"null","","html-keyboard-response","404","356312","0.0-404.0","","","null","","","","","","","","","",""
"573.5999999996275","","image-keyboard-response","405","356886","0.0-405.0","","img/set2/S1.jpg","83","1","random","83","structured_load,random,structured_normal,structured_incentive","2,3,2,1,3,4","2,3,4,1","true","","",""
"null","","html-keyboard-response","406","357239","0.0-406.0","","<img src=""img/set2/S1.jpg"" width=""540"" height = ""360"" style=""border:16px solid orange"">","null","","","","","","","","","",""
"null","","html-keyboard-response","407","357440","0.0-407.0","","","null","","","","","","","","","",""
"837.3000000007451","","image-keyboard-response","408","358278","0.0-408.0","","img/set2/S2.jpg","68","2","random","68","structured_load,random,structured_normal,structured_incentive","2,3,2,1,3,4","2,3,4,1","true","","",""
"null","","html-keyboard-response","409","358631","0.0-409.0","","<img src=""img/set2/S2.jpg"" width=""540"" height = ""360"" style=""border:16px solid orange"">","null","","","","","","","","","",""
"null","","html-keyboard-response","410","358832","0.0-410.0","","","null","","","","","","","","","",""
"437.30000000074506","","image-keyboard-response","411","359270","0.0-411.0","","img/set2/S2.jpg","68","2","random","68","structured_load,random,structured_normal,structured_incentive","2,3,2,1,3,4","2,3,4,1","true","","",""
"null","","html-keyboard-response","412","359622","0.0-412.0","","<img src=""img/set2/S2.jpg"" width=""540"" height = ""360"" style=""border:16px solid orange"">","null","","","","","","","","","",""
"null","","html-keyboard-response","413","359823","0.0-413.0","","","null","","","","","","","","","",""
"774.6000000014901","","image-keyboard-response","414","360598","0.0-414.0","","img/set2/S4.jpg","72","4","random","74","structured_load,random,structured_normal,structured_incentive","2,3,2,1,3,4","2,3,4,1","false","","",""
"null","","html-keyboard-response","415","360950","0.0-415.0","","<img src=""img/set2/S4.jpg"" width=""540"" height = ""360"">","null","","","","","","","","","",""
"null","","html-keyboard-response","416","361152","0.0-416.0","","","null","","","","","","","","","",""
"686.1000000014901","","image-keyboard-response","417","361839","0.0-417.0","","img/set2/S2.jpg","68","2","random","68","structured_load,random,structured_normal,structured_incentive","2,3,2,1,3,4","2,3,4,1","true","","",""
"null","","html-keyboard-response","418","362190","0.0-418.0","","<img src=""img/set2/S2.jpg"" width=""540"" height = ""360"" style=""border:16px solid orange"">","null","","","","","","","","","",""
"null","","html-keyboard-response","419","362392","0.0-419.0","","","null","","","","","","","","","",""
"446.1000000014901","","image-keyboard-response","420","362839","0.0-420.0","","img/set2/S2.jpg","68","2","random","68","structured_load,random,structured_normal,structured_incentive","2,3,2,1,3,4","2,3,4,1","true","","",""
"null","","html-keyboard-response","421","363191","0.0-421.0","","<img src=""img/set2/S2.jpg"" width=""540"" height = ""360"" style=""border:16px solid orange"">","null","","","","","","","","","",""
"null","","html-keyboard-response","422","363392","0.0-422.0","","","null","","","","","","","","","",""
"533.4000000003725","","image-keyboard-response","423","363926","0.0-423.0","","img/set2/S1.jpg","83","1","random","83","structured_load,random,structured_normal,structured_incentive","2,3,2,1,3,4","2,3,4,1","true","","",""
"null","","html-keyboard-response","424","364278","0.0-424.0","","<img src=""img/set2/S1.jpg"" width=""540"" height = ""360"" style=""border:16px solid orange"">","null","","","","","","","","","",""
"null","","html-keyboard-response","425","364480","0.0-425.0","","","null","","","","","","","","","",""
"589.3000000007451","","image-keyboard-response","426","365070","0.0-426.0","","img/set2/S2.jpg","68","2","random","68","structured_load,random,structured_normal,structured_incentive","2,3,2,1,3,4","2,3,4,1","true","","",""
"null","","html-keyboard-response","427","365423","0.0-427.0","","<img src=""img/set2/S2.jpg"" width=""540"" height = ""360"" style=""border:16px solid orange"">","null","","","","","","","","","",""
"null","","html-keyboard-response","428","365624","0.0-428.0","","","null","","","","","","","","","",""
"933.6999999992549","","image-keyboard-response","429","366559","0.0-429.0","","img/set2/S4.jpg","74","4","random","74","structured_load,random,structured_normal,structured_incentive","2,3,2,1,3,4","2,3,4,1","true","","",""
"null","","html-keyboard-response","430","366910","0.0-430.0","","<img src=""img/set2/S4.jpg"" width=""540"" height = ""360"" style=""border:16px solid orange"">","null","","","","","","","","","",""
"null","","html-keyboard-response","431","367112","0.0-431.0","","","null","","","","","","","","","",""
"677.7000000011176","","image-keyboard-response","432","367790","0.0-432.0","","img/set2/S3.jpg","72","3","random","72","structured_load,random,structured_normal,structured_incentive","2,3,2,1,3,4","2,3,4,1","true","","",""
"null","","html-keyboard-response","433","368142","0.0-433.0","","<img src=""img/set2/S3.jpg"" width=""540"" height = ""360"" style=""border:16px solid orange"">","null","","","","","","","","","",""
"null","","html-keyboard-response","434","368343","0.0-434.0","","","null","","","","","","","","","",""
"750.7999999988824","","image-keyboard-response","435","369095","0.0-435.0","","img/set2/S2.jpg","68","2","random","68","structured_load,random,structured_normal,structured_incentive","2,3,2,1,3,4","2,3,4,1","true","","",""
"null","","html-keyboard-response","436","369447","0.0-436.0","","<img src=""img/set2/S2.jpg"" width=""540"" height = ""360"" style=""border:16px solid orange"">","null","","","","","","","","","",""
"null","","html-keyboard-response","437","369648","0.0-437.0","","","null","","","","","","","","","",""
"581.8000000007451","","image-keyboard-response","438","370230","0.0-438.0","","img/set2/S1.jpg","83","1","random","83","structured_load,random,structured_normal,structured_incentive","2,3,2,1,3,4","2,3,4,1","true","","",""
"null","","html-keyboard-response","439","370582","0.0-439.0","","<img src=""img/set2/S1.jpg"" width=""540"" height = ""360"" style=""border:16px solid orange"">","null","","","","","","","","","",""
"null","","html-keyboard-response","440","370783","0.0-440.0","","","null","","","","","","","","","",""
"750.3000000007451","","image-keyboard-response","441","371535","0.0-441.0","","img/set2/S3.jpg","72","3","random","72","structured_load,random,structured_normal,structured_incentive","2,3,2,1,3,4","2,3,4,1","true","","",""
"null","","html-keyboard-response","442","371887","0.0-442.0","","<img src=""img/set2/S3.jpg"" width=""540"" height = ""360"" style=""border:16px solid orange"">","null","","","","","","","","","",""
"null","","html-keyboard-response","443","372087","0.0-443.0","","","null","","","","","","","","","",""
"454.3999999985099","","image-keyboard-response","444","372543","0.0-444.0","","img/set2/S3.jpg","72","3","random","72","structured_load,random,structured_normal,structured_incentive","2,3,2,1,3,4","2,3,4,1","true","","",""
"null","","html-keyboard-response","445","372894","0.0-445.0","","<img src=""img/set2/S3.jpg"" width=""540"" height = ""360"" style=""border:16px solid orange"">","null","","","","","","","","","",""
"null","","html-keyboard-response","446","373095","0.0-446.0","","","null","","","","","","","","","",""
"542.6000000014901","","image-keyboard-response","447","373638","0.0-447.0","","img/set2/S4.jpg","74","4","random","74","structured_load,random,structured_normal,structured_incentive","2,3,2,1,3,4","2,3,4,1","true","","",""
"null","","html-keyboard-response","448","373990","0.0-448.0","","<img src=""img/set2/S4.jpg"" width=""540"" height = ""360"" style=""border:16px solid orange"">","null","","","","","","","","","",""
"null","","html-keyboard-response","449","374191","0.0-449.0","","","null","","","","","","","","","",""
"566.8000000007451","","image-keyboard-response","450","374759","0.0-450.0","","img/set2/S3.jpg","72","3","random","72","structured_load,random,structured_normal,structured_incentive","2,3,2,1,3,4","2,3,4,1","true","","",""
"null","","html-keyboard-response","451","375111","0.0-451.0","","<img src=""img/set2/S3.jpg"" width=""540"" height = ""360"" style=""border:16px solid orange"">","null","","","","","","","","","",""
"null","","html-keyboard-response","452","375312","0.0-452.0","","","null","","","","","","","","","",""
"669.2000000011176","","image-keyboard-response","453","375982","0.0-453.0","","img/set2/S4.jpg","74","4","random","74","structured_load,random,structured_normal,structured_incentive","2,3,2,1,3,4","2,3,4,1","true","","",""
"null","","html-keyboard-response","454","376339","0.0-454.0","","<img src=""img/set2/S4.jpg"" width=""540"" height = ""360"" style=""border:16px solid orange"">","null","","","","","","","","","",""
"null","","html-keyboard-response","455","376539","0.0-455.0","","","null","","","","","","","","","",""
"522.2999999988824","","image-keyboard-response","456","377063","0.0-456.0","","img/set2/S3.jpg","74","3","random","72","structured_load,random,structured_normal,structured_incentive","2,3,2,1,3,4","2,3,4,1","false","","",""
"null","","html-keyboard-response","457","377423","0.0-457.0","","<img src=""img/set2/S3.jpg"" width=""540"" height = ""360"">","null","","","","","","","","","",""
"null","","html-keyboard-response","458","377624","0.0-458.0","","","null","","","","","","","","","",""
"773.6000000014901","","image-keyboard-response","459","378399","0.0-459.0","","img/set2/S1.jpg","83","1","random","83","structured_load,random,structured_normal,structured_incentive","2,3,2,1,3,4","2,3,4,1","true","","",""
"null","","html-keyboard-response","460","378750","0.0-460.0","","<img src=""img/set2/S1.jpg"" width=""540"" height = ""360"" style=""border:16px solid orange"">","null","","","","","","","","","",""
"null","","html-keyboard-response","461","378952","0.0-461.0","","","null","","","","","","","","","",""
"949.3000000007451","","image-keyboard-response","462","379902","0.0-462.0","","img/set2/S4.jpg","74","4","random","74","structured_load,random,structured_normal,structured_incentive","2,3,2,1,3,4","2,3,4,1","true","","",""
"null","","html-keyboard-response","463","380254","0.0-463.0","","<img src=""img/set2/S4.jpg"" width=""540"" height = ""360"" style=""border:16px solid orange"">","null","","","","","","","","","",""
"null","","html-keyboard-response","464","380456","0.0-464.0","","","null","","","","","","","","","",""
"453.19999999925494","","image-keyboard-response","465","380910","0.0-465.0","","img/set2/S4.jpg","74","4","random","74","structured_load,random,structured_normal,structured_incentive","2,3,2,1,3,4","2,3,4,1","true","","",""
"null","","html-keyboard-response","466","381262","0.0-466.0","","<img src=""img/set2/S4.jpg"" width=""540"" height = ""360"" style=""border:16px solid orange"">","null","","","","","","","","","",""
"null","","html-keyboard-response","467","381464","0.0-467.0","","","null","","","","","","","","","",""
"774.3000000007451","","image-keyboard-response","468","382239","0.0-468.0","","img/set2/S1.jpg","83","1","random","83","structured_load,random,structured_normal,structured_incentive","2,3,2,1,3,4","2,3,4,1","true","","",""
"null","","html-keyboard-response","469","382591","0.0-469.0","","<img src=""img/set2/S1.jpg"" width=""540"" height = ""360"" style=""border:16px solid orange"">","null","","","","","","","","","",""
"null","","html-keyboard-response","470","382791","0.0-470.0","","","null","","","","","","","","","",""
"698.2999999988824","","image-keyboard-response","471","383491","0.0-471.0","","img/set2/S3.jpg","72","3","random","72","structured_load,random,structured_normal,structured_incentive","2,3,2,1,3,4","2,3,4,1","true","","",""
"null","","html-keyboard-response","472","383843","0.0-472.0","","<img src=""img/set2/S3.jpg"" width=""540"" height = ""360"" style=""border:16px solid orange"">","null","","","","","","","","","",""
"null","","html-keyboard-response","473","384044","0.0-473.0","","","null","","","","","","","","","",""
"593.4000000003725","","image-keyboard-response","474","384639","0.0-474.0","","img/set2/S4.jpg","74","4","random","74","structured_load,random,structured_normal,structured_incentive","2,3,2,1,3,4","2,3,4,1","true","","",""
"null","","html-keyboard-response","475","384990","0.0-475.0","","<img src=""img/set2/S4.jpg"" width=""540"" height = ""360"" style=""border:16px solid orange"">","null","","","","","","","","","",""
"null","","html-keyboard-response","476","385192","0.0-476.0","","","null","","","","","","","","","",""
"677.7000000011176","","image-keyboard-response","477","385870","0.0-477.0","","img/set2/S1.jpg","83","1","random","83","structured_load,random,structured_normal,structured_incentive","2,3,2,1,3,4","2,3,4,1","true","","",""
"null","","html-keyboard-response","478","386223","0.0-478.0","","<img src=""img/set2/S1.jpg"" width=""540"" height = ""360"" style=""border:16px solid orange"">","null","","","","","","","","","",""
"null","","html-keyboard-response","479","386423","0.0-479.0","","","null","","","","","","","","","",""
"774.0999999996275","","image-keyboard-response","480","387199","0.0-480.0","","img/set2/S3.jpg","72","3","random","72","structured_load,random,structured_normal,structured_incentive","2,3,2,1,3,4","2,3,4,1","true","","",""
"null","","html-keyboard-response","481","387551","0.0-481.0","","<img src=""img/set2/S3.jpg"" width=""540"" height = ""360"" style=""border:16px solid orange"">","null","","","","","","","","","",""
"null","","html-keyboard-response","482","387752","0.0-482.0","","","null","","","","","","","","","",""
"557.3999999985099","","image-keyboard-response","483","388310","0.0-483.0","","img/set2/S2.jpg","68","2","random","68","structured_load,random,structured_normal,structured_incentive","2,3,2,1,3,4","2,3,4,1","true","","",""
"null","","html-keyboard-response","484","388662","0.0-484.0","","<img src=""img/set2/S2.jpg"" width=""540"" height = ""360"" style=""border:16px solid orange"">","null","","","","","","","","","",""
"null","","html-keyboard-response","485","388864","0.0-485.0","","","null","","","","","","","","","",""
"675.9000000003725","","image-keyboard-response","486","389540","0.0-486.0","","img/set2/S3.jpg","72","3","random","72","structured_load,random,structured_normal,structured_incentive","2,3,2,1,3,4","2,3,4,1","true","","",""
"null","","html-keyboard-response","487","389893","0.0-487.0","","<img src=""img/set2/S3.jpg"" width=""540"" height = ""360"" style=""border:16px solid orange"">","null","","","","","","","","","",""
"null","","html-keyboard-response","488","390094","0.0-488.0","","","null","","","","","","","","","",""
"647.2000000011176","","image-keyboard-response","489","390742","0.0-489.0","","img/set2/S4.jpg","74","4","random","74","structured_load,random,structured_normal,structured_incentive","2,3,2,1,3,4","2,3,4,1","true","","",""
"null","","html-keyboard-response","490","391094","0.0-490.0","","<img src=""img/set2/S4.jpg"" width=""540"" height = ""360"" style=""border:16px solid orange"">","null","","","","","","","","","",""
"null","","html-keyboard-response","491","391296","0.0-491.0","","","null","","","","","","","","","",""
"797.8000000007451","","image-keyboard-response","492","392094","0.0-492.0","","img/set2/S2.jpg","68","2","random","68","structured_load,random,structured_normal,structured_incentive","2,3,2,1,3,4","2,3,4,1","true","","",""
"null","","html-keyboard-response","493","392460","0.0-493.0","","<img src=""img/set2/S2.jpg"" width=""540"" height = ""360"" style=""border:16px solid orange"">","null","","","","","","","","","",""
"null","","html-keyboard-response","494","392661","0.0-494.0","","","null","","","","","","","","","",""
"736.4000000003725","","image-keyboard-response","495","393398","0.0-495.0","","img/set2/S4.jpg","74","4","random","74","structured_load,random,structured_normal,structured_incentive","2,3,2,1,3,4","2,3,4,1","true","","",""
"null","","html-keyboard-response","496","393750","0.0-496.0","","<img src=""img/set2/S4.jpg"" width=""540"" height = ""360"" style=""border:16px solid orange"">","null","","","","","","","","","",""
"null","","html-keyboard-response","497","393952","0.0-497.0","","","null","","","","","","","","","",""
"910","","image-keyboard-response","498","394863","0.0-498.0","","img/set2/S2.jpg","83","2","random","68","structured_load,random,structured_normal,structured_incentive","2,3,2,1,3,4","2,3,4,1","false","","",""
"null","","html-keyboard-response","499","395215","0.0-499.0","","<img src=""img/set2/S2.jpg"" width=""540"" height = ""360"">","null","","","","","","","","","",""
"null","","html-keyboard-response","500","395416","0.0-500.0","","","null","","","","","","","","","",""
"549.5","","image-keyboard-response","501","395967","0.0-501.0","","img/set2/S1.jpg","83","1","random","83","structured_load,random,structured_normal,structured_incentive","2,3,2,1,3,4","2,3,4,1","true","","",""
"null","","html-keyboard-response","502","396319","0.0-502.0","","<img src=""img/set2/S1.jpg"" width=""540"" height = ""360"" style=""border:16px solid orange"">","null","","","","","","","","","",""
"null","","html-keyboard-response","503","396520","0.0-503.0","","","null","","","","","","","","","",""
"501.5","","image-keyboard-response","504","397022","0.0-504.0","","img/set2/S2.jpg","68","2","random","68","structured_load,random,structured_normal,structured_incentive","2,3,2,1,3,4","2,3,4,1","true","","",""
"null","","html-keyboard-response","505","397374","0.0-505.0","","<img src=""img/set2/S2.jpg"" width=""540"" height = ""360"" style=""border:16px solid orange"">","null","","","","","","","","","",""
"null","","html-keyboard-response","506","397576","0.0-506.0","","","null","","","","","","","","","",""
"478.19999999925494","","image-keyboard-response","507","398055","0.0-507.0","","img/set2/S2.jpg","68","2","random","68","structured_load,random,structured_normal,structured_incentive","2,3,2,1,3,4","2,3,4,1","true","","",""
"null","","html-keyboard-response","508","398407","0.0-508.0","","<img src=""img/set2/S2.jpg"" width=""540"" height = ""360"" style=""border:16px solid orange"">","null","","","","","","","","","",""
"null","","html-keyboard-response","509","398608","0.0-509.0","","","null","","","","","","","","","",""
"439.90000000037253","","image-keyboard-response","510","399048","0.0-510.0","","img/set2/S2.jpg","68","2","random","68","structured_load,random,structured_normal,structured_incentive","2,3,2,1,3,4","2,3,4,1","true","","",""
"null","","html-keyboard-response","511","399401","0.0-511.0","","<img src=""img/set2/S2.jpg"" width=""540"" height = ""360"" style=""border:16px solid orange"">","null","","","","","","","","","",""
"null","","html-keyboard-response","512","399603","0.0-512.0","","","null","","","","","","","","","",""
"402.59999999962747","","image-keyboard-response","513","400007","0.0-513.0","","img/set2/S2.jpg","68","2","random","68","structured_load,random,structured_normal,structured_incentive","2,3,2,1,3,4","2,3,4,1","true","","",""
"null","","html-keyboard-response","514","400359","0.0-514.0","","<img src=""img/set2/S2.jpg"" width=""540"" height = ""360"" style=""border:16px solid orange"">","null","","","","","","","","","",""
"null","","html-keyboard-response","515","400560","0.0-515.0","","","null","","","","","","","","","",""
"581.3999999985099","","image-keyboard-response","516","401143","0.0-516.0","","img/set2/S4.jpg","74","4","random","74","structured_load,random,structured_normal,structured_incentive","2,3,2,1,3,4","2,3,4,1","true","","",""
"null","","html-keyboard-response","517","401495","0.0-517.0","","<img src=""img/set2/S4.jpg"" width=""540"" height = ""360"" style=""border:16px solid orange"">","null","","","","","","","","","",""
"null","","html-keyboard-response","518","401696","0.0-518.0","","","null","","","","","","","","","",""
"613.4000000003725","","image-keyboard-response","519","402310","0.0-519.0","","img/set2/S1.jpg","83","1","random","83","structured_load,random,structured_normal,structured_incentive","2,3,2,1,3,4","2,3,4,1","true","","",""
"null","","html-keyboard-response","520","402662","0.0-520.0","","<img src=""img/set2/S1.jpg"" width=""540"" height = ""360"" style=""border:16px solid orange"">","null","","","","","","","","","",""
"null","","html-keyboard-response","521","402864","0.0-521.0","","","null","","","","","","","","","",""
"756.8000000007451","","image-keyboard-response","522","403621","0.0-522.0","","img/set2/S4.jpg","74","4","random","74","structured_load,random,structured_normal,structured_incentive","2,3,2,1,3,4","2,3,4,1","true","","",""
"null","","html-keyboard-response","523","403974","0.0-523.0","","<img src=""img/set2/S4.jpg"" width=""540"" height = ""360"" style=""border:16px solid orange"">","null","","","","","","","","","",""
"null","","html-keyboard-response","524","404176","0.0-524.0","","","null","","","","","","","","","",""
"565.3999999985099","","image-keyboard-response","525","404742","0.0-525.0","","img/set2/S3.jpg","72","3","random","72","structured_load,random,structured_normal,structured_incentive","2,3,2,1,3,4","2,3,4,1","true","","",""
"null","","html-keyboard-response","526","405094","0.0-526.0","","<img src=""img/set2/S3.jpg"" width=""540"" height = ""360"" style=""border:16px solid orange"">","null","","","","","","","","","",""
"null","","html-keyboard-response","527","405296","0.0-527.0","","","null","","","","","","","","","",""
"718.3000000007451","","image-keyboard-response","528","406015","0.0-528.0","","img/set2/S2.jpg","68","2","random","68","structured_load,random,structured_normal,structured_incentive","2,3,2,1,3,4","2,3,4,1","true","","",""
"null","","html-keyboard-response","529","406367","0.0-529.0","","<img src=""img/set2/S2.jpg"" width=""540"" height = ""360"" style=""border:16px solid orange"">","null","","","","","","","","","",""
"null","","html-keyboard-response","530","406569","0.0-530.0","","","null","","","","","","","","","",""
"708.5999999996275","","image-keyboard-response","531","407278","0.0-531.0","","img/set2/S3.jpg","72","3","random","72","structured_load,random,structured_normal,structured_incentive","2,3,2,1,3,4","2,3,4,1","true","","",""
"null","","html-keyboard-response","532","407630","0.0-532.0","","<img src=""img/set2/S3.jpg"" width=""540"" height = ""360"" style=""border:16px solid orange"">","null","","","","","","","","","",""
"null","","html-keyboard-response","533","407832","0.0-533.0","","","null","","","","","","","","","",""
"637.6000000014901","","image-keyboard-response","534","408470","0.0-534.0","","img/set2/S1.jpg","83","1","random","83","structured_load,random,structured_normal,structured_incentive","2,3,2,1,3,4","2,3,4,1","true","","",""
"null","","html-keyboard-response","535","408822","0.0-535.0","","<img src=""img/set2/S1.jpg"" width=""540"" height = ""360"" style=""border:16px solid orange"">","null","","","","","","","","","",""
"null","","html-keyboard-response","536","409024","0.0-536.0","","","null","","","","","","","","","",""
"582.0999999996275","","image-keyboard-response","537","409607","0.0-537.0","","img/set2/S3.jpg","72","3","random","72","structured_load,random,structured_normal,structured_incentive","2,3,2,1,3,4","2,3,4,1","true","","",""
"null","","html-keyboard-response","538","409958","0.0-538.0","","<img src=""img/set2/S3.jpg"" width=""540"" height = ""360"" style=""border:16px solid orange"">","null","","","","","","","","","",""
"null","","html-keyboard-response","539","410160","0.0-539.0","","","null","","","","","","","","","",""
"504.19999999925494","","image-keyboard-response","540","410665","0.0-540.0","","img/set2/S3.jpg","72","3","random","72","structured_load,random,structured_normal,structured_incentive","2,3,2,1,3,4","2,3,4,1","true","","",""
"null","","html-keyboard-response","541","411018","0.0-541.0","","<img src=""img/set2/S3.jpg"" width=""540"" height = ""360"" style=""border:16px solid orange"">","null","","","","","","","","","",""
"null","","html-keyboard-response","542","411219","0.0-542.0","","","null","","","","","","","","","",""
"635","","image-keyboard-response","543","411855","0.0-543.0","","img/set2/S2.jpg","68","2","random","68","structured_load,random,structured_normal,structured_incentive","2,3,2,1,3,4","2,3,4,1","true","","",""
"null","","html-keyboard-response","544","412207","0.0-544.0","","<img src=""img/set2/S2.jpg"" width=""540"" height = ""360"" style=""border:16px solid orange"">","null","","","","","","","","","",""
"null","","html-keyboard-response","545","412409","0.0-545.0","","","null","","","","","","","","","",""
"436.7999999988824","","image-keyboard-response","546","412847","0.0-546.0","","img/set2/S2.jpg","68","2","random","68","structured_load,random,structured_normal,structured_incentive","2,3,2,1,3,4","2,3,4,1","true","","",""
"null","","html-keyboard-response","547","413198","0.0-547.0","","<img src=""img/set2/S2.jpg"" width=""540"" height = ""360"" style=""border:16px solid orange"">","null","","","","","","","","","",""
"null","","html-keyboard-response","548","413399","0.0-548.0","","","null","","","","","","","","","",""
"551","","image-keyboard-response","549","413951","0.0-549.0","","img/set2/S3.jpg","72","3","random","72","structured_load,random,structured_normal,structured_incentive","2,3,2,1,3,4","2,3,4,1","true","","",""
"null","","html-keyboard-response","550","414303","0.0-550.0","","<img src=""img/set2/S3.jpg"" width=""540"" height = ""360"" style=""border:16px solid orange"">","null","","","","","","","","","",""
"null","","html-keyboard-response","551","414504","0.0-551.0","","","null","","","","","","","","","",""
"1389.699999999255","","image-keyboard-response","552","415895","0.0-552.0","","img/set2/S2.jpg","68","2","random","68","structured_load,random,structured_normal,structured_incentive","2,3,2,1,3,4","2,3,4,1","true","","",""
"null","","html-keyboard-response","553","416251","0.0-553.0","","<img src=""img/set2/S2.jpg"" width=""540"" height = ""360"" style=""border:16px solid orange"">","null","","","","","","","","","",""
"null","","html-keyboard-response","554","416452","0.0-554.0","","","null","","","","","","","","","",""
"689.5","","image-keyboard-response","555","417142","0.0-555.0","","img/set2/S4.jpg","74","4","random","74","structured_load,random,structured_normal,structured_incentive","2,3,2,1,3,4","2,3,4,1","true","","",""
"null","","html-keyboard-response","556","417494","0.0-556.0","","<img src=""img/set2/S4.jpg"" width=""540"" height = ""360"" style=""border:16px solid orange"">","null","","","","","","","","","",""
"null","","html-keyboard-response","557","417695","0.0-557.0","","","null","","","","","","","","","",""
"558.3999999985099","","image-keyboard-response","558","418255","0.0-558.0","","img/set2/S3.jpg","72","3","random","72","structured_load,random,structured_normal,structured_incentive","2,3,2,1,3,4","2,3,4,1","true","","",""
"null","","html-keyboard-response","559","418620","0.0-559.0","","<img src=""img/set2/S3.jpg"" width=""540"" height = ""360"" style=""border:16px solid orange"">","null","","","","","","","","","",""
"null","","html-keyboard-response","560","418821","0.0-560.0","","","null","","","","","","","","","",""
"456.80000000074506","","image-keyboard-response","561","419279","0.0-561.0","","img/set2/S3.jpg","72","3","random","72","structured_load,random,structured_normal,structured_incentive","2,3,2,1,3,4","2,3,4,1","true","","",""
"null","","html-keyboard-response","562","419630","0.0-562.0","","<img src=""img/set2/S3.jpg"" width=""540"" height = ""360"" style=""border:16px solid orange"">","null","","","","","","","","","",""
"null","","html-keyboard-response","563","419832","0.0-563.0","","","null","","","","","","","","","",""
"493.90000000037253","","image-keyboard-response","564","420327","0.0-564.0","","img/set2/S3.jpg","72","3","random","72","structured_load,random,structured_normal,structured_incentive","2,3,2,1,3,4","2,3,4,1","true","","",""
"null","","html-keyboard-response","565","420678","0.0-565.0","","<img src=""img/set2/S3.jpg"" width=""540"" height = ""360"" style=""border:16px solid orange"">","null","","","","","","","","","",""
