"rt","url","trial_type","trial_index","time_elapsed","internal_node_id","view_history","stimulus","key_press","state","test_part","correct_response","order_block","order_chunk","correct","responses","bonus"
"21291.800000000745","consent.html","external-html","0","21394","0.0-0.0","","","","","","","","","","",""
"88004.19999999925","","instructions","1","109399","0.0-1.0","[{""page_index"":0,""viewing_time"":5310.0999999996275},{""page_index"":1,""viewing_time"":10313.400000000373},{""page_index"":2,""viewing_time"":10672},{""page_index"":3,""viewing_time"":19700.099999999627},{""page_index"":4,""viewing_time"":9210.099999999627},{""page_index"":5,""viewing_time"":24843.900000000373},{""page_index"":6,""viewing_time"":7953.9000000003725}]","","","","","","","","","",""
"13019","","instructions","2","122420","0.0-2.0","[{""page_index"":0,""viewing_time"":13018.799999998882}]","","","","","","","","","",""
"6662.9000000003725","","instructions","3","129084","0.0-3.0","[{""page_index"":0,""viewing_time"":6662.699999999255}]","","","","","","","","","",""
"874.0999999996275","","image-keyboard-response","4","129960","0.0-4.0","","img/set1/S3.jpg","68","3","random","72","random,structured_load,structured_incentive,structured_normal","2,3,2,1,3,4","false","",""
"null","","html-keyboard-response","5","130323","0.0-5.0","","<img src=""img/set1/S3.jpg"" width=""540"" height = ""360"">","null","","","","","","","",""
"null","","html-keyboard-response","6","130525","0.0-6.0","","","null","","","","","","","",""
"1705.199999999255","","image-keyboard-response","7","132232","0.0-7.0","","img/set1/S4.jpg","72","4","random","74","random,structured_load,structured_incentive,structured_normal","2,3,2,1,3,4","false","",""
"null","","html-keyboard-response","8","132588","0.0-8.0","","<img src=""img/set1/S4.jpg"" width=""540"" height = ""360"">","null","","","","","","","",""
"null","","html-keyboard-response","9","132805","0.0-9.0","","","null","","","","","","","",""
"858.8000000007451","","image-keyboard-response","10","133665","0.0-10.0","","img/set1/S3.jpg","74","3","random","72","random,structured_load,structured_incentive,structured_normal","2,3,2,1,3,4","false","",""
"null","","html-keyboard-response","11","134025","0.0-11.0","","<img src=""img/set1/S3.jpg"" width=""540"" height = ""360"">","null","","","","","","","",""
"null","","html-keyboard-response","12","134228","0.0-12.0","","","null","","","","","","","",""
"770.5","","image-keyboard-response","13","134999","0.0-13.0","","img/set1/S2.jpg","83","2","random","68","random,structured_load,structured_incentive,structured_normal","2,3,2,1,3,4","false","",""
"null","","html-keyboard-response","14","135361","0.0-14.0","","<img src=""img/set1/S2.jpg"" width=""540"" height = ""360"">","null","","","","","","","",""
"null","","html-keyboard-response","15","135563","0.0-15.0","","","null","","","","","","","",""
"868","","image-keyboard-response","16","136431","0.0-16.0","","img/set1/S1.jpg","68","1","random","83","random,structured_load,structured_incentive,structured_normal","2,3,2,1,3,4","false","",""
"null","","html-keyboard-response","17","136795","0.0-17.0","","<img src=""img/set1/S1.jpg"" width=""540"" height = ""360"">","null","","","","","","","",""
"null","","html-keyboard-response","18","137000","0.0-18.0","","","null","","","","","","","",""
"838.5999999996275","","image-keyboard-response","19","137840","0.0-19.0","","img/set1/S3.jpg","68","3","random","72","random,structured_load,structured_incentive,structured_normal","2,3,2,1,3,4","false","",""
"null","","html-keyboard-response","20","138204","0.0-20.0","","<img src=""img/set1/S3.jpg"" width=""540"" height = ""360"">","null","","","","","","","",""
"null","","html-keyboard-response","21","138406","0.0-21.0","","","null","","","","","","","",""
"1208.4000000003725","","image-keyboard-response","22","139615","0.0-22.0","","img/set1/S3.jpg","74","3","random","72","random,structured_load,structured_incentive,structured_normal","2,3,2,1,3,4","false","",""
"null","","html-keyboard-response","23","139981","0.0-23.0","","<img src=""img/set1/S3.jpg"" width=""540"" height = ""360"">","null","","","","","","","",""
"null","","html-keyboard-response","24","140183","0.0-24.0","","","null","","","","","","","",""
"696","","image-keyboard-response","25","140880","0.0-25.0","","img/set1/S3.jpg","72","3","random","72","random,structured_load,structured_incentive,structured_normal","2,3,2,1,3,4","true","",""
"null","","html-keyboard-response","26","141240","0.0-26.0","","<img src=""img/set1/S3.jpg"" width=""540"" height = ""360"" style=""border:16px solid orange"">","null","","","","","","","",""
"null","","html-keyboard-response","27","141445","0.0-27.0","","","null","","","","","","","",""
"1154.199999999255","","image-keyboard-response","28","142599","0.0-28.0","","img/set1/S1.jpg","83","1","random","83","random,structured_load,structured_incentive,structured_normal","2,3,2,1,3,4","true","",""
"null","","html-keyboard-response","29","142957","0.0-29.0","","<img src=""img/set1/S1.jpg"" width=""540"" height = ""360"" style=""border:16px solid orange"">","null","","","","","","","",""
"null","","html-keyboard-response","30","143173","0.0-30.0","","","null","","","","","","","",""
"907.5","","image-keyboard-response","31","144081","0.0-31.0","","img/set1/S2.jpg","68","2","random","68","random,structured_load,structured_incentive,structured_normal","2,3,2,1,3,4","true","",""
"null","","html-keyboard-response","32","144439","0.0-32.0","","<img src=""img/set1/S2.jpg"" width=""540"" height = ""360"" style=""border:16px solid orange"">","null","","","","","","","",""
"null","","html-keyboard-response","33","144641","0.0-33.0","","","null","","","","","","","",""
"982","","image-keyboard-response","34","145623","0.0-34.0","","img/set1/S4.jpg","74","4","random","74","random,structured_load,structured_incentive,structured_normal","2,3,2,1,3,4","true","",""
"null","","html-keyboard-response","35","145989","0.0-35.0","","<img src=""img/set1/S4.jpg"" width=""540"" height = ""360"" style=""border:16px solid orange"">","null","","","","","","","",""
"null","","html-keyboard-response","36","146191","0.0-36.0","","","null","","","","","","","",""
"1079.300000000745","","image-keyboard-response","37","147271","0.0-37.0","","img/set1/S2.jpg","68","2","random","68","random,structured_load,structured_incentive,structured_normal","2,3,2,1,3,4","true","",""
"null","","html-keyboard-response","38","147623","0.0-38.0","","<img src=""img/set1/S2.jpg"" width=""540"" height = ""360"" style=""border:16px solid orange"">","null","","","","","","","",""
"null","","html-keyboard-response","39","147825","0.0-39.0","","","null","","","","","","","",""
"1221.7999999988824","","image-keyboard-response","40","149047","0.0-40.0","","img/set1/S1.jpg","74","1","random","83","random,structured_load,structured_incentive,structured_normal","2,3,2,1,3,4","false","",""
"null","","html-keyboard-response","41","149401","0.0-41.0","","<img src=""img/set1/S1.jpg"" width=""540"" height = ""360"">","null","","","","","","","",""
"null","","html-keyboard-response","42","149617","0.0-42.0","","","null","","","","","","","",""
"941.7000000011176","","image-keyboard-response","43","150560","0.0-43.0","","img/set1/S1.jpg","83","1","random","83","random,structured_load,structured_incentive,structured_normal","2,3,2,1,3,4","true","",""
"null","","html-keyboard-response","44","150913","0.0-44.0","","<img src=""img/set1/S1.jpg"" width=""540"" height = ""360"" style=""border:16px solid orange"">","null","","","","","","","",""
"null","","html-keyboard-response","45","151117","0.0-45.0","","","null","","","","","","","",""
"609.8000000007451","","image-keyboard-response","46","151727","0.0-46.0","","img/set1/S1.jpg","83","1","random","83","random,structured_load,structured_incentive,structured_normal","2,3,2,1,3,4","true","",""
"null","","html-keyboard-response","47","152084","0.0-47.0","","<img src=""img/set1/S1.jpg"" width=""540"" height = ""360"" style=""border:16px solid orange"">","null","","","","","","","",""
"null","","html-keyboard-response","48","152286","0.0-48.0","","","null","","","","","","","",""
"1416.5999999996275","","image-keyboard-response","49","153703","0.0-49.0","","img/set1/S4.jpg","74","4","random","74","random,structured_load,structured_incentive,structured_normal","2,3,2,1,3,4","true","",""
"null","","html-keyboard-response","50","154055","0.0-50.0","","<img src=""img/set1/S4.jpg"" width=""540"" height = ""360"" style=""border:16px solid orange"">","null","","","","","","","",""
"null","","html-keyboard-response","51","154272","0.0-51.0","","","null","","","","","","","",""
"919.9000000003725","","image-keyboard-response","52","155193","0.0-52.0","","img/set1/S2.jpg","68","2","random","68","random,structured_load,structured_incentive,structured_normal","2,3,2,1,3,4","true","",""
"null","","html-keyboard-response","53","155549","0.0-53.0","","<img src=""img/set1/S2.jpg"" width=""540"" height = ""360"" style=""border:16px solid orange"">","null","","","","","","","",""
"null","","html-keyboard-response","54","155753","0.0-54.0","","","null","","","","","","","",""
"789.5","","image-keyboard-response","55","156543","0.0-55.0","","img/set1/S2.jpg","68","2","random","68","random,structured_load,structured_incentive,structured_normal","2,3,2,1,3,4","true","",""
"null","","html-keyboard-response","56","156906","0.0-56.0","","<img src=""img/set1/S2.jpg"" width=""540"" height = ""360"" style=""border:16px solid orange"">","null","","","","","","","",""
"null","","html-keyboard-response","57","157109","0.0-57.0","","","null","","","","","","","",""
"1186.0999999996275","","image-keyboard-response","58","158295","0.0-58.0","","img/set1/S1.jpg","83","1","random","83","random,structured_load,structured_incentive,structured_normal","2,3,2,1,3,4","true","",""
"null","","html-keyboard-response","59","158656","0.0-59.0","","<img src=""img/set1/S1.jpg"" width=""540"" height = ""360"" style=""border:16px solid orange"">","null","","","","","","","",""
"null","","html-keyboard-response","60","158858","0.0-60.0","","","null","","","","","","","",""
"708.1999999992549","","image-keyboard-response","61","159567","0.0-61.0","","img/set1/S4.jpg","72","4","random","74","random,structured_load,structured_incentive,structured_normal","2,3,2,1,3,4","false","",""
"null","","html-keyboard-response","62","159925","0.0-62.0","","<img src=""img/set1/S4.jpg"" width=""540"" height = ""360"">","null","","","","","","","",""
"null","","html-keyboard-response","63","160128","0.0-63.0","","","null","","","","","","","",""
"742.5999999996275","","image-keyboard-response","64","160872","0.0-64.0","","img/set1/S3.jpg","72","3","random","72","random,structured_load,structured_incentive,structured_normal","2,3,2,1,3,4","true","",""
"null","","html-keyboard-response","65","161225","0.0-65.0","","<img src=""img/set1/S3.jpg"" width=""540"" height = ""360"" style=""border:16px solid orange"">","null","","","","","","","",""
"null","","html-keyboard-response","66","161429","0.0-66.0","","","null","","","","","","","",""
"521.8999999985099","","image-keyboard-response","67","161952","0.0-67.0","","img/set1/S4.jpg","74","4","random","74","random,structured_load,structured_incentive,structured_normal","2,3,2,1,3,4","true","",""
"null","","html-keyboard-response","68","162306","0.0-68.0","","<img src=""img/set1/S4.jpg"" width=""540"" height = ""360"" style=""border:16px solid orange"">","null","","","","","","","",""
"null","","html-keyboard-response","69","162508","0.0-69.0","","","null","","","","","","","",""
"1010","","image-keyboard-response","70","163520","0.0-70.0","","img/set1/S2.jpg","68","2","random","68","random,structured_load,structured_incentive,structured_normal","2,3,2,1,3,4","true","",""
"null","","html-keyboard-response","71","163883","0.0-71.0","","<img src=""img/set1/S2.jpg"" width=""540"" height = ""360"" style=""border:16px solid orange"">","null","","","","","","","",""
"null","","html-keyboard-response","72","164088","0.0-72.0","","","null","","","","","","","",""
"934.8000000007451","","image-keyboard-response","73","165023","0.0-73.0","","img/set1/S4.jpg","74","4","random","74","random,structured_load,structured_incentive,structured_normal","2,3,2,1,3,4","true","",""
"null","","html-keyboard-response","74","165384","0.0-74.0","","<img src=""img/set1/S4.jpg"" width=""540"" height = ""360"" style=""border:16px solid orange"">","null","","","","","","","",""
"null","","html-keyboard-response","75","165587","0.0-75.0","","","null","","","","","","","",""
"741.1999999992549","","image-keyboard-response","76","166329","0.0-76.0","","img/set1/S3.jpg","72","3","random","72","random,structured_load,structured_incentive,structured_normal","2,3,2,1,3,4","true","",""
"null","","html-keyboard-response","77","166694","0.0-77.0","","<img src=""img/set1/S3.jpg"" width=""540"" height = ""360"" style=""border:16px solid orange"">","null","","","","","","","",""
"null","","html-keyboard-response","78","166900","0.0-78.0","","","null","","","","","","","",""
"955.0999999996275","","image-keyboard-response","79","167856","0.0-79.0","","img/set1/S1.jpg","83","1","random","83","random,structured_load,structured_incentive,structured_normal","2,3,2,1,3,4","true","",""
"null","","html-keyboard-response","80","168212","0.0-80.0","","<img src=""img/set1/S1.jpg"" width=""540"" height = ""360"" style=""border:16px solid orange"">","null","","","","","","","",""
"null","","html-keyboard-response","81","168416","0.0-81.0","","","null","","","","","","","",""
"623","","image-keyboard-response","82","169039","0.0-82.0","","img/set1/S1.jpg","83","1","random","83","random,structured_load,structured_incentive,structured_normal","2,3,2,1,3,4","true","",""
"null","","html-keyboard-response","83","169402","0.0-83.0","","<img src=""img/set1/S1.jpg"" width=""540"" height = ""360"" style=""border:16px solid orange"">","null","","","","","","","",""
"null","","html-keyboard-response","84","169608","0.0-84.0","","","null","","","","","","","",""
"726","","image-keyboard-response","85","170335","0.0-85.0","","img/set1/S2.jpg","68","2","random","68","random,structured_load,structured_incentive,structured_normal","2,3,2,1,3,4","true","",""
"null","","html-keyboard-response","86","170690","0.0-86.0","","<img src=""img/set1/S2.jpg"" width=""540"" height = ""360"" style=""border:16px solid orange"">","null","","","","","","","",""
"null","","html-keyboard-response","87","170893","0.0-87.0","","","null","","","","","","","",""
"553.4000000003725","","image-keyboard-response","88","171447","0.0-88.0","","img/set1/S2.jpg","68","2","random","68","random,structured_load,structured_incentive,structured_normal","2,3,2,1,3,4","true","",""
"null","","html-keyboard-response","89","171813","0.0-89.0","","<img src=""img/set1/S2.jpg"" width=""540"" height = ""360"" style=""border:16px solid orange"">","null","","","","","","","",""
"null","","html-keyboard-response","90","172021","0.0-90.0","","","null","","","","","","","",""
"849.3999999985099","","image-keyboard-response","91","172871","0.0-91.0","","img/set1/S4.jpg","74","4","random","74","random,structured_load,structured_incentive,structured_normal","2,3,2,1,3,4","true","",""
"null","","html-keyboard-response","92","173224","0.0-92.0","","<img src=""img/set1/S4.jpg"" width=""540"" height = ""360"" style=""border:16px solid orange"">","null","","","","","","","",""
"null","","html-keyboard-response","93","173425","0.0-93.0","","","null","","","","","","","",""
"645.2999999988824","","image-keyboard-response","94","174071","0.0-94.0","","img/set1/S3.jpg","72","3","random","72","random,structured_load,structured_incentive,structured_normal","2,3,2,1,3,4","true","",""
"null","","html-keyboard-response","95","174428","0.0-95.0","","<img src=""img/set1/S3.jpg"" width=""540"" height = ""360"" style=""border:16px solid orange"">","null","","","","","","","",""
"null","","html-keyboard-response","96","174630","0.0-96.0","","","null","","","","","","","",""
"960.6999999992549","","image-keyboard-response","97","175591","0.0-97.0","","img/set1/S1.jpg","83","1","random","83","random,structured_load,structured_incentive,structured_normal","2,3,2,1,3,4","true","",""
"null","","html-keyboard-response","98","175945","0.0-98.0","","<img src=""img/set1/S1.jpg"" width=""540"" height = ""360"" style=""border:16px solid orange"">","null","","","","","","","",""
"null","","html-keyboard-response","99","176161","0.0-99.0","","","null","","","","","","","",""
"599.0999999996275","","image-keyboard-response","100","176761","0.0-100.0","","img/set1/S2.jpg","68","2","random","68","random,structured_load,structured_incentive,structured_normal","2,3,2,1,3,4","true","",""
"null","","html-keyboard-response","101","177125","0.0-101.0","","<img src=""img/set1/S2.jpg"" width=""540"" height = ""360"" style=""border:16px solid orange"">","null","","","","","","","",""
"null","","html-keyboard-response","102","177326","0.0-102.0","","","null","","","","","","","",""
"984.5","","image-keyboard-response","103","178312","0.0-103.0","","img/set1/S3.jpg","72","3","random","72","random,structured_load,structured_incentive,structured_normal","2,3,2,1,3,4","true","",""
"null","","html-keyboard-response","104","178674","0.0-104.0","","<img src=""img/set1/S3.jpg"" width=""540"" height = ""360"" style=""border:16px solid orange"">","null","","","","","","","",""
"null","","html-keyboard-response","105","178877","0.0-105.0","","","null","","","","","","","",""
"1161.5","","image-keyboard-response","106","180040","0.0-106.0","","img/set1/S1.jpg","83","1","random","83","random,structured_load,structured_incentive,structured_normal","2,3,2,1,3,4","true","",""
"null","","html-keyboard-response","107","180406","0.0-107.0","","<img src=""img/set1/S1.jpg"" width=""540"" height = ""360"" style=""border:16px solid orange"">","null","","","","","","","",""
"null","","html-keyboard-response","108","180610","0.0-108.0","","","null","","","","","","","",""
"804.7999999988824","","image-keyboard-response","109","181415","0.0-109.0","","img/set1/S4.jpg","74","4","random","74","random,structured_load,structured_incentive,structured_normal","2,3,2,1,3,4","true","",""
"null","","html-keyboard-response","110","181777","0.0-110.0","","<img src=""img/set1/S4.jpg"" width=""540"" height = ""360"" style=""border:16px solid orange"">","null","","","","","","","",""
"null","","html-keyboard-response","111","181984","0.0-111.0","","","null","","","","","","","",""
"566.9000000003725","","image-keyboard-response","112","182551","0.0-112.0","","img/set1/S4.jpg","74","4","random","74","random,structured_load,structured_incentive,structured_normal","2,3,2,1,3,4","true","",""
"null","","html-keyboard-response","113","182917","0.0-113.0","","<img src=""img/set1/S4.jpg"" width=""540"" height = ""360"" style=""border:16px solid orange"">","null","","","","","","","",""
"null","","html-keyboard-response","114","183122","0.0-114.0","","","null","","","","","","","",""
"572.6999999992549","","image-keyboard-response","115","183695","0.0-115.0","","img/set1/S3.jpg","72","3","random","72","random,structured_load,structured_incentive,structured_normal","2,3,2,1,3,4","true","",""
"null","","html-keyboard-response","116","184053","0.0-116.0","","<img src=""img/set1/S3.jpg"" width=""540"" height = ""360"" style=""border:16px solid orange"">","null","","","","","","","",""
"null","","html-keyboard-response","117","184255","0.0-117.0","","","null","","","","","","","",""
"591.7999999988824","","image-keyboard-response","118","184847","0.0-118.0","","img/set1/S2.jpg","68","2","random","68","random,structured_load,structured_incentive,structured_normal","2,3,2,1,3,4","true","",""
"null","","html-keyboard-response","119","185207","0.0-119.0","","<img src=""img/set1/S2.jpg"" width=""540"" height = ""360"" style=""border:16px solid orange"">","null","","","","","","","",""
"null","","html-keyboard-response","120","185410","0.0-120.0","","","null","","","","","","","",""
"468.5","","image-keyboard-response","121","185879","0.0-121.0","","img/set1/S1.jpg","83","1","random","83","random,structured_load,structured_incentive,structured_normal","2,3,2,1,3,4","true","",""
"null","","html-keyboard-response","122","186235","0.0-122.0","","<img src=""img/set1/S1.jpg"" width=""540"" height = ""360"" style=""border:16px solid orange"">","null","","","","","","","",""
"null","","html-keyboard-response","123","186437","0.0-123.0","","","null","","","","","","","",""
"730.6000000014901","","image-keyboard-response","124","187169","0.0-124.0","","img/set1/S3.jpg","72","3","random","72","random,structured_load,structured_incentive,structured_normal","2,3,2,1,3,4","true","",""
"null","","html-keyboard-response","125","187530","0.0-125.0","","<img src=""img/set1/S3.jpg"" width=""540"" height = ""360"" style=""border:16px solid orange"">","null","","","","","","","",""
"null","","html-keyboard-response","126","187733","0.0-126.0","","","null","","","","","","","",""
"913.2000000011176","","image-keyboard-response","127","188647","0.0-127.0","","img/set1/S1.jpg","83","1","random","83","random,structured_load,structured_incentive,structured_normal","2,3,2,1,3,4","true","",""
"null","","html-keyboard-response","128","189011","0.0-128.0","","<img src=""img/set1/S1.jpg"" width=""540"" height = ""360"" style=""border:16px solid orange"">","null","","","","","","","",""
"null","","html-keyboard-response","129","189227","0.0-129.0","","","null","","","","","","","",""
"739.3999999985099","","image-keyboard-response","130","189967","0.0-130.0","","img/set1/S4.jpg","74","4","random","74","random,structured_load,structured_incentive,structured_normal","2,3,2,1,3,4","true","",""
"null","","html-keyboard-response","131","190322","0.0-131.0","","<img src=""img/set1/S4.jpg"" width=""540"" height = ""360"" style=""border:16px solid orange"">","null","","","","","","","",""
"null","","html-keyboard-response","132","190537","0.0-132.0","","","null","","","","","","","",""
"733.2000000011176","","image-keyboard-response","133","191271","0.0-133.0","","img/set1/S2.jpg","68","2","random","68","random,structured_load,structured_incentive,structured_normal","2,3,2,1,3,4","true","",""
"null","","html-keyboard-response","134","191629","0.0-134.0","","<img src=""img/set1/S2.jpg"" width=""540"" height = ""360"" style=""border:16px solid orange"">","null","","","","","","","",""
"null","","html-keyboard-response","135","191846","0.0-135.0","","","null","","","","","","","",""
"681.2000000011176","","image-keyboard-response","136","192528","0.0-136.0","","img/set1/S4.jpg","72","4","random","74","random,structured_load,structured_incentive,structured_normal","2,3,2,1,3,4","false","",""
"null","","html-keyboard-response","137","192892","0.0-137.0","","<img src=""img/set1/S4.jpg"" width=""540"" height = ""360"">","null","","","","","","","",""
"null","","html-keyboard-response","138","193096","0.0-138.0","","","null","","","","","","","",""
"734.6999999992549","","image-keyboard-response","139","193831","0.0-139.0","","img/set1/S2.jpg","68","2","random","68","random,structured_load,structured_incentive,structured_normal","2,3,2,1,3,4","true","",""
"null","","html-keyboard-response","140","194191","0.0-140.0","","<img src=""img/set1/S2.jpg"" width=""540"" height = ""360"" style=""border:16px solid orange"">","null","","","","","","","",""
"null","","html-keyboard-response","141","194393","0.0-141.0","","","null","","","","","","","",""
"589.4000000003725","","image-keyboard-response","142","194983","0.0-142.0","","img/set1/S2.jpg","68","2","random","68","random,structured_load,structured_incentive,structured_normal","2,3,2,1,3,4","true","",""
"null","","html-keyboard-response","143","195345","0.0-143.0","","<img src=""img/set1/S2.jpg"" width=""540"" height = ""360"" style=""border:16px solid orange"">","null","","","","","","","",""
"null","","html-keyboard-response","144","195546","0.0-144.0","","","null","","","","","","","",""
"812.7999999988824","","image-keyboard-response","145","196359","0.0-145.0","","img/set1/S3.jpg","72","3","random","72","random,structured_load,structured_incentive,structured_normal","2,3,2,1,3,4","true","",""
"null","","html-keyboard-response","146","196717","0.0-146.0","","<img src=""img/set1/S3.jpg"" width=""540"" height = ""360"" style=""border:16px solid orange"">","null","","","","","","","",""
"null","","html-keyboard-response","147","196942","0.0-147.0","","","null","","","","","","","",""
"689.7000000011176","","image-keyboard-response","148","197633","0.0-148.0","","img/set1/S1.jpg","83","1","random","83","random,structured_load,structured_incentive,structured_normal","2,3,2,1,3,4","true","",""
"null","","html-keyboard-response","149","197986","0.0-149.0","","<img src=""img/set1/S1.jpg"" width=""540"" height = ""360"" style=""border:16px solid orange"">","null","","","","","","","",""
"null","","html-keyboard-response","150","198191","0.0-150.0","","","null","","","","","","","",""
"615.2999999988824","","image-keyboard-response","151","198807","0.0-151.0","","img/set1/S4.jpg","74","4","random","74","random,structured_load,structured_incentive,structured_normal","2,3,2,1,3,4","true","",""
"null","","html-keyboard-response","152","199161","0.0-152.0","","<img src=""img/set1/S4.jpg"" width=""540"" height = ""360"" style=""border:16px solid orange"">","null","","","","","","","",""
"null","","html-keyboard-response","153","199364","0.0-153.0","","","null","","","","","","","",""
"682.2999999988824","","image-keyboard-response","154","200047","0.0-154.0","","img/set1/S1.jpg","83","1","random","83","random,structured_load,structured_incentive,structured_normal","2,3,2,1,3,4","true","",""
"null","","html-keyboard-response","155","200409","0.0-155.0","","<img src=""img/set1/S1.jpg"" width=""540"" height = ""360"" style=""border:16px solid orange"">","null","","","","","","","",""
"null","","html-keyboard-response","156","200612","0.0-156.0","","","null","","","","","","","",""
"538.0999999996275","","image-keyboard-response","157","201151","0.0-157.0","","img/set1/S1.jpg","83","1","random","83","random,structured_load,structured_incentive,structured_normal","2,3,2,1,3,4","true","",""
"null","","html-keyboard-response","158","201518","0.0-158.0","","<img src=""img/set1/S1.jpg"" width=""540"" height = ""360"" style=""border:16px solid orange"">","null","","","","","","","",""
"null","","html-keyboard-response","159","201734","0.0-159.0","","","null","","","","","","","",""
"792.4000000003725","","image-keyboard-response","160","202528","0.0-160.0","","img/set1/S4.jpg","74","4","random","74","random,structured_load,structured_incentive,structured_normal","2,3,2,1,3,4","true","",""
"null","","html-keyboard-response","161","202889","0.0-161.0","","<img src=""img/set1/S4.jpg"" width=""540"" height = ""360"" style=""border:16px solid orange"">","null","","","","","","","",""
"null","","html-keyboard-response","162","203093","0.0-162.0","","","null","","","","","","","",""
"545.4000000003725","","image-keyboard-response","163","203639","0.0-163.0","","img/set1/S4.jpg","74","4","random","74","random,structured_load,structured_incentive,structured_normal","2,3,2,1,3,4","true","",""
"null","","html-keyboard-response","164","203998","0.0-164.0","","<img src=""img/set1/S4.jpg"" width=""540"" height = ""360"" style=""border:16px solid orange"">","null","","","","","","","",""
"null","","html-keyboard-response","165","204203","0.0-165.0","","","null","","","","","","","",""
"699.4000000003725","","image-keyboard-response","166","204903","0.0-166.0","","img/set1/S2.jpg","68","2","random","68","random,structured_load,structured_incentive,structured_normal","2,3,2,1,3,4","true","",""
"null","","html-keyboard-response","167","205269","0.0-167.0","","<img src=""img/set1/S2.jpg"" width=""540"" height = ""360"" style=""border:16px solid orange"">","null","","","","","","","",""
"null","","html-keyboard-response","168","205472","0.0-168.0","","","null","","","","","","","",""
"646.1999999992549","","image-keyboard-response","169","206119","0.0-169.0","","img/set1/S4.jpg","74","4","random","74","random,structured_load,structured_incentive,structured_normal","2,3,2,1,3,4","true","",""
"null","","html-keyboard-response","170","206471","0.0-170.0","","<img src=""img/set1/S4.jpg"" width=""540"" height = ""360"" style=""border:16px solid orange"">","null","","","","","","","",""
"null","","html-keyboard-response","171","206673","0.0-171.0","","","null","","","","","","","",""
"541.8999999985099","","image-keyboard-response","172","207215","0.0-172.0","","img/set1/S3.jpg","72","3","random","72","random,structured_load,structured_incentive,structured_normal","2,3,2,1,3,4","true","",""
"null","","html-keyboard-response","173","207578","0.0-173.0","","<img src=""img/set1/S3.jpg"" width=""540"" height = ""360"" style=""border:16px solid orange"">","null","","","","","","","",""
"null","","html-keyboard-response","174","207781","0.0-174.0","","","null","","","","","","","",""
"754.8999999985099","","image-keyboard-response","175","208537","0.0-175.0","","img/set1/S2.jpg","68","2","random","68","random,structured_load,structured_incentive,structured_normal","2,3,2,1,3,4","true","",""
"null","","html-keyboard-response","176","208890","0.0-176.0","","<img src=""img/set1/S2.jpg"" width=""540"" height = ""360"" style=""border:16px solid orange"">","null","","","","","","","",""
"null","","html-keyboard-response","177","209091","0.0-177.0","","","null","","","","","","","",""
"643.6000000014901","","image-keyboard-response","178","209735","0.0-178.0","","img/set1/S2.jpg","68","2","random","68","random,structured_load,structured_incentive,structured_normal","2,3,2,1,3,4","true","",""
"null","","html-keyboard-response","179","210090","0.0-179.0","","<img src=""img/set1/S2.jpg"" width=""540"" height = ""360"" style=""border:16px solid orange"">","null","","","","","","","",""
"null","","html-keyboard-response","180","210291","0.0-180.0","","","null","","","","","","","",""
"690.9000000003725","","image-keyboard-response","181","210983","0.0-181.0","","img/set1/S4.jpg","74","4","random","74","random,structured_load,structured_incentive,structured_normal","2,3,2,1,3,4","true","",""
"null","","html-keyboard-response","182","211338","0.0-182.0","","<img src=""img/set1/S4.jpg"" width=""540"" height = ""360"" style=""border:16px solid orange"">","null","","","","","","","",""
"null","","html-keyboard-response","183","211542","0.0-183.0","","","null","","","","","","","",""
"720.7999999988824","","image-keyboard-response","184","212263","0.0-184.0","","img/set1/S3.jpg","72","3","random","72","random,structured_load,structured_incentive,structured_normal","2,3,2,1,3,4","true","",""
"null","","html-keyboard-response","185","212630","0.0-185.0","","<img src=""img/set1/S3.jpg"" width=""540"" height = ""360"" style=""border:16px solid orange"">","null","","","","","","","",""
"null","","html-keyboard-response","186","212833","0.0-186.0","","","null","","","","","","","",""
"653.5","","image-keyboard-response","187","213487","0.0-187.0","","img/set1/S2.jpg","68","2","random","68","random,structured_load,structured_incentive,structured_normal","2,3,2,1,3,4","true","",""
"null","","html-keyboard-response","188","213841","0.0-188.0","","<img src=""img/set1/S2.jpg"" width=""540"" height = ""360"" style=""border:16px solid orange"">","null","","","","","","","",""
"null","","html-keyboard-response","189","214044","0.0-189.0","","","null","","","","","","","",""
"474.59999999962747","","image-keyboard-response","190","214519","0.0-190.0","","img/set1/S1.jpg","83","1","random","83","random,structured_load,structured_incentive,structured_normal","2,3,2,1,3,4","true","",""
"null","","html-keyboard-response","191","214883","0.0-191.0","","<img src=""img/set1/S1.jpg"" width=""540"" height = ""360"" style=""border:16px solid orange"">","null","","","","","","","",""
"null","","html-keyboard-response","192","215087","0.0-192.0","","","null","","","","","","","",""
"1015.9000000003725","","image-keyboard-response","193","216103","0.0-193.0","","img/set1/S3.jpg","72","3","random","72","random,structured_load,structured_incentive,structured_normal","2,3,2,1,3,4","true","",""
"null","","html-keyboard-response","194","216470","0.0-194.0","","<img src=""img/set1/S3.jpg"" width=""540"" height = ""360"" style=""border:16px solid orange"">","null","","","","","","","",""
"null","","html-keyboard-response","195","216673","0.0-195.0","","","null","","","","","","","",""
"685.5999999996275","","image-keyboard-response","196","217359","0.0-196.0","","img/set1/S2.jpg","68","2","random","68","random,structured_load,structured_incentive,structured_normal","2,3,2,1,3,4","true","",""
"null","","html-keyboard-response","197","217718","0.0-197.0","","<img src=""img/set1/S2.jpg"" width=""540"" height = ""360"" style=""border:16px solid orange"">","null","","","","","","","",""
"null","","html-keyboard-response","198","217933","0.0-198.0","","","null","","","","","","","",""
"634.8000000007451","","image-keyboard-response","199","218569","0.0-199.0","","img/set1/S3.jpg","68","3","random","72","random,structured_load,structured_incentive,structured_normal","2,3,2,1,3,4","false","",""
"null","","html-keyboard-response","200","218930","0.0-200.0","","<img src=""img/set1/S3.jpg"" width=""540"" height = ""360"">","null","","","","","","","",""
"null","","html-keyboard-response","201","219135","0.0-201.0","","","null","","","","","","","",""
"607.4000000003725","","image-keyboard-response","202","219743","0.0-202.0","","img/set1/S3.jpg","72","3","random","72","random,structured_load,structured_incentive,structured_normal","2,3,2,1,3,4","true","",""
"null","","html-keyboard-response","203","220109","0.0-203.0","","<img src=""img/set1/S3.jpg"" width=""540"" height = ""360"" style=""border:16px solid orange"">","null","","","","","","","",""
"null","","html-keyboard-response","204","220325","0.0-204.0","","","null","","","","","","","",""
"473.2000000011176","","image-keyboard-response","205","220799","0.0-205.0","","img/set1/S3.jpg","72","3","random","72","random,structured_load,structured_incentive,structured_normal","2,3,2,1,3,4","true","",""
"null","","html-keyboard-response","206","221153","0.0-206.0","","<img src=""img/set1/S3.jpg"" width=""540"" height = ""360"" style=""border:16px solid orange"">","null","","","","","","","",""
"null","","html-keyboard-response","207","221355","0.0-207.0","","","null","","","","","","","",""
"659.8000000007451","","image-keyboard-response","208","222015","0.0-208.0","","img/set1/S4.jpg","74","4","random","74","random,structured_load,structured_incentive,structured_normal","2,3,2,1,3,4","true","",""
"null","","html-keyboard-response","209","222368","0.0-209.0","","<img src=""img/set1/S4.jpg"" width=""540"" height = ""360"" style=""border:16px solid orange"">","null","","","","","","","",""
"null","","html-keyboard-response","210","222571","0.0-210.0","","","null","","","","","","","",""
"619.5","","image-keyboard-response","211","223191","0.0-211.0","","img/set1/S1.jpg","83","1","random","83","random,structured_load,structured_incentive,structured_normal","2,3,2,1,3,4","true","",""
"null","","html-keyboard-response","212","223555","0.0-212.0","","<img src=""img/set1/S1.jpg"" width=""540"" height = ""360"" style=""border:16px solid orange"">","null","","","","","","","",""
"null","","html-keyboard-response","213","223760","0.0-213.0","","","null","","","","","","","",""
"638.6999999992549","","image-keyboard-response","214","224399","0.0-214.0","","img/set1/S1.jpg","83","1","random","83","random,structured_load,structured_incentive,structured_normal","2,3,2,1,3,4","true","",""
"null","","html-keyboard-response","215","224760","0.0-215.0","","<img src=""img/set1/S1.jpg"" width=""540"" height = ""360"" style=""border:16px solid orange"">","null","","","","","","","",""
"null","","html-keyboard-response","216","224963","0.0-216.0","","","null","","","","","","","",""
"603.9000000003725","","image-keyboard-response","217","225567","0.0-217.0","","img/set1/S1.jpg","83","1","random","83","random,structured_load,structured_incentive,structured_normal","2,3,2,1,3,4","true","",""
"null","","html-keyboard-response","218","225933","0.0-218.0","","<img src=""img/set1/S1.jpg"" width=""540"" height = ""360"" style=""border:16px solid orange"">","null","","","","","","","",""
"null","","html-keyboard-response","219","226136","0.0-219.0","","","null","","","","","","","",""
"527.1000000014901","","image-keyboard-response","220","226663","0.0-220.0","","img/set1/S1.jpg","83","1","random","83","random,structured_load,structured_incentive,structured_normal","2,3,2,1,3,4","true","",""
"null","","html-keyboard-response","221","227026","0.0-221.0","","<img src=""img/set1/S1.jpg"" width=""540"" height = ""360"" style=""border:16px solid orange"">","null","","","","","","","",""
"null","","html-keyboard-response","222","227229","0.0-222.0","","","null","","","","","","","",""
"945.9000000003725","","image-keyboard-response","223","228176","0.0-223.0","","img/set1/S3.jpg","72","3","random","72","random,structured_load,structured_incentive,structured_normal","2,3,2,1,3,4","true","",""
"null","","html-keyboard-response","224","228539","0.0-224.0","","<img src=""img/set1/S3.jpg"" width=""540"" height = ""360"" style=""border:16px solid orange"">","null","","","","","","","",""
"null","","html-keyboard-response","225","228741","0.0-225.0","","","null","","","","","","","",""
"691.2999999988824","","image-keyboard-response","226","229433","0.0-226.0","","img/set1/S1.jpg","83","1","random","83","random,structured_load,structured_incentive,structured_normal","2,3,2,1,3,4","true","",""
"null","","html-keyboard-response","227","229791","0.0-227.0","","<img src=""img/set1/S1.jpg"" width=""540"" height = ""360"" style=""border:16px solid orange"">","null","","","","","","","",""
"null","","html-keyboard-response","228","229993","0.0-228.0","","","null","","","","","","","",""
"621","","image-keyboard-response","229","230615","0.0-229.0","","img/set1/S2.jpg","68","2","random","68","random,structured_load,structured_incentive,structured_normal","2,3,2,1,3,4","true","",""
"null","","html-keyboard-response","230","230974","0.0-230.0","","<img src=""img/set1/S2.jpg"" width=""540"" height = ""360"" style=""border:16px solid orange"">","null","","","","","","","",""
"null","","html-keyboard-response","231","231176","0.0-231.0","","","null","","","","","","","",""
"590.7999999988824","","image-keyboard-response","232","231767","0.0-232.0","","img/set1/S2.jpg","68","2","random","68","random,structured_load,structured_incentive,structured_normal","2,3,2,1,3,4","true","",""
"null","","html-keyboard-response","233","232127","0.0-233.0","","<img src=""img/set1/S2.jpg"" width=""540"" height = ""360"" style=""border:16px solid orange"">","null","","","","","","","",""
"null","","html-keyboard-response","234","232328","0.0-234.0","","","null","","","","","","","",""
"446.5","","image-keyboard-response","235","232775","0.0-235.0","","img/set1/S4.jpg","74","4","random","74","random,structured_load,structured_incentive,structured_normal","2,3,2,1,3,4","true","",""
"null","","html-keyboard-response","236","233142","0.0-236.0","","<img src=""img/set1/S4.jpg"" width=""540"" height = ""360"" style=""border:16px solid orange"">","null","","","","","","","",""
"null","","html-keyboard-response","237","233345","0.0-237.0","","","null","","","","","","","",""
"645.8999999985099","","image-keyboard-response","238","233991","0.0-238.0","","img/set1/S3.jpg","72","3","random","72","random,structured_load,structured_incentive,structured_normal","2,3,2,1,3,4","true","",""
"null","","html-keyboard-response","239","234357","0.0-239.0","","<img src=""img/set1/S3.jpg"" width=""540"" height = ""360"" style=""border:16px solid orange"">","null","","","","","","","",""
"null","","html-keyboard-response","240","234561","0.0-240.0","","","null","","","","","","","",""
"470.1000000014901","","image-keyboard-response","241","235031","0.0-241.0","","img/set1/S3.jpg","72","3","random","72","random,structured_load,structured_incentive,structured_normal","2,3,2,1,3,4","true","",""
"null","","html-keyboard-response","242","235385","0.0-242.0","","<img src=""img/set1/S3.jpg"" width=""540"" height = ""360"" style=""border:16px solid orange"">","null","","","","","","","",""
"null","","html-keyboard-response","243","235587","0.0-243.0","","","null","","","","","","","",""
"419.40000000037253","","image-keyboard-response","244","236008","0.0-244.0","","img/set1/S4.jpg","74","4","random","74","random,structured_load,structured_incentive,structured_normal","2,3,2,1,3,4","true","",""
"null","","html-keyboard-response","245","236364","0.0-245.0","","<img src=""img/set1/S4.jpg"" width=""540"" height = ""360"" style=""border:16px solid orange"">","null","","","","","","","",""
"null","","html-keyboard-response","246","236566","0.0-246.0","","","null","","","","","","","",""
"528.5999999996275","","image-keyboard-response","247","237095","0.0-247.0","","img/set1/S3.jpg","72","3","random","72","random,structured_load,structured_incentive,structured_normal","2,3,2,1,3,4","true","",""
"null","","html-keyboard-response","248","237460","0.0-248.0","","<img src=""img/set1/S3.jpg"" width=""540"" height = ""360"" style=""border:16px solid orange"">","null","","","","","","","",""
"null","","html-keyboard-response","249","237664","0.0-249.0","","","null","","","","","","","",""
"486.69999999925494","","image-keyboard-response","250","238151","0.0-250.0","","img/set1/S4.jpg","74","4","random","74","random,structured_load,structured_incentive,structured_normal","2,3,2,1,3,4","true","",""
"null","","html-keyboard-response","251","238508","0.0-251.0","","<img src=""img/set1/S4.jpg"" width=""540"" height = ""360"" style=""border:16px solid orange"">","null","","","","","","","",""
"null","","html-keyboard-response","252","238713","0.0-252.0","","","null","","","","","","","",""
"581.2999999988824","","image-keyboard-response","253","239295","0.0-253.0","","img/set1/S1.jpg","83","1","random","83","random,structured_load,structured_incentive,structured_normal","2,3,2,1,3,4","true","",""
"null","","html-keyboard-response","254","239658","0.0-254.0","","<img src=""img/set1/S1.jpg"" width=""540"" height = ""360"" style=""border:16px solid orange"">","null","","","","","","","",""
"null","","html-keyboard-response","255","239860","0.0-255.0","","","null","","","","","","","",""
"851.5999999996275","","image-keyboard-response","256","240713","0.0-256.0","","img/set1/S4.jpg","74","4","random","74","random,structured_load,structured_incentive,structured_normal","2,3,2,1,3,4","true","",""
"null","","html-keyboard-response","257","241065","0.0-257.0","","<img src=""img/set1/S4.jpg"" width=""540"" height = ""360"" style=""border:16px solid orange"">","null","","","","","","","",""
"null","","html-keyboard-response","258","241281","0.0-258.0","","","null","","","","","","","",""
"517.3999999985099","","image-keyboard-response","259","241799","0.0-259.0","","img/set1/S4.jpg","74","4","random","74","random,structured_load,structured_incentive,structured_normal","2,3,2,1,3,4","true","",""
"null","","html-keyboard-response","260","242153","0.0-260.0","","<img src=""img/set1/S4.jpg"" width=""540"" height = ""360"" style=""border:16px solid orange"">","null","","","","","","","",""
"null","","html-keyboard-response","261","242368","0.0-261.0","","","null","","","","","","","",""
"478.5","","image-keyboard-response","262","242847","0.0-262.0","","img/set1/S4.jpg","74","4","random","74","random,structured_load,structured_incentive,structured_normal","2,3,2,1,3,4","true","",""
"null","","html-keyboard-response","263","243209","0.0-263.0","","<img src=""img/set1/S4.jpg"" width=""540"" height = ""360"" style=""border:16px solid orange"">","null","","","","","","","",""
"null","","html-keyboard-response","264","243412","0.0-264.0","","","null","","","","","","","",""
"506.19999999925494","","image-keyboard-response","265","243919","0.0-265.0","","img/set1/S3.jpg","72","3","random","72","random,structured_load,structured_incentive,structured_normal","2,3,2,1,3,4","true","",""
"null","","html-keyboard-response","266","244282","0.0-266.0","","<img src=""img/set1/S3.jpg"" width=""540"" height = ""360"" style=""border:16px solid orange"">","null","","","","","","","",""
"null","","html-keyboard-response","267","244485","0.0-267.0","","","null","","","","","","","",""
"657.3000000007451","","image-keyboard-response","268","245144","0.0-268.0","","img/set1/S2.jpg","68","2","random","68","random,structured_load,structured_incentive,structured_normal","2,3,2,1,3,4","true","",""
"null","","html-keyboard-response","269","245497","0.0-269.0","","<img src=""img/set1/S2.jpg"" width=""540"" height = ""360"" style=""border:16px solid orange"">","null","","","","","","","",""
"null","","html-keyboard-response","270","245699","0.0-270.0","","","null","","","","","","","",""
"491.2999999988824","","image-keyboard-response","271","246191","0.0-271.0","","img/set1/S2.jpg","68","2","random","68","random,structured_load,structured_incentive,structured_normal","2,3,2,1,3,4","true","",""
"null","","html-keyboard-response","272","246550","0.0-272.0","","<img src=""img/set1/S2.jpg"" width=""540"" height = ""360"" style=""border:16px solid orange"">","null","","","","","","","",""
"null","","html-keyboard-response","273","246755","0.0-273.0","","","null","","","","","","","",""
"523.5999999996275","","image-keyboard-response","274","247280","0.0-274.0","","img/set1/S4.jpg","74","4","random","74","random,structured_load,structured_incentive,structured_normal","2,3,2,1,3,4","true","",""
"null","","html-keyboard-response","275","247631","0.0-275.0","","<img src=""img/set1/S4.jpg"" width=""540"" height = ""360"" style=""border:16px solid orange"">","null","","","","","","","",""
"null","","html-keyboard-response","276","247834","0.0-276.0","","","null","","","","","","","",""
"500.2999999988824","","image-keyboard-response","277","248335","0.0-277.0","","img/set1/S4.jpg","74","4","random","74","random,structured_load,structured_incentive,structured_normal","2,3,2,1,3,4","true","",""
"null","","html-keyboard-response","278","248691","0.0-278.0","","<img src=""img/set1/S4.jpg"" width=""540"" height = ""360"" style=""border:16px solid orange"">","null","","","","","","","",""
"null","","html-keyboard-response","279","248894","0.0-279.0","","","null","","","","","","","",""
"592.8000000007451","","image-keyboard-response","280","249488","0.0-280.0","","img/set1/S3.jpg","72","3","random","72","random,structured_load,structured_incentive,structured_normal","2,3,2,1,3,4","true","",""
"null","","html-keyboard-response","281","249844","0.0-281.0","","<img src=""img/set1/S3.jpg"" width=""540"" height = ""360"" style=""border:16px solid orange"">","null","","","","","","","",""
"null","","html-keyboard-response","282","250050","0.0-282.0","","","null","","","","","","","",""
"644.8000000007451","","image-keyboard-response","283","250696","0.0-283.0","","img/set1/S1.jpg","83","1","random","83","random,structured_load,structured_incentive,structured_normal","2,3,2,1,3,4","true","",""
"null","","html-keyboard-response","284","251049","0.0-284.0","","<img src=""img/set1/S1.jpg"" width=""540"" height = ""360"" style=""border:16px solid orange"">","null","","","","","","","",""
"null","","html-keyboard-response","285","251253","0.0-285.0","","","null","","","","","","","",""
"539.2000000011176","","image-keyboard-response","286","251793","0.0-286.0","","img/set1/S2.jpg","68","2","random","68","random,structured_load,structured_incentive,structured_normal","2,3,2,1,3,4","true","",""
"null","","html-keyboard-response","287","252158","0.0-287.0","","<img src=""img/set1/S2.jpg"" width=""540"" height = ""360"" style=""border:16px solid orange"">","null","","","","","","","",""
"null","","html-keyboard-response","288","252361","0.0-288.0","","","null","","","","","","","",""
"549.4000000003725","","image-keyboard-response","289","252911","0.0-289.0","","img/set1/S3.jpg","72","3","random","72","random,structured_load,structured_incentive,structured_normal","2,3,2,1,3,4","true","",""
"null","","html-keyboard-response","290","253267","0.0-290.0","","<img src=""img/set1/S3.jpg"" width=""540"" height = ""360"" style=""border:16px solid orange"">","null","","","","","","","",""
"null","","html-keyboard-response","291","253471","0.0-291.0","","","null","","","","","","","",""
"471.5","","image-keyboard-response","292","253943","0.0-292.0","","img/set1/S4.jpg","74","4","random","74","random,structured_load,structured_incentive,structured_normal","2,3,2,1,3,4","true","",""
"null","","html-keyboard-response","293","254299","0.0-293.0","","<img src=""img/set1/S4.jpg"" width=""540"" height = ""360"" style=""border:16px solid orange"">","null","","","","","","","",""
"null","","html-keyboard-response","294","254503","0.0-294.0","","","null","","","","","","","",""
"783.4000000003725","","image-keyboard-response","295","255287","0.0-295.0","","img/set1/S1.jpg","83","1","random","83","random,structured_load,structured_incentive,structured_normal","2,3,2,1,3,4","true","",""
"null","","html-keyboard-response","296","255640","0.0-296.0","","<img src=""img/set1/S1.jpg"" width=""540"" height = ""360"" style=""border:16px solid orange"">","null","","","","","","","",""
"null","","html-keyboard-response","297","255844","0.0-297.0","","","null","","","","","","","",""
"650.1999999992549","","image-keyboard-response","298","256495","0.0-298.0","","img/set1/S3.jpg","72","3","random","72","random,structured_load,structured_incentive,structured_normal","2,3,2,1,3,4","true","",""
"null","","html-keyboard-response","299","256861","0.0-299.0","","<img src=""img/set1/S3.jpg"" width=""540"" height = ""360"" style=""border:16px solid orange"">","null","","","","","","","",""
"null","","html-keyboard-response","300","257078","0.0-300.0","","","null","","","","","","","",""
"648.2000000011176","","image-keyboard-response","301","257728","0.0-301.0","","img/set1/S1.jpg","83","1","random","83","random,structured_load,structured_incentive,structured_normal","2,3,2,1,3,4","true","",""
"null","","html-keyboard-response","302","258092","0.0-302.0","","<img src=""img/set1/S1.jpg"" width=""540"" height = ""360"" style=""border:16px solid orange"">","null","","","","","","","",""
"null","","html-keyboard-response","303","258297","0.0-303.0","","","null","","","","","","","",""
"510","","image-keyboard-response","304","258807","0.0-304.0","","img/set1/S1.jpg","83","1","random","83","random,structured_load,structured_incentive,structured_normal","2,3,2,1,3,4","true","",""
"null","","html-keyboard-response","305","259171","0.0-305.0","","<img src=""img/set1/S1.jpg"" width=""540"" height = ""360"" style=""border:16px solid orange"">","null","","","","","","","",""
"null","","html-keyboard-response","306","259374","0.0-306.0","","","null","","","","","","","",""
"568.4000000003725","","image-keyboard-response","307","259944","0.0-307.0","","img/set1/S2.jpg","68","2","random","68","random,structured_load,structured_incentive,structured_normal","2,3,2,1,3,4","true","",""
"null","","html-keyboard-response","308","260309","0.0-308.0","","<img src=""img/set1/S2.jpg"" width=""540"" height = ""360"" style=""border:16px solid orange"">","null","","","","","","","",""
"null","","html-keyboard-response","309","260513","0.0-309.0","","","null","","","","","","","",""
"509.80000000074506","","image-keyboard-response","310","261024","0.0-310.0","","img/set1/S2.jpg","68","2","random","68","random,structured_load,structured_incentive,structured_normal","2,3,2,1,3,4","true","",""
"null","","html-keyboard-response","311","261388","0.0-311.0","","<img src=""img/set1/S2.jpg"" width=""540"" height = ""360"" style=""border:16px solid orange"">","null","","","","","","","",""
"null","","html-keyboard-response","312","261590","0.0-312.0","","","null","","","","","","","",""
"722.0999999996275","","image-keyboard-response","313","262313","0.0-313.0","","img/set1/S1.jpg","83","1","random","83","random,structured_load,structured_incentive,structured_normal","2,3,2,1,3,4","true","",""
"null","","html-keyboard-response","314","262679","0.0-314.0","","<img src=""img/set1/S1.jpg"" width=""540"" height = ""360"" style=""border:16px solid orange"">","null","","","","","","","",""
"null","","html-keyboard-response","315","262879","0.0-315.0","","","null","","","","","","","",""
"543.2999999988824","","image-keyboard-response","316","263423","0.0-316.0","","img/set1/S1.jpg","83","1","random","83","random,structured_load,structured_incentive,structured_normal","2,3,2,1,3,4","true","",""
"null","","html-keyboard-response","317","263782","0.0-317.0","","<img src=""img/set1/S1.jpg"" width=""540"" height = ""360"" style=""border:16px solid orange"">","null","","","","","","","",""
"null","","html-keyboard-response","318","263983","0.0-318.0","","","null","","","","","","","",""
"520.2000000011176","","image-keyboard-response","319","264504","0.0-319.0","","img/set1/S3.jpg","72","3","random","72","random,structured_load,structured_incentive,structured_normal","2,3,2,1,3,4","true","",""
"null","","html-keyboard-response","320","264856","0.0-320.0","","<img src=""img/set1/S3.jpg"" width=""540"" height = ""360"" style=""border:16px solid orange"">","null","","","","","","","",""
"null","","html-keyboard-response","321","265059","0.0-321.0","","","null","","","","","","","",""
"675.7000000011176","","image-keyboard-response","322","265735","0.0-322.0","","img/set1/S2.jpg","68","2","random","68","random,structured_load,structured_incentive,structured_normal","2,3,2,1,3,4","true","",""
"null","","html-keyboard-response","323","266089","0.0-323.0","","<img src=""img/set1/S2.jpg"" width=""540"" height = ""360"" style=""border:16px solid orange"">","null","","","","","","","",""
"null","","html-keyboard-response","324","266294","0.0-324.0","","","null","","","","","","","",""
"552.1999999992549","","image-keyboard-response","325","266847","0.0-325.0","","img/set1/S3.jpg","72","3","random","72","random,structured_load,structured_incentive,structured_normal","2,3,2,1,3,4","true","",""
"null","","html-keyboard-response","326","267201","0.0-326.0","","<img src=""img/set1/S3.jpg"" width=""540"" height = ""360"" style=""border:16px solid orange"">","null","","","","","","","",""
"null","","html-keyboard-response","327","267406","0.0-327.0","","","null","","","","","","","",""
"641.0999999996275","","image-keyboard-response","328","268047","0.0-328.0","","img/set1/S2.jpg","68","2","random","68","random,structured_load,structured_incentive,structured_normal","2,3,2,1,3,4","true","",""
"null","","html-keyboard-response","329","268408","0.0-329.0","","<img src=""img/set1/S2.jpg"" width=""540"" height = ""360"" style=""border:16px solid orange"">","null","","","","","","","",""
"null","","html-keyboard-response","330","268610","0.0-330.0","","","null","","","","","","","",""
"492.69999999925494","","image-keyboard-response","331","269103","0.0-331.0","","img/set1/S2.jpg","68","2","random","68","random,structured_load,structured_incentive,structured_normal","2,3,2,1,3,4","true","",""
"null","","html-keyboard-response","332","269455","0.0-332.0","","<img src=""img/set1/S2.jpg"" width=""540"" height = ""360"" style=""border:16px solid orange"">","null","","","","","","","",""
"null","","html-keyboard-response","333","269656","0.0-333.0","","","null","","","","","","","",""
"767","","image-keyboard-response","334","270424","0.0-334.0","","img/set1/S4.jpg","74","4","random","74","random,structured_load,structured_incentive,structured_normal","2,3,2,1,3,4","true","",""
"null","","html-keyboard-response","335","270781","0.0-335.0","","<img src=""img/set1/S4.jpg"" width=""540"" height = ""360"" style=""border:16px solid orange"">","null","","","","","","","",""
"null","","html-keyboard-response","336","270985","0.0-336.0","","","null","","","","","","","",""
"549.5","","image-keyboard-response","337","271536","0.0-337.0","","img/set1/S4.jpg","74","4","random","74","random,structured_load,structured_incentive,structured_normal","2,3,2,1,3,4","true","",""
"null","","html-keyboard-response","338","271893","0.0-338.0","","<img src=""img/set1/S4.jpg"" width=""540"" height = ""360"" style=""border:16px solid orange"">","null","","","","","","","",""
"null","","html-keyboard-response","339","272096","0.0-339.0","","","null","","","","","","","",""
"495.69999999925494","","image-keyboard-response","340","272593","0.0-340.0","","img/set1/S4.jpg","74","4","random","74","random,structured_load,structured_incentive,structured_normal","2,3,2,1,3,4","true","",""
"null","","html-keyboard-response","341","272945","0.0-341.0","","<img src=""img/set1/S4.jpg"" width=""540"" height = ""360"" style=""border:16px solid orange"">","null","","","","","","","",""
"null","","html-keyboard-response","342","273148","0.0-342.0","","","null","","","","","","","",""
"626.5999999996275","","image-keyboard-response","343","273775","0.0-343.0","","img/set1/S2.jpg","68","2","random","68","random,structured_load,structured_incentive,structured_normal","2,3,2,1,3,4","true","",""
"null","","html-keyboard-response","344","274130","0.0-344.0","","<img src=""img/set1/S2.jpg"" width=""540"" height = ""360"" style=""border:16px solid orange"">","null","","","","","","","",""
"null","","html-keyboard-response","345","274347","0.0-345.0","","","null","","","","","","","",""
"571.9000000003725","","image-keyboard-response","346","274919","0.0-346.0","","img/set1/S3.jpg","72","3","random","72","random,structured_load,structured_incentive,structured_normal","2,3,2,1,3,4","true","",""
"null","","html-keyboard-response","347","275283","0.0-347.0","","<img src=""img/set1/S3.jpg"" width=""540"" height = ""360"" style=""border:16px solid orange"">","null","","","","","","","",""
"null","","html-keyboard-response","348","275486","0.0-348.0","","","null","","","","","","","",""
"568.3999999985099","","image-keyboard-response","349","276055","0.0-349.0","","img/set1/S4.jpg","74","4","random","74","random,structured_load,structured_incentive,structured_normal","2,3,2,1,3,4","true","",""
"null","","html-keyboard-response","350","276407","0.0-350.0","","<img src=""img/set1/S4.jpg"" width=""540"" height = ""360"" style=""border:16px solid orange"">","null","","","","","","","",""
"null","","html-keyboard-response","351","276611","0.0-351.0","","","null","","","","","","","",""
"628.3000000007451","","image-keyboard-response","352","277240","0.0-352.0","","img/set1/S1.jpg","83","1","random","83","random,structured_load,structured_incentive,structured_normal","2,3,2,1,3,4","true","",""
"null","","html-keyboard-response","353","277594","0.0-353.0","","<img src=""img/set1/S1.jpg"" width=""540"" height = ""360"" style=""border:16px solid orange"">","null","","","","","","","",""
"null","","html-keyboard-response","354","277809","0.0-354.0","","","null","","","","","","","",""
"741.8000000007451","","image-keyboard-response","355","278552","0.0-355.0","","img/set1/S3.jpg","72","3","random","72","random,structured_load,structured_incentive,structured_normal","2,3,2,1,3,4","true","",""
"null","","html-keyboard-response","356","278903","0.0-356.0","","<img src=""img/set1/S3.jpg"" width=""540"" height = ""360"" style=""border:16px solid orange"">","null","","","","","","","",""
"null","","html-keyboard-response","357","279106","0.0-357.0","","","null","","","","","","","",""
"628.4000000003725","","image-keyboard-response","358","279736","0.0-358.0","","img/set1/S1.jpg","83","1","random","83","random,structured_load,structured_incentive,structured_normal","2,3,2,1,3,4","true","",""
"null","","html-keyboard-response","359","280101","0.0-359.0","","<img src=""img/set1/S1.jpg"" width=""540"" height = ""360"" style=""border:16px solid orange"">","null","","","","","","","",""
"null","","html-keyboard-response","360","280304","0.0-360.0","","","null","","","","","","","",""
"542.5999999996275","","image-keyboard-response","361","280848","0.0-361.0","","img/set1/S2.jpg","68","2","random","68","random,structured_load,structured_incentive,structured_normal","2,3,2,1,3,4","true","",""
"null","","html-keyboard-response","362","281210","0.0-362.0","","<img src=""img/set1/S2.jpg"" width=""540"" height = ""360"" style=""border:16px solid orange"">","null","","","","","","","",""
"null","","html-keyboard-response","363","281412","0.0-363.0","","","null","","","","","","","",""
"3964.5","","html-keyboard-response","364","285377","0.0-364.0","","<p class=""center-content"">You have completed a block! </p><p class=""center-content"">Press any key on the keyboard to continue, </p><p class=""center-content"">or wait for the automatic progression to the next block after one minute.</p>","32","","","","","","","",""
"13680.599999999627","","instructions","365","299058","0.0-365.0","[{""page_index"":0,""viewing_time"":13680.300000000745}]","","","","","","","","","",""
"29332.800000000745","","instructions","366","328391","0.0-366.0","[{""page_index"":0,""viewing_time"":24486.700000001118},{""page_index"":1,""viewing_time"":4845.89999999851}]","","","","","","","","","",""
"1142.199999999255","","image-keyboard-response","367","329535","0.0-367.0","","img/set2/S4.jpg","68","4","structured_load","74","random,structured_load,structured_incentive,structured_normal","2,3,2,1,3,4","false","",""
"null","","html-keyboard-response","368","329896","0.0-368.0","","<img src=""img/set2/S4.jpg"" width=""540"" height = ""360"">","null","","","","","","","",""
"null","","html-keyboard-response","369","330099","0.0-369.0","","","null","","","","","","","",""
"1251","","image-keyboard-response","370","331351","0.0-370.0","","img/set2/S2.jpg","72","2","structured_load","68","random,structured_load,structured_incentive,structured_normal","2,3,2,1,3,4","false","",""
"null","","html-keyboard-response","371","331717","0.0-371.0","","<img src=""img/set2/S2.jpg"" width=""540"" height = ""360"">","null","","","","","","","",""
"null","","html-keyboard-response","372","331934","0.0-372.0","","","null","","","","","","","",""
"640.5","","image-keyboard-response","373","332575","0.0-373.0","","img/set2/S3.jpg","72","3","structured_load","72","random,structured_load,structured_incentive,structured_normal","2,3,2,1,3,4","true","",""
"null","","html-keyboard-response","374","332934","0.0-374.0","","<img src=""img/set2/S3.jpg"" width=""540"" height = ""360"" style=""border:16px solid orange"">","null","","","","","","","",""
"null","","html-keyboard-response","375","333137","0.0-375.0","","","null","","","","","","","",""
"702.3000000007451","","image-keyboard-response","376","333841","0.0-376.0","","img/set2/S1.jpg","74","1","structured_load","83","random,structured_load,structured_incentive,structured_normal","2,3,2,1,3,4","false","",""
"null","","html-keyboard-response","377","334198","0.0-377.0","","<img src=""img/set2/S1.jpg"" width=""540"" height = ""360"">","null","","","","","","","",""
"null","","html-keyboard-response","378","334400","0.0-378.0","","","null","","","","","","","",""
"622.0999999996275","","image-keyboard-response","379","335023","0.0-379.0","","img/set2/S1.jpg","74","1","structured_load","83","random,structured_load,structured_incentive,structured_normal","2,3,2,1,3,4","false","",""
"null","","html-keyboard-response","380","335381","0.0-380.0","","<img src=""img/set2/S1.jpg"" width=""540"" height = ""360"">","null","","","","","","","",""
"null","","html-keyboard-response","381","335583","0.0-381.0","","","null","","","","","","","",""
"887","","image-keyboard-response","382","336471","0.0-382.0","","img/set2/S1.jpg","83","1","structured_load","83","random,structured_load,structured_incentive,structured_normal","2,3,2,1,3,4","true","",""
"null","","html-keyboard-response","383","336828","0.0-383.0","","<img src=""img/set2/S1.jpg"" width=""540"" height = ""360"" style=""border:16px solid orange"">","null","","","","","","","",""
"null","","html-keyboard-response","384","337034","0.0-384.0","","","null","","","","","","","",""
"948","","image-keyboard-response","385","337983","0.0-385.0","","img/set2/S2.jpg","68","2","structured_load","68","random,structured_load,structured_incentive,structured_normal","2,3,2,1,3,4","true","",""
"null","","html-keyboard-response","386","338345","0.0-386.0","","<img src=""img/set2/S2.jpg"" width=""540"" height = ""360"" style=""border:16px solid orange"">","null","","","","","","","",""
"null","","html-keyboard-response","387","338550","0.0-387.0","","","null","","","","","","","",""
"1767.9000000003725","","image-keyboard-response","388","340319","0.0-388.0","","img/set2/S3.jpg","72","3","structured_load","72","random,structured_load,structured_incentive,structured_normal","2,3,2,1,3,4","true","",""
"null","","html-keyboard-response","389","340679","0.0-389.0","","<img src=""img/set2/S3.jpg"" width=""540"" height = ""360"" style=""border:16px solid orange"">","null","","","","","","","",""
"null","","html-keyboard-response","390","340884","0.0-390.0","","","null","","","","","","","",""
"1162.4000000003725","","image-keyboard-response","391","342047","0.0-391.0","","img/set2/S4.jpg","74","4","structured_load","74","random,structured_load,structured_incentive,structured_normal","2,3,2,1,3,4","true","",""
"null","","html-keyboard-response","392","342408","0.0-392.0","","<img src=""img/set2/S4.jpg"" width=""540"" height = ""360"" style=""border:16px solid orange"">","null","","","","","","","",""
"null","","html-keyboard-response","393","342624","0.0-393.0","","","null","","","","","","","",""
"1912.300000000745","","image-keyboard-response","394","344537","0.0-394.0","","img/set2/S2.jpg","68","2","structured_load","68","random,structured_load,structured_incentive,structured_normal","2,3,2,1,3,4","true","",""
"null","","html-keyboard-response","395","344891","0.0-395.0","","<img src=""img/set2/S2.jpg"" width=""540"" height = ""360"" style=""border:16px solid orange"">","null","","","","","","","",""
"null","","html-keyboard-response","396","345096","0.0-396.0","","","null","","","","","","","",""
"774.3999999985099","","image-keyboard-response","397","345871","0.0-397.0","","img/set2/S3.jpg","72","3","structured_load","72","random,structured_load,structured_incentive,structured_normal","2,3,2,1,3,4","true","",""
"null","","html-keyboard-response","398","346224","0.0-398.0","","<img src=""img/set2/S3.jpg"" width=""540"" height = ""360"" style=""border:16px solid orange"">","null","","","","","","","",""
"null","","html-keyboard-response","399","346429","0.0-399.0","","","null","","","","","","","",""
"2209.4000000003725","","image-keyboard-response","400","348639","0.0-400.0","","img/set2/S2.jpg","68","2","structured_load","68","random,structured_load,structured_incentive,structured_normal","2,3,2,1,3,4","true","",""
"null","","html-keyboard-response","401","348998","0.0-401.0","","<img src=""img/set2/S2.jpg"" width=""540"" height = ""360"" style=""border:16px solid orange"">","null","","","","","","","",""
"null","","html-keyboard-response","402","349201","0.0-402.0","","","null","","","","","","","",""
"805.3000000007451","","image-keyboard-response","403","350007","0.0-403.0","","img/set2/S3.jpg","72","3","structured_load","72","random,structured_load,structured_incentive,structured_normal","2,3,2,1,3,4","true","",""
"null","","html-keyboard-response","404","350368","0.0-404.0","","<img src=""img/set2/S3.jpg"" width=""540"" height = ""360"" style=""border:16px solid orange"">","null","","","","","","","",""
"null","","html-keyboard-response","405","350572","0.0-405.0","","","null","","","","","","","",""
"null","","image-keyboard-response","406","353085","0.0-406.0","","img/set2/S4.jpg","null","4","structured_load","74","random,structured_load,structured_incentive,structured_normal","2,3,2,1,3,4","false","",""
"null","","html-keyboard-response","407","353445","0.0-407.0","","<img src=""img/set2/S4.jpg"" width=""540"" height = ""360"">","null","","","","","","","",""
"null","","html-keyboard-response","408","353647","0.0-408.0","","","null","","","","","","","",""
"928.4000000003725","","image-keyboard-response","409","354577","0.0-409.0","","img/set2/S1.jpg","72","1","structured_load","83","random,structured_load,structured_incentive,structured_normal","2,3,2,1,3,4","false","",""
"null","","html-keyboard-response","410","354939","0.0-410.0","","<img src=""img/set2/S1.jpg"" width=""540"" height = ""360"">","null","","","","","","","",""
"null","","html-keyboard-response","411","355142","0.0-411.0","","","null","","","","","","","",""
"856.4000000003725","","image-keyboard-response","412","355999","0.0-412.0","","img/set2/S1.jpg","83","1","structured_load","83","random,structured_load,structured_incentive,structured_normal","2,3,2,1,3,4","true","",""
"null","","html-keyboard-response","413","356362","0.0-413.0","","<img src=""img/set2/S1.jpg"" width=""540"" height = ""360"" style=""border:16px solid orange"">","null","","","","","","","",""
"null","","html-keyboard-response","414","356564","0.0-414.0","","","null","","","","","","","",""
"1234.6000000014901","","image-keyboard-response","415","357799","0.0-415.0","","img/set2/S4.jpg","72","4","structured_load","74","random,structured_load,structured_incentive,structured_normal","2,3,2,1,3,4","false","",""
"null","","html-keyboard-response","416","358153","0.0-416.0","","<img src=""img/set2/S4.jpg"" width=""540"" height = ""360"">","null","","","","","","","",""
"null","","html-keyboard-response","417","358357","0.0-417.0","","","null","","","","","","","",""
"681.8000000007451","","image-keyboard-response","418","359039","0.0-418.0","","img/set2/S2.jpg","72","2","structured_load","68","random,structured_load,structured_incentive,structured_normal","2,3,2,1,3,4","false","",""
"null","","html-keyboard-response","419","359402","0.0-419.0","","<img src=""img/set2/S2.jpg"" width=""540"" height = ""360"">","null","","","","","","","",""
"null","","html-keyboard-response","420","359605","0.0-420.0","","","null","","","","","","","",""
"1137","","image-keyboard-response","421","360743","0.0-421.0","","img/set2/S3.jpg","68","3","structured_load","72","random,structured_load,structured_incentive,structured_normal","2,3,2,1,3,4","false","",""
"null","","html-keyboard-response","422","361100","0.0-422.0","","<img src=""img/set2/S3.jpg"" width=""540"" height = ""360"">","null","","","","","","","",""
"null","","html-keyboard-response","423","361304","0.0-423.0","","","null","","","","","","","",""
"1910.300000000745","","image-keyboard-response","424","363215","0.0-424.0","","img/set2/S2.jpg","83","2","structured_load","68","random,structured_load,structured_incentive,structured_normal","2,3,2,1,3,4","false","",""
"null","","html-keyboard-response","425","363580","0.0-425.0","","<img src=""img/set2/S2.jpg"" width=""540"" height = ""360"">","null","","","","","","","",""
"null","","html-keyboard-response","426","363784","0.0-426.0","","","null","","","","","","","",""
"534","","image-keyboard-response","427","364319","0.0-427.0","","img/set2/S3.jpg","72","3","structured_load","72","random,structured_load,structured_incentive,structured_normal","2,3,2,1,3,4","true","",""
"null","","html-keyboard-response","428","364673","0.0-428.0","","<img src=""img/set2/S3.jpg"" width=""540"" height = ""360"" style=""border:16px solid orange"">","null","","","","","","","",""
"null","","html-keyboard-response","429","364877","0.0-429.0","","","null","","","","","","","",""
"819.1999999992549","","image-keyboard-response","430","365697","0.0-430.0","","img/set2/S2.jpg","68","2","structured_load","68","random,structured_load,structured_incentive,structured_normal","2,3,2,1,3,4","true","",""
"null","","html-keyboard-response","431","366065","0.0-431.0","","<img src=""img/set2/S2.jpg"" width=""540"" height = ""360"" style=""border:16px solid orange"">","null","","","","","","","",""
"null","","html-keyboard-response","432","366267","0.0-432.0","","","null","","","","","","","",""
"1043.5999999996275","","image-keyboard-response","433","367311","0.0-433.0","","img/set2/S3.jpg","74","3","structured_load","72","random,structured_load,structured_incentive,structured_normal","2,3,2,1,3,4","false","",""
"null","","html-keyboard-response","434","367671","0.0-434.0","","<img src=""img/set2/S3.jpg"" width=""540"" height = ""360"">","null","","","","","","","",""
"null","","html-keyboard-response","435","367875","0.0-435.0","","","null","","","","","","","",""
"1763.9000000003725","","image-keyboard-response","436","369639","0.0-436.0","","img/set2/S4.jpg","72","4","structured_load","74","random,structured_load,structured_incentive,structured_normal","2,3,2,1,3,4","false","",""
"null","","html-keyboard-response","437","369995","0.0-437.0","","<img src=""img/set2/S4.jpg"" width=""540"" height = ""360"">","null","","","","","","","",""
"null","","html-keyboard-response","438","370198","0.0-438.0","","","null","","","","","","","",""
"696.4000000003725","","image-keyboard-response","439","370895","0.0-439.0","","img/set2/S4.jpg","83","4","structured_load","74","random,structured_load,structured_incentive,structured_normal","2,3,2,1,3,4","false","",""
"null","","html-keyboard-response","440","371259","0.0-440.0","","<img src=""img/set2/S4.jpg"" width=""540"" height = ""360"">","null","","","","","","","",""
"null","","html-keyboard-response","441","371460","0.0-441.0","","","null","","","","","","","",""
"297.69999999925494","","image-keyboard-response","442","371759","0.0-442.0","","img/set2/S4.jpg","74","4","structured_load","74","random,structured_load,structured_incentive,structured_normal","2,3,2,1,3,4","true","",""
"null","","html-keyboard-response","443","372116","0.0-443.0","","<img src=""img/set2/S4.jpg"" width=""540"" height = ""360"" style=""border:16px solid orange"">","null","","","","","","","",""
"null","","html-keyboard-response","444","372322","0.0-444.0","","","null","","","","","","","",""
"1900.1000000014901","","image-keyboard-response","445","374223","0.0-445.0","","img/set2/S2.jpg","72","2","structured_load","68","random,structured_load,structured_incentive,structured_normal","2,3,2,1,3,4","false","",""
"null","","html-keyboard-response","446","374583","0.0-446.0","","<img src=""img/set2/S2.jpg"" width=""540"" height = ""360"">","null","","","","","","","",""
"null","","html-keyboard-response","447","374787","0.0-447.0","","","null","","","","","","","",""
"691.7000000011176","","image-keyboard-response","448","375479","0.0-448.0","","img/set2/S3.jpg","68","3","structured_load","72","random,structured_load,structured_incentive,structured_normal","2,3,2,1,3,4","false","",""
"null","","html-keyboard-response","449","375832","0.0-449.0","","<img src=""img/set2/S3.jpg"" width=""540"" height = ""360"">","null","","","","","","","",""
"null","","html-keyboard-response","450","376035","0.0-450.0","","","null","","","","","","","",""
"845.4000000003725","","image-keyboard-response","451","376881","0.0-451.0","","img/set2/S4.jpg","74","4","structured_load","74","random,structured_load,structured_incentive,structured_normal","2,3,2,1,3,4","true","",""
"null","","html-keyboard-response","452","377235","0.0-452.0","","<img src=""img/set2/S4.jpg"" width=""540"" height = ""360"" style=""border:16px solid orange"">","null","","","","","","","",""
"null","","html-keyboard-response","453","377437","0.0-453.0","","","null","","","","","","","",""
"945.2000000011176","","image-keyboard-response","454","378383","0.0-454.0","","img/set2/S1.jpg","72","1","structured_load","83","random,structured_load,structured_incentive,structured_normal","2,3,2,1,3,4","false","",""
"null","","html-keyboard-response","455","378747","0.0-455.0","","<img src=""img/set2/S1.jpg"" width=""540"" height = ""360"">","null","","","","","","","",""
"null","","html-keyboard-response","456","378953","0.0-456.0","","","null","","","","","","","",""
"653.7000000011176","","image-keyboard-response","457","379607","0.0-457.0","","img/set2/S4.jpg","74","4","structured_load","74","random,structured_load,structured_incentive,structured_normal","2,3,2,1,3,4","true","",""
"null","","html-keyboard-response","458","379968","0.0-458.0","","<img src=""img/set2/S4.jpg"" width=""540"" height = ""360"" style=""border:16px solid orange"">","null","","","","","","","",""
"null","","html-keyboard-response","459","380171","0.0-459.0","","","null","","","","","","","",""
"1212","","image-keyboard-response","460","381383","0.0-460.0","","img/set2/S1.jpg","68","1","structured_load","83","random,structured_load,structured_incentive,structured_normal","2,3,2,1,3,4","false","",""
"null","","html-keyboard-response","461","381749","0.0-461.0","","<img src=""img/set2/S1.jpg"" width=""540"" height = ""360"">","null","","","","","","","",""
"null","","html-keyboard-response","462","381951","0.0-462.0","","","null","","","","","","","",""
"1487.2999999988824","","image-keyboard-response","463","383439","0.0-463.0","","img/set2/S4.jpg","72","4","structured_load","74","random,structured_load,structured_incentive,structured_normal","2,3,2,1,3,4","false","",""
"null","","html-keyboard-response","464","383791","0.0-464.0","","<img src=""img/set2/S4.jpg"" width=""540"" height = ""360"">","null","","","","","","","",""
"null","","html-keyboard-response","465","383994","0.0-465.0","","","null","","","","","","","",""
"644","","image-keyboard-response","466","384639","0.0-466.0","","img/set2/S2.jpg","72","2","structured_load","68","random,structured_load,structured_incentive,structured_normal","2,3,2,1,3,4","false","",""
"null","","html-keyboard-response","467","385001","0.0-467.0","","<img src=""img/set2/S2.jpg"" width=""540"" height = ""360"">","null","","","","","","","",""
"null","","html-keyboard-response","468","385205","0.0-468.0","","","null","","","","","","","",""
"730.0999999996275","","image-keyboard-response","469","385935","0.0-469.0","","img/set2/S3.jpg","74","3","structured_load","72","random,structured_load,structured_incentive,structured_normal","2,3,2,1,3,4","false","",""
"null","","html-keyboard-response","470","386297","0.0-470.0","","<img src=""img/set2/S3.jpg"" width=""540"" height = ""360"">","null","","","","","","","",""
"null","","html-keyboard-response","471","386501","0.0-471.0","","","null","","","","","","","",""
"995.4000000003725","","image-keyboard-response","472","387497","0.0-472.0","","img/set2/S1.jpg","68","1","structured_load","83","random,structured_load,structured_incentive,structured_normal","2,3,2,1,3,4","false","",""
"null","","html-keyboard-response","473","387859","0.0-473.0","","<img src=""img/set2/S1.jpg"" width=""540"" height = ""360"">","null","","","","","","","",""
"null","","html-keyboard-response","474","388065","0.0-474.0","","","null","","","","","","","",""
"1133.7000000011176","","image-keyboard-response","475","389199","0.0-475.0","","img/set2/S4.jpg","74","4","structured_load","74","random,structured_load,structured_incentive,structured_normal","2,3,2,1,3,4","true","",""
"null","","html-keyboard-response","476","389563","0.0-476.0","","<img src=""img/set2/S4.jpg"" width=""540"" height = ""360"" style=""border:16px solid orange"">","null","","","","","","","",""
"null","","html-keyboard-response","477","389779","0.0-477.0","","","null","","","","","","","",""
"955.1000000014901","","image-keyboard-response","478","390735","0.0-478.0","","img/set2/S2.jpg","74","2","structured_load","68","random,structured_load,structured_incentive,structured_normal","2,3,2,1,3,4","false","",""
"null","","html-keyboard-response","479","391094","0.0-479.0","","<img src=""img/set2/S2.jpg"" width=""540"" height = ""360"">","null","","","","","","","",""
"null","","html-keyboard-response","480","391298","0.0-480.0","","","null","","","","","","","",""
"588.4000000003725","","image-keyboard-response","481","391887","0.0-481.0","","img/set2/S3.jpg","68","3","structured_load","72","random,structured_load,structured_incentive,structured_normal","2,3,2,1,3,4","false","",""
"null","","html-keyboard-response","482","392244","0.0-482.0","","<img src=""img/set2/S3.jpg"" width=""540"" height = ""360"">","null","","","","","","","",""
"null","","html-keyboard-response","483","392448","0.0-483.0","","","null","","","","","","","",""
"806.9000000003725","","image-keyboard-response","484","393255","0.0-484.0","","img/set2/S1.jpg","68","1","structured_load","83","random,structured_load,structured_incentive,structured_normal","2,3,2,1,3,4","false","",""
"null","","html-keyboard-response","485","393619","0.0-485.0","","<img src=""img/set2/S1.jpg"" width=""540"" height = ""360"">","null","","","","","","","",""
"null","","html-keyboard-response","486","393835","0.0-486.0","","","null","","","","","","","",""
"771.7000000011176","","image-keyboard-response","487","394607","0.0-487.0","","img/set2/S4.jpg","74","4","structured_load","74","random,structured_load,structured_incentive,structured_normal","2,3,2,1,3,4","true","",""
"null","","html-keyboard-response","488","394959","0.0-488.0","","<img src=""img/set2/S4.jpg"" width=""540"" height = ""360"" style=""border:16px solid orange"">","null","","","","","","","",""
"null","","html-keyboard-response","489","395162","0.0-489.0","","","null","","","","","","","",""
"988.6999999992549","","image-keyboard-response","490","396151","0.0-490.0","","img/set2/S2.jpg","83","2","structured_load","68","random,structured_load,structured_incentive,structured_normal","2,3,2,1,3,4","false","",""
"null","","html-keyboard-response","491","396518","0.0-491.0","","<img src=""img/set2/S2.jpg"" width=""540"" height = ""360"">","null","","","","","","","",""
"null","","html-keyboard-response","492","396720","0.0-492.0","","","null","","","","","","","",""
"782.6999999992549","","image-keyboard-response","493","397503","0.0-493.0","","img/set2/S3.jpg","83","3","structured_load","72","random,structured_load,structured_incentive,structured_normal","2,3,2,1,3,4","false","",""
"null","","html-keyboard-response","494","397861","0.0-494.0","","<img src=""img/set2/S3.jpg"" width=""540"" height = ""360"">","null","","","","","","","",""
"null","","html-keyboard-response","495","398064","0.0-495.0","","","null","","","","","","","",""
"728.0999999996275","","image-keyboard-response","496","398793","0.0-496.0","","img/set2/S4.jpg","74","4","structured_load","74","random,structured_load,structured_incentive,structured_normal","2,3,2,1,3,4","true","",""
"null","","html-keyboard-response","497","399160","0.0-497.0","","<img src=""img/set2/S4.jpg"" width=""540"" height = ""360"" style=""border:16px solid orange"">","null","","","","","","","",""
"null","","html-keyboard-response","498","399364","0.0-498.0","","","null","","","","","","","",""
"850.9000000003725","","image-keyboard-response","499","400215","0.0-499.0","","img/set2/S1.jpg","83","1","structured_load","83","random,structured_load,structured_incentive,structured_normal","2,3,2,1,3,4","true","",""
"null","","html-keyboard-response","500","400576","0.0-500.0","","<img src=""img/set2/S1.jpg"" width=""540"" height = ""360"" style=""border:16px solid orange"">","null","","","","","","","",""
"null","","html-keyboard-response","501","400778","0.0-501.0","","","null","","","","","","","",""
"795.7999999988824","","image-keyboard-response","502","401575","0.0-502.0","","img/set2/S2.jpg","72","2","structured_load","68","random,structured_load,structured_incentive,structured_normal","2,3,2,1,3,4","false","",""
"null","","html-keyboard-response","503","401940","0.0-503.0","","<img src=""img/set2/S2.jpg"" width=""540"" height = ""360"">","null","","","","","","","",""
"null","","html-keyboard-response","504","402141","0.0-504.0","","","null","","","","","","","",""
"872.7999999988824","","image-keyboard-response","505","403015","0.0-505.0","","img/set2/S3.jpg","74","3","structured_load","72","random,structured_load,structured_incentive,structured_normal","2,3,2,1,3,4","false","",""
"null","","html-keyboard-response","506","403373","0.0-506.0","","<img src=""img/set2/S3.jpg"" width=""540"" height = ""360"">","null","","","","","","","",""
"null","","html-keyboard-response","507","403589","0.0-507.0","","","null","","","","","","","",""
"1089.199999999255","","image-keyboard-response","508","404679","0.0-508.0","","img/set2/S1.jpg","72","1","structured_load","83","random,structured_load,structured_incentive,structured_normal","2,3,2,1,3,4","false","",""
"null","","html-keyboard-response","509","405041","0.0-509.0","","<img src=""img/set2/S1.jpg"" width=""540"" height = ""360"">","null","","","","","","","",""
"null","","html-keyboard-response","510","405245","0.0-510.0","","","null","","","","","","","",""
"1113.6000000014901","","image-keyboard-response","511","406359","0.0-511.0","","img/set2/S2.jpg","68","2","structured_load","68","random,structured_load,structured_incentive,structured_normal","2,3,2,1,3,4","true","",""
"null","","html-keyboard-response","512","406712","0.0-512.0","","<img src=""img/set2/S2.jpg"" width=""540"" height = ""360"" style=""border:16px solid orange"">","null","","","","","","","",""
"null","","html-keyboard-response","513","406918","0.0-513.0","","","null","","","","","","","",""
"952.9000000003725","","image-keyboard-response","514","407871","0.0-514.0","","img/set2/S3.jpg","83","3","structured_load","72","random,structured_load,structured_incentive,structured_normal","2,3,2,1,3,4","false","",""
"null","","html-keyboard-response","515","408232","0.0-515.0","","<img src=""img/set2/S3.jpg"" width=""540"" height = ""360"">","null","","","","","","","",""
"null","","html-keyboard-response","516","408433","0.0-516.0","","","null","","","","","","","",""
"631.5999999996275","","image-keyboard-response","517","409066","0.0-517.0","","img/set2/S2.jpg","68","2","structured_load","68","random,structured_load,structured_incentive,structured_normal","2,3,2,1,3,4","true","",""
"null","","html-keyboard-response","518","409421","0.0-518.0","","<img src=""img/set2/S2.jpg"" width=""540"" height = ""360"" style=""border:16px solid orange"">","null","","","","","","","",""
"null","","html-keyboard-response","519","409624","0.0-519.0","","","null","","","","","","","",""
"1421.9000000003725","","image-keyboard-response","520","411047","0.0-520.0","","img/set2/S3.jpg","68","3","structured_load","72","random,structured_load,structured_incentive,structured_normal","2,3,2,1,3,4","false","",""
"null","","html-keyboard-response","521","411404","0.0-521.0","","<img src=""img/set2/S3.jpg"" width=""540"" height = ""360"">","null","","","","","","","",""
"null","","html-keyboard-response","522","411606","0.0-522.0","","","null","","","","","","","",""
"920.2000000011176","","image-keyboard-response","523","412527","0.0-523.0","","img/set2/S2.jpg","68","2","structured_load","68","random,structured_load,structured_incentive,structured_normal","2,3,2,1,3,4","true","",""
"null","","html-keyboard-response","524","412889","0.0-524.0","","<img src=""img/set2/S2.jpg"" width=""540"" height = ""360"" style=""border:16px solid orange"">","null","","","","","","","",""
"null","","html-keyboard-response","525","413105","0.0-525.0","","","null","","","","","","","",""
"404.80000000074506","","image-keyboard-response","526","413511","0.0-526.0","","img/set2/S3.jpg","83","3","structured_load","72","random,structured_load,structured_incentive,structured_normal","2,3,2,1,3,4","false","",""
"null","","html-keyboard-response","527","413871","0.0-527.0","","<img src=""img/set2/S3.jpg"" width=""540"" height = ""360"">","null","","","","","","","",""
"null","","html-keyboard-response","528","414072","0.0-528.0","","","null","","","","","","","",""
"1278.199999999255","","image-keyboard-response","529","415351","0.0-529.0","","img/set2/S4.jpg","74","4","structured_load","74","random,structured_load,structured_incentive,structured_normal","2,3,2,1,3,4","true","",""
"null","","html-keyboard-response","530","415708","0.0-530.0","","<img src=""img/set2/S4.jpg"" width=""540"" height = ""360"" style=""border:16px solid orange"">","null","","","","","","","",""
"null","","html-keyboard-response","531","415911","0.0-531.0","","","null","","","","","","","",""
"615.8000000007451","","image-keyboard-response","532","416527","0.0-532.0","","img/set2/S4.jpg","74","4","structured_load","74","random,structured_load,structured_incentive,structured_normal","2,3,2,1,3,4","true","",""
"null","","html-keyboard-response","533","416893","0.0-533.0","","<img src=""img/set2/S4.jpg"" width=""540"" height = ""360"" style=""border:16px solid orange"">","null","","","","","","","",""
"null","","html-keyboard-response","534","417096","0.0-534.0","","","null","","","","","","","",""
"542.8000000007451","","image-keyboard-response","535","417640","0.0-535.0","","img/set2/S4.jpg","74","4","structured_load","74","random,structured_load,structured_incentive,structured_normal","2,3,2,1,3,4","true","",""
"null","","html-keyboard-response","536","418001","0.0-536.0","","<img src=""img/set2/S4.jpg"" width=""540"" height = ""360"" style=""border:16px solid orange"">","null","","","","","","","",""
"null","","html-keyboard-response","537","418207","0.0-537.0","","","null","","","","","","","",""
"1809.4000000003725","","image-keyboard-response","538","420017","0.0-538.0","","img/set2/S1.jpg","72","1","structured_load","83","random,structured_load,structured_incentive,structured_normal","2,3,2,1,3,4","false","",""
"null","","html-keyboard-response","539","420381","0.0-539.0","","<img src=""img/set2/S1.jpg"" width=""540"" height = ""360"">","null","","","","","","","",""
"null","","html-keyboard-response","540","420585","0.0-540.0","","","null","","","","","","","",""
"1781.800000000745","","image-keyboard-response","541","422367","0.0-541.0","","img/set2/S2.jpg","83","2","structured_load","68","random,structured_load,structured_incentive,structured_normal","2,3,2,1,3,4","false","",""
"null","","html-keyboard-response","542","422725","0.0-542.0","","<img src=""img/set2/S2.jpg"" width=""540"" height = ""360"">","null","","","","","","","",""
"null","","html-keyboard-response","543","422930","0.0-543.0","","","null","","","","","","","",""
"972.5999999996275","","image-keyboard-response","544","423903","0.0-544.0","","img/set2/S3.jpg","68","3","structured_load","72","random,structured_load,structured_incentive,structured_normal","2,3,2,1,3,4","false","",""
"null","","html-keyboard-response","545","424256","0.0-545.0","","<img src=""img/set2/S3.jpg"" width=""540"" height = ""360"">","null","","","","","","","",""
"null","","html-keyboard-response","546","424458","0.0-546.0","","","null","","","","","","","",""
"764.5","","image-keyboard-response","547","425223","0.0-547.0","","img/set2/S4.jpg","74","4","structured_load","74","random,structured_load,structured_incentive,structured_normal","2,3,2,1,3,4","true","",""
"null","","html-keyboard-response","548","425582","0.0-548.0","","<img src=""img/set2/S4.jpg"" width=""540"" height = ""360"" style=""border:16px solid orange"">","null","","","","","","","",""
"null","","html-keyboard-response","549","425785","0.0-549.0","","","null","","","","","","","",""
"917.5999999996275","","image-keyboard-response","550","426703","0.0-550.0","","img/set2/S2.jpg","68","2","structured_load","68","random,structured_load,structured_incentive,structured_normal","2,3,2,1,3,4","true","",""
"null","","html-keyboard-response","551","427063","0.0-551.0","","<img src=""img/set2/S2.jpg"" width=""540"" height = ""360"" style=""border:16px solid orange"">","null","","","","","","","",""
"null","","html-keyboard-response","552","427266","0.0-552.0","","","null","","","","","","","",""
"492.30000000074506","","image-keyboard-response","553","427759","0.0-553.0","","img/set2/S3.jpg","83","3","structured_load","72","random,structured_load,structured_incentive,structured_normal","2,3,2,1,3,4","false","",""
"null","","html-keyboard-response","554","428114","0.0-554.0","","<img src=""img/set2/S3.jpg"" width=""540"" height = ""360"">","null","","","","","","","",""
"null","","html-keyboard-response","555","428316","0.0-555.0","","","null","","","","","","","",""
"834.5999999996275","","image-keyboard-response","556","429151","0.0-556.0","","img/set2/S1.jpg","83","1","structured_load","83","random,structured_load,structured_incentive,structured_normal","2,3,2,1,3,4","true","",""
"null","","html-keyboard-response","557","429517","0.0-557.0","","<img src=""img/set2/S1.jpg"" width=""540"" height = ""360"" style=""border:16px solid orange"">","null","","","","","","","",""
"null","","html-keyboard-response","558","429720","0.0-558.0","","","null","","","","","","","",""
"1015.7000000011176","","image-keyboard-response","559","430737","0.0-559.0","","img/set2/S2.jpg","68","2","structured_load","68","random,structured_load,structured_incentive,structured_normal","2,3,2,1,3,4","true","",""
"null","","html-keyboard-response","560","431091","0.0-560.0","","<img src=""img/set2/S2.jpg"" width=""540"" height = ""360"" style=""border:16px solid orange"">","null","","","","","","","",""
"null","","html-keyboard-response","561","431292","0.0-561.0","","","null","","","","","","","",""
"977.9000000003725","","image-keyboard-response","562","432271","0.0-562.0","","img/set2/S3.jpg","72","3","structured_load","72","random,structured_load,structured_incentive,structured_normal","2,3,2,1,3,4","true","",""
"null","","html-keyboard-response","563","432626","0.0-563.0","","<img src=""img/set2/S3.jpg"" width=""540"" height = ""360"" style=""border:16px solid orange"">","null","","","","","","","",""
"null","","html-keyboard-response","564","432829","0.0-564.0","","","null","","","","","","","",""
"832.8000000007451","","image-keyboard-response","565","433663","0.0-565.0","","img/set2/S1.jpg","68","1","structured_load","83","random,structured_load,structured_incentive,structured_normal","2,3,2,1,3,4","false","",""
"null","","html-keyboard-response","566","434025","0.0-566.0","","<img src=""img/set2/S1.jpg"" width=""540"" height = ""360"">","null","","","","","","","",""
"null","","html-keyboard-response","567","434240","0.0-567.0","","","null","","","","","","","",""
"1118","","image-keyboard-response","568","435359","0.0-568.0","","img/set2/S2.jpg","68","2","structured_load","68","random,structured_load,structured_incentive,structured_normal","2,3,2,1,3,4","true","",""
"null","","html-keyboard-response","569","435723","0.0-569.0","","<img src=""img/set2/S2.jpg"" width=""540"" height = ""360"" style=""border:16px solid orange"">","null","","","","","","","",""
"null","","html-keyboard-response","570","435924","0.0-570.0","","","null","","","","","","","",""
"1122.199999999255","","image-keyboard-response","571","437047","0.0-571.0","","img/set2/S3.jpg","72","3","structured_load","72","random,structured_load,structured_incentive,structured_normal","2,3,2,1,3,4","true","",""
"null","","html-keyboard-response","572","437410","0.0-572.0","","<img src=""img/set2/S3.jpg"" width=""540"" height = ""360"" style=""border:16px solid orange"">","null","","","","","","","",""
"null","","html-keyboard-response","573","437615","0.0-573.0","","","null","","","","","","","",""
"799.9000000003725","","image-keyboard-response","574","438415","0.0-574.0","","img/set2/S1.jpg","74","1","structured_load","83","random,structured_load,structured_incentive,structured_normal","2,3,2,1,3,4","false","",""
"null","","html-keyboard-response","575","438770","0.0-575.0","","<img src=""img/set2/S1.jpg"" width=""540"" height = ""360"">","null","","","","","","","",""
"null","","html-keyboard-response","576","438973","0.0-576.0","","","null","","","","","","","",""
"1154","","image-keyboard-response","577","440127","0.0-577.0","","img/set2/S2.jpg","68","2","structured_load","68","random,structured_load,structured_incentive,structured_normal","2,3,2,1,3,4","true","",""
"null","","html-keyboard-response","578","440483","0.0-578.0","","<img src=""img/set2/S2.jpg"" width=""540"" height = ""360"" style=""border:16px solid orange"">","null","","","","","","","",""
"null","","html-keyboard-response","579","440686","0.0-579.0","","","null","","","","","","","",""
"546","","image-keyboard-response","580","441233","0.0-580.0","","img/set2/S3.jpg","72","3","structured_load","72","random,structured_load,structured_incentive,structured_normal","2,3,2,1,3,4","true","",""
"null","","html-keyboard-response","581","441595","0.0-581.0","","<img src=""img/set2/S3.jpg"" width=""540"" height = ""360"" style=""border:16px solid orange"">","null","","","","","","","",""
"null","","html-keyboard-response","582","441800","0.0-582.0","","","null","","","","","","","",""
"718.0999999996275","","image-keyboard-response","583","442519","0.0-583.0","","img/set2/S4.jpg","74","4","structured_load","74","random,structured_load,structured_incentive,structured_normal","2,3,2,1,3,4","true","",""
"null","","html-keyboard-response","584","442877","0.0-584.0","","<img src=""img/set2/S4.jpg"" width=""540"" height = ""360"" style=""border:16px solid orange"">","null","","","","","","","",""
"null","","html-keyboard-response","585","443079","0.0-585.0","","","null","","","","","","","",""
"1479.9000000003725","","image-keyboard-response","586","444559","0.0-586.0","","img/set2/S2.jpg","68","2","structured_load","68","random,structured_load,structured_incentive,structured_normal","2,3,2,1,3,4","true","",""
"null","","html-keyboard-response","587","444924","0.0-587.0","","<img src=""img/set2/S2.jpg"" width=""540"" height = ""360"" style=""border:16px solid orange"">","null","","","","","","","",""
"null","","html-keyboard-response","588","445126","0.0-588.0","","","null","","","","","","","",""
"736.7000000011176","","image-keyboard-response","589","445863","0.0-589.0","","img/set2/S3.jpg","72","3","structured_load","72","random,structured_load,structured_incentive,structured_normal","2,3,2,1,3,4","true","",""
"null","","html-keyboard-response","590","446219","0.0-590.0","","<img src=""img/set2/S3.jpg"" width=""540"" height = ""360"" style=""border:16px solid orange"">","null","","","","","","","",""
"null","","html-keyboard-response","591","446421","0.0-591.0","","","null","","","","","","","",""
"1017","","image-keyboard-response","592","447439","0.0-592.0","","img/set2/S2.jpg","68","2","structured_load","68","random,structured_load,structured_incentive,structured_normal","2,3,2,1,3,4","true","",""
"null","","html-keyboard-response","593","447795","0.0-593.0","","<img src=""img/set2/S2.jpg"" width=""540"" height = ""360"" style=""border:16px solid orange"">","null","","","","","","","",""
"null","","html-keyboard-response","594","447997","0.0-594.0","","","null","","","","","","","",""
"705.4000000003725","","image-keyboard-response","595","448703","0.0-595.0","","img/set2/S3.jpg","72","3","structured_load","72","random,structured_load,structured_incentive,structured_normal","2,3,2,1,3,4","true","",""
"null","","html-keyboard-response","596","449059","0.0-596.0","","<img src=""img/set2/S3.jpg"" width=""540"" height = ""360"" style=""border:16px solid orange"">","null","","","","","","","",""
