"rt","url","trial_type","trial_index","time_elapsed","internal_node_id","assignmentID","mturkID","hitID","view_history","stimulus","key_press","state","test_part","correct_response","order_block","order_chunk","order_freq","correct","responses","question_order","bonus"
"10199.399999976158","consent.html","external-html","0","10278","0.0-0.0","3A0EX8ZRN9A9V9G643CG11FCVYHBYO","A1PBRKFHSF1OF8","3RSBJ6YZECCLSSQQCGKCTHC9OPAFOK","","","","","","","","","","","","",""
"38262.799999952316","","instructions","1","48544","0.0-1.0","3A0EX8ZRN9A9V9G643CG11FCVYHBYO","A1PBRKFHSF1OF8","3RSBJ6YZECCLSSQQCGKCTHC9OPAFOK","[{""page_index"":0,""viewing_time"":1791.5},{""page_index"":1,""viewing_time"":4990.5},{""page_index"":2,""viewing_time"":7477.600000023842},{""page_index"":3,""viewing_time"":7049.699999928474},{""page_index"":4,""viewing_time"":6426.399999976158},{""page_index"":5,""viewing_time"":6603.700000047684},{""page_index"":6,""viewing_time"":3922.100000023842}]","","","","","","","","","","","",""
"3244","","instructions","2","51789","0.0-2.0","3A0EX8ZRN9A9V9G643CG11FCVYHBYO","A1PBRKFHSF1OF8","3RSBJ6YZECCLSSQQCGKCTHC9OPAFOK","[{""page_index"":0,""viewing_time"":3243.4000000953674}]","","","","","","","","","","","",""
"1192.2000000476837","","instructions","3","52983","0.0-3.0","3A0EX8ZRN9A9V9G643CG11FCVYHBYO","A1PBRKFHSF1OF8","3RSBJ6YZECCLSSQQCGKCTHC9OPAFOK","[{""page_index"":0,""viewing_time"":1191.8999999761581}]","","","","","","","","","","","",""
"1640.5","","image-keyboard-response","4","54627","0.0-4.0","3A0EX8ZRN9A9V9G643CG11FCVYHBYO","A1PBRKFHSF1OF8","3RSBJ6YZECCLSSQQCGKCTHC9OPAFOK","","img/set1/S4.jpg","83","4","structured_normal","74","structured_normal,random,structured_incentive,structured_load","2,3,4,2,1,2","3,4,1,2","false","","",""
"null","","html-keyboard-response","5","54983","0.0-5.0","3A0EX8ZRN9A9V9G643CG11FCVYHBYO","A1PBRKFHSF1OF8","3RSBJ6YZECCLSSQQCGKCTHC9OPAFOK","","<img src=""img/set1/S4.jpg"" width=""540"" height = ""360"">","null","","","","","","","","","",""
"null","","html-keyboard-response","6","55188","0.0-6.0","3A0EX8ZRN9A9V9G643CG11FCVYHBYO","A1PBRKFHSF1OF8","3RSBJ6YZECCLSSQQCGKCTHC9OPAFOK","","","null","","","","","","","","","",""
"1307.3000000715256","","image-keyboard-response","7","56497","0.0-7.0","3A0EX8ZRN9A9V9G643CG11FCVYHBYO","A1PBRKFHSF1OF8","3RSBJ6YZECCLSSQQCGKCTHC9OPAFOK","","img/set1/S1.jpg","72","1","structured_normal","83","structured_normal,random,structured_incentive,structured_load","2,3,4,2,1,2","3,4,1,2","false","","",""
"null","","html-keyboard-response","8","56850","0.0-8.0","3A0EX8ZRN9A9V9G643CG11FCVYHBYO","A1PBRKFHSF1OF8","3RSBJ6YZECCLSSQQCGKCTHC9OPAFOK","","<img src=""img/set1/S1.jpg"" width=""540"" height = ""360"">","null","","","","","","","","","",""
"null","","html-keyboard-response","9","57052","0.0-9.0","3A0EX8ZRN9A9V9G643CG11FCVYHBYO","A1PBRKFHSF1OF8","3RSBJ6YZECCLSSQQCGKCTHC9OPAFOK","","","null","","","","","","","","","",""
"1080.2999999523163","","image-keyboard-response","10","58134","0.0-10.0","3A0EX8ZRN9A9V9G643CG11FCVYHBYO","A1PBRKFHSF1OF8","3RSBJ6YZECCLSSQQCGKCTHC9OPAFOK","","img/set1/S1.jpg","74","1","structured_normal","83","structured_normal,random,structured_incentive,structured_load","2,3,4,2,1,2","3,4,1,2","false","","",""
"null","","html-keyboard-response","11","58488","0.0-11.0","3A0EX8ZRN9A9V9G643CG11FCVYHBYO","A1PBRKFHSF1OF8","3RSBJ6YZECCLSSQQCGKCTHC9OPAFOK","","<img src=""img/set1/S1.jpg"" width=""540"" height = ""360"">","null","","","","","","","","","",""
"null","","html-keyboard-response","12","58690","0.0-12.0","3A0EX8ZRN9A9V9G643CG11FCVYHBYO","A1PBRKFHSF1OF8","3RSBJ6YZECCLSSQQCGKCTHC9OPAFOK","","","null","","","","","","","","","",""
"837.1000000238419","","image-keyboard-response","13","59528","0.0-13.0","3A0EX8ZRN9A9V9G643CG11FCVYHBYO","A1PBRKFHSF1OF8","3RSBJ6YZECCLSSQQCGKCTHC9OPAFOK","","img/set1/S2.jpg","68","2","structured_normal","68","structured_normal,random,structured_incentive,structured_load","2,3,4,2,1,2","3,4,1,2","true","","",""
"null","","html-keyboard-response","14","59881","0.0-14.0","3A0EX8ZRN9A9V9G643CG11FCVYHBYO","A1PBRKFHSF1OF8","3RSBJ6YZECCLSSQQCGKCTHC9OPAFOK","","<img src=""img/set1/S2.jpg"" width=""540"" height = ""360"" style=""border:16px solid orange"">","null","","","","","","","","","",""
"null","","html-keyboard-response","15","60082","0.0-15.0","3A0EX8ZRN9A9V9G643CG11FCVYHBYO","A1PBRKFHSF1OF8","3RSBJ6YZECCLSSQQCGKCTHC9OPAFOK","","","null","","","","","","","","","",""
"914.7000000476837","","image-keyboard-response","16","60998","0.0-16.0","3A0EX8ZRN9A9V9G643CG11FCVYHBYO","A1PBRKFHSF1OF8","3RSBJ6YZECCLSSQQCGKCTHC9OPAFOK","","img/set1/S3.jpg","72","3","structured_normal","72","structured_normal,random,structured_incentive,structured_load","2,3,4,2,1,2","3,4,1,2","true","","",""
"null","","html-keyboard-response","17","61350","0.0-17.0","3A0EX8ZRN9A9V9G643CG11FCVYHBYO","A1PBRKFHSF1OF8","3RSBJ6YZECCLSSQQCGKCTHC9OPAFOK","","<img src=""img/set1/S3.jpg"" width=""540"" height = ""360"" style=""border:16px solid orange"">","null","","","","","","","","","",""
"null","","html-keyboard-response","18","61552","0.0-18.0","3A0EX8ZRN9A9V9G643CG11FCVYHBYO","A1PBRKFHSF1OF8","3RSBJ6YZECCLSSQQCGKCTHC9OPAFOK","","","null","","","","","","","","","",""
"829.9000000953674","","image-keyboard-response","19","62383","0.0-19.0","3A0EX8ZRN9A9V9G643CG11FCVYHBYO","A1PBRKFHSF1OF8","3RSBJ6YZECCLSSQQCGKCTHC9OPAFOK","","img/set1/S4.jpg","74","4","structured_normal","74","structured_normal,random,structured_incentive,structured_load","2,3,4,2,1,2","3,4,1,2","true","","",""
"null","","html-keyboard-response","20","62736","0.0-20.0","3A0EX8ZRN9A9V9G643CG11FCVYHBYO","A1PBRKFHSF1OF8","3RSBJ6YZECCLSSQQCGKCTHC9OPAFOK","","<img src=""img/set1/S4.jpg"" width=""540"" height = ""360"" style=""border:16px solid orange"">","null","","","","","","","","","",""
"null","","html-keyboard-response","21","62938","0.0-21.0","3A0EX8ZRN9A9V9G643CG11FCVYHBYO","A1PBRKFHSF1OF8","3RSBJ6YZECCLSSQQCGKCTHC9OPAFOK","","","null","","","","","","","","","",""
"509.39999997615814","","image-keyboard-response","22","63449","0.0-22.0","3A0EX8ZRN9A9V9G643CG11FCVYHBYO","A1PBRKFHSF1OF8","3RSBJ6YZECCLSSQQCGKCTHC9OPAFOK","","img/set1/S4.jpg","74","4","structured_normal","74","structured_normal,random,structured_incentive,structured_load","2,3,4,2,1,2","3,4,1,2","true","","",""
"null","","html-keyboard-response","23","63802","0.0-23.0","3A0EX8ZRN9A9V9G643CG11FCVYHBYO","A1PBRKFHSF1OF8","3RSBJ6YZECCLSSQQCGKCTHC9OPAFOK","","<img src=""img/set1/S4.jpg"" width=""540"" height = ""360"" style=""border:16px solid orange"">","null","","","","","","","","","",""
"null","","html-keyboard-response","24","64005","0.0-24.0","3A0EX8ZRN9A9V9G643CG11FCVYHBYO","A1PBRKFHSF1OF8","3RSBJ6YZECCLSSQQCGKCTHC9OPAFOK","","","null","","","","","","","","","",""
"668.8999999761581","","image-keyboard-response","25","64676","0.0-25.0","3A0EX8ZRN9A9V9G643CG11FCVYHBYO","A1PBRKFHSF1OF8","3RSBJ6YZECCLSSQQCGKCTHC9OPAFOK","","img/set1/S2.jpg","68","2","structured_normal","68","structured_normal,random,structured_incentive,structured_load","2,3,4,2,1,2","3,4,1,2","true","","",""
"null","","html-keyboard-response","26","65030","0.0-26.0","3A0EX8ZRN9A9V9G643CG11FCVYHBYO","A1PBRKFHSF1OF8","3RSBJ6YZECCLSSQQCGKCTHC9OPAFOK","","<img src=""img/set1/S2.jpg"" width=""540"" height = ""360"" style=""border:16px solid orange"">","null","","","","","","","","","",""
"null","","html-keyboard-response","27","65232","0.0-27.0","3A0EX8ZRN9A9V9G643CG11FCVYHBYO","A1PBRKFHSF1OF8","3RSBJ6YZECCLSSQQCGKCTHC9OPAFOK","","","null","","","","","","","","","",""
"541.2999999523163","","image-keyboard-response","28","65774","0.0-28.0","3A0EX8ZRN9A9V9G643CG11FCVYHBYO","A1PBRKFHSF1OF8","3RSBJ6YZECCLSSQQCGKCTHC9OPAFOK","","img/set1/S4.jpg","74","4","structured_normal","74","structured_normal,random,structured_incentive,structured_load","2,3,4,2,1,2","3,4,1,2","true","","",""
"null","","html-keyboard-response","29","66127","0.0-29.0","3A0EX8ZRN9A9V9G643CG11FCVYHBYO","A1PBRKFHSF1OF8","3RSBJ6YZECCLSSQQCGKCTHC9OPAFOK","","<img src=""img/set1/S4.jpg"" width=""540"" height = ""360"" style=""border:16px solid orange"">","null","","","","","","","","","",""
"null","","html-keyboard-response","30","66329","0.0-30.0","3A0EX8ZRN9A9V9G643CG11FCVYHBYO","A1PBRKFHSF1OF8","3RSBJ6YZECCLSSQQCGKCTHC9OPAFOK","","","null","","","","","","","","","",""
"706.2999999523163","","image-keyboard-response","31","67037","0.0-31.0","3A0EX8ZRN9A9V9G643CG11FCVYHBYO","A1PBRKFHSF1OF8","3RSBJ6YZECCLSSQQCGKCTHC9OPAFOK","","img/set1/S1.jpg","72","1","structured_normal","83","structured_normal,random,structured_incentive,structured_load","2,3,4,2,1,2","3,4,1,2","false","","",""
"null","","html-keyboard-response","32","67389","0.0-32.0","3A0EX8ZRN9A9V9G643CG11FCVYHBYO","A1PBRKFHSF1OF8","3RSBJ6YZECCLSSQQCGKCTHC9OPAFOK","","<img src=""img/set1/S1.jpg"" width=""540"" height = ""360"">","null","","","","","","","","","",""
"null","","html-keyboard-response","33","67592","0.0-33.0","3A0EX8ZRN9A9V9G643CG11FCVYHBYO","A1PBRKFHSF1OF8","3RSBJ6YZECCLSSQQCGKCTHC9OPAFOK","","","null","","","","","","","","","",""
"849.7999999523163","","image-keyboard-response","34","68443","0.0-34.0","3A0EX8ZRN9A9V9G643CG11FCVYHBYO","A1PBRKFHSF1OF8","3RSBJ6YZECCLSSQQCGKCTHC9OPAFOK","","img/set1/S4.jpg","68","4","structured_normal","74","structured_normal,random,structured_incentive,structured_load","2,3,4,2,1,2","3,4,1,2","false","","",""
"null","","html-keyboard-response","35","68796","0.0-35.0","3A0EX8ZRN9A9V9G643CG11FCVYHBYO","A1PBRKFHSF1OF8","3RSBJ6YZECCLSSQQCGKCTHC9OPAFOK","","<img src=""img/set1/S4.jpg"" width=""540"" height = ""360"">","null","","","","","","","","","",""
"null","","html-keyboard-response","36","68998","0.0-36.0","3A0EX8ZRN9A9V9G643CG11FCVYHBYO","A1PBRKFHSF1OF8","3RSBJ6YZECCLSSQQCGKCTHC9OPAFOK","","","null","","","","","","","","","",""
"971.6999999284744","","image-keyboard-response","37","69972","0.0-37.0","3A0EX8ZRN9A9V9G643CG11FCVYHBYO","A1PBRKFHSF1OF8","3RSBJ6YZECCLSSQQCGKCTHC9OPAFOK","","img/set1/S2.jpg","72","2","structured_normal","68","structured_normal,random,structured_incentive,structured_load","2,3,4,2,1,2","3,4,1,2","false","","",""
"null","","html-keyboard-response","38","70325","0.0-38.0","3A0EX8ZRN9A9V9G643CG11FCVYHBYO","A1PBRKFHSF1OF8","3RSBJ6YZECCLSSQQCGKCTHC9OPAFOK","","<img src=""img/set1/S2.jpg"" width=""540"" height = ""360"">","null","","","","","","","","","",""
"null","","html-keyboard-response","39","70528","0.0-39.0","3A0EX8ZRN9A9V9G643CG11FCVYHBYO","A1PBRKFHSF1OF8","3RSBJ6YZECCLSSQQCGKCTHC9OPAFOK","","","null","","","","","","","","","",""
"839.2000000476837","","image-keyboard-response","40","71368","0.0-40.0","3A0EX8ZRN9A9V9G643CG11FCVYHBYO","A1PBRKFHSF1OF8","3RSBJ6YZECCLSSQQCGKCTHC9OPAFOK","","img/set1/S4.jpg","74","4","structured_normal","74","structured_normal,random,structured_incentive,structured_load","2,3,4,2,1,2","3,4,1,2","true","","",""
"null","","html-keyboard-response","41","71721","0.0-41.0","3A0EX8ZRN9A9V9G643CG11FCVYHBYO","A1PBRKFHSF1OF8","3RSBJ6YZECCLSSQQCGKCTHC9OPAFOK","","<img src=""img/set1/S4.jpg"" width=""540"" height = ""360"" style=""border:16px solid orange"">","null","","","","","","","","","",""
"null","","html-keyboard-response","42","71922","0.0-42.0","3A0EX8ZRN9A9V9G643CG11FCVYHBYO","A1PBRKFHSF1OF8","3RSBJ6YZECCLSSQQCGKCTHC9OPAFOK","","","null","","","","","","","","","",""
"761.2999999523163","","image-keyboard-response","43","72685","0.0-43.0","3A0EX8ZRN9A9V9G643CG11FCVYHBYO","A1PBRKFHSF1OF8","3RSBJ6YZECCLSSQQCGKCTHC9OPAFOK","","img/set1/S1.jpg","83","1","structured_normal","83","structured_normal,random,structured_incentive,structured_load","2,3,4,2,1,2","3,4,1,2","true","","",""
"null","","html-keyboard-response","44","73037","0.0-44.0","3A0EX8ZRN9A9V9G643CG11FCVYHBYO","A1PBRKFHSF1OF8","3RSBJ6YZECCLSSQQCGKCTHC9OPAFOK","","<img src=""img/set1/S1.jpg"" width=""540"" height = ""360"" style=""border:16px solid orange"">","null","","","","","","","","","",""
"null","","html-keyboard-response","45","73238","0.0-45.0","3A0EX8ZRN9A9V9G643CG11FCVYHBYO","A1PBRKFHSF1OF8","3RSBJ6YZECCLSSQQCGKCTHC9OPAFOK","","","null","","","","","","","","","",""
"598.3000000715256","","image-keyboard-response","46","73839","0.0-46.0","3A0EX8ZRN9A9V9G643CG11FCVYHBYO","A1PBRKFHSF1OF8","3RSBJ6YZECCLSSQQCGKCTHC9OPAFOK","","img/set1/S4.jpg","74","4","structured_normal","74","structured_normal,random,structured_incentive,structured_load","2,3,4,2,1,2","3,4,1,2","true","","",""
"null","","html-keyboard-response","47","74191","0.0-47.0","3A0EX8ZRN9A9V9G643CG11FCVYHBYO","A1PBRKFHSF1OF8","3RSBJ6YZECCLSSQQCGKCTHC9OPAFOK","","<img src=""img/set1/S4.jpg"" width=""540"" height = ""360"" style=""border:16px solid orange"">","null","","","","","","","","","",""
"null","","html-keyboard-response","48","74393","0.0-48.0","3A0EX8ZRN9A9V9G643CG11FCVYHBYO","A1PBRKFHSF1OF8","3RSBJ6YZECCLSSQQCGKCTHC9OPAFOK","","","null","","","","","","","","","",""
"938.1999999284744","","image-keyboard-response","49","75333","0.0-49.0","3A0EX8ZRN9A9V9G643CG11FCVYHBYO","A1PBRKFHSF1OF8","3RSBJ6YZECCLSSQQCGKCTHC9OPAFOK","","img/set1/S2.jpg","72","2","structured_normal","68","structured_normal,random,structured_incentive,structured_load","2,3,4,2,1,2","3,4,1,2","false","","",""
"null","","html-keyboard-response","50","75686","0.0-50.0","3A0EX8ZRN9A9V9G643CG11FCVYHBYO","A1PBRKFHSF1OF8","3RSBJ6YZECCLSSQQCGKCTHC9OPAFOK","","<img src=""img/set1/S2.jpg"" width=""540"" height = ""360"">","null","","","","","","","","","",""
"null","","html-keyboard-response","51","75888","0.0-51.0","3A0EX8ZRN9A9V9G643CG11FCVYHBYO","A1PBRKFHSF1OF8","3RSBJ6YZECCLSSQQCGKCTHC9OPAFOK","","","null","","","","","","","","","",""
"1025.3999999761581","","image-keyboard-response","52","76915","0.0-52.0","3A0EX8ZRN9A9V9G643CG11FCVYHBYO","A1PBRKFHSF1OF8","3RSBJ6YZECCLSSQQCGKCTHC9OPAFOK","","img/set1/S3.jpg","74","3","structured_normal","72","structured_normal,random,structured_incentive,structured_load","2,3,4,2,1,2","3,4,1,2","false","","",""
"null","","html-keyboard-response","53","77268","0.0-53.0","3A0EX8ZRN9A9V9G643CG11FCVYHBYO","A1PBRKFHSF1OF8","3RSBJ6YZECCLSSQQCGKCTHC9OPAFOK","","<img src=""img/set1/S3.jpg"" width=""540"" height = ""360"">","null","","","","","","","","","",""
"null","","html-keyboard-response","54","77470","0.0-54.0","3A0EX8ZRN9A9V9G643CG11FCVYHBYO","A1PBRKFHSF1OF8","3RSBJ6YZECCLSSQQCGKCTHC9OPAFOK","","","null","","","","","","","","","",""
"1254.3999999761581","","image-keyboard-response","55","78726","0.0-55.0","3A0EX8ZRN9A9V9G643CG11FCVYHBYO","A1PBRKFHSF1OF8","3RSBJ6YZECCLSSQQCGKCTHC9OPAFOK","","img/set1/S1.jpg","72","1","structured_normal","83","structured_normal,random,structured_incentive,structured_load","2,3,4,2,1,2","3,4,1,2","false","","",""
"null","","html-keyboard-response","56","79078","0.0-56.0","3A0EX8ZRN9A9V9G643CG11FCVYHBYO","A1PBRKFHSF1OF8","3RSBJ6YZECCLSSQQCGKCTHC9OPAFOK","","<img src=""img/set1/S1.jpg"" width=""540"" height = ""360"">","null","","","","","","","","","",""
"null","","html-keyboard-response","57","79289","0.0-57.0","3A0EX8ZRN9A9V9G643CG11FCVYHBYO","A1PBRKFHSF1OF8","3RSBJ6YZECCLSSQQCGKCTHC9OPAFOK","","","null","","","","","","","","","",""
"858.2999999523163","","image-keyboard-response","58","80149","0.0-58.0","3A0EX8ZRN9A9V9G643CG11FCVYHBYO","A1PBRKFHSF1OF8","3RSBJ6YZECCLSSQQCGKCTHC9OPAFOK","","img/set1/S2.jpg","74","2","structured_normal","68","structured_normal,random,structured_incentive,structured_load","2,3,4,2,1,2","3,4,1,2","false","","",""
"null","","html-keyboard-response","59","80502","0.0-59.0","3A0EX8ZRN9A9V9G643CG11FCVYHBYO","A1PBRKFHSF1OF8","3RSBJ6YZECCLSSQQCGKCTHC9OPAFOK","","<img src=""img/set1/S2.jpg"" width=""540"" height = ""360"">","null","","","","","","","","","",""
"null","","html-keyboard-response","60","80704","0.0-60.0","3A0EX8ZRN9A9V9G643CG11FCVYHBYO","A1PBRKFHSF1OF8","3RSBJ6YZECCLSSQQCGKCTHC9OPAFOK","","","null","","","","","","","","","",""
"802.2999999523163","","image-keyboard-response","61","81508","0.0-61.0","3A0EX8ZRN9A9V9G643CG11FCVYHBYO","A1PBRKFHSF1OF8","3RSBJ6YZECCLSSQQCGKCTHC9OPAFOK","","img/set1/S3.jpg","68","3","structured_normal","72","structured_normal,random,structured_incentive,structured_load","2,3,4,2,1,2","3,4,1,2","false","","",""
"null","","html-keyboard-response","62","81861","0.0-62.0","3A0EX8ZRN9A9V9G643CG11FCVYHBYO","A1PBRKFHSF1OF8","3RSBJ6YZECCLSSQQCGKCTHC9OPAFOK","","<img src=""img/set1/S3.jpg"" width=""540"" height = ""360"">","null","","","","","","","","","",""
"null","","html-keyboard-response","63","82064","0.0-63.0","3A0EX8ZRN9A9V9G643CG11FCVYHBYO","A1PBRKFHSF1OF8","3RSBJ6YZECCLSSQQCGKCTHC9OPAFOK","","","null","","","","","","","","","",""
"593.5","","image-keyboard-response","64","82658","0.0-64.0","3A0EX8ZRN9A9V9G643CG11FCVYHBYO","A1PBRKFHSF1OF8","3RSBJ6YZECCLSSQQCGKCTHC9OPAFOK","","img/set1/S2.jpg","72","2","structured_normal","68","structured_normal,random,structured_incentive,structured_load","2,3,4,2,1,2","3,4,1,2","false","","",""
"null","","html-keyboard-response","65","83023","0.0-65.0","3A0EX8ZRN9A9V9G643CG11FCVYHBYO","A1PBRKFHSF1OF8","3RSBJ6YZECCLSSQQCGKCTHC9OPAFOK","","<img src=""img/set1/S2.jpg"" width=""540"" height = ""360"">","null","","","","","","","","","",""
"null","","html-keyboard-response","66","83226","0.0-66.0","3A0EX8ZRN9A9V9G643CG11FCVYHBYO","A1PBRKFHSF1OF8","3RSBJ6YZECCLSSQQCGKCTHC9OPAFOK","","","null","","","","","","","","","",""
"965.8000000715256","","image-keyboard-response","67","84193","0.0-67.0","3A0EX8ZRN9A9V9G643CG11FCVYHBYO","A1PBRKFHSF1OF8","3RSBJ6YZECCLSSQQCGKCTHC9OPAFOK","","img/set1/S3.jpg","83","3","structured_normal","72","structured_normal,random,structured_incentive,structured_load","2,3,4,2,1,2","3,4,1,2","false","","",""
"null","","html-keyboard-response","68","84546","0.0-68.0","3A0EX8ZRN9A9V9G643CG11FCVYHBYO","A1PBRKFHSF1OF8","3RSBJ6YZECCLSSQQCGKCTHC9OPAFOK","","<img src=""img/set1/S3.jpg"" width=""540"" height = ""360"">","null","","","","","","","","","",""
"null","","html-keyboard-response","69","84748","0.0-69.0","3A0EX8ZRN9A9V9G643CG11FCVYHBYO","A1PBRKFHSF1OF8","3RSBJ6YZECCLSSQQCGKCTHC9OPAFOK","","","null","","","","","","","","","",""
"1098.5","","image-keyboard-response","70","85850","0.0-70.0","3A0EX8ZRN9A9V9G643CG11FCVYHBYO","A1PBRKFHSF1OF8","3RSBJ6YZECCLSSQQCGKCTHC9OPAFOK","","img/set1/S2.jpg","68","2","structured_normal","68","structured_normal,random,structured_incentive,structured_load","2,3,4,2,1,2","3,4,1,2","true","","",""
"null","","html-keyboard-response","71","86204","0.0-71.0","3A0EX8ZRN9A9V9G643CG11FCVYHBYO","A1PBRKFHSF1OF8","3RSBJ6YZECCLSSQQCGKCTHC9OPAFOK","","<img src=""img/set1/S2.jpg"" width=""540"" height = ""360"" style=""border:16px solid orange"">","null","","","","","","","","","",""
"null","","html-keyboard-response","72","86406","0.0-72.0","3A0EX8ZRN9A9V9G643CG11FCVYHBYO","A1PBRKFHSF1OF8","3RSBJ6YZECCLSSQQCGKCTHC9OPAFOK","","","null","","","","","","","","","",""
"1113","","image-keyboard-response","73","87521","0.0-73.0","3A0EX8ZRN9A9V9G643CG11FCVYHBYO","A1PBRKFHSF1OF8","3RSBJ6YZECCLSSQQCGKCTHC9OPAFOK","","img/set1/S3.jpg","74","3","structured_normal","72","structured_normal,random,structured_incentive,structured_load","2,3,4,2,1,2","3,4,1,2","false","","",""
"null","","html-keyboard-response","74","87873","0.0-74.0","3A0EX8ZRN9A9V9G643CG11FCVYHBYO","A1PBRKFHSF1OF8","3RSBJ6YZECCLSSQQCGKCTHC9OPAFOK","","<img src=""img/set1/S3.jpg"" width=""540"" height = ""360"">","null","","","","","","","","","",""
"null","","html-keyboard-response","75","88074","0.0-75.0","3A0EX8ZRN9A9V9G643CG11FCVYHBYO","A1PBRKFHSF1OF8","3RSBJ6YZECCLSSQQCGKCTHC9OPAFOK","","","null","","","","","","","","","",""
"469.2000000476837","","image-keyboard-response","76","88544","0.0-76.0","3A0EX8ZRN9A9V9G643CG11FCVYHBYO","A1PBRKFHSF1OF8","3RSBJ6YZECCLSSQQCGKCTHC9OPAFOK","","img/set1/S2.jpg","68","2","structured_normal","68","structured_normal,random,structured_incentive,structured_load","2,3,4,2,1,2","3,4,1,2","true","","",""
"null","","html-keyboard-response","77","88898","0.0-77.0","3A0EX8ZRN9A9V9G643CG11FCVYHBYO","A1PBRKFHSF1OF8","3RSBJ6YZECCLSSQQCGKCTHC9OPAFOK","","<img src=""img/set1/S2.jpg"" width=""540"" height = ""360"" style=""border:16px solid orange"">","null","","","","","","","","","",""
"null","","html-keyboard-response","78","89101","0.0-78.0","3A0EX8ZRN9A9V9G643CG11FCVYHBYO","A1PBRKFHSF1OF8","3RSBJ6YZECCLSSQQCGKCTHC9OPAFOK","","","null","","","","","","","","","",""
"945.7999999523163","","image-keyboard-response","79","90048","0.0-79.0","3A0EX8ZRN9A9V9G643CG11FCVYHBYO","A1PBRKFHSF1OF8","3RSBJ6YZECCLSSQQCGKCTHC9OPAFOK","","img/set1/S4.jpg","74","4","structured_normal","74","structured_normal,random,structured_incentive,structured_load","2,3,4,2,1,2","3,4,1,2","true","","",""
"null","","html-keyboard-response","80","90401","0.0-80.0","3A0EX8ZRN9A9V9G643CG11FCVYHBYO","A1PBRKFHSF1OF8","3RSBJ6YZECCLSSQQCGKCTHC9OPAFOK","","<img src=""img/set1/S4.jpg"" width=""540"" height = ""360"" style=""border:16px solid orange"">","null","","","","","","","","","",""
"null","","html-keyboard-response","81","90603","0.0-81.0","3A0EX8ZRN9A9V9G643CG11FCVYHBYO","A1PBRKFHSF1OF8","3RSBJ6YZECCLSSQQCGKCTHC9OPAFOK","","","null","","","","","","","","","",""
"522.6000000238419","","image-keyboard-response","82","91127","0.0-82.0","3A0EX8ZRN9A9V9G643CG11FCVYHBYO","A1PBRKFHSF1OF8","3RSBJ6YZECCLSSQQCGKCTHC9OPAFOK","","img/set1/S4.jpg","74","4","structured_normal","74","structured_normal,random,structured_incentive,structured_load","2,3,4,2,1,2","3,4,1,2","true","","",""
"null","","html-keyboard-response","83","91479","0.0-83.0","3A0EX8ZRN9A9V9G643CG11FCVYHBYO","A1PBRKFHSF1OF8","3RSBJ6YZECCLSSQQCGKCTHC9OPAFOK","","<img src=""img/set1/S4.jpg"" width=""540"" height = ""360"" style=""border:16px solid orange"">","null","","","","","","","","","",""
"null","","html-keyboard-response","84","91686","0.0-84.0","3A0EX8ZRN9A9V9G643CG11FCVYHBYO","A1PBRKFHSF1OF8","3RSBJ6YZECCLSSQQCGKCTHC9OPAFOK","","","null","","","","","","","","","",""
"775.5","","image-keyboard-response","85","92463","0.0-85.0","3A0EX8ZRN9A9V9G643CG11FCVYHBYO","A1PBRKFHSF1OF8","3RSBJ6YZECCLSSQQCGKCTHC9OPAFOK","","img/set1/S2.jpg","72","2","structured_normal","68","structured_normal,random,structured_incentive,structured_load","2,3,4,2,1,2","3,4,1,2","false","","",""
"null","","html-keyboard-response","86","92816","0.0-86.0","3A0EX8ZRN9A9V9G643CG11FCVYHBYO","A1PBRKFHSF1OF8","3RSBJ6YZECCLSSQQCGKCTHC9OPAFOK","","<img src=""img/set1/S2.jpg"" width=""540"" height = ""360"">","null","","","","","","","","","",""
"null","","html-keyboard-response","87","93018","0.0-87.0","3A0EX8ZRN9A9V9G643CG11FCVYHBYO","A1PBRKFHSF1OF8","3RSBJ6YZECCLSSQQCGKCTHC9OPAFOK","","","null","","","","","","","","","",""
"837.2000000476837","","image-keyboard-response","88","93857","0.0-88.0","3A0EX8ZRN9A9V9G643CG11FCVYHBYO","A1PBRKFHSF1OF8","3RSBJ6YZECCLSSQQCGKCTHC9OPAFOK","","img/set1/S3.jpg","68","3","structured_normal","72","structured_normal,random,structured_incentive,structured_load","2,3,4,2,1,2","3,4,1,2","false","","",""
"null","","html-keyboard-response","89","94210","0.0-89.0","3A0EX8ZRN9A9V9G643CG11FCVYHBYO","A1PBRKFHSF1OF8","3RSBJ6YZECCLSSQQCGKCTHC9OPAFOK","","<img src=""img/set1/S3.jpg"" width=""540"" height = ""360"">","null","","","","","","","","","",""
"null","","html-keyboard-response","90","94412","0.0-90.0","3A0EX8ZRN9A9V9G643CG11FCVYHBYO","A1PBRKFHSF1OF8","3RSBJ6YZECCLSSQQCGKCTHC9OPAFOK","","","null","","","","","","","","","",""
"634.7999999523163","","image-keyboard-response","91","95048","0.0-91.0","3A0EX8ZRN9A9V9G643CG11FCVYHBYO","A1PBRKFHSF1OF8","3RSBJ6YZECCLSSQQCGKCTHC9OPAFOK","","img/set1/S4.jpg","74","4","structured_normal","74","structured_normal,random,structured_incentive,structured_load","2,3,4,2,1,2","3,4,1,2","true","","",""
"null","","html-keyboard-response","92","95402","0.0-92.0","3A0EX8ZRN9A9V9G643CG11FCVYHBYO","A1PBRKFHSF1OF8","3RSBJ6YZECCLSSQQCGKCTHC9OPAFOK","","<img src=""img/set1/S4.jpg"" width=""540"" height = ""360"" style=""border:16px solid orange"">","null","","","","","","","","","",""
"null","","html-keyboard-response","93","95604","0.0-93.0","3A0EX8ZRN9A9V9G643CG11FCVYHBYO","A1PBRKFHSF1OF8","3RSBJ6YZECCLSSQQCGKCTHC9OPAFOK","","","null","","","","","","","","","",""
"519.6000000238419","","image-keyboard-response","94","96125","0.0-94.0","3A0EX8ZRN9A9V9G643CG11FCVYHBYO","A1PBRKFHSF1OF8","3RSBJ6YZECCLSSQQCGKCTHC9OPAFOK","","img/set1/S2.jpg","68","2","structured_normal","68","structured_normal,random,structured_incentive,structured_load","2,3,4,2,1,2","3,4,1,2","true","","",""
"null","","html-keyboard-response","95","96478","0.0-95.0","3A0EX8ZRN9A9V9G643CG11FCVYHBYO","A1PBRKFHSF1OF8","3RSBJ6YZECCLSSQQCGKCTHC9OPAFOK","","<img src=""img/set1/S2.jpg"" width=""540"" height = ""360"" style=""border:16px solid orange"">","null","","","","","","","","","",""
"null","","html-keyboard-response","96","96681","0.0-96.0","3A0EX8ZRN9A9V9G643CG11FCVYHBYO","A1PBRKFHSF1OF8","3RSBJ6YZECCLSSQQCGKCTHC9OPAFOK","","","null","","","","","","","","","",""
"969.8000000715256","","image-keyboard-response","97","97652","0.0-97.0","3A0EX8ZRN9A9V9G643CG11FCVYHBYO","A1PBRKFHSF1OF8","3RSBJ6YZECCLSSQQCGKCTHC9OPAFOK","","img/set1/S3.jpg","83","3","structured_normal","72","structured_normal,random,structured_incentive,structured_load","2,3,4,2,1,2","3,4,1,2","false","","",""
"null","","html-keyboard-response","98","98004","0.0-98.0","3A0EX8ZRN9A9V9G643CG11FCVYHBYO","A1PBRKFHSF1OF8","3RSBJ6YZECCLSSQQCGKCTHC9OPAFOK","","<img src=""img/set1/S3.jpg"" width=""540"" height = ""360"">","null","","","","","","","","","",""
"null","","html-keyboard-response","99","98206","0.0-99.0","3A0EX8ZRN9A9V9G643CG11FCVYHBYO","A1PBRKFHSF1OF8","3RSBJ6YZECCLSSQQCGKCTHC9OPAFOK","","","null","","","","","","","","","",""
"602.8999999761581","","image-keyboard-response","100","98810","0.0-100.0","3A0EX8ZRN9A9V9G643CG11FCVYHBYO","A1PBRKFHSF1OF8","3RSBJ6YZECCLSSQQCGKCTHC9OPAFOK","","img/set1/S4.jpg","74","4","structured_normal","74","structured_normal,random,structured_incentive,structured_load","2,3,4,2,1,2","3,4,1,2","true","","",""
"null","","html-keyboard-response","101","99168","0.0-101.0","3A0EX8ZRN9A9V9G643CG11FCVYHBYO","A1PBRKFHSF1OF8","3RSBJ6YZECCLSSQQCGKCTHC9OPAFOK","","<img src=""img/set1/S4.jpg"" width=""540"" height = ""360"" style=""border:16px solid orange"">","null","","","","","","","","","",""
"null","","html-keyboard-response","102","99370","0.0-102.0","3A0EX8ZRN9A9V9G643CG11FCVYHBYO","A1PBRKFHSF1OF8","3RSBJ6YZECCLSSQQCGKCTHC9OPAFOK","","","null","","","","","","","","","",""
"516","","image-keyboard-response","103","99888","0.0-103.0","3A0EX8ZRN9A9V9G643CG11FCVYHBYO","A1PBRKFHSF1OF8","3RSBJ6YZECCLSSQQCGKCTHC9OPAFOK","","img/set1/S4.jpg","74","4","structured_normal","74","structured_normal,random,structured_incentive,structured_load","2,3,4,2,1,2","3,4,1,2","true","","",""
"null","","html-keyboard-response","104","100240","0.0-104.0","3A0EX8ZRN9A9V9G643CG11FCVYHBYO","A1PBRKFHSF1OF8","3RSBJ6YZECCLSSQQCGKCTHC9OPAFOK","","<img src=""img/set1/S4.jpg"" width=""540"" height = ""360"" style=""border:16px solid orange"">","null","","","","","","","","","",""
"null","","html-keyboard-response","105","100442","0.0-105.0","3A0EX8ZRN9A9V9G643CG11FCVYHBYO","A1PBRKFHSF1OF8","3RSBJ6YZECCLSSQQCGKCTHC9OPAFOK","","","null","","","","","","","","","",""
"709.3999999761581","","image-keyboard-response","106","101153","0.0-106.0","3A0EX8ZRN9A9V9G643CG11FCVYHBYO","A1PBRKFHSF1OF8","3RSBJ6YZECCLSSQQCGKCTHC9OPAFOK","","img/set1/S2.jpg","68","2","structured_normal","68","structured_normal,random,structured_incentive,structured_load","2,3,4,2,1,2","3,4,1,2","true","","",""
"null","","html-keyboard-response","107","101505","0.0-107.0","3A0EX8ZRN9A9V9G643CG11FCVYHBYO","A1PBRKFHSF1OF8","3RSBJ6YZECCLSSQQCGKCTHC9OPAFOK","","<img src=""img/set1/S2.jpg"" width=""540"" height = ""360"" style=""border:16px solid orange"">","null","","","","","","","","","",""
"null","","html-keyboard-response","108","101706","0.0-108.0","3A0EX8ZRN9A9V9G643CG11FCVYHBYO","A1PBRKFHSF1OF8","3RSBJ6YZECCLSSQQCGKCTHC9OPAFOK","","","null","","","","","","","","","",""
"521.8999999761581","","image-keyboard-response","109","102230","0.0-109.0","3A0EX8ZRN9A9V9G643CG11FCVYHBYO","A1PBRKFHSF1OF8","3RSBJ6YZECCLSSQQCGKCTHC9OPAFOK","","img/set1/S3.jpg","72","3","structured_normal","72","structured_normal,random,structured_incentive,structured_load","2,3,4,2,1,2","3,4,1,2","true","","",""
"null","","html-keyboard-response","110","102583","0.0-110.0","3A0EX8ZRN9A9V9G643CG11FCVYHBYO","A1PBRKFHSF1OF8","3RSBJ6YZECCLSSQQCGKCTHC9OPAFOK","","<img src=""img/set1/S3.jpg"" width=""540"" height = ""360"" style=""border:16px solid orange"">","null","","","","","","","","","",""
"null","","html-keyboard-response","111","102785","0.0-111.0","3A0EX8ZRN9A9V9G643CG11FCVYHBYO","A1PBRKFHSF1OF8","3RSBJ6YZECCLSSQQCGKCTHC9OPAFOK","","","null","","","","","","","","","",""
"822.1000000238419","","image-keyboard-response","112","103609","0.0-112.0","3A0EX8ZRN9A9V9G643CG11FCVYHBYO","A1PBRKFHSF1OF8","3RSBJ6YZECCLSSQQCGKCTHC9OPAFOK","","img/set1/S2.jpg","83","2","structured_normal","68","structured_normal,random,structured_incentive,structured_load","2,3,4,2,1,2","3,4,1,2","false","","",""
"null","","html-keyboard-response","113","103961","0.0-113.0","3A0EX8ZRN9A9V9G643CG11FCVYHBYO","A1PBRKFHSF1OF8","3RSBJ6YZECCLSSQQCGKCTHC9OPAFOK","","<img src=""img/set1/S2.jpg"" width=""540"" height = ""360"">","null","","","","","","","","","",""
"null","","html-keyboard-response","114","104163","0.0-114.0","3A0EX8ZRN9A9V9G643CG11FCVYHBYO","A1PBRKFHSF1OF8","3RSBJ6YZECCLSSQQCGKCTHC9OPAFOK","","","null","","","","","","","","","",""
"638.2000000476837","","image-keyboard-response","115","104803","0.0-115.0","3A0EX8ZRN9A9V9G643CG11FCVYHBYO","A1PBRKFHSF1OF8","3RSBJ6YZECCLSSQQCGKCTHC9OPAFOK","","img/set1/S3.jpg","74","3","structured_normal","72","structured_normal,random,structured_incentive,structured_load","2,3,4,2,1,2","3,4,1,2","false","","",""
"null","","html-keyboard-response","116","105156","0.0-116.0","3A0EX8ZRN9A9V9G643CG11FCVYHBYO","A1PBRKFHSF1OF8","3RSBJ6YZECCLSSQQCGKCTHC9OPAFOK","","<img src=""img/set1/S3.jpg"" width=""540"" height = ""360"">","null","","","","","","","","","",""
"null","","html-keyboard-response","117","105357","0.0-117.0","3A0EX8ZRN9A9V9G643CG11FCVYHBYO","A1PBRKFHSF1OF8","3RSBJ6YZECCLSSQQCGKCTHC9OPAFOK","","","null","","","","","","","","","",""
"757.5","","image-keyboard-response","118","106116","0.0-118.0","3A0EX8ZRN9A9V9G643CG11FCVYHBYO","A1PBRKFHSF1OF8","3RSBJ6YZECCLSSQQCGKCTHC9OPAFOK","","img/set1/S2.jpg","72","2","structured_normal","68","structured_normal,random,structured_incentive,structured_load","2,3,4,2,1,2","3,4,1,2","false","","",""
"null","","html-keyboard-response","119","106468","0.0-119.0","3A0EX8ZRN9A9V9G643CG11FCVYHBYO","A1PBRKFHSF1OF8","3RSBJ6YZECCLSSQQCGKCTHC9OPAFOK","","<img src=""img/set1/S2.jpg"" width=""540"" height = ""360"">","null","","","","","","","","","",""
"null","","html-keyboard-response","120","106671","0.0-120.0","3A0EX8ZRN9A9V9G643CG11FCVYHBYO","A1PBRKFHSF1OF8","3RSBJ6YZECCLSSQQCGKCTHC9OPAFOK","","","null","","","","","","","","","",""
"401","","image-keyboard-response","121","107074","0.0-121.0","3A0EX8ZRN9A9V9G643CG11FCVYHBYO","A1PBRKFHSF1OF8","3RSBJ6YZECCLSSQQCGKCTHC9OPAFOK","","img/set1/S3.jpg","74","3","structured_normal","72","structured_normal,random,structured_incentive,structured_load","2,3,4,2,1,2","3,4,1,2","false","","",""
"null","","html-keyboard-response","122","107427","0.0-122.0","3A0EX8ZRN9A9V9G643CG11FCVYHBYO","A1PBRKFHSF1OF8","3RSBJ6YZECCLSSQQCGKCTHC9OPAFOK","","<img src=""img/set1/S3.jpg"" width=""540"" height = ""360"">","null","","","","","","","","","",""
"null","","html-keyboard-response","123","107629","0.0-123.0","3A0EX8ZRN9A9V9G643CG11FCVYHBYO","A1PBRKFHSF1OF8","3RSBJ6YZECCLSSQQCGKCTHC9OPAFOK","","","null","","","","","","","","","",""
"840.6000000238419","","image-keyboard-response","124","108471","0.0-124.0","3A0EX8ZRN9A9V9G643CG11FCVYHBYO","A1PBRKFHSF1OF8","3RSBJ6YZECCLSSQQCGKCTHC9OPAFOK","","img/set1/S2.jpg","72","2","structured_normal","68","structured_normal,random,structured_incentive,structured_load","2,3,4,2,1,2","3,4,1,2","false","","",""
"null","","html-keyboard-response","125","108830","0.0-125.0","3A0EX8ZRN9A9V9G643CG11FCVYHBYO","A1PBRKFHSF1OF8","3RSBJ6YZECCLSSQQCGKCTHC9OPAFOK","","<img src=""img/set1/S2.jpg"" width=""540"" height = ""360"">","null","","","","","","","","","",""
"null","","html-keyboard-response","126","109032","0.0-126.0","3A0EX8ZRN9A9V9G643CG11FCVYHBYO","A1PBRKFHSF1OF8","3RSBJ6YZECCLSSQQCGKCTHC9OPAFOK","","","null","","","","","","","","","",""
"1014.8000000715256","","image-keyboard-response","127","110048","0.0-127.0","3A0EX8ZRN9A9V9G643CG11FCVYHBYO","A1PBRKFHSF1OF8","3RSBJ6YZECCLSSQQCGKCTHC9OPAFOK","","img/set1/S3.jpg","72","3","structured_normal","72","structured_normal,random,structured_incentive,structured_load","2,3,4,2,1,2","3,4,1,2","true","","",""
"null","","html-keyboard-response","128","110401","0.0-128.0","3A0EX8ZRN9A9V9G643CG11FCVYHBYO","A1PBRKFHSF1OF8","3RSBJ6YZECCLSSQQCGKCTHC9OPAFOK","","<img src=""img/set1/S3.jpg"" width=""540"" height = ""360"" style=""border:16px solid orange"">","null","","","","","","","","","",""
"null","","html-keyboard-response","129","110603","0.0-129.0","3A0EX8ZRN9A9V9G643CG11FCVYHBYO","A1PBRKFHSF1OF8","3RSBJ6YZECCLSSQQCGKCTHC9OPAFOK","","","null","","","","","","","","","",""
"982.7999999523163","","image-keyboard-response","130","111587","0.0-130.0","3A0EX8ZRN9A9V9G643CG11FCVYHBYO","A1PBRKFHSF1OF8","3RSBJ6YZECCLSSQQCGKCTHC9OPAFOK","","img/set1/S1.jpg","72","1","structured_normal","83","structured_normal,random,structured_incentive,structured_load","2,3,4,2,1,2","3,4,1,2","false","","",""
"null","","html-keyboard-response","131","111940","0.0-131.0","3A0EX8ZRN9A9V9G643CG11FCVYHBYO","A1PBRKFHSF1OF8","3RSBJ6YZECCLSSQQCGKCTHC9OPAFOK","","<img src=""img/set1/S1.jpg"" width=""540"" height = ""360"">","null","","","","","","","","","",""
"null","","html-keyboard-response","132","112142","0.0-132.0","3A0EX8ZRN9A9V9G643CG11FCVYHBYO","A1PBRKFHSF1OF8","3RSBJ6YZECCLSSQQCGKCTHC9OPAFOK","","","null","","","","","","","","","",""
"874.8999999761581","","image-keyboard-response","133","113019","0.0-133.0","3A0EX8ZRN9A9V9G643CG11FCVYHBYO","A1PBRKFHSF1OF8","3RSBJ6YZECCLSSQQCGKCTHC9OPAFOK","","img/set1/S2.jpg","72","2","structured_normal","68","structured_normal,random,structured_incentive,structured_load","2,3,4,2,1,2","3,4,1,2","false","","",""
"null","","html-keyboard-response","134","113371","0.0-134.0","3A0EX8ZRN9A9V9G643CG11FCVYHBYO","A1PBRKFHSF1OF8","3RSBJ6YZECCLSSQQCGKCTHC9OPAFOK","","<img src=""img/set1/S2.jpg"" width=""540"" height = ""360"">","null","","","","","","","","","",""
"null","","html-keyboard-response","135","113573","0.0-135.0","3A0EX8ZRN9A9V9G643CG11FCVYHBYO","A1PBRKFHSF1OF8","3RSBJ6YZECCLSSQQCGKCTHC9OPAFOK","","","null","","","","","","","","","",""
"1027.6000000238419","","image-keyboard-response","136","114602","0.0-136.0","3A0EX8ZRN9A9V9G643CG11FCVYHBYO","A1PBRKFHSF1OF8","3RSBJ6YZECCLSSQQCGKCTHC9OPAFOK","","img/set1/S3.jpg","68","3","structured_normal","72","structured_normal,random,structured_incentive,structured_load","2,3,4,2,1,2","3,4,1,2","false","","",""
"null","","html-keyboard-response","137","114955","0.0-137.0","3A0EX8ZRN9A9V9G643CG11FCVYHBYO","A1PBRKFHSF1OF8","3RSBJ6YZECCLSSQQCGKCTHC9OPAFOK","","<img src=""img/set1/S3.jpg"" width=""540"" height = ""360"">","null","","","","","","","","","",""
"null","","html-keyboard-response","138","115158","0.0-138.0","3A0EX8ZRN9A9V9G643CG11FCVYHBYO","A1PBRKFHSF1OF8","3RSBJ6YZECCLSSQQCGKCTHC9OPAFOK","","","null","","","","","","","","","",""
"630.6999999284744","","image-keyboard-response","139","115791","0.0-139.0","3A0EX8ZRN9A9V9G643CG11FCVYHBYO","A1PBRKFHSF1OF8","3RSBJ6YZECCLSSQQCGKCTHC9OPAFOK","","img/set1/S4.jpg","74","4","structured_normal","74","structured_normal,random,structured_incentive,structured_load","2,3,4,2,1,2","3,4,1,2","true","","",""
"null","","html-keyboard-response","140","116143","0.0-140.0","3A0EX8ZRN9A9V9G643CG11FCVYHBYO","A1PBRKFHSF1OF8","3RSBJ6YZECCLSSQQCGKCTHC9OPAFOK","","<img src=""img/set1/S4.jpg"" width=""540"" height = ""360"" style=""border:16px solid orange"">","null","","","","","","","","","",""
"null","","html-keyboard-response","141","116346","0.0-141.0","3A0EX8ZRN9A9V9G643CG11FCVYHBYO","A1PBRKFHSF1OF8","3RSBJ6YZECCLSSQQCGKCTHC9OPAFOK","","","null","","","","","","","","","",""
"614.5","","image-keyboard-response","142","116962","0.0-142.0","3A0EX8ZRN9A9V9G643CG11FCVYHBYO","A1PBRKFHSF1OF8","3RSBJ6YZECCLSSQQCGKCTHC9OPAFOK","","img/set1/S4.jpg","74","4","structured_normal","74","structured_normal,random,structured_incentive,structured_load","2,3,4,2,1,2","3,4,1,2","true","","",""
"null","","html-keyboard-response","143","117314","0.0-143.0","3A0EX8ZRN9A9V9G643CG11FCVYHBYO","A1PBRKFHSF1OF8","3RSBJ6YZECCLSSQQCGKCTHC9OPAFOK","","<img src=""img/set1/S4.jpg"" width=""540"" height = ""360"" style=""border:16px solid orange"">","null","","","","","","","","","",""
"null","","html-keyboard-response","144","117517","0.0-144.0","3A0EX8ZRN9A9V9G643CG11FCVYHBYO","A1PBRKFHSF1OF8","3RSBJ6YZECCLSSQQCGKCTHC9OPAFOK","","","null","","","","","","","","","",""
"551.8999999761581","","image-keyboard-response","145","118071","0.0-145.0","3A0EX8ZRN9A9V9G643CG11FCVYHBYO","A1PBRKFHSF1OF8","3RSBJ6YZECCLSSQQCGKCTHC9OPAFOK","","img/set1/S4.jpg","74","4","structured_normal","74","structured_normal,random,structured_incentive,structured_load","2,3,4,2,1,2","3,4,1,2","true","","",""
"null","","html-keyboard-response","146","118424","0.0-146.0","3A0EX8ZRN9A9V9G643CG11FCVYHBYO","A1PBRKFHSF1OF8","3RSBJ6YZECCLSSQQCGKCTHC9OPAFOK","","<img src=""img/set1/S4.jpg"" width=""540"" height = ""360"" style=""border:16px solid orange"">","null","","","","","","","","","",""
"null","","html-keyboard-response","147","118626","0.0-147.0","3A0EX8ZRN9A9V9G643CG11FCVYHBYO","A1PBRKFHSF1OF8","3RSBJ6YZECCLSSQQCGKCTHC9OPAFOK","","","null","","","","","","","","","",""
"447.6999999284744","","image-keyboard-response","148","119075","0.0-148.0","3A0EX8ZRN9A9V9G643CG11FCVYHBYO","A1PBRKFHSF1OF8","3RSBJ6YZECCLSSQQCGKCTHC9OPAFOK","","img/set1/S4.jpg","74","4","structured_normal","74","structured_normal,random,structured_incentive,structured_load","2,3,4,2,1,2","3,4,1,2","true","","",""
"null","","html-keyboard-response","149","119429","0.0-149.0","3A0EX8ZRN9A9V9G643CG11FCVYHBYO","A1PBRKFHSF1OF8","3RSBJ6YZECCLSSQQCGKCTHC9OPAFOK","","<img src=""img/set1/S4.jpg"" width=""540"" height = ""360"" style=""border:16px solid orange"">","null","","","","","","","","","",""
"null","","html-keyboard-response","150","119630","0.0-150.0","3A0EX8ZRN9A9V9G643CG11FCVYHBYO","A1PBRKFHSF1OF8","3RSBJ6YZECCLSSQQCGKCTHC9OPAFOK","","","null","","","","","","","","","",""
"671.0999999046326","","image-keyboard-response","151","120303","0.0-151.0","3A0EX8ZRN9A9V9G643CG11FCVYHBYO","A1PBRKFHSF1OF8","3RSBJ6YZECCLSSQQCGKCTHC9OPAFOK","","img/set1/S1.jpg","72","1","structured_normal","83","structured_normal,random,structured_incentive,structured_load","2,3,4,2,1,2","3,4,1,2","false","","",""
"null","","html-keyboard-response","152","120656","0.0-152.0","3A0EX8ZRN9A9V9G643CG11FCVYHBYO","A1PBRKFHSF1OF8","3RSBJ6YZECCLSSQQCGKCTHC9OPAFOK","","<img src=""img/set1/S1.jpg"" width=""540"" height = ""360"">","null","","","","","","","","","",""
"null","","html-keyboard-response","153","120858","0.0-153.0","3A0EX8ZRN9A9V9G643CG11FCVYHBYO","A1PBRKFHSF1OF8","3RSBJ6YZECCLSSQQCGKCTHC9OPAFOK","","","null","","","","","","","","","",""
"666.5","","image-keyboard-response","154","121527","0.0-154.0","3A0EX8ZRN9A9V9G643CG11FCVYHBYO","A1PBRKFHSF1OF8","3RSBJ6YZECCLSSQQCGKCTHC9OPAFOK","","img/set1/S4.jpg","74","4","structured_normal","74","structured_normal,random,structured_incentive,structured_load","2,3,4,2,1,2","3,4,1,2","true","","",""
"null","","html-keyboard-response","155","121880","0.0-155.0","3A0EX8ZRN9A9V9G643CG11FCVYHBYO","A1PBRKFHSF1OF8","3RSBJ6YZECCLSSQQCGKCTHC9OPAFOK","","<img src=""img/set1/S4.jpg"" width=""540"" height = ""360"" style=""border:16px solid orange"">","null","","","","","","","","","",""
"null","","html-keyboard-response","156","122082","0.0-156.0","3A0EX8ZRN9A9V9G643CG11FCVYHBYO","A1PBRKFHSF1OF8","3RSBJ6YZECCLSSQQCGKCTHC9OPAFOK","","","null","","","","","","","","","",""
"532.7999999523163","","image-keyboard-response","157","122616","0.0-157.0","3A0EX8ZRN9A9V9G643CG11FCVYHBYO","A1PBRKFHSF1OF8","3RSBJ6YZECCLSSQQCGKCTHC9OPAFOK","","img/set1/S4.jpg","74","4","structured_normal","74","structured_normal,random,structured_incentive,structured_load","2,3,4,2,1,2","3,4,1,2","true","","",""
"null","","html-keyboard-response","158","122969","0.0-158.0","3A0EX8ZRN9A9V9G643CG11FCVYHBYO","A1PBRKFHSF1OF8","3RSBJ6YZECCLSSQQCGKCTHC9OPAFOK","","<img src=""img/set1/S4.jpg"" width=""540"" height = ""360"" style=""border:16px solid orange"">","null","","","","","","","","","",""
"null","","html-keyboard-response","159","123171","0.0-159.0","3A0EX8ZRN9A9V9G643CG11FCVYHBYO","A1PBRKFHSF1OF8","3RSBJ6YZECCLSSQQCGKCTHC9OPAFOK","","","null","","","","","","","","","",""
"607.6000000238419","","image-keyboard-response","160","123780","0.0-160.0","3A0EX8ZRN9A9V9G643CG11FCVYHBYO","A1PBRKFHSF1OF8","3RSBJ6YZECCLSSQQCGKCTHC9OPAFOK","","img/set1/S2.jpg","68","2","structured_normal","68","structured_normal,random,structured_incentive,structured_load","2,3,4,2,1,2","3,4,1,2","true","","",""
"null","","html-keyboard-response","161","124133","0.0-161.0","3A0EX8ZRN9A9V9G643CG11FCVYHBYO","A1PBRKFHSF1OF8","3RSBJ6YZECCLSSQQCGKCTHC9OPAFOK","","<img src=""img/set1/S2.jpg"" width=""540"" height = ""360"" style=""border:16px solid orange"">","null","","","","","","","","","",""
"null","","html-keyboard-response","162","124335","0.0-162.0","3A0EX8ZRN9A9V9G643CG11FCVYHBYO","A1PBRKFHSF1OF8","3RSBJ6YZECCLSSQQCGKCTHC9OPAFOK","","","null","","","","","","","","","",""
"923.1999999284744","","image-keyboard-response","163","125260","0.0-163.0","3A0EX8ZRN9A9V9G643CG11FCVYHBYO","A1PBRKFHSF1OF8","3RSBJ6YZECCLSSQQCGKCTHC9OPAFOK","","img/set1/S3.jpg","72","3","structured_normal","72","structured_normal,random,structured_incentive,structured_load","2,3,4,2,1,2","3,4,1,2","true","","",""
"null","","html-keyboard-response","164","125613","0.0-164.0","3A0EX8ZRN9A9V9G643CG11FCVYHBYO","A1PBRKFHSF1OF8","3RSBJ6YZECCLSSQQCGKCTHC9OPAFOK","","<img src=""img/set1/S3.jpg"" width=""540"" height = ""360"" style=""border:16px solid orange"">","null","","","","","","","","","",""
"null","","html-keyboard-response","165","125815","0.0-165.0","3A0EX8ZRN9A9V9G643CG11FCVYHBYO","A1PBRKFHSF1OF8","3RSBJ6YZECCLSSQQCGKCTHC9OPAFOK","","","null","","","","","","","","","",""
"763.2000000476837","","image-keyboard-response","166","126580","0.0-166.0","3A0EX8ZRN9A9V9G643CG11FCVYHBYO","A1PBRKFHSF1OF8","3RSBJ6YZECCLSSQQCGKCTHC9OPAFOK","","img/set1/S1.jpg","68","1","structured_normal","83","structured_normal,random,structured_incentive,structured_load","2,3,4,2,1,2","3,4,1,2","false","","",""
"null","","html-keyboard-response","167","126932","0.0-167.0","3A0EX8ZRN9A9V9G643CG11FCVYHBYO","A1PBRKFHSF1OF8","3RSBJ6YZECCLSSQQCGKCTHC9OPAFOK","","<img src=""img/set1/S1.jpg"" width=""540"" height = ""360"">","null","","","","","","","","","",""
"null","","html-keyboard-response","168","127134","0.0-168.0","3A0EX8ZRN9A9V9G643CG11FCVYHBYO","A1PBRKFHSF1OF8","3RSBJ6YZECCLSSQQCGKCTHC9OPAFOK","","","null","","","","","","","","","",""
"747.6000000238419","","image-keyboard-response","169","127883","0.0-169.0","3A0EX8ZRN9A9V9G643CG11FCVYHBYO","A1PBRKFHSF1OF8","3RSBJ6YZECCLSSQQCGKCTHC9OPAFOK","","img/set1/S3.jpg","72","3","structured_normal","72","structured_normal,random,structured_incentive,structured_load","2,3,4,2,1,2","3,4,1,2","true","","",""
"null","","html-keyboard-response","170","128236","0.0-170.0","3A0EX8ZRN9A9V9G643CG11FCVYHBYO","A1PBRKFHSF1OF8","3RSBJ6YZECCLSSQQCGKCTHC9OPAFOK","","<img src=""img/set1/S3.jpg"" width=""540"" height = ""360"" style=""border:16px solid orange"">","null","","","","","","","","","",""
"null","","html-keyboard-response","171","128437","0.0-171.0","3A0EX8ZRN9A9V9G643CG11FCVYHBYO","A1PBRKFHSF1OF8","3RSBJ6YZECCLSSQQCGKCTHC9OPAFOK","","","null","","","","","","","","","",""
"737.1999999284744","","image-keyboard-response","172","129177","0.0-172.0","3A0EX8ZRN9A9V9G643CG11FCVYHBYO","A1PBRKFHSF1OF8","3RSBJ6YZECCLSSQQCGKCTHC9OPAFOK","","img/set1/S1.jpg","83","1","structured_normal","83","structured_normal,random,structured_incentive,structured_load","2,3,4,2,1,2","3,4,1,2","true","","",""
"null","","html-keyboard-response","173","129530","0.0-173.0","3A0EX8ZRN9A9V9G643CG11FCVYHBYO","A1PBRKFHSF1OF8","3RSBJ6YZECCLSSQQCGKCTHC9OPAFOK","","<img src=""img/set1/S1.jpg"" width=""540"" height = ""360"" style=""border:16px solid orange"">","null","","","","","","","","","",""
"null","","html-keyboard-response","174","129741","0.0-174.0","3A0EX8ZRN9A9V9G643CG11FCVYHBYO","A1PBRKFHSF1OF8","3RSBJ6YZECCLSSQQCGKCTHC9OPAFOK","","","null","","","","","","","","","",""
"593.6000000238419","","image-keyboard-response","175","130336","0.0-175.0","3A0EX8ZRN9A9V9G643CG11FCVYHBYO","A1PBRKFHSF1OF8","3RSBJ6YZECCLSSQQCGKCTHC9OPAFOK","","img/set1/S4.jpg","74","4","structured_normal","74","structured_normal,random,structured_incentive,structured_load","2,3,4,2,1,2","3,4,1,2","true","","",""
"null","","html-keyboard-response","176","130700","0.0-176.0","3A0EX8ZRN9A9V9G643CG11FCVYHBYO","A1PBRKFHSF1OF8","3RSBJ6YZECCLSSQQCGKCTHC9OPAFOK","","<img src=""img/set1/S4.jpg"" width=""540"" height = ""360"" style=""border:16px solid orange"">","null","","","","","","","","","",""
"null","","html-keyboard-response","177","130901","0.0-177.0","3A0EX8ZRN9A9V9G643CG11FCVYHBYO","A1PBRKFHSF1OF8","3RSBJ6YZECCLSSQQCGKCTHC9OPAFOK","","","null","","","","","","","","","",""
"810.5999999046326","","image-keyboard-response","178","131714","0.0-178.0","3A0EX8ZRN9A9V9G643CG11FCVYHBYO","A1PBRKFHSF1OF8","3RSBJ6YZECCLSSQQCGKCTHC9OPAFOK","","img/set1/S3.jpg","72","3","structured_normal","72","structured_normal,random,structured_incentive,structured_load","2,3,4,2,1,2","3,4,1,2","true","","",""
"null","","html-keyboard-response","179","132066","0.0-179.0","3A0EX8ZRN9A9V9G643CG11FCVYHBYO","A1PBRKFHSF1OF8","3RSBJ6YZECCLSSQQCGKCTHC9OPAFOK","","<img src=""img/set1/S3.jpg"" width=""540"" height = ""360"" style=""border:16px solid orange"">","null","","","","","","","","","",""
"null","","html-keyboard-response","180","132268","0.0-180.0","3A0EX8ZRN9A9V9G643CG11FCVYHBYO","A1PBRKFHSF1OF8","3RSBJ6YZECCLSSQQCGKCTHC9OPAFOK","","","null","","","","","","","","","",""
"651.3999999761581","","image-keyboard-response","181","132921","0.0-181.0","3A0EX8ZRN9A9V9G643CG11FCVYHBYO","A1PBRKFHSF1OF8","3RSBJ6YZECCLSSQQCGKCTHC9OPAFOK","","img/set1/S4.jpg","74","4","structured_normal","74","structured_normal,random,structured_incentive,structured_load","2,3,4,2,1,2","3,4,1,2","true","","",""
"null","","html-keyboard-response","182","133273","0.0-182.0","3A0EX8ZRN9A9V9G643CG11FCVYHBYO","A1PBRKFHSF1OF8","3RSBJ6YZECCLSSQQCGKCTHC9OPAFOK","","<img src=""img/set1/S4.jpg"" width=""540"" height = ""360"" style=""border:16px solid orange"">","null","","","","","","","","","",""
"null","","html-keyboard-response","183","133474","0.0-183.0","3A0EX8ZRN9A9V9G643CG11FCVYHBYO","A1PBRKFHSF1OF8","3RSBJ6YZECCLSSQQCGKCTHC9OPAFOK","","","null","","","","","","","","","",""
"505.89999997615814","","image-keyboard-response","184","133982","0.0-184.0","3A0EX8ZRN9A9V9G643CG11FCVYHBYO","A1PBRKFHSF1OF8","3RSBJ6YZECCLSSQQCGKCTHC9OPAFOK","","img/set1/S4.jpg","74","4","structured_normal","74","structured_normal,random,structured_incentive,structured_load","2,3,4,2,1,2","3,4,1,2","true","","",""
"null","","html-keyboard-response","185","134334","0.0-185.0","3A0EX8ZRN9A9V9G643CG11FCVYHBYO","A1PBRKFHSF1OF8","3RSBJ6YZECCLSSQQCGKCTHC9OPAFOK","","<img src=""img/set1/S4.jpg"" width=""540"" height = ""360"" style=""border:16px solid orange"">","null","","","","","","","","","",""
"null","","html-keyboard-response","186","134536","0.0-186.0","3A0EX8ZRN9A9V9G643CG11FCVYHBYO","A1PBRKFHSF1OF8","3RSBJ6YZECCLSSQQCGKCTHC9OPAFOK","","","null","","","","","","","","","",""
"611.8000000715256","","image-keyboard-response","187","135149","0.0-187.0","3A0EX8ZRN9A9V9G643CG11FCVYHBYO","A1PBRKFHSF1OF8","3RSBJ6YZECCLSSQQCGKCTHC9OPAFOK","","img/set1/S1.jpg","83","1","structured_normal","83","structured_normal,random,structured_incentive,structured_load","2,3,4,2,1,2","3,4,1,2","true","","",""
"null","","html-keyboard-response","188","135501","0.0-188.0","3A0EX8ZRN9A9V9G643CG11FCVYHBYO","A1PBRKFHSF1OF8","3RSBJ6YZECCLSSQQCGKCTHC9OPAFOK","","<img src=""img/set1/S1.jpg"" width=""540"" height = ""360"" style=""border:16px solid orange"">","null","","","","","","","","","",""
"null","","html-keyboard-response","189","135703","0.0-189.0","3A0EX8ZRN9A9V9G643CG11FCVYHBYO","A1PBRKFHSF1OF8","3RSBJ6YZECCLSSQQCGKCTHC9OPAFOK","","","null","","","","","","","","","",""
"1010.3000000715256","","image-keyboard-response","190","136715","0.0-190.0","3A0EX8ZRN9A9V9G643CG11FCVYHBYO","A1PBRKFHSF1OF8","3RSBJ6YZECCLSSQQCGKCTHC9OPAFOK","","img/set1/S2.jpg","72","2","structured_normal","68","structured_normal,random,structured_incentive,structured_load","2,3,4,2,1,2","3,4,1,2","false","","",""
"null","","html-keyboard-response","191","137070","0.0-191.0","3A0EX8ZRN9A9V9G643CG11FCVYHBYO","A1PBRKFHSF1OF8","3RSBJ6YZECCLSSQQCGKCTHC9OPAFOK","","<img src=""img/set1/S2.jpg"" width=""540"" height = ""360"">","null","","","","","","","","","",""
"null","","html-keyboard-response","192","137272","0.0-192.0","3A0EX8ZRN9A9V9G643CG11FCVYHBYO","A1PBRKFHSF1OF8","3RSBJ6YZECCLSSQQCGKCTHC9OPAFOK","","","null","","","","","","","","","",""
"1292.3999999761581","","image-keyboard-response","193","138566","0.0-193.0","3A0EX8ZRN9A9V9G643CG11FCVYHBYO","A1PBRKFHSF1OF8","3RSBJ6YZECCLSSQQCGKCTHC9OPAFOK","","img/set1/S3.jpg","72","3","structured_normal","72","structured_normal,random,structured_incentive,structured_load","2,3,4,2,1,2","3,4,1,2","true","","",""
"null","","html-keyboard-response","194","138925","0.0-194.0","3A0EX8ZRN9A9V9G643CG11FCVYHBYO","A1PBRKFHSF1OF8","3RSBJ6YZECCLSSQQCGKCTHC9OPAFOK","","<img src=""img/set1/S3.jpg"" width=""540"" height = ""360"" style=""border:16px solid orange"">","null","","","","","","","","","",""
"null","","html-keyboard-response","195","139127","0.0-195.0","3A0EX8ZRN9A9V9G643CG11FCVYHBYO","A1PBRKFHSF1OF8","3RSBJ6YZECCLSSQQCGKCTHC9OPAFOK","","","null","","","","","","","","","",""
"629.3000000715256","","image-keyboard-response","196","139758","0.0-196.0","3A0EX8ZRN9A9V9G643CG11FCVYHBYO","A1PBRKFHSF1OF8","3RSBJ6YZECCLSSQQCGKCTHC9OPAFOK","","img/set1/S4.jpg","74","4","structured_normal","74","structured_normal,random,structured_incentive,structured_load","2,3,4,2,1,2","3,4,1,2","true","","",""
"null","","html-keyboard-response","197","140110","0.0-197.0","3A0EX8ZRN9A9V9G643CG11FCVYHBYO","A1PBRKFHSF1OF8","3RSBJ6YZECCLSSQQCGKCTHC9OPAFOK","","<img src=""img/set1/S4.jpg"" width=""540"" height = ""360"" style=""border:16px solid orange"">","null","","","","","","","","","",""
"null","","html-keyboard-response","198","140312","0.0-198.0","3A0EX8ZRN9A9V9G643CG11FCVYHBYO","A1PBRKFHSF1OF8","3RSBJ6YZECCLSSQQCGKCTHC9OPAFOK","","","null","","","","","","","","","",""
"807.5","","image-keyboard-response","199","141121","0.0-199.0","3A0EX8ZRN9A9V9G643CG11FCVYHBYO","A1PBRKFHSF1OF8","3RSBJ6YZECCLSSQQCGKCTHC9OPAFOK","","img/set1/S1.jpg","83","1","structured_normal","83","structured_normal,random,structured_incentive,structured_load","2,3,4,2,1,2","3,4,1,2","true","","",""
"null","","html-keyboard-response","200","141474","0.0-200.0","3A0EX8ZRN9A9V9G643CG11FCVYHBYO","A1PBRKFHSF1OF8","3RSBJ6YZECCLSSQQCGKCTHC9OPAFOK","","<img src=""img/set1/S1.jpg"" width=""540"" height = ""360"" style=""border:16px solid orange"">","null","","","","","","","","","",""
"null","","html-keyboard-response","201","141676","0.0-201.0","3A0EX8ZRN9A9V9G643CG11FCVYHBYO","A1PBRKFHSF1OF8","3RSBJ6YZECCLSSQQCGKCTHC9OPAFOK","","","null","","","","","","","","","",""
"450.10000002384186","","image-keyboard-response","202","142128","0.0-202.0","3A0EX8ZRN9A9V9G643CG11FCVYHBYO","A1PBRKFHSF1OF8","3RSBJ6YZECCLSSQQCGKCTHC9OPAFOK","","img/set1/S1.jpg","83","1","structured_normal","83","structured_normal,random,structured_incentive,structured_load","2,3,4,2,1,2","3,4,1,2","true","","",""
"null","","html-keyboard-response","203","142480","0.0-203.0","3A0EX8ZRN9A9V9G643CG11FCVYHBYO","A1PBRKFHSF1OF8","3RSBJ6YZECCLSSQQCGKCTHC9OPAFOK","","<img src=""img/set1/S1.jpg"" width=""540"" height = ""360"" style=""border:16px solid orange"">","null","","","","","","","","","",""
"null","","html-keyboard-response","204","142682","0.0-204.0","3A0EX8ZRN9A9V9G643CG11FCVYHBYO","A1PBRKFHSF1OF8","3RSBJ6YZECCLSSQQCGKCTHC9OPAFOK","","","null","","","","","","","","","",""
"672.7000000476837","","image-keyboard-response","205","143356","0.0-205.0","3A0EX8ZRN9A9V9G643CG11FCVYHBYO","A1PBRKFHSF1OF8","3RSBJ6YZECCLSSQQCGKCTHC9OPAFOK","","img/set1/S4.jpg","74","4","structured_normal","74","structured_normal,random,structured_incentive,structured_load","2,3,4,2,1,2","3,4,1,2","true","","",""
"null","","html-keyboard-response","206","143709","0.0-206.0","3A0EX8ZRN9A9V9G643CG11FCVYHBYO","A1PBRKFHSF1OF8","3RSBJ6YZECCLSSQQCGKCTHC9OPAFOK","","<img src=""img/set1/S4.jpg"" width=""540"" height = ""360"" style=""border:16px solid orange"">","null","","","","","","","","","",""
"null","","html-keyboard-response","207","143923","0.0-207.0","3A0EX8ZRN9A9V9G643CG11FCVYHBYO","A1PBRKFHSF1OF8","3RSBJ6YZECCLSSQQCGKCTHC9OPAFOK","","","null","","","","","","","","","",""
"663.5","","image-keyboard-response","208","144588","0.0-208.0","3A0EX8ZRN9A9V9G643CG11FCVYHBYO","A1PBRKFHSF1OF8","3RSBJ6YZECCLSSQQCGKCTHC9OPAFOK","","img/set1/S1.jpg","83","1","structured_normal","83","structured_normal,random,structured_incentive,structured_load","2,3,4,2,1,2","3,4,1,2","true","","",""
"null","","html-keyboard-response","209","144950","0.0-209.0","3A0EX8ZRN9A9V9G643CG11FCVYHBYO","A1PBRKFHSF1OF8","3RSBJ6YZECCLSSQQCGKCTHC9OPAFOK","","<img src=""img/set1/S1.jpg"" width=""540"" height = ""360"" style=""border:16px solid orange"">","null","","","","","","","","","",""
"null","","html-keyboard-response","210","145153","0.0-210.0","3A0EX8ZRN9A9V9G643CG11FCVYHBYO","A1PBRKFHSF1OF8","3RSBJ6YZECCLSSQQCGKCTHC9OPAFOK","","","null","","","","","","","","","",""
"466.5","","image-keyboard-response","211","145621","0.0-211.0","3A0EX8ZRN9A9V9G643CG11FCVYHBYO","A1PBRKFHSF1OF8","3RSBJ6YZECCLSSQQCGKCTHC9OPAFOK","","img/set1/S1.jpg","83","1","structured_normal","83","structured_normal,random,structured_incentive,structured_load","2,3,4,2,1,2","3,4,1,2","true","","",""
"null","","html-keyboard-response","212","145973","0.0-212.0","3A0EX8ZRN9A9V9G643CG11FCVYHBYO","A1PBRKFHSF1OF8","3RSBJ6YZECCLSSQQCGKCTHC9OPAFOK","","<img src=""img/set1/S1.jpg"" width=""540"" height = ""360"" style=""border:16px solid orange"">","null","","","","","","","","","",""
"null","","html-keyboard-response","213","146176","0.0-213.0","3A0EX8ZRN9A9V9G643CG11FCVYHBYO","A1PBRKFHSF1OF8","3RSBJ6YZECCLSSQQCGKCTHC9OPAFOK","","","null","","","","","","","","","",""
"574.3000000715256","","image-keyboard-response","214","146752","0.0-214.0","3A0EX8ZRN9A9V9G643CG11FCVYHBYO","A1PBRKFHSF1OF8","3RSBJ6YZECCLSSQQCGKCTHC9OPAFOK","","img/set1/S4.jpg","74","4","structured_normal","74","structured_normal,random,structured_incentive,structured_load","2,3,4,2,1,2","3,4,1,2","true","","",""
"null","","html-keyboard-response","215","147104","0.0-215.0","3A0EX8ZRN9A9V9G643CG11FCVYHBYO","A1PBRKFHSF1OF8","3RSBJ6YZECCLSSQQCGKCTHC9OPAFOK","","<img src=""img/set1/S4.jpg"" width=""540"" height = ""360"" style=""border:16px solid orange"">","null","","","","","","","","","",""
"null","","html-keyboard-response","216","147307","0.0-216.0","3A0EX8ZRN9A9V9G643CG11FCVYHBYO","A1PBRKFHSF1OF8","3RSBJ6YZECCLSSQQCGKCTHC9OPAFOK","","","null","","","","","","","","","",""
"597.3999999761581","","image-keyboard-response","217","147906","0.0-217.0","3A0EX8ZRN9A9V9G643CG11FCVYHBYO","A1PBRKFHSF1OF8","3RSBJ6YZECCLSSQQCGKCTHC9OPAFOK","","img/set1/S1.jpg","83","1","structured_normal","83","structured_normal,random,structured_incentive,structured_load","2,3,4,2,1,2","3,4,1,2","true","","",""
"null","","html-keyboard-response","218","148259","0.0-218.0","3A0EX8ZRN9A9V9G643CG11FCVYHBYO","A1PBRKFHSF1OF8","3RSBJ6YZECCLSSQQCGKCTHC9OPAFOK","","<img src=""img/set1/S1.jpg"" width=""540"" height = ""360"" style=""border:16px solid orange"">","null","","","","","","","","","",""
"null","","html-keyboard-response","219","148461","0.0-219.0","3A0EX8ZRN9A9V9G643CG11FCVYHBYO","A1PBRKFHSF1OF8","3RSBJ6YZECCLSSQQCGKCTHC9OPAFOK","","","null","","","","","","","","","",""
"390.39999997615814","","image-keyboard-response","220","148853","0.0-220.0","3A0EX8ZRN9A9V9G643CG11FCVYHBYO","A1PBRKFHSF1OF8","3RSBJ6YZECCLSSQQCGKCTHC9OPAFOK","","img/set1/S1.jpg","83","1","structured_normal","83","structured_normal,random,structured_incentive,structured_load","2,3,4,2,1,2","3,4,1,2","true","","",""
"null","","html-keyboard-response","221","149205","0.0-221.0","3A0EX8ZRN9A9V9G643CG11FCVYHBYO","A1PBRKFHSF1OF8","3RSBJ6YZECCLSSQQCGKCTHC9OPAFOK","","<img src=""img/set1/S1.jpg"" width=""540"" height = ""360"" style=""border:16px solid orange"">","null","","","","","","","","","",""
"null","","html-keyboard-response","222","149408","0.0-222.0","3A0EX8ZRN9A9V9G643CG11FCVYHBYO","A1PBRKFHSF1OF8","3RSBJ6YZECCLSSQQCGKCTHC9OPAFOK","","","null","","","","","","","","","",""
"816.5","","image-keyboard-response","223","150226","0.0-223.0","3A0EX8ZRN9A9V9G643CG11FCVYHBYO","A1PBRKFHSF1OF8","3RSBJ6YZECCLSSQQCGKCTHC9OPAFOK","","img/set1/S2.jpg","72","2","structured_normal","68","structured_normal,random,structured_incentive,structured_load","2,3,4,2,1,2","3,4,1,2","false","","",""
"null","","html-keyboard-response","224","150578","0.0-224.0","3A0EX8ZRN9A9V9G643CG11FCVYHBYO","A1PBRKFHSF1OF8","3RSBJ6YZECCLSSQQCGKCTHC9OPAFOK","","<img src=""img/set1/S2.jpg"" width=""540"" height = ""360"">","null","","","","","","","","","",""
"null","","html-keyboard-response","225","150780","0.0-225.0","3A0EX8ZRN9A9V9G643CG11FCVYHBYO","A1PBRKFHSF1OF8","3RSBJ6YZECCLSSQQCGKCTHC9OPAFOK","","","null","","","","","","","","","",""
"1198.8999999761581","","image-keyboard-response","226","151980","0.0-226.0","3A0EX8ZRN9A9V9G643CG11FCVYHBYO","A1PBRKFHSF1OF8","3RSBJ6YZECCLSSQQCGKCTHC9OPAFOK","","img/set1/S3.jpg","72","3","structured_normal","72","structured_normal,random,structured_incentive,structured_load","2,3,4,2,1,2","3,4,1,2","true","","",""
"null","","html-keyboard-response","227","152333","0.0-227.0","3A0EX8ZRN9A9V9G643CG11FCVYHBYO","A1PBRKFHSF1OF8","3RSBJ6YZECCLSSQQCGKCTHC9OPAFOK","","<img src=""img/set1/S3.jpg"" width=""540"" height = ""360"" style=""border:16px solid orange"">","null","","","","","","","","","",""
"null","","html-keyboard-response","228","152536","0.0-228.0","3A0EX8ZRN9A9V9G643CG11FCVYHBYO","A1PBRKFHSF1OF8","3RSBJ6YZECCLSSQQCGKCTHC9OPAFOK","","","null","","","","","","","","","",""
"508.7000000476837","","image-keyboard-response","229","153046","0.0-229.0","3A0EX8ZRN9A9V9G643CG11FCVYHBYO","A1PBRKFHSF1OF8","3RSBJ6YZECCLSSQQCGKCTHC9OPAFOK","","img/set1/S1.jpg","83","1","structured_normal","83","structured_normal,random,structured_incentive,structured_load","2,3,4,2,1,2","3,4,1,2","true","","",""
"null","","html-keyboard-response","230","153401","0.0-230.0","3A0EX8ZRN9A9V9G643CG11FCVYHBYO","A1PBRKFHSF1OF8","3RSBJ6YZECCLSSQQCGKCTHC9OPAFOK","","<img src=""img/set1/S1.jpg"" width=""540"" height = ""360"" style=""border:16px solid orange"">","null","","","","","","","","","",""
"null","","html-keyboard-response","231","153618","0.0-231.0","3A0EX8ZRN9A9V9G643CG11FCVYHBYO","A1PBRKFHSF1OF8","3RSBJ6YZECCLSSQQCGKCTHC9OPAFOK","","","null","","","","","","","","","",""
"718.6000000238419","","image-keyboard-response","232","154338","0.0-232.0","3A0EX8ZRN9A9V9G643CG11FCVYHBYO","A1PBRKFHSF1OF8","3RSBJ6YZECCLSSQQCGKCTHC9OPAFOK","","img/set1/S4.jpg","74","4","structured_normal","74","structured_normal,random,structured_incentive,structured_load","2,3,4,2,1,2","3,4,1,2","true","","",""
"null","","html-keyboard-response","233","154690","0.0-233.0","3A0EX8ZRN9A9V9G643CG11FCVYHBYO","A1PBRKFHSF1OF8","3RSBJ6YZECCLSSQQCGKCTHC9OPAFOK","","<img src=""img/set1/S4.jpg"" width=""540"" height = ""360"" style=""border:16px solid orange"">","null","","","","","","","","","",""
"null","","html-keyboard-response","234","154892","0.0-234.0","3A0EX8ZRN9A9V9G643CG11FCVYHBYO","A1PBRKFHSF1OF8","3RSBJ6YZECCLSSQQCGKCTHC9OPAFOK","","","null","","","","","","","","","",""
"890.3999999761581","","image-keyboard-response","235","155784","0.0-235.0","3A0EX8ZRN9A9V9G643CG11FCVYHBYO","A1PBRKFHSF1OF8","3RSBJ6YZECCLSSQQCGKCTHC9OPAFOK","","img/set1/S1.jpg","83","1","structured_normal","83","structured_normal,random,structured_incentive,structured_load","2,3,4,2,1,2","3,4,1,2","true","","",""
"null","","html-keyboard-response","236","156137","0.0-236.0","3A0EX8ZRN9A9V9G643CG11FCVYHBYO","A1PBRKFHSF1OF8","3RSBJ6YZECCLSSQQCGKCTHC9OPAFOK","","<img src=""img/set1/S1.jpg"" width=""540"" height = ""360"" style=""border:16px solid orange"">","null","","","","","","","","","",""
"null","","html-keyboard-response","237","156338","0.0-237.0","3A0EX8ZRN9A9V9G643CG11FCVYHBYO","A1PBRKFHSF1OF8","3RSBJ6YZECCLSSQQCGKCTHC9OPAFOK","","","null","","","","","","","","","",""
"612.2000000476837","","image-keyboard-response","238","156953","0.0-238.0","3A0EX8ZRN9A9V9G643CG11FCVYHBYO","A1PBRKFHSF1OF8","3RSBJ6YZECCLSSQQCGKCTHC9OPAFOK","","img/set1/S4.jpg","74","4","structured_normal","74","structured_normal,random,structured_incentive,structured_load","2,3,4,2,1,2","3,4,1,2","true","","",""
"null","","html-keyboard-response","239","157306","0.0-239.0","3A0EX8ZRN9A9V9G643CG11FCVYHBYO","A1PBRKFHSF1OF8","3RSBJ6YZECCLSSQQCGKCTHC9OPAFOK","","<img src=""img/set1/S4.jpg"" width=""540"" height = ""360"" style=""border:16px solid orange"">","null","","","","","","","","","",""
"null","","html-keyboard-response","240","157508","0.0-240.0","3A0EX8ZRN9A9V9G643CG11FCVYHBYO","A1PBRKFHSF1OF8","3RSBJ6YZECCLSSQQCGKCTHC9OPAFOK","","","null","","","","","","","","","",""
"788.3999999761581","","image-keyboard-response","241","158298","0.0-241.0","3A0EX8ZRN9A9V9G643CG11FCVYHBYO","A1PBRKFHSF1OF8","3RSBJ6YZECCLSSQQCGKCTHC9OPAFOK","","img/set1/S2.jpg","68","2","structured_normal","68","structured_normal,random,structured_incentive,structured_load","2,3,4,2,1,2","3,4,1,2","true","","",""
"null","","html-keyboard-response","242","158654","0.0-242.0","3A0EX8ZRN9A9V9G643CG11FCVYHBYO","A1PBRKFHSF1OF8","3RSBJ6YZECCLSSQQCGKCTHC9OPAFOK","","<img src=""img/set1/S2.jpg"" width=""540"" height = ""360"" style=""border:16px solid orange"">","null","","","","","","","","","",""
"null","","html-keyboard-response","243","158857","0.0-243.0","3A0EX8ZRN9A9V9G643CG11FCVYHBYO","A1PBRKFHSF1OF8","3RSBJ6YZECCLSSQQCGKCTHC9OPAFOK","","","null","","","","","","","","","",""
"673.8999999761581","","image-keyboard-response","244","159532","0.0-244.0","3A0EX8ZRN9A9V9G643CG11FCVYHBYO","A1PBRKFHSF1OF8","3RSBJ6YZECCLSSQQCGKCTHC9OPAFOK","","img/set1/S3.jpg","72","3","structured_normal","72","structured_normal,random,structured_incentive,structured_load","2,3,4,2,1,2","3,4,1,2","true","","",""
"null","","html-keyboard-response","245","159885","0.0-245.0","3A0EX8ZRN9A9V9G643CG11FCVYHBYO","A1PBRKFHSF1OF8","3RSBJ6YZECCLSSQQCGKCTHC9OPAFOK","","<img src=""img/set1/S3.jpg"" width=""540"" height = ""360"" style=""border:16px solid orange"">","null","","","","","","","","","",""
"null","","html-keyboard-response","246","160087","0.0-246.0","3A0EX8ZRN9A9V9G643CG11FCVYHBYO","A1PBRKFHSF1OF8","3RSBJ6YZECCLSSQQCGKCTHC9OPAFOK","","","null","","","","","","","","","",""
"862.7999999523163","","image-keyboard-response","247","160952","0.0-247.0","3A0EX8ZRN9A9V9G643CG11FCVYHBYO","A1PBRKFHSF1OF8","3RSBJ6YZECCLSSQQCGKCTHC9OPAFOK","","img/set1/S1.jpg","83","1","structured_normal","83","structured_normal,random,structured_incentive,structured_load","2,3,4,2,1,2","3,4,1,2","true","","",""
"null","","html-keyboard-response","248","161305","0.0-248.0","3A0EX8ZRN9A9V9G643CG11FCVYHBYO","A1PBRKFHSF1OF8","3RSBJ6YZECCLSSQQCGKCTHC9OPAFOK","","<img src=""img/set1/S1.jpg"" width=""540"" height = ""360"" style=""border:16px solid orange"">","null","","","","","","","","","",""
"null","","html-keyboard-response","249","161506","0.0-249.0","3A0EX8ZRN9A9V9G643CG11FCVYHBYO","A1PBRKFHSF1OF8","3RSBJ6YZECCLSSQQCGKCTHC9OPAFOK","","","null","","","","","","","","","",""
"684.7999999523163","","image-keyboard-response","250","162193","0.0-250.0","3A0EX8ZRN9A9V9G643CG11FCVYHBYO","A1PBRKFHSF1OF8","3RSBJ6YZECCLSSQQCGKCTHC9OPAFOK","","img/set1/S2.jpg","68","2","structured_normal","68","structured_normal,random,structured_incentive,structured_load","2,3,4,2,1,2","3,4,1,2","true","","",""
"null","","html-keyboard-response","251","162545","0.0-251.0","3A0EX8ZRN9A9V9G643CG11FCVYHBYO","A1PBRKFHSF1OF8","3RSBJ6YZECCLSSQQCGKCTHC9OPAFOK","","<img src=""img/set1/S2.jpg"" width=""540"" height = ""360"" style=""border:16px solid orange"">","null","","","","","","","","","",""
"null","","html-keyboard-response","252","162747","0.0-252.0","3A0EX8ZRN9A9V9G643CG11FCVYHBYO","A1PBRKFHSF1OF8","3RSBJ6YZECCLSSQQCGKCTHC9OPAFOK","","","null","","","","","","","","","",""
"1061.8000000715256","","image-keyboard-response","253","163811","0.0-253.0","3A0EX8ZRN9A9V9G643CG11FCVYHBYO","A1PBRKFHSF1OF8","3RSBJ6YZECCLSSQQCGKCTHC9OPAFOK","","img/set1/S3.jpg","72","3","structured_normal","72","structured_normal,random,structured_incentive,structured_load","2,3,4,2,1,2","3,4,1,2","true","","",""
"null","","html-keyboard-response","254","164163","0.0-254.0","3A0EX8ZRN9A9V9G643CG11FCVYHBYO","A1PBRKFHSF1OF8","3RSBJ6YZECCLSSQQCGKCTHC9OPAFOK","","<img src=""img/set1/S3.jpg"" width=""540"" height = ""360"" style=""border:16px solid orange"">","null","","","","","","","","","",""
"null","","html-keyboard-response","255","164365","0.0-255.0","3A0EX8ZRN9A9V9G643CG11FCVYHBYO","A1PBRKFHSF1OF8","3RSBJ6YZECCLSSQQCGKCTHC9OPAFOK","","","null","","","","","","","","","",""
"536.4000000953674","","image-keyboard-response","256","164903","0.0-256.0","3A0EX8ZRN9A9V9G643CG11FCVYHBYO","A1PBRKFHSF1OF8","3RSBJ6YZECCLSSQQCGKCTHC9OPAFOK","","img/set1/S1.jpg","83","1","structured_normal","83","structured_normal,random,structured_incentive,structured_load","2,3,4,2,1,2","3,4,1,2","true","","",""
"null","","html-keyboard-response","257","165255","0.0-257.0","3A0EX8ZRN9A9V9G643CG11FCVYHBYO","A1PBRKFHSF1OF8","3RSBJ6YZECCLSSQQCGKCTHC9OPAFOK","","<img src=""img/set1/S1.jpg"" width=""540"" height = ""360"" style=""border:16px solid orange"">","null","","","","","","","","","",""
"null","","html-keyboard-response","258","165457","0.0-258.0","3A0EX8ZRN9A9V9G643CG11FCVYHBYO","A1PBRKFHSF1OF8","3RSBJ6YZECCLSSQQCGKCTHC9OPAFOK","","","null","","","","","","","","","",""
"895.8999999761581","","image-keyboard-response","259","166354","0.0-259.0","3A0EX8ZRN9A9V9G643CG11FCVYHBYO","A1PBRKFHSF1OF8","3RSBJ6YZECCLSSQQCGKCTHC9OPAFOK","","img/set1/S1.jpg","68","1","structured_normal","83","structured_normal,random,structured_incentive,structured_load","2,3,4,2,1,2","3,4,1,2","false","","",""
"null","","html-keyboard-response","260","166707","0.0-260.0","3A0EX8ZRN9A9V9G643CG11FCVYHBYO","A1PBRKFHSF1OF8","3RSBJ6YZECCLSSQQCGKCTHC9OPAFOK","","<img src=""img/set1/S1.jpg"" width=""540"" height = ""360"">","null","","","","","","","","","",""
"null","","html-keyboard-response","261","166908","0.0-261.0","3A0EX8ZRN9A9V9G643CG11FCVYHBYO","A1PBRKFHSF1OF8","3RSBJ6YZECCLSSQQCGKCTHC9OPAFOK","","","null","","","","","","","","","",""
"803.8999999761581","","image-keyboard-response","262","167714","0.0-262.0","3A0EX8ZRN9A9V9G643CG11FCVYHBYO","A1PBRKFHSF1OF8","3RSBJ6YZECCLSSQQCGKCTHC9OPAFOK","","img/set1/S2.jpg","68","2","structured_normal","68","structured_normal,random,structured_incentive,structured_load","2,3,4,2,1,2","3,4,1,2","true","","",""
"null","","html-keyboard-response","263","168066","0.0-263.0","3A0EX8ZRN9A9V9G643CG11FCVYHBYO","A1PBRKFHSF1OF8","3RSBJ6YZECCLSSQQCGKCTHC9OPAFOK","","<img src=""img/set1/S2.jpg"" width=""540"" height = ""360"" style=""border:16px solid orange"">","null","","","","","","","","","",""
"null","","html-keyboard-response","264","168268","0.0-264.0","3A0EX8ZRN9A9V9G643CG11FCVYHBYO","A1PBRKFHSF1OF8","3RSBJ6YZECCLSSQQCGKCTHC9OPAFOK","","","null","","","","","","","","","",""
"694.3000000715256","","image-keyboard-response","265","168964","0.0-265.0","3A0EX8ZRN9A9V9G643CG11FCVYHBYO","A1PBRKFHSF1OF8","3RSBJ6YZECCLSSQQCGKCTHC9OPAFOK","","img/set1/S3.jpg","72","3","structured_normal","72","structured_normal,random,structured_incentive,structured_load","2,3,4,2,1,2","3,4,1,2","true","","",""
"null","","html-keyboard-response","266","169317","0.0-266.0","3A0EX8ZRN9A9V9G643CG11FCVYHBYO","A1PBRKFHSF1OF8","3RSBJ6YZECCLSSQQCGKCTHC9OPAFOK","","<img src=""img/set1/S3.jpg"" width=""540"" height = ""360"" style=""border:16px solid orange"">","null","","","","","","","","","",""
"null","","html-keyboard-response","267","169519","0.0-267.0","3A0EX8ZRN9A9V9G643CG11FCVYHBYO","A1PBRKFHSF1OF8","3RSBJ6YZECCLSSQQCGKCTHC9OPAFOK","","","null","","","","","","","","","",""
"707","","image-keyboard-response","268","170227","0.0-268.0","3A0EX8ZRN9A9V9G643CG11FCVYHBYO","A1PBRKFHSF1OF8","3RSBJ6YZECCLSSQQCGKCTHC9OPAFOK","","img/set1/S1.jpg","83","1","structured_normal","83","structured_normal,random,structured_incentive,structured_load","2,3,4,2,1,2","3,4,1,2","true","","",""
"null","","html-keyboard-response","269","170579","0.0-269.0","3A0EX8ZRN9A9V9G643CG11FCVYHBYO","A1PBRKFHSF1OF8","3RSBJ6YZECCLSSQQCGKCTHC9OPAFOK","","<img src=""img/set1/S1.jpg"" width=""540"" height = ""360"" style=""border:16px solid orange"">","null","","","","","","","","","",""
"null","","html-keyboard-response","270","170781","0.0-270.0","3A0EX8ZRN9A9V9G643CG11FCVYHBYO","A1PBRKFHSF1OF8","3RSBJ6YZECCLSSQQCGKCTHC9OPAFOK","","","null","","","","","","","","","",""
"804.9000000953674","","image-keyboard-response","271","171588","0.0-271.0","3A0EX8ZRN9A9V9G643CG11FCVYHBYO","A1PBRKFHSF1OF8","3RSBJ6YZECCLSSQQCGKCTHC9OPAFOK","","img/set1/S3.jpg","72","3","structured_normal","72","structured_normal,random,structured_incentive,structured_load","2,3,4,2,1,2","3,4,1,2","true","","",""
"null","","html-keyboard-response","272","171940","0.0-272.0","3A0EX8ZRN9A9V9G643CG11FCVYHBYO","A1PBRKFHSF1OF8","3RSBJ6YZECCLSSQQCGKCTHC9OPAFOK","","<img src=""img/set1/S3.jpg"" width=""540"" height = ""360"" style=""border:16px solid orange"">","null","","","","","","","","","",""
"null","","html-keyboard-response","273","172142","0.0-273.0","3A0EX8ZRN9A9V9G643CG11FCVYHBYO","A1PBRKFHSF1OF8","3RSBJ6YZECCLSSQQCGKCTHC9OPAFOK","","","null","","","","","","","","","",""
"823.2999999523163","","image-keyboard-response","274","172967","0.0-274.0","3A0EX8ZRN9A9V9G643CG11FCVYHBYO","A1PBRKFHSF1OF8","3RSBJ6YZECCLSSQQCGKCTHC9OPAFOK","","img/set1/S2.jpg","68","2","structured_normal","68","structured_normal,random,structured_incentive,structured_load","2,3,4,2,1,2","3,4,1,2","true","","",""
"null","","html-keyboard-response","275","173319","0.0-275.0","3A0EX8ZRN9A9V9G643CG11FCVYHBYO","A1PBRKFHSF1OF8","3RSBJ6YZECCLSSQQCGKCTHC9OPAFOK","","<img src=""img/set1/S2.jpg"" width=""540"" height = ""360"" style=""border:16px solid orange"">","null","","","","","","","","","",""
"null","","html-keyboard-response","276","173520","0.0-276.0","3A0EX8ZRN9A9V9G643CG11FCVYHBYO","A1PBRKFHSF1OF8","3RSBJ6YZECCLSSQQCGKCTHC9OPAFOK","","","null","","","","","","","","","",""
"603.6000000238419","","image-keyboard-response","277","174126","0.0-277.0","3A0EX8ZRN9A9V9G643CG11FCVYHBYO","A1PBRKFHSF1OF8","3RSBJ6YZECCLSSQQCGKCTHC9OPAFOK","","img/set1/S3.jpg","72","3","structured_normal","72","structured_normal,random,structured_incentive,structured_load","2,3,4,2,1,2","3,4,1,2","true","","",""
"null","","html-keyboard-response","278","174479","0.0-278.0","3A0EX8ZRN9A9V9G643CG11FCVYHBYO","A1PBRKFHSF1OF8","3RSBJ6YZECCLSSQQCGKCTHC9OPAFOK","","<img src=""img/set1/S3.jpg"" width=""540"" height = ""360"" style=""border:16px solid orange"">","null","","","","","","","","","",""
"null","","html-keyboard-response","279","174695","0.0-279.0","3A0EX8ZRN9A9V9G643CG11FCVYHBYO","A1PBRKFHSF1OF8","3RSBJ6YZECCLSSQQCGKCTHC9OPAFOK","","","null","","","","","","","","","",""
"735.2999999523163","","image-keyboard-response","280","175432","0.0-280.0","3A0EX8ZRN9A9V9G643CG11FCVYHBYO","A1PBRKFHSF1OF8","3RSBJ6YZECCLSSQQCGKCTHC9OPAFOK","","img/set1/S1.jpg","83","1","structured_normal","83","structured_normal,random,structured_incentive,structured_load","2,3,4,2,1,2","3,4,1,2","true","","",""
"null","","html-keyboard-response","281","175784","0.0-281.0","3A0EX8ZRN9A9V9G643CG11FCVYHBYO","A1PBRKFHSF1OF8","3RSBJ6YZECCLSSQQCGKCTHC9OPAFOK","","<img src=""img/set1/S1.jpg"" width=""540"" height = ""360"" style=""border:16px solid orange"">","null","","","","","","","","","",""
"null","","html-keyboard-response","282","175986","0.0-282.0","3A0EX8ZRN9A9V9G643CG11FCVYHBYO","A1PBRKFHSF1OF8","3RSBJ6YZECCLSSQQCGKCTHC9OPAFOK","","","null","","","","","","","","","",""
"645.2999999523163","","image-keyboard-response","283","176633","0.0-283.0","3A0EX8ZRN9A9V9G643CG11FCVYHBYO","A1PBRKFHSF1OF8","3RSBJ6YZECCLSSQQCGKCTHC9OPAFOK","","img/set1/S3.jpg","72","3","structured_normal","72","structured_normal,random,structured_incentive,structured_load","2,3,4,2,1,2","3,4,1,2","true","","",""
"null","","html-keyboard-response","284","176985","0.0-284.0","3A0EX8ZRN9A9V9G643CG11FCVYHBYO","A1PBRKFHSF1OF8","3RSBJ6YZECCLSSQQCGKCTHC9OPAFOK","","<img src=""img/set1/S3.jpg"" width=""540"" height = ""360"" style=""border:16px solid orange"">","null","","","","","","","","","",""
"null","","html-keyboard-response","285","177187","0.0-285.0","3A0EX8ZRN9A9V9G643CG11FCVYHBYO","A1PBRKFHSF1OF8","3RSBJ6YZECCLSSQQCGKCTHC9OPAFOK","","","null","","","","","","","","","",""
"653.4000000953674","","image-keyboard-response","286","177842","0.0-286.0","3A0EX8ZRN9A9V9G643CG11FCVYHBYO","A1PBRKFHSF1OF8","3RSBJ6YZECCLSSQQCGKCTHC9OPAFOK","","img/set1/S2.jpg","68","2","structured_normal","68","structured_normal,random,structured_incentive,structured_load","2,3,4,2,1,2","3,4,1,2","true","","",""
"null","","html-keyboard-response","287","178208","0.0-287.0","3A0EX8ZRN9A9V9G643CG11FCVYHBYO","A1PBRKFHSF1OF8","3RSBJ6YZECCLSSQQCGKCTHC9OPAFOK","","<img src=""img/set1/S2.jpg"" width=""540"" height = ""360"" style=""border:16px solid orange"">","null","","","","","","","","","",""
"null","","html-keyboard-response","288","178409","0.0-288.0","3A0EX8ZRN9A9V9G643CG11FCVYHBYO","A1PBRKFHSF1OF8","3RSBJ6YZECCLSSQQCGKCTHC9OPAFOK","","","null","","","","","","","","","",""
"646.7999999523163","","image-keyboard-response","289","179057","0.0-289.0","3A0EX8ZRN9A9V9G643CG11FCVYHBYO","A1PBRKFHSF1OF8","3RSBJ6YZECCLSSQQCGKCTHC9OPAFOK","","img/set1/S3.jpg","72","3","structured_normal","72","structured_normal,random,structured_incentive,structured_load","2,3,4,2,1,2","3,4,1,2","true","","",""
"null","","html-keyboard-response","290","179410","0.0-290.0","3A0EX8ZRN9A9V9G643CG11FCVYHBYO","A1PBRKFHSF1OF8","3RSBJ6YZECCLSSQQCGKCTHC9OPAFOK","","<img src=""img/set1/S3.jpg"" width=""540"" height = ""360"" style=""border:16px solid orange"">","null","","","","","","","","","",""
"null","","html-keyboard-response","291","179625","0.0-291.0","3A0EX8ZRN9A9V9G643CG11FCVYHBYO","A1PBRKFHSF1OF8","3RSBJ6YZECCLSSQQCGKCTHC9OPAFOK","","","null","","","","","","","","","",""
"559.6000000238419","","image-keyboard-response","292","180186","0.0-292.0","3A0EX8ZRN9A9V9G643CG11FCVYHBYO","A1PBRKFHSF1OF8","3RSBJ6YZECCLSSQQCGKCTHC9OPAFOK","","img/set1/S2.jpg","83","2","structured_normal","68","structured_normal,random,structured_incentive,structured_load","2,3,4,2,1,2","3,4,1,2","false","","",""
"null","","html-keyboard-response","293","180538","0.0-293.0","3A0EX8ZRN9A9V9G643CG11FCVYHBYO","A1PBRKFHSF1OF8","3RSBJ6YZECCLSSQQCGKCTHC9OPAFOK","","<img src=""img/set1/S2.jpg"" width=""540"" height = ""360"">","null","","","","","","","","","",""
"null","","html-keyboard-response","294","180749","0.0-294.0","3A0EX8ZRN9A9V9G643CG11FCVYHBYO","A1PBRKFHSF1OF8","3RSBJ6YZECCLSSQQCGKCTHC9OPAFOK","","","null","","","","","","","","","",""
"748.2000000476837","","image-keyboard-response","295","181498","0.0-295.0","3A0EX8ZRN9A9V9G643CG11FCVYHBYO","A1PBRKFHSF1OF8","3RSBJ6YZECCLSSQQCGKCTHC9OPAFOK","","img/set1/S3.jpg","72","3","structured_normal","72","structured_normal,random,structured_incentive,structured_load","2,3,4,2,1,2","3,4,1,2","true","","",""
"null","","html-keyboard-response","296","181850","0.0-296.0","3A0EX8ZRN9A9V9G643CG11FCVYHBYO","A1PBRKFHSF1OF8","3RSBJ6YZECCLSSQQCGKCTHC9OPAFOK","","<img src=""img/set1/S3.jpg"" width=""540"" height = ""360"" style=""border:16px solid orange"">","null","","","","","","","","","",""
"null","","html-keyboard-response","297","182052","0.0-297.0","3A0EX8ZRN9A9V9G643CG11FCVYHBYO","A1PBRKFHSF1OF8","3RSBJ6YZECCLSSQQCGKCTHC9OPAFOK","","","null","","","","","","","","","",""
"773.5","","image-keyboard-response","298","182828","0.0-298.0","3A0EX8ZRN9A9V9G643CG11FCVYHBYO","A1PBRKFHSF1OF8","3RSBJ6YZECCLSSQQCGKCTHC9OPAFOK","","img/set1/S1.jpg","68","1","structured_normal","83","structured_normal,random,structured_incentive,structured_load","2,3,4,2,1,2","3,4,1,2","false","","",""
"null","","html-keyboard-response","299","183180","0.0-299.0","3A0EX8ZRN9A9V9G643CG11FCVYHBYO","A1PBRKFHSF1OF8","3RSBJ6YZECCLSSQQCGKCTHC9OPAFOK","","<img src=""img/set1/S1.jpg"" width=""540"" height = ""360"">","null","","","","","","","","","",""
"null","","html-keyboard-response","300","183382","0.0-300.0","3A0EX8ZRN9A9V9G643CG11FCVYHBYO","A1PBRKFHSF1OF8","3RSBJ6YZECCLSSQQCGKCTHC9OPAFOK","","","null","","","","","","","","","",""
"506.7000000476837","","image-keyboard-response","301","183890","0.0-301.0","3A0EX8ZRN9A9V9G643CG11FCVYHBYO","A1PBRKFHSF1OF8","3RSBJ6YZECCLSSQQCGKCTHC9OPAFOK","","img/set1/S1.jpg","83","1","structured_normal","83","structured_normal,random,structured_incentive,structured_load","2,3,4,2,1,2","3,4,1,2","true","","",""
"null","","html-keyboard-response","302","184242","0.0-302.0","3A0EX8ZRN9A9V9G643CG11FCVYHBYO","A1PBRKFHSF1OF8","3RSBJ6YZECCLSSQQCGKCTHC9OPAFOK","","<img src=""img/set1/S1.jpg"" width=""540"" height = ""360"" style=""border:16px solid orange"">","null","","","","","","","","","",""
"null","","html-keyboard-response","303","184443","0.0-303.0","3A0EX8ZRN9A9V9G643CG11FCVYHBYO","A1PBRKFHSF1OF8","3RSBJ6YZECCLSSQQCGKCTHC9OPAFOK","","","null","","","","","","","","","",""
"401.39999997615814","","image-keyboard-response","304","184846","0.0-304.0","3A0EX8ZRN9A9V9G643CG11FCVYHBYO","A1PBRKFHSF1OF8","3RSBJ6YZECCLSSQQCGKCTHC9OPAFOK","","img/set1/S1.jpg","83","1","structured_normal","83","structured_normal,random,structured_incentive,structured_load","2,3,4,2,1,2","3,4,1,2","true","","",""
"null","","html-keyboard-response","305","185198","0.0-305.0","3A0EX8ZRN9A9V9G643CG11FCVYHBYO","A1PBRKFHSF1OF8","3RSBJ6YZECCLSSQQCGKCTHC9OPAFOK","","<img src=""img/set1/S1.jpg"" width=""540"" height = ""360"" style=""border:16px solid orange"">","null","","","","","","","","","",""
"null","","html-keyboard-response","306","185400","0.0-306.0","3A0EX8ZRN9A9V9G643CG11FCVYHBYO","A1PBRKFHSF1OF8","3RSBJ6YZECCLSSQQCGKCTHC9OPAFOK","","","null","","","","","","","","","",""
"544.7999999523163","","image-keyboard-response","307","185946","0.0-307.0","3A0EX8ZRN9A9V9G643CG11FCVYHBYO","A1PBRKFHSF1OF8","3RSBJ6YZECCLSSQQCGKCTHC9OPAFOK","","img/set1/S4.jpg","72","4","structured_normal","74","structured_normal,random,structured_incentive,structured_load","2,3,4,2,1,2","3,4,1,2","false","","",""
"null","","html-keyboard-response","308","186311","0.0-308.0","3A0EX8ZRN9A9V9G643CG11FCVYHBYO","A1PBRKFHSF1OF8","3RSBJ6YZECCLSSQQCGKCTHC9OPAFOK","","<img src=""img/set1/S4.jpg"" width=""540"" height = ""360"">","null","","","","","","","","","",""
"null","","html-keyboard-response","309","186525","0.0-309.0","3A0EX8ZRN9A9V9G643CG11FCVYHBYO","A1PBRKFHSF1OF8","3RSBJ6YZECCLSSQQCGKCTHC9OPAFOK","","","null","","","","","","","","","",""
"663.0999999046326","","image-keyboard-response","310","187190","0.0-310.0","3A0EX8ZRN9A9V9G643CG11FCVYHBYO","A1PBRKFHSF1OF8","3RSBJ6YZECCLSSQQCGKCTHC9OPAFOK","","img/set1/S2.jpg","68","2","structured_normal","68","structured_normal,random,structured_incentive,structured_load","2,3,4,2,1,2","3,4,1,2","true","","",""
"null","","html-keyboard-response","311","187543","0.0-311.0","3A0EX8ZRN9A9V9G643CG11FCVYHBYO","A1PBRKFHSF1OF8","3RSBJ6YZECCLSSQQCGKCTHC9OPAFOK","","<img src=""img/set1/S2.jpg"" width=""540"" height = ""360"" style=""border:16px solid orange"">","null","","","","","","","","","",""
"null","","html-keyboard-response","312","187744","0.0-312.0","3A0EX8ZRN9A9V9G643CG11FCVYHBYO","A1PBRKFHSF1OF8","3RSBJ6YZECCLSSQQCGKCTHC9OPAFOK","","","null","","","","","","","","","",""
"614.7000000476837","","image-keyboard-response","313","188361","0.0-313.0","3A0EX8ZRN9A9V9G643CG11FCVYHBYO","A1PBRKFHSF1OF8","3RSBJ6YZECCLSSQQCGKCTHC9OPAFOK","","img/set1/S3.jpg","72","3","structured_normal","72","structured_normal,random,structured_incentive,structured_load","2,3,4,2,1,2","3,4,1,2","true","","",""
"null","","html-keyboard-response","314","188714","0.0-314.0","3A0EX8ZRN9A9V9G643CG11FCVYHBYO","A1PBRKFHSF1OF8","3RSBJ6YZECCLSSQQCGKCTHC9OPAFOK","","<img src=""img/set1/S3.jpg"" width=""540"" height = ""360"" style=""border:16px solid orange"">","null","","","","","","","","","",""
"null","","html-keyboard-response","315","188917","0.0-315.0","3A0EX8ZRN9A9V9G643CG11FCVYHBYO","A1PBRKFHSF1OF8","3RSBJ6YZECCLSSQQCGKCTHC9OPAFOK","","","null","","","","","","","","","",""
"802.2000000476837","","image-keyboard-response","316","189720","0.0-316.0","3A0EX8ZRN9A9V9G643CG11FCVYHBYO","A1PBRKFHSF1OF8","3RSBJ6YZECCLSSQQCGKCTHC9OPAFOK","","img/set1/S2.jpg","83","2","structured_normal","68","structured_normal,random,structured_incentive,structured_load","2,3,4,2,1,2","3,4,1,2","false","","",""
"null","","html-keyboard-response","317","190073","0.0-317.0","3A0EX8ZRN9A9V9G643CG11FCVYHBYO","A1PBRKFHSF1OF8","3RSBJ6YZECCLSSQQCGKCTHC9OPAFOK","","<img src=""img/set1/S2.jpg"" width=""540"" height = ""360"">","null","","","","","","","","","",""
"null","","html-keyboard-response","318","190287","0.0-318.0","3A0EX8ZRN9A9V9G643CG11FCVYHBYO","A1PBRKFHSF1OF8","3RSBJ6YZECCLSSQQCGKCTHC9OPAFOK","","","null","","","","","","","","","",""
"1034.8000000715256","","image-keyboard-response","319","191323","0.0-319.0","3A0EX8ZRN9A9V9G643CG11FCVYHBYO","A1PBRKFHSF1OF8","3RSBJ6YZECCLSSQQCGKCTHC9OPAFOK","","img/set1/S3.jpg","72","3","structured_normal","72","structured_normal,random,structured_incentive,structured_load","2,3,4,2,1,2","3,4,1,2","true","","",""
"null","","html-keyboard-response","320","191675","0.0-320.0","3A0EX8ZRN9A9V9G643CG11FCVYHBYO","A1PBRKFHSF1OF8","3RSBJ6YZECCLSSQQCGKCTHC9OPAFOK","","<img src=""img/set1/S3.jpg"" width=""540"" height = ""360"" style=""border:16px solid orange"">","null","","","","","","","","","",""
"null","","html-keyboard-response","321","191877","0.0-321.0","3A0EX8ZRN9A9V9G643CG11FCVYHBYO","A1PBRKFHSF1OF8","3RSBJ6YZECCLSSQQCGKCTHC9OPAFOK","","","null","","","","","","","","","",""
"532.2999999523163","","image-keyboard-response","322","192410","0.0-322.0","3A0EX8ZRN9A9V9G643CG11FCVYHBYO","A1PBRKFHSF1OF8","3RSBJ6YZECCLSSQQCGKCTHC9OPAFOK","","img/set1/S4.jpg","74","4","structured_normal","74","structured_normal,random,structured_incentive,structured_load","2,3,4,2,1,2","3,4,1,2","true","","",""
"null","","html-keyboard-response","323","192763","0.0-323.0","3A0EX8ZRN9A9V9G643CG11FCVYHBYO","A1PBRKFHSF1OF8","3RSBJ6YZECCLSSQQCGKCTHC9OPAFOK","","<img src=""img/set1/S4.jpg"" width=""540"" height = ""360"" style=""border:16px solid orange"">","null","","","","","","","","","",""
"null","","html-keyboard-response","324","192965","0.0-324.0","3A0EX8ZRN9A9V9G643CG11FCVYHBYO","A1PBRKFHSF1OF8","3RSBJ6YZECCLSSQQCGKCTHC9OPAFOK","","","null","","","","","","","","","",""
"621","","image-keyboard-response","325","193588","0.0-325.0","3A0EX8ZRN9A9V9G643CG11FCVYHBYO","A1PBRKFHSF1OF8","3RSBJ6YZECCLSSQQCGKCTHC9OPAFOK","","img/set1/S1.jpg","83","1","structured_normal","83","structured_normal,random,structured_incentive,structured_load","2,3,4,2,1,2","3,4,1,2","true","","",""
"null","","html-keyboard-response","326","193940","0.0-326.0","3A0EX8ZRN9A9V9G643CG11FCVYHBYO","A1PBRKFHSF1OF8","3RSBJ6YZECCLSSQQCGKCTHC9OPAFOK","","<img src=""img/set1/S1.jpg"" width=""540"" height = ""360"" style=""border:16px solid orange"">","null","","","","","","","","","",""
"null","","html-keyboard-response","327","194142","0.0-327.0","3A0EX8ZRN9A9V9G643CG11FCVYHBYO","A1PBRKFHSF1OF8","3RSBJ6YZECCLSSQQCGKCTHC9OPAFOK","","","null","","","","","","","","","",""
"746.1000000238419","","image-keyboard-response","328","194889","0.0-328.0","3A0EX8ZRN9A9V9G643CG11FCVYHBYO","A1PBRKFHSF1OF8","3RSBJ6YZECCLSSQQCGKCTHC9OPAFOK","","img/set1/S2.jpg","68","2","structured_normal","68","structured_normal,random,structured_incentive,structured_load","2,3,4,2,1,2","3,4,1,2","true","","",""
"null","","html-keyboard-response","329","195243","0.0-329.0","3A0EX8ZRN9A9V9G643CG11FCVYHBYO","A1PBRKFHSF1OF8","3RSBJ6YZECCLSSQQCGKCTHC9OPAFOK","","<img src=""img/set1/S2.jpg"" width=""540"" height = ""360"" style=""border:16px solid orange"">","null","","","","","","","","","",""
"null","","html-keyboard-response","330","195445","0.0-330.0","3A0EX8ZRN9A9V9G643CG11FCVYHBYO","A1PBRKFHSF1OF8","3RSBJ6YZECCLSSQQCGKCTHC9OPAFOK","","","null","","","","","","","","","",""
"909.8000000715256","","image-keyboard-response","331","196357","0.0-331.0","3A0EX8ZRN9A9V9G643CG11FCVYHBYO","A1PBRKFHSF1OF8","3RSBJ6YZECCLSSQQCGKCTHC9OPAFOK","","img/set1/S3.jpg","72","3","structured_normal","72","structured_normal,random,structured_incentive,structured_load","2,3,4,2,1,2","3,4,1,2","true","","",""
"null","","html-keyboard-response","332","196710","0.0-332.0","3A0EX8ZRN9A9V9G643CG11FCVYHBYO","A1PBRKFHSF1OF8","3RSBJ6YZECCLSSQQCGKCTHC9OPAFOK","","<img src=""img/set1/S3.jpg"" width=""540"" height = ""360"" style=""border:16px solid orange"">","null","","","","","","","","","",""
"null","","html-keyboard-response","333","196916","0.0-333.0","3A0EX8ZRN9A9V9G643CG11FCVYHBYO","A1PBRKFHSF1OF8","3RSBJ6YZECCLSSQQCGKCTHC9OPAFOK","","","null","","","","","","","","","",""
"582.8999999761581","","image-keyboard-response","334","197500","0.0-334.0","3A0EX8ZRN9A9V9G643CG11FCVYHBYO","A1PBRKFHSF1OF8","3RSBJ6YZECCLSSQQCGKCTHC9OPAFOK","","img/set1/S1.jpg","83","1","structured_normal","83","structured_normal,random,structured_incentive,structured_load","2,3,4,2,1,2","3,4,1,2","true","","",""
"null","","html-keyboard-response","335","197853","0.0-335.0","3A0EX8ZRN9A9V9G643CG11FCVYHBYO","A1PBRKFHSF1OF8","3RSBJ6YZECCLSSQQCGKCTHC9OPAFOK","","<img src=""img/set1/S1.jpg"" width=""540"" height = ""360"" style=""border:16px solid orange"">","null","","","","","","","","","",""
"null","","html-keyboard-response","336","198056","0.0-336.0","3A0EX8ZRN9A9V9G643CG11FCVYHBYO","A1PBRKFHSF1OF8","3RSBJ6YZECCLSSQQCGKCTHC9OPAFOK","","","null","","","","","","","","","",""
"524.7999999523163","","image-keyboard-response","337","198582","0.0-337.0","3A0EX8ZRN9A9V9G643CG11FCVYHBYO","A1PBRKFHSF1OF8","3RSBJ6YZECCLSSQQCGKCTHC9OPAFOK","","img/set1/S1.jpg","83","1","structured_normal","83","structured_normal,random,structured_incentive,structured_load","2,3,4,2,1,2","3,4,1,2","true","","",""
"null","","html-keyboard-response","338","198936","0.0-338.0","3A0EX8ZRN9A9V9G643CG11FCVYHBYO","A1PBRKFHSF1OF8","3RSBJ6YZECCLSSQQCGKCTHC9OPAFOK","","<img src=""img/set1/S1.jpg"" width=""540"" height = ""360"" style=""border:16px solid orange"">","null","","","","","","","","","",""
"null","","html-keyboard-response","339","199137","0.0-339.0","3A0EX8ZRN9A9V9G643CG11FCVYHBYO","A1PBRKFHSF1OF8","3RSBJ6YZECCLSSQQCGKCTHC9OPAFOK","","","null","","","","","","","","","",""
"764.6000000238419","","image-keyboard-response","340","199903","0.0-340.0","3A0EX8ZRN9A9V9G643CG11FCVYHBYO","A1PBRKFHSF1OF8","3RSBJ6YZECCLSSQQCGKCTHC9OPAFOK","","img/set1/S4.jpg","74","4","structured_normal","74","structured_normal,random,structured_incentive,structured_load","2,3,4,2,1,2","3,4,1,2","true","","",""
"null","","html-keyboard-response","341","200255","0.0-341.0","3A0EX8ZRN9A9V9G643CG11FCVYHBYO","A1PBRKFHSF1OF8","3RSBJ6YZECCLSSQQCGKCTHC9OPAFOK","","<img src=""img/set1/S4.jpg"" width=""540"" height = ""360"" style=""border:16px solid orange"">","null","","","","","","","","","",""
"null","","html-keyboard-response","342","200457","0.0-342.0","3A0EX8ZRN9A9V9G643CG11FCVYHBYO","A1PBRKFHSF1OF8","3RSBJ6YZECCLSSQQCGKCTHC9OPAFOK","","","null","","","","","","","","","",""
"1202.6000000238419","","image-keyboard-response","343","201661","0.0-343.0","3A0EX8ZRN9A9V9G643CG11FCVYHBYO","A1PBRKFHSF1OF8","3RSBJ6YZECCLSSQQCGKCTHC9OPAFOK","","img/set1/S1.jpg","83","1","structured_normal","83","structured_normal,random,structured_incentive,structured_load","2,3,4,2,1,2","3,4,1,2","true","","",""
"null","","html-keyboard-response","344","202014","0.0-344.0","3A0EX8ZRN9A9V9G643CG11FCVYHBYO","A1PBRKFHSF1OF8","3RSBJ6YZECCLSSQQCGKCTHC9OPAFOK","","<img src=""img/set1/S1.jpg"" width=""540"" height = ""360"" style=""border:16px solid orange"">","null","","","","","","","","","",""
"null","","html-keyboard-response","345","202216","0.0-345.0","3A0EX8ZRN9A9V9G643CG11FCVYHBYO","A1PBRKFHSF1OF8","3RSBJ6YZECCLSSQQCGKCTHC9OPAFOK","","","null","","","","","","","","","",""
"469.2000000476837","","image-keyboard-response","346","202687","0.0-346.0","3A0EX8ZRN9A9V9G643CG11FCVYHBYO","A1PBRKFHSF1OF8","3RSBJ6YZECCLSSQQCGKCTHC9OPAFOK","","img/set1/S1.jpg","83","1","structured_normal","83","structured_normal,random,structured_incentive,structured_load","2,3,4,2,1,2","3,4,1,2","true","","",""
"null","","html-keyboard-response","347","203039","0.0-347.0","3A0EX8ZRN9A9V9G643CG11FCVYHBYO","A1PBRKFHSF1OF8","3RSBJ6YZECCLSSQQCGKCTHC9OPAFOK","","<img src=""img/set1/S1.jpg"" width=""540"" height = ""360"" style=""border:16px solid orange"">","null","","","","","","","","","",""
"null","","html-keyboard-response","348","203241","0.0-348.0","3A0EX8ZRN9A9V9G643CG11FCVYHBYO","A1PBRKFHSF1OF8","3RSBJ6YZECCLSSQQCGKCTHC9OPAFOK","","","null","","","","","","","","","",""
"691.6000000238419","","image-keyboard-response","349","203934","0.0-349.0","3A0EX8ZRN9A9V9G643CG11FCVYHBYO","A1PBRKFHSF1OF8","3RSBJ6YZECCLSSQQCGKCTHC9OPAFOK","","img/set1/S4.jpg","74","4","structured_normal","74","structured_normal,random,structured_incentive,structured_load","2,3,4,2,1,2","3,4,1,2","true","","",""
"null","","html-keyboard-response","350","204287","0.0-350.0","3A0EX8ZRN9A9V9G643CG11FCVYHBYO","A1PBRKFHSF1OF8","3RSBJ6YZECCLSSQQCGKCTHC9OPAFOK","","<img src=""img/set1/S4.jpg"" width=""540"" height = ""360"" style=""border:16px solid orange"">","null","","","","","","","","","",""
"null","","html-keyboard-response","351","204489","0.0-351.0","3A0EX8ZRN9A9V9G643CG11FCVYHBYO","A1PBRKFHSF1OF8","3RSBJ6YZECCLSSQQCGKCTHC9OPAFOK","","","null","","","","","","","","","",""
"892.8999999761581","","image-keyboard-response","352","205384","0.0-352.0","3A0EX8ZRN9A9V9G643CG11FCVYHBYO","A1PBRKFHSF1OF8","3RSBJ6YZECCLSSQQCGKCTHC9OPAFOK","","img/set1/S2.jpg","68","2","structured_normal","68","structured_normal,random,structured_incentive,structured_load","2,3,4,2,1,2","3,4,1,2","true","","",""
"null","","html-keyboard-response","353","205736","0.0-353.0","3A0EX8ZRN9A9V9G643CG11FCVYHBYO","A1PBRKFHSF1OF8","3RSBJ6YZECCLSSQQCGKCTHC9OPAFOK","","<img src=""img/set1/S2.jpg"" width=""540"" height = ""360"" style=""border:16px solid orange"">","null","","","","","","","","","",""
"null","","html-keyboard-response","354","205938","0.0-354.0","3A0EX8ZRN9A9V9G643CG11FCVYHBYO","A1PBRKFHSF1OF8","3RSBJ6YZECCLSSQQCGKCTHC9OPAFOK","","","null","","","","","","","","","",""
"670.4000000953674","","image-keyboard-response","355","206610","0.0-355.0","3A0EX8ZRN9A9V9G643CG11FCVYHBYO","A1PBRKFHSF1OF8","3RSBJ6YZECCLSSQQCGKCTHC9OPAFOK","","img/set1/S3.jpg","72","3","structured_normal","72","structured_normal,random,structured_incentive,structured_load","2,3,4,2,1,2","3,4,1,2","true","","",""
"null","","html-keyboard-response","356","206962","0.0-356.0","3A0EX8ZRN9A9V9G643CG11FCVYHBYO","A1PBRKFHSF1OF8","3RSBJ6YZECCLSSQQCGKCTHC9OPAFOK","","<img src=""img/set1/S3.jpg"" width=""540"" height = ""360"" style=""border:16px solid orange"">","null","","","","","","","","","",""
"null","","html-keyboard-response","357","207164","0.0-357.0","3A0EX8ZRN9A9V9G643CG11FCVYHBYO","A1PBRKFHSF1OF8","3RSBJ6YZECCLSSQQCGKCTHC9OPAFOK","","","null","","","","","","","","","",""
"597.8999999761581","","image-keyboard-response","358","207763","0.0-358.0","3A0EX8ZRN9A9V9G643CG11FCVYHBYO","A1PBRKFHSF1OF8","3RSBJ6YZECCLSSQQCGKCTHC9OPAFOK","","img/set1/S4.jpg","74","4","structured_normal","74","structured_normal,random,structured_incentive,structured_load","2,3,4,2,1,2","3,4,1,2","true","","",""
"null","","html-keyboard-response","359","208116","0.0-359.0","3A0EX8ZRN9A9V9G643CG11FCVYHBYO","A1PBRKFHSF1OF8","3RSBJ6YZECCLSSQQCGKCTHC9OPAFOK","","<img src=""img/set1/S4.jpg"" width=""540"" height = ""360"" style=""border:16px solid orange"">","null","","","","","","","","","",""
"null","","html-keyboard-response","360","208318","0.0-360.0","3A0EX8ZRN9A9V9G643CG11FCVYHBYO","A1PBRKFHSF1OF8","3RSBJ6YZECCLSSQQCGKCTHC9OPAFOK","","","null","","","","","","","","","",""
"911.5","","image-keyboard-response","361","209231","0.0-361.0","3A0EX8ZRN9A9V9G643CG11FCVYHBYO","A1PBRKFHSF1OF8","3RSBJ6YZECCLSSQQCGKCTHC9OPAFOK","","img/set1/S2.jpg","72","2","structured_normal","68","structured_normal,random,structured_incentive,structured_load","2,3,4,2,1,2","3,4,1,2","false","","",""
"null","","html-keyboard-response","362","209585","0.0-362.0","3A0EX8ZRN9A9V9G643CG11FCVYHBYO","A1PBRKFHSF1OF8","3RSBJ6YZECCLSSQQCGKCTHC9OPAFOK","","<img src=""img/set1/S2.jpg"" width=""540"" height = ""360"">","null","","","","","","","","","",""
"null","","html-keyboard-response","363","209787","0.0-363.0","3A0EX8ZRN9A9V9G643CG11FCVYHBYO","A1PBRKFHSF1OF8","3RSBJ6YZECCLSSQQCGKCTHC9OPAFOK","","","null","","","","","","","","","",""
"730","","image-keyboard-response","364","210518","0.0-364.0","3A0EX8ZRN9A9V9G643CG11FCVYHBYO","A1PBRKFHSF1OF8","3RSBJ6YZECCLSSQQCGKCTHC9OPAFOK","","img/set1/S3.jpg","72","3","structured_normal","72","structured_normal,random,structured_incentive,structured_load","2,3,4,2,1,2","3,4,1,2","true","","",""
"null","","html-keyboard-response","365","210872","0.0-365.0","3A0EX8ZRN9A9V9G643CG11FCVYHBYO","A1PBRKFHSF1OF8","3RSBJ6YZECCLSSQQCGKCTHC9OPAFOK","","<img src=""img/set1/S3.jpg"" width=""540"" height = ""360"" style=""border:16px solid orange"">","null","","","","","","","","","",""
"null","","html-keyboard-response","366","211075","0.0-366.0","3A0EX8ZRN9A9V9G643CG11FCVYHBYO","A1PBRKFHSF1OF8","3RSBJ6YZECCLSSQQCGKCTHC9OPAFOK","","","null","","","","","","","","","",""
"680.5","","image-keyboard-response","367","211756","0.0-367.0","3A0EX8ZRN9A9V9G643CG11FCVYHBYO","A1PBRKFHSF1OF8","3RSBJ6YZECCLSSQQCGKCTHC9OPAFOK","","img/set1/S2.jpg","68","2","structured_normal","68","structured_normal,random,structured_incentive,structured_load","2,3,4,2,1,2","3,4,1,2","true","","",""
"null","","html-keyboard-response","368","212109","0.0-368.0","3A0EX8ZRN9A9V9G643CG11FCVYHBYO","A1PBRKFHSF1OF8","3RSBJ6YZECCLSSQQCGKCTHC9OPAFOK","","<img src=""img/set1/S2.jpg"" width=""540"" height = ""360"" style=""border:16px solid orange"">","null","","","","","","","","","",""
"null","","html-keyboard-response","369","212321","0.0-369.0","3A0EX8ZRN9A9V9G643CG11FCVYHBYO","A1PBRKFHSF1OF8","3RSBJ6YZECCLSSQQCGKCTHC9OPAFOK","","","null","","","","","","","","","",""
"744.1000000238419","","image-keyboard-response","370","213067","0.0-370.0","3A0EX8ZRN9A9V9G643CG11FCVYHBYO","A1PBRKFHSF1OF8","3RSBJ6YZECCLSSQQCGKCTHC9OPAFOK","","img/set1/S4.jpg","74","4","structured_normal","74","structured_normal,random,structured_incentive,structured_load","2,3,4,2,1,2","3,4,1,2","true","","",""
"null","","html-keyboard-response","371","213420","0.0-371.0","3A0EX8ZRN9A9V9G643CG11FCVYHBYO","A1PBRKFHSF1OF8","3RSBJ6YZECCLSSQQCGKCTHC9OPAFOK","","<img src=""img/set1/S4.jpg"" width=""540"" height = ""360"" style=""border:16px solid orange"">","null","","","","","","","","","",""
"null","","html-keyboard-response","372","213625","0.0-372.0","3A0EX8ZRN9A9V9G643CG11FCVYHBYO","A1PBRKFHSF1OF8","3RSBJ6YZECCLSSQQCGKCTHC9OPAFOK","","","null","","","","","","","","","",""
"412.1999999284744","","image-keyboard-response","373","214039","0.0-373.0","3A0EX8ZRN9A9V9G643CG11FCVYHBYO","A1PBRKFHSF1OF8","3RSBJ6YZECCLSSQQCGKCTHC9OPAFOK","","img/set1/S4.jpg","74","4","structured_normal","74","structured_normal,random,structured_incentive,structured_load","2,3,4,2,1,2","3,4,1,2","true","","",""
"null","","html-keyboard-response","374","214391","0.0-374.0","3A0EX8ZRN9A9V9G643CG11FCVYHBYO","A1PBRKFHSF1OF8","3RSBJ6YZECCLSSQQCGKCTHC9OPAFOK","","<img src=""img/set1/S4.jpg"" width=""540"" height = ""360"" style=""border:16px solid orange"">","null","","","","","","","","","",""
"null","","html-keyboard-response","375","214593","0.0-375.0","3A0EX8ZRN9A9V9G643CG11FCVYHBYO","A1PBRKFHSF1OF8","3RSBJ6YZECCLSSQQCGKCTHC9OPAFOK","","","null","","","","","","","","","",""
"650.5","","image-keyboard-response","376","215245","0.0-376.0","3A0EX8ZRN9A9V9G643CG11FCVYHBYO","A1PBRKFHSF1OF8","3RSBJ6YZECCLSSQQCGKCTHC9OPAFOK","","img/set1/S2.jpg","72","2","structured_normal","68","structured_normal,random,structured_incentive,structured_load","2,3,4,2,1,2","3,4,1,2","false","","",""
"null","","html-keyboard-response","377","215598","0.0-377.0","3A0EX8ZRN9A9V9G643CG11FCVYHBYO","A1PBRKFHSF1OF8","3RSBJ6YZECCLSSQQCGKCTHC9OPAFOK","","<img src=""img/set1/S2.jpg"" width=""540"" height = ""360"">","null","","","","","","","","","",""
"null","","html-keyboard-response","378","215811","0.0-378.0","3A0EX8ZRN9A9V9G643CG11FCVYHBYO","A1PBRKFHSF1OF8","3RSBJ6YZECCLSSQQCGKCTHC9OPAFOK","","","null","","","","","","","","","",""
"950","","image-keyboard-response","379","216762","0.0-379.0","3A0EX8ZRN9A9V9G643CG11FCVYHBYO","A1PBRKFHSF1OF8","3RSBJ6YZECCLSSQQCGKCTHC9OPAFOK","","img/set1/S3.jpg","83","3","structured_normal","72","structured_normal,random,structured_incentive,structured_load","2,3,4,2,1,2","3,4,1,2","false","","",""
"null","","html-keyboard-response","380","217115","0.0-380.0","3A0EX8ZRN9A9V9G643CG11FCVYHBYO","A1PBRKFHSF1OF8","3RSBJ6YZECCLSSQQCGKCTHC9OPAFOK","","<img src=""img/set1/S3.jpg"" width=""540"" height = ""360"">","null","","","","","","","","","",""
"null","","html-keyboard-response","381","217317","0.0-381.0","3A0EX8ZRN9A9V9G643CG11FCVYHBYO","A1PBRKFHSF1OF8","3RSBJ6YZECCLSSQQCGKCTHC9OPAFOK","","","null","","","","","","","","","",""
"879","","image-keyboard-response","382","218198","0.0-382.0","3A0EX8ZRN9A9V9G643CG11FCVYHBYO","A1PBRKFHSF1OF8","3RSBJ6YZECCLSSQQCGKCTHC9OPAFOK","","img/set1/S2.jpg","68","2","structured_normal","68","structured_normal,random,structured_incentive,structured_load","2,3,4,2,1,2","3,4,1,2","true","","",""
