"rt","url","trial_type","trial_index","time_elapsed","internal_node_id","assignmentID","mturkID","hitID","view_history","stimulus","key_press","state","test_part","correct_response","order_block","order_chunk","order_freq","correct","responses","question_order","bonus"
"435022","consent.html","external-html","0","435090","0.0-0.0","3Z7ISHFUH1HQY1S4XDUPO6YDUY7Z80","A1PLQGQ95NICAF","3G9UA71JVVGUCOKNEKUVXTI6SA17JG","","","","","","","","","","","","",""
"198844","","instructions","1","633932","0.0-1.0","3Z7ISHFUH1HQY1S4XDUPO6YDUY7Z80","A1PLQGQ95NICAF","3G9UA71JVVGUCOKNEKUVXTI6SA17JG","[{""page_index"":0,""viewing_time"":7580},{""page_index"":1,""viewing_time"":24395},{""page_index"":2,""viewing_time"":23375},{""page_index"":3,""viewing_time"":77473},{""page_index"":4,""viewing_time"":19953},{""page_index"":5,""viewing_time"":17366},{""page_index"":6,""viewing_time"":10410},{""page_index"":5,""viewing_time"":1409},{""page_index"":4,""viewing_time"":2096},{""page_index"":3,""viewing_time"":4347},{""page_index"":4,""viewing_time"":1433},{""page_index"":5,""viewing_time"":1011},{""page_index"":6,""viewing_time"":7996}]","","","","","","","","","","","",""
"23033","","instructions","2","656967","0.0-2.0","3Z7ISHFUH1HQY1S4XDUPO6YDUY7Z80","A1PLQGQ95NICAF","3G9UA71JVVGUCOKNEKUVXTI6SA17JG","[{""page_index"":0,""viewing_time"":23033}]","","","","","","","","","","","",""
"15016","","instructions","3","671985","0.0-3.0","3Z7ISHFUH1HQY1S4XDUPO6YDUY7Z80","A1PLQGQ95NICAF","3G9UA71JVVGUCOKNEKUVXTI6SA17JG","[{""page_index"":0,""viewing_time"":15016}]","","","","","","","","","","","",""
"null","","image-keyboard-response","4","674494","0.0-4.0","3Z7ISHFUH1HQY1S4XDUPO6YDUY7Z80","A1PLQGQ95NICAF","3G9UA71JVVGUCOKNEKUVXTI6SA17JG","","img/set1/S1.jpg","null","1","random","83","random,structured_incentive,structured_load,structured_normal","2,3,1,2,4,2","2,4,3,1","false","","",""
"null","","html-keyboard-response","5","674849","0.0-5.0","3Z7ISHFUH1HQY1S4XDUPO6YDUY7Z80","A1PLQGQ95NICAF","3G9UA71JVVGUCOKNEKUVXTI6SA17JG","","<img src=""img/set1/S1.jpg"" width=""540"" height = ""360"">","null","","","","","","","","","",""
"null","","html-keyboard-response","6","675052","0.0-6.0","3Z7ISHFUH1HQY1S4XDUPO6YDUY7Z80","A1PLQGQ95NICAF","3G9UA71JVVGUCOKNEKUVXTI6SA17JG","","","null","","","","","","","","","",""
"null","","image-keyboard-response","7","677556","0.0-7.0","3Z7ISHFUH1HQY1S4XDUPO6YDUY7Z80","A1PLQGQ95NICAF","3G9UA71JVVGUCOKNEKUVXTI6SA17JG","","img/set1/S4.jpg","null","4","random","74","random,structured_incentive,structured_load,structured_normal","2,3,1,2,4,2","2,4,3,1","false","","",""
"null","","html-keyboard-response","8","677908","0.0-8.0","3Z7ISHFUH1HQY1S4XDUPO6YDUY7Z80","A1PLQGQ95NICAF","3G9UA71JVVGUCOKNEKUVXTI6SA17JG","","<img src=""img/set1/S4.jpg"" width=""540"" height = ""360"">","null","","","","","","","","","",""
"null","","html-keyboard-response","9","678114","0.0-9.0","3Z7ISHFUH1HQY1S4XDUPO6YDUY7Z80","A1PLQGQ95NICAF","3G9UA71JVVGUCOKNEKUVXTI6SA17JG","","","null","","","","","","","","","",""
"null","","image-keyboard-response","10","680618","0.0-10.0","3Z7ISHFUH1HQY1S4XDUPO6YDUY7Z80","A1PLQGQ95NICAF","3G9UA71JVVGUCOKNEKUVXTI6SA17JG","","img/set1/S1.jpg","null","1","random","83","random,structured_incentive,structured_load,structured_normal","2,3,1,2,4,2","2,4,3,1","false","","",""
"null","","html-keyboard-response","11","680972","0.0-11.0","3Z7ISHFUH1HQY1S4XDUPO6YDUY7Z80","A1PLQGQ95NICAF","3G9UA71JVVGUCOKNEKUVXTI6SA17JG","","<img src=""img/set1/S1.jpg"" width=""540"" height = ""360"">","null","","","","","","","","","",""
"null","","html-keyboard-response","12","681179","0.0-12.0","3Z7ISHFUH1HQY1S4XDUPO6YDUY7Z80","A1PLQGQ95NICAF","3G9UA71JVVGUCOKNEKUVXTI6SA17JG","","","null","","","","","","","","","",""
"null","","image-keyboard-response","13","683684","0.0-13.0","3Z7ISHFUH1HQY1S4XDUPO6YDUY7Z80","A1PLQGQ95NICAF","3G9UA71JVVGUCOKNEKUVXTI6SA17JG","","img/set1/S3.jpg","null","3","random","72","random,structured_incentive,structured_load,structured_normal","2,3,1,2,4,2","2,4,3,1","false","","",""
"null","","html-keyboard-response","14","684041","0.0-14.0","3Z7ISHFUH1HQY1S4XDUPO6YDUY7Z80","A1PLQGQ95NICAF","3G9UA71JVVGUCOKNEKUVXTI6SA17JG","","<img src=""img/set1/S3.jpg"" width=""540"" height = ""360"">","null","","","","","","","","","",""
"null","","html-keyboard-response","15","684246","0.0-15.0","3Z7ISHFUH1HQY1S4XDUPO6YDUY7Z80","A1PLQGQ95NICAF","3G9UA71JVVGUCOKNEKUVXTI6SA17JG","","","null","","","","","","","","","",""
"null","","image-keyboard-response","16","686748","0.0-16.0","3Z7ISHFUH1HQY1S4XDUPO6YDUY7Z80","A1PLQGQ95NICAF","3G9UA71JVVGUCOKNEKUVXTI6SA17JG","","img/set1/S2.jpg","null","2","random","68","random,structured_incentive,structured_load,structured_normal","2,3,1,2,4,2","2,4,3,1","false","","",""
"null","","html-keyboard-response","17","687104","0.0-17.0","3Z7ISHFUH1HQY1S4XDUPO6YDUY7Z80","A1PLQGQ95NICAF","3G9UA71JVVGUCOKNEKUVXTI6SA17JG","","<img src=""img/set1/S2.jpg"" width=""540"" height = ""360"">","null","","","","","","","","","",""
"null","","html-keyboard-response","18","687308","0.0-18.0","3Z7ISHFUH1HQY1S4XDUPO6YDUY7Z80","A1PLQGQ95NICAF","3G9UA71JVVGUCOKNEKUVXTI6SA17JG","","","null","","","","","","","","","",""
"null","","image-keyboard-response","19","689814","0.0-19.0","3Z7ISHFUH1HQY1S4XDUPO6YDUY7Z80","A1PLQGQ95NICAF","3G9UA71JVVGUCOKNEKUVXTI6SA17JG","","img/set1/S2.jpg","null","2","random","68","random,structured_incentive,structured_load,structured_normal","2,3,1,2,4,2","2,4,3,1","false","","",""
"null","","html-keyboard-response","20","690172","0.0-20.0","3Z7ISHFUH1HQY1S4XDUPO6YDUY7Z80","A1PLQGQ95NICAF","3G9UA71JVVGUCOKNEKUVXTI6SA17JG","","<img src=""img/set1/S2.jpg"" width=""540"" height = ""360"">","null","","","","","","","","","",""
"null","","html-keyboard-response","21","690378","0.0-21.0","3Z7ISHFUH1HQY1S4XDUPO6YDUY7Z80","A1PLQGQ95NICAF","3G9UA71JVVGUCOKNEKUVXTI6SA17JG","","","null","","","","","","","","","",""
"null","","image-keyboard-response","22","692884","0.0-22.0","3Z7ISHFUH1HQY1S4XDUPO6YDUY7Z80","A1PLQGQ95NICAF","3G9UA71JVVGUCOKNEKUVXTI6SA17JG","","img/set1/S2.jpg","null","2","random","68","random,structured_incentive,structured_load,structured_normal","2,3,1,2,4,2","2,4,3,1","false","","",""
"null","","html-keyboard-response","23","693241","0.0-23.0","3Z7ISHFUH1HQY1S4XDUPO6YDUY7Z80","A1PLQGQ95NICAF","3G9UA71JVVGUCOKNEKUVXTI6SA17JG","","<img src=""img/set1/S2.jpg"" width=""540"" height = ""360"">","null","","","","","","","","","",""
"null","","html-keyboard-response","24","693442","0.0-24.0","3Z7ISHFUH1HQY1S4XDUPO6YDUY7Z80","A1PLQGQ95NICAF","3G9UA71JVVGUCOKNEKUVXTI6SA17JG","","","null","","","","","","","","","",""
"null","","image-keyboard-response","25","695951","0.0-25.0","3Z7ISHFUH1HQY1S4XDUPO6YDUY7Z80","A1PLQGQ95NICAF","3G9UA71JVVGUCOKNEKUVXTI6SA17JG","","img/set1/S4.jpg","null","4","random","74","random,structured_incentive,structured_load,structured_normal","2,3,1,2,4,2","2,4,3,1","false","","",""
"null","","html-keyboard-response","26","696306","0.0-26.0","3Z7ISHFUH1HQY1S4XDUPO6YDUY7Z80","A1PLQGQ95NICAF","3G9UA71JVVGUCOKNEKUVXTI6SA17JG","","<img src=""img/set1/S4.jpg"" width=""540"" height = ""360"">","null","","","","","","","","","",""
"null","","html-keyboard-response","27","696509","0.0-27.0","3Z7ISHFUH1HQY1S4XDUPO6YDUY7Z80","A1PLQGQ95NICAF","3G9UA71JVVGUCOKNEKUVXTI6SA17JG","","","null","","","","","","","","","",""
"null","","image-keyboard-response","28","699012","0.0-28.0","3Z7ISHFUH1HQY1S4XDUPO6YDUY7Z80","A1PLQGQ95NICAF","3G9UA71JVVGUCOKNEKUVXTI6SA17JG","","img/set1/S3.jpg","null","3","random","72","random,structured_incentive,structured_load,structured_normal","2,3,1,2,4,2","2,4,3,1","false","","",""
"null","","html-keyboard-response","29","699369","0.0-29.0","3Z7ISHFUH1HQY1S4XDUPO6YDUY7Z80","A1PLQGQ95NICAF","3G9UA71JVVGUCOKNEKUVXTI6SA17JG","","<img src=""img/set1/S3.jpg"" width=""540"" height = ""360"">","null","","","","","","","","","",""
"null","","html-keyboard-response","30","699576","0.0-30.0","3Z7ISHFUH1HQY1S4XDUPO6YDUY7Z80","A1PLQGQ95NICAF","3G9UA71JVVGUCOKNEKUVXTI6SA17JG","","","null","","","","","","","","","",""
"null","","image-keyboard-response","31","702081","0.0-31.0","3Z7ISHFUH1HQY1S4XDUPO6YDUY7Z80","A1PLQGQ95NICAF","3G9UA71JVVGUCOKNEKUVXTI6SA17JG","","img/set1/S2.jpg","null","2","random","68","random,structured_incentive,structured_load,structured_normal","2,3,1,2,4,2","2,4,3,1","false","","",""
"null","","html-keyboard-response","32","702435","0.0-32.0","3Z7ISHFUH1HQY1S4XDUPO6YDUY7Z80","A1PLQGQ95NICAF","3G9UA71JVVGUCOKNEKUVXTI6SA17JG","","<img src=""img/set1/S2.jpg"" width=""540"" height = ""360"">","null","","","","","","","","","",""
"null","","html-keyboard-response","33","702642","0.0-33.0","3Z7ISHFUH1HQY1S4XDUPO6YDUY7Z80","A1PLQGQ95NICAF","3G9UA71JVVGUCOKNEKUVXTI6SA17JG","","","null","","","","","","","","","",""
"null","","image-keyboard-response","34","705147","0.0-34.0","3Z7ISHFUH1HQY1S4XDUPO6YDUY7Z80","A1PLQGQ95NICAF","3G9UA71JVVGUCOKNEKUVXTI6SA17JG","","img/set1/S3.jpg","null","3","random","72","random,structured_incentive,structured_load,structured_normal","2,3,1,2,4,2","2,4,3,1","false","","",""
"null","","html-keyboard-response","35","705501","0.0-35.0","3Z7ISHFUH1HQY1S4XDUPO6YDUY7Z80","A1PLQGQ95NICAF","3G9UA71JVVGUCOKNEKUVXTI6SA17JG","","<img src=""img/set1/S3.jpg"" width=""540"" height = ""360"">","null","","","","","","","","","",""
"null","","html-keyboard-response","36","705705","0.0-36.0","3Z7ISHFUH1HQY1S4XDUPO6YDUY7Z80","A1PLQGQ95NICAF","3G9UA71JVVGUCOKNEKUVXTI6SA17JG","","","null","","","","","","","","","",""
"null","","image-keyboard-response","37","708211","0.0-37.0","3Z7ISHFUH1HQY1S4XDUPO6YDUY7Z80","A1PLQGQ95NICAF","3G9UA71JVVGUCOKNEKUVXTI6SA17JG","","img/set1/S4.jpg","null","4","random","74","random,structured_incentive,structured_load,structured_normal","2,3,1,2,4,2","2,4,3,1","false","","",""
"null","","html-keyboard-response","38","708565","0.0-38.0","3Z7ISHFUH1HQY1S4XDUPO6YDUY7Z80","A1PLQGQ95NICAF","3G9UA71JVVGUCOKNEKUVXTI6SA17JG","","<img src=""img/set1/S4.jpg"" width=""540"" height = ""360"">","null","","","","","","","","","",""
"null","","html-keyboard-response","39","708772","0.0-39.0","3Z7ISHFUH1HQY1S4XDUPO6YDUY7Z80","A1PLQGQ95NICAF","3G9UA71JVVGUCOKNEKUVXTI6SA17JG","","","null","","","","","","","","","",""
"1247","","image-keyboard-response","40","710022","0.0-40.0","3Z7ISHFUH1HQY1S4XDUPO6YDUY7Z80","A1PLQGQ95NICAF","3G9UA71JVVGUCOKNEKUVXTI6SA17JG","","img/set1/S3.jpg","68","3","random","72","random,structured_incentive,structured_load,structured_normal","2,3,1,2,4,2","2,4,3,1","false","","",""
"null","","html-keyboard-response","41","710377","0.0-41.0","3Z7ISHFUH1HQY1S4XDUPO6YDUY7Z80","A1PLQGQ95NICAF","3G9UA71JVVGUCOKNEKUVXTI6SA17JG","","<img src=""img/set1/S3.jpg"" width=""540"" height = ""360"">","null","","","","","","","","","",""
"null","","html-keyboard-response","42","710581","0.0-42.0","3Z7ISHFUH1HQY1S4XDUPO6YDUY7Z80","A1PLQGQ95NICAF","3G9UA71JVVGUCOKNEKUVXTI6SA17JG","","","null","","","","","","","","","",""
"1017","","image-keyboard-response","43","711601","0.0-43.0","3Z7ISHFUH1HQY1S4XDUPO6YDUY7Z80","A1PLQGQ95NICAF","3G9UA71JVVGUCOKNEKUVXTI6SA17JG","","img/set1/S2.jpg","74","2","random","68","random,structured_incentive,structured_load,structured_normal","2,3,1,2,4,2","2,4,3,1","false","","",""
"null","","html-keyboard-response","44","711959","0.0-44.0","3Z7ISHFUH1HQY1S4XDUPO6YDUY7Z80","A1PLQGQ95NICAF","3G9UA71JVVGUCOKNEKUVXTI6SA17JG","","<img src=""img/set1/S2.jpg"" width=""540"" height = ""360"">","null","","","","","","","","","",""
"null","","html-keyboard-response","45","712165","0.0-45.0","3Z7ISHFUH1HQY1S4XDUPO6YDUY7Z80","A1PLQGQ95NICAF","3G9UA71JVVGUCOKNEKUVXTI6SA17JG","","","null","","","","","","","","","",""
"1354","","image-keyboard-response","46","713521","0.0-46.0","3Z7ISHFUH1HQY1S4XDUPO6YDUY7Z80","A1PLQGQ95NICAF","3G9UA71JVVGUCOKNEKUVXTI6SA17JG","","img/set1/S3.jpg","83","3","random","72","random,structured_incentive,structured_load,structured_normal","2,3,1,2,4,2","2,4,3,1","false","","",""
"null","","html-keyboard-response","47","713878","0.0-47.0","3Z7ISHFUH1HQY1S4XDUPO6YDUY7Z80","A1PLQGQ95NICAF","3G9UA71JVVGUCOKNEKUVXTI6SA17JG","","<img src=""img/set1/S3.jpg"" width=""540"" height = ""360"">","null","","","","","","","","","",""
"null","","html-keyboard-response","48","714081","0.0-48.0","3Z7ISHFUH1HQY1S4XDUPO6YDUY7Z80","A1PLQGQ95NICAF","3G9UA71JVVGUCOKNEKUVXTI6SA17JG","","","null","","","","","","","","","",""
"866","","image-keyboard-response","49","714948","0.0-49.0","3Z7ISHFUH1HQY1S4XDUPO6YDUY7Z80","A1PLQGQ95NICAF","3G9UA71JVVGUCOKNEKUVXTI6SA17JG","","img/set1/S2.jpg","83","2","random","68","random,structured_incentive,structured_load,structured_normal","2,3,1,2,4,2","2,4,3,1","false","","",""
"null","","html-keyboard-response","50","715303","0.0-50.0","3Z7ISHFUH1HQY1S4XDUPO6YDUY7Z80","A1PLQGQ95NICAF","3G9UA71JVVGUCOKNEKUVXTI6SA17JG","","<img src=""img/set1/S2.jpg"" width=""540"" height = ""360"">","null","","","","","","","","","",""
"null","","html-keyboard-response","51","715511","0.0-51.0","3Z7ISHFUH1HQY1S4XDUPO6YDUY7Z80","A1PLQGQ95NICAF","3G9UA71JVVGUCOKNEKUVXTI6SA17JG","","","null","","","","","","","","","",""
"964","","image-keyboard-response","52","716476","0.0-52.0","3Z7ISHFUH1HQY1S4XDUPO6YDUY7Z80","A1PLQGQ95NICAF","3G9UA71JVVGUCOKNEKUVXTI6SA17JG","","img/set1/S4.jpg","68","4","random","74","random,structured_incentive,structured_load,structured_normal","2,3,1,2,4,2","2,4,3,1","false","","",""
"null","","html-keyboard-response","53","716831","0.0-53.0","3Z7ISHFUH1HQY1S4XDUPO6YDUY7Z80","A1PLQGQ95NICAF","3G9UA71JVVGUCOKNEKUVXTI6SA17JG","","<img src=""img/set1/S4.jpg"" width=""540"" height = ""360"">","null","","","","","","","","","",""
"null","","html-keyboard-response","54","717037","0.0-54.0","3Z7ISHFUH1HQY1S4XDUPO6YDUY7Z80","A1PLQGQ95NICAF","3G9UA71JVVGUCOKNEKUVXTI6SA17JG","","","null","","","","","","","","","",""
"893","","image-keyboard-response","55","717932","0.0-55.0","3Z7ISHFUH1HQY1S4XDUPO6YDUY7Z80","A1PLQGQ95NICAF","3G9UA71JVVGUCOKNEKUVXTI6SA17JG","","img/set1/S2.jpg","72","2","random","68","random,structured_incentive,structured_load,structured_normal","2,3,1,2,4,2","2,4,3,1","false","","",""
"null","","html-keyboard-response","56","718287","0.0-56.0","3Z7ISHFUH1HQY1S4XDUPO6YDUY7Z80","A1PLQGQ95NICAF","3G9UA71JVVGUCOKNEKUVXTI6SA17JG","","<img src=""img/set1/S2.jpg"" width=""540"" height = ""360"">","null","","","","","","","","","",""
"null","","html-keyboard-response","57","718493","0.0-57.0","3Z7ISHFUH1HQY1S4XDUPO6YDUY7Z80","A1PLQGQ95NICAF","3G9UA71JVVGUCOKNEKUVXTI6SA17JG","","","null","","","","","","","","","",""
"452","","image-keyboard-response","58","718947","0.0-58.0","3Z7ISHFUH1HQY1S4XDUPO6YDUY7Z80","A1PLQGQ95NICAF","3G9UA71JVVGUCOKNEKUVXTI6SA17JG","","img/set1/S1.jpg","74","1","random","83","random,structured_incentive,structured_load,structured_normal","2,3,1,2,4,2","2,4,3,1","false","","",""
"null","","html-keyboard-response","59","719300","0.0-59.0","3Z7ISHFUH1HQY1S4XDUPO6YDUY7Z80","A1PLQGQ95NICAF","3G9UA71JVVGUCOKNEKUVXTI6SA17JG","","<img src=""img/set1/S1.jpg"" width=""540"" height = ""360"">","null","","","","","","","","","",""
"null","","html-keyboard-response","60","719503","0.0-60.0","3Z7ISHFUH1HQY1S4XDUPO6YDUY7Z80","A1PLQGQ95NICAF","3G9UA71JVVGUCOKNEKUVXTI6SA17JG","","","null","","","","","","","","","",""
"661","","image-keyboard-response","61","720166","0.0-61.0","3Z7ISHFUH1HQY1S4XDUPO6YDUY7Z80","A1PLQGQ95NICAF","3G9UA71JVVGUCOKNEKUVXTI6SA17JG","","img/set1/S3.jpg","74","3","random","72","random,structured_incentive,structured_load,structured_normal","2,3,1,2,4,2","2,4,3,1","false","","",""
"null","","html-keyboard-response","62","720520","0.0-62.0","3Z7ISHFUH1HQY1S4XDUPO6YDUY7Z80","A1PLQGQ95NICAF","3G9UA71JVVGUCOKNEKUVXTI6SA17JG","","<img src=""img/set1/S3.jpg"" width=""540"" height = ""360"">","null","","","","","","","","","",""
"null","","html-keyboard-response","63","720721","0.0-63.0","3Z7ISHFUH1HQY1S4XDUPO6YDUY7Z80","A1PLQGQ95NICAF","3G9UA71JVVGUCOKNEKUVXTI6SA17JG","","","null","","","","","","","","","",""
"614","","image-keyboard-response","64","721337","0.0-64.0","3Z7ISHFUH1HQY1S4XDUPO6YDUY7Z80","A1PLQGQ95NICAF","3G9UA71JVVGUCOKNEKUVXTI6SA17JG","","img/set1/S4.jpg","72","4","random","74","random,structured_incentive,structured_load,structured_normal","2,3,1,2,4,2","2,4,3,1","false","","",""
"null","","html-keyboard-response","65","721693","0.0-65.0","3Z7ISHFUH1HQY1S4XDUPO6YDUY7Z80","A1PLQGQ95NICAF","3G9UA71JVVGUCOKNEKUVXTI6SA17JG","","<img src=""img/set1/S4.jpg"" width=""540"" height = ""360"">","null","","","","","","","","","",""
"null","","html-keyboard-response","66","721899","0.0-66.0","3Z7ISHFUH1HQY1S4XDUPO6YDUY7Z80","A1PLQGQ95NICAF","3G9UA71JVVGUCOKNEKUVXTI6SA17JG","","","null","","","","","","","","","",""
"546","","image-keyboard-response","67","722448","0.0-67.0","3Z7ISHFUH1HQY1S4XDUPO6YDUY7Z80","A1PLQGQ95NICAF","3G9UA71JVVGUCOKNEKUVXTI6SA17JG","","img/set1/S2.jpg","68","2","random","68","random,structured_incentive,structured_load,structured_normal","2,3,1,2,4,2","2,4,3,1","true","","",""
"null","","html-keyboard-response","68","722805","0.0-68.0","3Z7ISHFUH1HQY1S4XDUPO6YDUY7Z80","A1PLQGQ95NICAF","3G9UA71JVVGUCOKNEKUVXTI6SA17JG","","<img src=""img/set1/S2.jpg"" width=""540"" height = ""360"" style=""border:16px solid orange"">","null","","","","","","","","","",""
"null","","html-keyboard-response","69","723012","0.0-69.0","3Z7ISHFUH1HQY1S4XDUPO6YDUY7Z80","A1PLQGQ95NICAF","3G9UA71JVVGUCOKNEKUVXTI6SA17JG","","","null","","","","","","","","","",""
"645","","image-keyboard-response","70","723659","0.0-70.0","3Z7ISHFUH1HQY1S4XDUPO6YDUY7Z80","A1PLQGQ95NICAF","3G9UA71JVVGUCOKNEKUVXTI6SA17JG","","img/set1/S2.jpg","68","2","random","68","random,structured_incentive,structured_load,structured_normal","2,3,1,2,4,2","2,4,3,1","true","","",""
"null","","html-keyboard-response","71","724015","0.0-71.0","3Z7ISHFUH1HQY1S4XDUPO6YDUY7Z80","A1PLQGQ95NICAF","3G9UA71JVVGUCOKNEKUVXTI6SA17JG","","<img src=""img/set1/S2.jpg"" width=""540"" height = ""360"" style=""border:16px solid orange"">","null","","","","","","","","","",""
"null","","html-keyboard-response","72","724220","0.0-72.0","3Z7ISHFUH1HQY1S4XDUPO6YDUY7Z80","A1PLQGQ95NICAF","3G9UA71JVVGUCOKNEKUVXTI6SA17JG","","","null","","","","","","","","","",""
"532","","image-keyboard-response","73","724755","0.0-73.0","3Z7ISHFUH1HQY1S4XDUPO6YDUY7Z80","A1PLQGQ95NICAF","3G9UA71JVVGUCOKNEKUVXTI6SA17JG","","img/set1/S2.jpg","68","2","random","68","random,structured_incentive,structured_load,structured_normal","2,3,1,2,4,2","2,4,3,1","true","","",""
"null","","html-keyboard-response","74","725109","0.0-74.0","3Z7ISHFUH1HQY1S4XDUPO6YDUY7Z80","A1PLQGQ95NICAF","3G9UA71JVVGUCOKNEKUVXTI6SA17JG","","<img src=""img/set1/S2.jpg"" width=""540"" height = ""360"" style=""border:16px solid orange"">","null","","","","","","","","","",""
"null","","html-keyboard-response","75","725313","0.0-75.0","3Z7ISHFUH1HQY1S4XDUPO6YDUY7Z80","A1PLQGQ95NICAF","3G9UA71JVVGUCOKNEKUVXTI6SA17JG","","","null","","","","","","","","","",""
"597","","image-keyboard-response","76","725911","0.0-76.0","3Z7ISHFUH1HQY1S4XDUPO6YDUY7Z80","A1PLQGQ95NICAF","3G9UA71JVVGUCOKNEKUVXTI6SA17JG","","img/set1/S4.jpg","83","4","random","74","random,structured_incentive,structured_load,structured_normal","2,3,1,2,4,2","2,4,3,1","false","","",""
"null","","html-keyboard-response","77","726269","0.0-77.0","3Z7ISHFUH1HQY1S4XDUPO6YDUY7Z80","A1PLQGQ95NICAF","3G9UA71JVVGUCOKNEKUVXTI6SA17JG","","<img src=""img/set1/S4.jpg"" width=""540"" height = ""360"">","null","","","","","","","","","",""
"null","","html-keyboard-response","78","726475","0.0-78.0","3Z7ISHFUH1HQY1S4XDUPO6YDUY7Z80","A1PLQGQ95NICAF","3G9UA71JVVGUCOKNEKUVXTI6SA17JG","","","null","","","","","","","","","",""
"902","","image-keyboard-response","79","727381","0.0-79.0","3Z7ISHFUH1HQY1S4XDUPO6YDUY7Z80","A1PLQGQ95NICAF","3G9UA71JVVGUCOKNEKUVXTI6SA17JG","","img/set1/S2.jpg","74","2","random","68","random,structured_incentive,structured_load,structured_normal","2,3,1,2,4,2","2,4,3,1","false","","",""
"null","","html-keyboard-response","80","727735","0.0-80.0","3Z7ISHFUH1HQY1S4XDUPO6YDUY7Z80","A1PLQGQ95NICAF","3G9UA71JVVGUCOKNEKUVXTI6SA17JG","","<img src=""img/set1/S2.jpg"" width=""540"" height = ""360"">","null","","","","","","","","","",""
"null","","html-keyboard-response","81","727939","0.0-81.0","3Z7ISHFUH1HQY1S4XDUPO6YDUY7Z80","A1PLQGQ95NICAF","3G9UA71JVVGUCOKNEKUVXTI6SA17JG","","","null","","","","","","","","","",""
"1119","","image-keyboard-response","82","729060","0.0-82.0","3Z7ISHFUH1HQY1S4XDUPO6YDUY7Z80","A1PLQGQ95NICAF","3G9UA71JVVGUCOKNEKUVXTI6SA17JG","","img/set1/S1.jpg","68","1","random","83","random,structured_incentive,structured_load,structured_normal","2,3,1,2,4,2","2,4,3,1","false","","",""
"null","","html-keyboard-response","83","729417","0.0-83.0","3Z7ISHFUH1HQY1S4XDUPO6YDUY7Z80","A1PLQGQ95NICAF","3G9UA71JVVGUCOKNEKUVXTI6SA17JG","","<img src=""img/set1/S1.jpg"" width=""540"" height = ""360"">","null","","","","","","","","","",""
"null","","html-keyboard-response","84","729620","0.0-84.0","3Z7ISHFUH1HQY1S4XDUPO6YDUY7Z80","A1PLQGQ95NICAF","3G9UA71JVVGUCOKNEKUVXTI6SA17JG","","","null","","","","","","","","","",""
"713","","image-keyboard-response","85","730335","0.0-85.0","3Z7ISHFUH1HQY1S4XDUPO6YDUY7Z80","A1PLQGQ95NICAF","3G9UA71JVVGUCOKNEKUVXTI6SA17JG","","img/set1/S3.jpg","83","3","random","72","random,structured_incentive,structured_load,structured_normal","2,3,1,2,4,2","2,4,3,1","false","","",""
"null","","html-keyboard-response","86","730693","0.0-86.0","3Z7ISHFUH1HQY1S4XDUPO6YDUY7Z80","A1PLQGQ95NICAF","3G9UA71JVVGUCOKNEKUVXTI6SA17JG","","<img src=""img/set1/S3.jpg"" width=""540"" height = ""360"">","null","","","","","","","","","",""
"null","","html-keyboard-response","87","730900","0.0-87.0","3Z7ISHFUH1HQY1S4XDUPO6YDUY7Z80","A1PLQGQ95NICAF","3G9UA71JVVGUCOKNEKUVXTI6SA17JG","","","null","","","","","","","","","",""
"1069","","image-keyboard-response","88","731971","0.0-88.0","3Z7ISHFUH1HQY1S4XDUPO6YDUY7Z80","A1PLQGQ95NICAF","3G9UA71JVVGUCOKNEKUVXTI6SA17JG","","img/set1/S1.jpg","72","1","random","83","random,structured_incentive,structured_load,structured_normal","2,3,1,2,4,2","2,4,3,1","false","","",""
"null","","html-keyboard-response","89","732327","0.0-89.0","3Z7ISHFUH1HQY1S4XDUPO6YDUY7Z80","A1PLQGQ95NICAF","3G9UA71JVVGUCOKNEKUVXTI6SA17JG","","<img src=""img/set1/S1.jpg"" width=""540"" height = ""360"">","null","","","","","","","","","",""
"null","","html-keyboard-response","90","732530","0.0-90.0","3Z7ISHFUH1HQY1S4XDUPO6YDUY7Z80","A1PLQGQ95NICAF","3G9UA71JVVGUCOKNEKUVXTI6SA17JG","","","null","","","","","","","","","",""
"490","","image-keyboard-response","91","733022","0.0-91.0","3Z7ISHFUH1HQY1S4XDUPO6YDUY7Z80","A1PLQGQ95NICAF","3G9UA71JVVGUCOKNEKUVXTI6SA17JG","","img/set1/S1.jpg","74","1","random","83","random,structured_incentive,structured_load,structured_normal","2,3,1,2,4,2","2,4,3,1","false","","",""
"null","","html-keyboard-response","92","733378","0.0-92.0","3Z7ISHFUH1HQY1S4XDUPO6YDUY7Z80","A1PLQGQ95NICAF","3G9UA71JVVGUCOKNEKUVXTI6SA17JG","","<img src=""img/set1/S1.jpg"" width=""540"" height = ""360"">","null","","","","","","","","","",""
"null","","html-keyboard-response","93","733585","0.0-93.0","3Z7ISHFUH1HQY1S4XDUPO6YDUY7Z80","A1PLQGQ95NICAF","3G9UA71JVVGUCOKNEKUVXTI6SA17JG","","","null","","","","","","","","","",""
"874","","image-keyboard-response","94","734461","0.0-94.0","3Z7ISHFUH1HQY1S4XDUPO6YDUY7Z80","A1PLQGQ95NICAF","3G9UA71JVVGUCOKNEKUVXTI6SA17JG","","img/set1/S3.jpg","74","3","random","72","random,structured_incentive,structured_load,structured_normal","2,3,1,2,4,2","2,4,3,1","false","","",""
"null","","html-keyboard-response","95","734818","0.0-95.0","3Z7ISHFUH1HQY1S4XDUPO6YDUY7Z80","A1PLQGQ95NICAF","3G9UA71JVVGUCOKNEKUVXTI6SA17JG","","<img src=""img/set1/S3.jpg"" width=""540"" height = ""360"">","null","","","","","","","","","",""
"null","","html-keyboard-response","96","735020","0.0-96.0","3Z7ISHFUH1HQY1S4XDUPO6YDUY7Z80","A1PLQGQ95NICAF","3G9UA71JVVGUCOKNEKUVXTI6SA17JG","","","null","","","","","","","","","",""
"460","","image-keyboard-response","97","735481","0.0-97.0","3Z7ISHFUH1HQY1S4XDUPO6YDUY7Z80","A1PLQGQ95NICAF","3G9UA71JVVGUCOKNEKUVXTI6SA17JG","","img/set1/S3.jpg","72","3","random","72","random,structured_incentive,structured_load,structured_normal","2,3,1,2,4,2","2,4,3,1","true","","",""
"null","","html-keyboard-response","98","735838","0.0-98.0","3Z7ISHFUH1HQY1S4XDUPO6YDUY7Z80","A1PLQGQ95NICAF","3G9UA71JVVGUCOKNEKUVXTI6SA17JG","","<img src=""img/set1/S3.jpg"" width=""540"" height = ""360"" style=""border:16px solid orange"">","null","","","","","","","","","",""
"null","","html-keyboard-response","99","736043","0.0-99.0","3Z7ISHFUH1HQY1S4XDUPO6YDUY7Z80","A1PLQGQ95NICAF","3G9UA71JVVGUCOKNEKUVXTI6SA17JG","","","null","","","","","","","","","",""
"407","","image-keyboard-response","100","736451","0.0-100.0","3Z7ISHFUH1HQY1S4XDUPO6YDUY7Z80","A1PLQGQ95NICAF","3G9UA71JVVGUCOKNEKUVXTI6SA17JG","","img/set1/S3.jpg","72","3","random","72","random,structured_incentive,structured_load,structured_normal","2,3,1,2,4,2","2,4,3,1","true","","",""
"null","","html-keyboard-response","101","736808","0.0-101.0","3Z7ISHFUH1HQY1S4XDUPO6YDUY7Z80","A1PLQGQ95NICAF","3G9UA71JVVGUCOKNEKUVXTI6SA17JG","","<img src=""img/set1/S3.jpg"" width=""540"" height = ""360"" style=""border:16px solid orange"">","null","","","","","","","","","",""
"null","","html-keyboard-response","102","737011","0.0-102.0","3Z7ISHFUH1HQY1S4XDUPO6YDUY7Z80","A1PLQGQ95NICAF","3G9UA71JVVGUCOKNEKUVXTI6SA17JG","","","null","","","","","","","","","",""
"462","","image-keyboard-response","103","737476","0.0-103.0","3Z7ISHFUH1HQY1S4XDUPO6YDUY7Z80","A1PLQGQ95NICAF","3G9UA71JVVGUCOKNEKUVXTI6SA17JG","","img/set1/S3.jpg","72","3","random","72","random,structured_incentive,structured_load,structured_normal","2,3,1,2,4,2","2,4,3,1","true","","",""
"null","","html-keyboard-response","104","737834","0.0-104.0","3Z7ISHFUH1HQY1S4XDUPO6YDUY7Z80","A1PLQGQ95NICAF","3G9UA71JVVGUCOKNEKUVXTI6SA17JG","","<img src=""img/set1/S3.jpg"" width=""540"" height = ""360"" style=""border:16px solid orange"">","null","","","","","","","","","",""
"null","","html-keyboard-response","105","738034","0.0-105.0","3Z7ISHFUH1HQY1S4XDUPO6YDUY7Z80","A1PLQGQ95NICAF","3G9UA71JVVGUCOKNEKUVXTI6SA17JG","","","null","","","","","","","","","",""
"1013","","image-keyboard-response","106","739050","0.0-106.0","3Z7ISHFUH1HQY1S4XDUPO6YDUY7Z80","A1PLQGQ95NICAF","3G9UA71JVVGUCOKNEKUVXTI6SA17JG","","img/set1/S1.jpg","74","1","random","83","random,structured_incentive,structured_load,structured_normal","2,3,1,2,4,2","2,4,3,1","false","","",""
"null","","html-keyboard-response","107","739408","0.0-107.0","3Z7ISHFUH1HQY1S4XDUPO6YDUY7Z80","A1PLQGQ95NICAF","3G9UA71JVVGUCOKNEKUVXTI6SA17JG","","<img src=""img/set1/S1.jpg"" width=""540"" height = ""360"">","null","","","","","","","","","",""
"null","","html-keyboard-response","108","739614","0.0-108.0","3Z7ISHFUH1HQY1S4XDUPO6YDUY7Z80","A1PLQGQ95NICAF","3G9UA71JVVGUCOKNEKUVXTI6SA17JG","","","null","","","","","","","","","",""
"905","","image-keyboard-response","109","740521","0.0-109.0","3Z7ISHFUH1HQY1S4XDUPO6YDUY7Z80","A1PLQGQ95NICAF","3G9UA71JVVGUCOKNEKUVXTI6SA17JG","","img/set1/S2.jpg","68","2","random","68","random,structured_incentive,structured_load,structured_normal","2,3,1,2,4,2","2,4,3,1","true","","",""
"null","","html-keyboard-response","110","740878","0.0-110.0","3Z7ISHFUH1HQY1S4XDUPO6YDUY7Z80","A1PLQGQ95NICAF","3G9UA71JVVGUCOKNEKUVXTI6SA17JG","","<img src=""img/set1/S2.jpg"" width=""540"" height = ""360"" style=""border:16px solid orange"">","null","","","","","","","","","",""
"null","","html-keyboard-response","111","741081","0.0-111.0","3Z7ISHFUH1HQY1S4XDUPO6YDUY7Z80","A1PLQGQ95NICAF","3G9UA71JVVGUCOKNEKUVXTI6SA17JG","","","null","","","","","","","","","",""
"893","","image-keyboard-response","112","741976","0.0-112.0","3Z7ISHFUH1HQY1S4XDUPO6YDUY7Z80","A1PLQGQ95NICAF","3G9UA71JVVGUCOKNEKUVXTI6SA17JG","","img/set1/S1.jpg","72","1","random","83","random,structured_incentive,structured_load,structured_normal","2,3,1,2,4,2","2,4,3,1","false","","",""
"null","","html-keyboard-response","113","742334","0.0-113.0","3Z7ISHFUH1HQY1S4XDUPO6YDUY7Z80","A1PLQGQ95NICAF","3G9UA71JVVGUCOKNEKUVXTI6SA17JG","","<img src=""img/set1/S1.jpg"" width=""540"" height = ""360"">","null","","","","","","","","","",""
"null","","html-keyboard-response","114","742539","0.0-114.0","3Z7ISHFUH1HQY1S4XDUPO6YDUY7Z80","A1PLQGQ95NICAF","3G9UA71JVVGUCOKNEKUVXTI6SA17JG","","","null","","","","","","","","","",""
"499","","image-keyboard-response","115","743041","0.0-115.0","3Z7ISHFUH1HQY1S4XDUPO6YDUY7Z80","A1PLQGQ95NICAF","3G9UA71JVVGUCOKNEKUVXTI6SA17JG","","img/set1/S1.jpg","83","1","random","83","random,structured_incentive,structured_load,structured_normal","2,3,1,2,4,2","2,4,3,1","true","","",""
"null","","html-keyboard-response","116","743399","0.0-116.0","3Z7ISHFUH1HQY1S4XDUPO6YDUY7Z80","A1PLQGQ95NICAF","3G9UA71JVVGUCOKNEKUVXTI6SA17JG","","<img src=""img/set1/S1.jpg"" width=""540"" height = ""360"" style=""border:16px solid orange"">","null","","","","","","","","","",""
"null","","html-keyboard-response","117","743605","0.0-117.0","3Z7ISHFUH1HQY1S4XDUPO6YDUY7Z80","A1PLQGQ95NICAF","3G9UA71JVVGUCOKNEKUVXTI6SA17JG","","","null","","","","","","","","","",""
"962","","image-keyboard-response","118","744570","0.0-118.0","3Z7ISHFUH1HQY1S4XDUPO6YDUY7Z80","A1PLQGQ95NICAF","3G9UA71JVVGUCOKNEKUVXTI6SA17JG","","img/set1/S3.jpg","74","3","random","72","random,structured_incentive,structured_load,structured_normal","2,3,1,2,4,2","2,4,3,1","false","","",""
"null","","html-keyboard-response","119","744928","0.0-119.0","3Z7ISHFUH1HQY1S4XDUPO6YDUY7Z80","A1PLQGQ95NICAF","3G9UA71JVVGUCOKNEKUVXTI6SA17JG","","<img src=""img/set1/S3.jpg"" width=""540"" height = ""360"">","null","","","","","","","","","",""
"null","","html-keyboard-response","120","745131","0.0-120.0","3Z7ISHFUH1HQY1S4XDUPO6YDUY7Z80","A1PLQGQ95NICAF","3G9UA71JVVGUCOKNEKUVXTI6SA17JG","","","null","","","","","","","","","",""
"744","","image-keyboard-response","121","745875","0.0-121.0","3Z7ISHFUH1HQY1S4XDUPO6YDUY7Z80","A1PLQGQ95NICAF","3G9UA71JVVGUCOKNEKUVXTI6SA17JG","","img/set1/S2.jpg","68","2","random","68","random,structured_incentive,structured_load,structured_normal","2,3,1,2,4,2","2,4,3,1","true","","",""
"null","","html-keyboard-response","122","746232","0.0-122.0","3Z7ISHFUH1HQY1S4XDUPO6YDUY7Z80","A1PLQGQ95NICAF","3G9UA71JVVGUCOKNEKUVXTI6SA17JG","","<img src=""img/set1/S2.jpg"" width=""540"" height = ""360"" style=""border:16px solid orange"">","null","","","","","","","","","",""
"null","","html-keyboard-response","123","746438","0.0-123.0","3Z7ISHFUH1HQY1S4XDUPO6YDUY7Z80","A1PLQGQ95NICAF","3G9UA71JVVGUCOKNEKUVXTI6SA17JG","","","null","","","","","","","","","",""
"752","","image-keyboard-response","124","747193","0.0-124.0","3Z7ISHFUH1HQY1S4XDUPO6YDUY7Z80","A1PLQGQ95NICAF","3G9UA71JVVGUCOKNEKUVXTI6SA17JG","","img/set1/S3.jpg","83","3","random","72","random,structured_incentive,structured_load,structured_normal","2,3,1,2,4,2","2,4,3,1","false","","",""
"null","","html-keyboard-response","125","747549","0.0-125.0","3Z7ISHFUH1HQY1S4XDUPO6YDUY7Z80","A1PLQGQ95NICAF","3G9UA71JVVGUCOKNEKUVXTI6SA17JG","","<img src=""img/set1/S3.jpg"" width=""540"" height = ""360"">","null","","","","","","","","","",""
"null","","html-keyboard-response","126","747752","0.0-126.0","3Z7ISHFUH1HQY1S4XDUPO6YDUY7Z80","A1PLQGQ95NICAF","3G9UA71JVVGUCOKNEKUVXTI6SA17JG","","","null","","","","","","","","","",""
"596","","image-keyboard-response","127","748351","0.0-127.0","3Z7ISHFUH1HQY1S4XDUPO6YDUY7Z80","A1PLQGQ95NICAF","3G9UA71JVVGUCOKNEKUVXTI6SA17JG","","img/set1/S2.jpg","68","2","random","68","random,structured_incentive,structured_load,structured_normal","2,3,1,2,4,2","2,4,3,1","true","","",""
"null","","html-keyboard-response","128","748708","0.0-128.0","3Z7ISHFUH1HQY1S4XDUPO6YDUY7Z80","A1PLQGQ95NICAF","3G9UA71JVVGUCOKNEKUVXTI6SA17JG","","<img src=""img/set1/S2.jpg"" width=""540"" height = ""360"" style=""border:16px solid orange"">","null","","","","","","","","","",""
"null","","html-keyboard-response","129","748914","0.0-129.0","3Z7ISHFUH1HQY1S4XDUPO6YDUY7Z80","A1PLQGQ95NICAF","3G9UA71JVVGUCOKNEKUVXTI6SA17JG","","","null","","","","","","","","","",""
"531","","image-keyboard-response","130","749445","0.0-130.0","3Z7ISHFUH1HQY1S4XDUPO6YDUY7Z80","A1PLQGQ95NICAF","3G9UA71JVVGUCOKNEKUVXTI6SA17JG","","img/set1/S3.jpg","72","3","random","72","random,structured_incentive,structured_load,structured_normal","2,3,1,2,4,2","2,4,3,1","true","","",""
"null","","html-keyboard-response","131","749801","0.0-131.0","3Z7ISHFUH1HQY1S4XDUPO6YDUY7Z80","A1PLQGQ95NICAF","3G9UA71JVVGUCOKNEKUVXTI6SA17JG","","<img src=""img/set1/S3.jpg"" width=""540"" height = ""360"" style=""border:16px solid orange"">","null","","","","","","","","","",""
"null","","html-keyboard-response","132","750003","0.0-132.0","3Z7ISHFUH1HQY1S4XDUPO6YDUY7Z80","A1PLQGQ95NICAF","3G9UA71JVVGUCOKNEKUVXTI6SA17JG","","","null","","","","","","","","","",""
"776","","image-keyboard-response","133","750782","0.0-133.0","3Z7ISHFUH1HQY1S4XDUPO6YDUY7Z80","A1PLQGQ95NICAF","3G9UA71JVVGUCOKNEKUVXTI6SA17JG","","img/set1/S1.jpg","74","1","random","83","random,structured_incentive,structured_load,structured_normal","2,3,1,2,4,2","2,4,3,1","false","","",""
"null","","html-keyboard-response","134","751137","0.0-134.0","3Z7ISHFUH1HQY1S4XDUPO6YDUY7Z80","A1PLQGQ95NICAF","3G9UA71JVVGUCOKNEKUVXTI6SA17JG","","<img src=""img/set1/S1.jpg"" width=""540"" height = ""360"">","null","","","","","","","","","",""
"null","","html-keyboard-response","135","751345","0.0-135.0","3Z7ISHFUH1HQY1S4XDUPO6YDUY7Z80","A1PLQGQ95NICAF","3G9UA71JVVGUCOKNEKUVXTI6SA17JG","","","null","","","","","","","","","",""
"917","","image-keyboard-response","136","752263","0.0-136.0","3Z7ISHFUH1HQY1S4XDUPO6YDUY7Z80","A1PLQGQ95NICAF","3G9UA71JVVGUCOKNEKUVXTI6SA17JG","","img/set1/S4.jpg","74","4","random","74","random,structured_incentive,structured_load,structured_normal","2,3,1,2,4,2","2,4,3,1","true","","",""
"null","","html-keyboard-response","137","752615","0.0-137.0","3Z7ISHFUH1HQY1S4XDUPO6YDUY7Z80","A1PLQGQ95NICAF","3G9UA71JVVGUCOKNEKUVXTI6SA17JG","","<img src=""img/set1/S4.jpg"" width=""540"" height = ""360"" style=""border:16px solid orange"">","null","","","","","","","","","",""
"null","","html-keyboard-response","138","752818","0.0-138.0","3Z7ISHFUH1HQY1S4XDUPO6YDUY7Z80","A1PLQGQ95NICAF","3G9UA71JVVGUCOKNEKUVXTI6SA17JG","","","null","","","","","","","","","",""
"601","","image-keyboard-response","139","753421","0.0-139.0","3Z7ISHFUH1HQY1S4XDUPO6YDUY7Z80","A1PLQGQ95NICAF","3G9UA71JVVGUCOKNEKUVXTI6SA17JG","","img/set1/S2.jpg","68","2","random","68","random,structured_incentive,structured_load,structured_normal","2,3,1,2,4,2","2,4,3,1","true","","",""
"null","","html-keyboard-response","140","753773","0.0-140.0","3Z7ISHFUH1HQY1S4XDUPO6YDUY7Z80","A1PLQGQ95NICAF","3G9UA71JVVGUCOKNEKUVXTI6SA17JG","","<img src=""img/set1/S2.jpg"" width=""540"" height = ""360"" style=""border:16px solid orange"">","null","","","","","","","","","",""
"null","","html-keyboard-response","141","753979","0.0-141.0","3Z7ISHFUH1HQY1S4XDUPO6YDUY7Z80","A1PLQGQ95NICAF","3G9UA71JVVGUCOKNEKUVXTI6SA17JG","","","null","","","","","","","","","",""
"791","","image-keyboard-response","142","754772","0.0-142.0","3Z7ISHFUH1HQY1S4XDUPO6YDUY7Z80","A1PLQGQ95NICAF","3G9UA71JVVGUCOKNEKUVXTI6SA17JG","","img/set1/S1.jpg","83","1","random","83","random,structured_incentive,structured_load,structured_normal","2,3,1,2,4,2","2,4,3,1","true","","",""
"null","","html-keyboard-response","143","755128","0.0-143.0","3Z7ISHFUH1HQY1S4XDUPO6YDUY7Z80","A1PLQGQ95NICAF","3G9UA71JVVGUCOKNEKUVXTI6SA17JG","","<img src=""img/set1/S1.jpg"" width=""540"" height = ""360"" style=""border:16px solid orange"">","null","","","","","","","","","",""
"null","","html-keyboard-response","144","755328","0.0-144.0","3Z7ISHFUH1HQY1S4XDUPO6YDUY7Z80","A1PLQGQ95NICAF","3G9UA71JVVGUCOKNEKUVXTI6SA17JG","","","null","","","","","","","","","",""
"626","","image-keyboard-response","145","755956","0.0-145.0","3Z7ISHFUH1HQY1S4XDUPO6YDUY7Z80","A1PLQGQ95NICAF","3G9UA71JVVGUCOKNEKUVXTI6SA17JG","","img/set1/S2.jpg","68","2","random","68","random,structured_incentive,structured_load,structured_normal","2,3,1,2,4,2","2,4,3,1","true","","",""
"null","","html-keyboard-response","146","756313","0.0-146.0","3Z7ISHFUH1HQY1S4XDUPO6YDUY7Z80","A1PLQGQ95NICAF","3G9UA71JVVGUCOKNEKUVXTI6SA17JG","","<img src=""img/set1/S2.jpg"" width=""540"" height = ""360"" style=""border:16px solid orange"">","null","","","","","","","","","",""
"null","","html-keyboard-response","147","756518","0.0-147.0","3Z7ISHFUH1HQY1S4XDUPO6YDUY7Z80","A1PLQGQ95NICAF","3G9UA71JVVGUCOKNEKUVXTI6SA17JG","","","null","","","","","","","","","",""
"754","","image-keyboard-response","148","757275","0.0-148.0","3Z7ISHFUH1HQY1S4XDUPO6YDUY7Z80","A1PLQGQ95NICAF","3G9UA71JVVGUCOKNEKUVXTI6SA17JG","","img/set1/S3.jpg","72","3","random","72","random,structured_incentive,structured_load,structured_normal","2,3,1,2,4,2","2,4,3,1","true","","",""
"null","","html-keyboard-response","149","757633","0.0-149.0","3Z7ISHFUH1HQY1S4XDUPO6YDUY7Z80","A1PLQGQ95NICAF","3G9UA71JVVGUCOKNEKUVXTI6SA17JG","","<img src=""img/set1/S3.jpg"" width=""540"" height = ""360"" style=""border:16px solid orange"">","null","","","","","","","","","",""
"null","","html-keyboard-response","150","757840","0.0-150.0","3Z7ISHFUH1HQY1S4XDUPO6YDUY7Z80","A1PLQGQ95NICAF","3G9UA71JVVGUCOKNEKUVXTI6SA17JG","","","null","","","","","","","","","",""
"708","","image-keyboard-response","151","758548","0.0-151.0","3Z7ISHFUH1HQY1S4XDUPO6YDUY7Z80","A1PLQGQ95NICAF","3G9UA71JVVGUCOKNEKUVXTI6SA17JG","","img/set1/S4.jpg","74","4","random","74","random,structured_incentive,structured_load,structured_normal","2,3,1,2,4,2","2,4,3,1","true","","",""
"null","","html-keyboard-response","152","758900","0.0-152.0","3Z7ISHFUH1HQY1S4XDUPO6YDUY7Z80","A1PLQGQ95NICAF","3G9UA71JVVGUCOKNEKUVXTI6SA17JG","","<img src=""img/set1/S4.jpg"" width=""540"" height = ""360"" style=""border:16px solid orange"">","null","","","","","","","","","",""
"null","","html-keyboard-response","153","759103","0.0-153.0","3Z7ISHFUH1HQY1S4XDUPO6YDUY7Z80","A1PLQGQ95NICAF","3G9UA71JVVGUCOKNEKUVXTI6SA17JG","","","null","","","","","","","","","",""
"898","","image-keyboard-response","154","760001","0.0-154.0","3Z7ISHFUH1HQY1S4XDUPO6YDUY7Z80","A1PLQGQ95NICAF","3G9UA71JVVGUCOKNEKUVXTI6SA17JG","","img/set1/S1.jpg","83","1","random","83","random,structured_incentive,structured_load,structured_normal","2,3,1,2,4,2","2,4,3,1","true","","",""
"null","","html-keyboard-response","155","760357","0.0-155.0","3Z7ISHFUH1HQY1S4XDUPO6YDUY7Z80","A1PLQGQ95NICAF","3G9UA71JVVGUCOKNEKUVXTI6SA17JG","","<img src=""img/set1/S1.jpg"" width=""540"" height = ""360"" style=""border:16px solid orange"">","null","","","","","","","","","",""
"null","","html-keyboard-response","156","760564","0.0-156.0","3Z7ISHFUH1HQY1S4XDUPO6YDUY7Z80","A1PLQGQ95NICAF","3G9UA71JVVGUCOKNEKUVXTI6SA17JG","","","null","","","","","","","","","",""
"806","","image-keyboard-response","157","761373","0.0-157.0","3Z7ISHFUH1HQY1S4XDUPO6YDUY7Z80","A1PLQGQ95NICAF","3G9UA71JVVGUCOKNEKUVXTI6SA17JG","","img/set1/S3.jpg","74","3","random","72","random,structured_incentive,structured_load,structured_normal","2,3,1,2,4,2","2,4,3,1","false","","",""
"null","","html-keyboard-response","158","761727","0.0-158.0","3Z7ISHFUH1HQY1S4XDUPO6YDUY7Z80","A1PLQGQ95NICAF","3G9UA71JVVGUCOKNEKUVXTI6SA17JG","","<img src=""img/set1/S3.jpg"" width=""540"" height = ""360"">","null","","","","","","","","","",""
"null","","html-keyboard-response","159","761929","0.0-159.0","3Z7ISHFUH1HQY1S4XDUPO6YDUY7Z80","A1PLQGQ95NICAF","3G9UA71JVVGUCOKNEKUVXTI6SA17JG","","","null","","","","","","","","","",""
"848","","image-keyboard-response","160","762779","0.0-160.0","3Z7ISHFUH1HQY1S4XDUPO6YDUY7Z80","A1PLQGQ95NICAF","3G9UA71JVVGUCOKNEKUVXTI6SA17JG","","img/set1/S1.jpg","83","1","random","83","random,structured_incentive,structured_load,structured_normal","2,3,1,2,4,2","2,4,3,1","true","","",""
"null","","html-keyboard-response","161","763136","0.0-161.0","3Z7ISHFUH1HQY1S4XDUPO6YDUY7Z80","A1PLQGQ95NICAF","3G9UA71JVVGUCOKNEKUVXTI6SA17JG","","<img src=""img/set1/S1.jpg"" width=""540"" height = ""360"" style=""border:16px solid orange"">","null","","","","","","","","","",""
"null","","html-keyboard-response","162","763341","0.0-162.0","3Z7ISHFUH1HQY1S4XDUPO6YDUY7Z80","A1PLQGQ95NICAF","3G9UA71JVVGUCOKNEKUVXTI6SA17JG","","","null","","","","","","","","","",""
"531","","image-keyboard-response","163","763876","0.0-163.0","3Z7ISHFUH1HQY1S4XDUPO6YDUY7Z80","A1PLQGQ95NICAF","3G9UA71JVVGUCOKNEKUVXTI6SA17JG","","img/set1/S2.jpg","68","2","random","68","random,structured_incentive,structured_load,structured_normal","2,3,1,2,4,2","2,4,3,1","true","","",""
"null","","html-keyboard-response","164","764233","0.0-164.0","3Z7ISHFUH1HQY1S4XDUPO6YDUY7Z80","A1PLQGQ95NICAF","3G9UA71JVVGUCOKNEKUVXTI6SA17JG","","<img src=""img/set1/S2.jpg"" width=""540"" height = ""360"" style=""border:16px solid orange"">","null","","","","","","","","","",""
"null","","html-keyboard-response","165","764436","0.0-165.0","3Z7ISHFUH1HQY1S4XDUPO6YDUY7Z80","A1PLQGQ95NICAF","3G9UA71JVVGUCOKNEKUVXTI6SA17JG","","","null","","","","","","","","","",""
"832","","image-keyboard-response","166","765271","0.0-166.0","3Z7ISHFUH1HQY1S4XDUPO6YDUY7Z80","A1PLQGQ95NICAF","3G9UA71JVVGUCOKNEKUVXTI6SA17JG","","img/set1/S1.jpg","83","1","random","83","random,structured_incentive,structured_load,structured_normal","2,3,1,2,4,2","2,4,3,1","true","","",""
"null","","html-keyboard-response","167","765627","0.0-167.0","3Z7ISHFUH1HQY1S4XDUPO6YDUY7Z80","A1PLQGQ95NICAF","3G9UA71JVVGUCOKNEKUVXTI6SA17JG","","<img src=""img/set1/S1.jpg"" width=""540"" height = ""360"" style=""border:16px solid orange"">","null","","","","","","","","","",""
"null","","html-keyboard-response","168","765834","0.0-168.0","3Z7ISHFUH1HQY1S4XDUPO6YDUY7Z80","A1PLQGQ95NICAF","3G9UA71JVVGUCOKNEKUVXTI6SA17JG","","","null","","","","","","","","","",""
"876","","image-keyboard-response","169","766712","0.0-169.0","3Z7ISHFUH1HQY1S4XDUPO6YDUY7Z80","A1PLQGQ95NICAF","3G9UA71JVVGUCOKNEKUVXTI6SA17JG","","img/set1/S3.jpg","72","3","random","72","random,structured_incentive,structured_load,structured_normal","2,3,1,2,4,2","2,4,3,1","true","","",""
"null","","html-keyboard-response","170","767065","0.0-170.0","3Z7ISHFUH1HQY1S4XDUPO6YDUY7Z80","A1PLQGQ95NICAF","3G9UA71JVVGUCOKNEKUVXTI6SA17JG","","<img src=""img/set1/S3.jpg"" width=""540"" height = ""360"" style=""border:16px solid orange"">","null","","","","","","","","","",""
"null","","html-keyboard-response","171","767272","0.0-171.0","3Z7ISHFUH1HQY1S4XDUPO6YDUY7Z80","A1PLQGQ95NICAF","3G9UA71JVVGUCOKNEKUVXTI6SA17JG","","","null","","","","","","","","","",""
"635","","image-keyboard-response","172","767907","0.0-172.0","3Z7ISHFUH1HQY1S4XDUPO6YDUY7Z80","A1PLQGQ95NICAF","3G9UA71JVVGUCOKNEKUVXTI6SA17JG","","img/set1/S2.jpg","68","2","random","68","random,structured_incentive,structured_load,structured_normal","2,3,1,2,4,2","2,4,3,1","true","","",""
"null","","html-keyboard-response","173","768263","0.0-173.0","3Z7ISHFUH1HQY1S4XDUPO6YDUY7Z80","A1PLQGQ95NICAF","3G9UA71JVVGUCOKNEKUVXTI6SA17JG","","<img src=""img/set1/S2.jpg"" width=""540"" height = ""360"" style=""border:16px solid orange"">","null","","","","","","","","","",""
"null","","html-keyboard-response","174","768470","0.0-174.0","3Z7ISHFUH1HQY1S4XDUPO6YDUY7Z80","A1PLQGQ95NICAF","3G9UA71JVVGUCOKNEKUVXTI6SA17JG","","","null","","","","","","","","","",""
"728","","image-keyboard-response","175","769200","0.0-175.0","3Z7ISHFUH1HQY1S4XDUPO6YDUY7Z80","A1PLQGQ95NICAF","3G9UA71JVVGUCOKNEKUVXTI6SA17JG","","img/set1/S4.jpg","74","4","random","74","random,structured_incentive,structured_load,structured_normal","2,3,1,2,4,2","2,4,3,1","true","","",""
"null","","html-keyboard-response","176","769553","0.0-176.0","3Z7ISHFUH1HQY1S4XDUPO6YDUY7Z80","A1PLQGQ95NICAF","3G9UA71JVVGUCOKNEKUVXTI6SA17JG","","<img src=""img/set1/S4.jpg"" width=""540"" height = ""360"" style=""border:16px solid orange"">","null","","","","","","","","","",""
"null","","html-keyboard-response","177","769759","0.0-177.0","3Z7ISHFUH1HQY1S4XDUPO6YDUY7Z80","A1PLQGQ95NICAF","3G9UA71JVVGUCOKNEKUVXTI6SA17JG","","","null","","","","","","","","","",""
"925","","image-keyboard-response","178","770687","0.0-178.0","3Z7ISHFUH1HQY1S4XDUPO6YDUY7Z80","A1PLQGQ95NICAF","3G9UA71JVVGUCOKNEKUVXTI6SA17JG","","img/set1/S3.jpg","72","3","random","72","random,structured_incentive,structured_load,structured_normal","2,3,1,2,4,2","2,4,3,1","true","","",""
"null","","html-keyboard-response","179","771038","0.0-179.0","3Z7ISHFUH1HQY1S4XDUPO6YDUY7Z80","A1PLQGQ95NICAF","3G9UA71JVVGUCOKNEKUVXTI6SA17JG","","<img src=""img/set1/S3.jpg"" width=""540"" height = ""360"" style=""border:16px solid orange"">","null","","","","","","","","","",""
"null","","html-keyboard-response","180","771243","0.0-180.0","3Z7ISHFUH1HQY1S4XDUPO6YDUY7Z80","A1PLQGQ95NICAF","3G9UA71JVVGUCOKNEKUVXTI6SA17JG","","","null","","","","","","","","","",""
"655","","image-keyboard-response","181","771900","0.0-181.0","3Z7ISHFUH1HQY1S4XDUPO6YDUY7Z80","A1PLQGQ95NICAF","3G9UA71JVVGUCOKNEKUVXTI6SA17JG","","img/set1/S4.jpg","74","4","random","74","random,structured_incentive,structured_load,structured_normal","2,3,1,2,4,2","2,4,3,1","true","","",""
"null","","html-keyboard-response","182","772258","0.0-182.0","3Z7ISHFUH1HQY1S4XDUPO6YDUY7Z80","A1PLQGQ95NICAF","3G9UA71JVVGUCOKNEKUVXTI6SA17JG","","<img src=""img/set1/S4.jpg"" width=""540"" height = ""360"" style=""border:16px solid orange"">","null","","","","","","","","","",""
"null","","html-keyboard-response","183","772461","0.0-183.0","3Z7ISHFUH1HQY1S4XDUPO6YDUY7Z80","A1PLQGQ95NICAF","3G9UA71JVVGUCOKNEKUVXTI6SA17JG","","","null","","","","","","","","","",""
"652","","image-keyboard-response","184","773117","0.0-184.0","3Z7ISHFUH1HQY1S4XDUPO6YDUY7Z80","A1PLQGQ95NICAF","3G9UA71JVVGUCOKNEKUVXTI6SA17JG","","img/set1/S1.jpg","83","1","random","83","random,structured_incentive,structured_load,structured_normal","2,3,1,2,4,2","2,4,3,1","true","","",""
"null","","html-keyboard-response","185","773475","0.0-185.0","3Z7ISHFUH1HQY1S4XDUPO6YDUY7Z80","A1PLQGQ95NICAF","3G9UA71JVVGUCOKNEKUVXTI6SA17JG","","<img src=""img/set1/S1.jpg"" width=""540"" height = ""360"" style=""border:16px solid orange"">","null","","","","","","","","","",""
"null","","html-keyboard-response","186","773681","0.0-186.0","3Z7ISHFUH1HQY1S4XDUPO6YDUY7Z80","A1PLQGQ95NICAF","3G9UA71JVVGUCOKNEKUVXTI6SA17JG","","","null","","","","","","","","","",""
"644","","image-keyboard-response","187","774326","0.0-187.0","3Z7ISHFUH1HQY1S4XDUPO6YDUY7Z80","A1PLQGQ95NICAF","3G9UA71JVVGUCOKNEKUVXTI6SA17JG","","img/set1/S1.jpg","83","1","random","83","random,structured_incentive,structured_load,structured_normal","2,3,1,2,4,2","2,4,3,1","true","","",""
"null","","html-keyboard-response","188","774684","0.0-188.0","3Z7ISHFUH1HQY1S4XDUPO6YDUY7Z80","A1PLQGQ95NICAF","3G9UA71JVVGUCOKNEKUVXTI6SA17JG","","<img src=""img/set1/S1.jpg"" width=""540"" height = ""360"" style=""border:16px solid orange"">","null","","","","","","","","","",""
"null","","html-keyboard-response","189","774886","0.0-189.0","3Z7ISHFUH1HQY1S4XDUPO6YDUY7Z80","A1PLQGQ95NICAF","3G9UA71JVVGUCOKNEKUVXTI6SA17JG","","","null","","","","","","","","","",""
"641","","image-keyboard-response","190","775531","0.0-190.0","3Z7ISHFUH1HQY1S4XDUPO6YDUY7Z80","A1PLQGQ95NICAF","3G9UA71JVVGUCOKNEKUVXTI6SA17JG","","img/set1/S2.jpg","68","2","random","68","random,structured_incentive,structured_load,structured_normal","2,3,1,2,4,2","2,4,3,1","true","","",""
"null","","html-keyboard-response","191","775885","0.0-191.0","3Z7ISHFUH1HQY1S4XDUPO6YDUY7Z80","A1PLQGQ95NICAF","3G9UA71JVVGUCOKNEKUVXTI6SA17JG","","<img src=""img/set1/S2.jpg"" width=""540"" height = ""360"" style=""border:16px solid orange"">","null","","","","","","","","","",""
"null","","html-keyboard-response","192","776088","0.0-192.0","3Z7ISHFUH1HQY1S4XDUPO6YDUY7Z80","A1PLQGQ95NICAF","3G9UA71JVVGUCOKNEKUVXTI6SA17JG","","","null","","","","","","","","","",""
"551","","image-keyboard-response","193","776641","0.0-193.0","3Z7ISHFUH1HQY1S4XDUPO6YDUY7Z80","A1PLQGQ95NICAF","3G9UA71JVVGUCOKNEKUVXTI6SA17JG","","img/set1/S2.jpg","68","2","random","68","random,structured_incentive,structured_load,structured_normal","2,3,1,2,4,2","2,4,3,1","true","","",""
"null","","html-keyboard-response","194","776996","0.0-194.0","3Z7ISHFUH1HQY1S4XDUPO6YDUY7Z80","A1PLQGQ95NICAF","3G9UA71JVVGUCOKNEKUVXTI6SA17JG","","<img src=""img/set1/S2.jpg"" width=""540"" height = ""360"" style=""border:16px solid orange"">","null","","","","","","","","","",""
"null","","html-keyboard-response","195","777201","0.0-195.0","3Z7ISHFUH1HQY1S4XDUPO6YDUY7Z80","A1PLQGQ95NICAF","3G9UA71JVVGUCOKNEKUVXTI6SA17JG","","","null","","","","","","","","","",""
"770","","image-keyboard-response","196","777974","0.0-196.0","3Z7ISHFUH1HQY1S4XDUPO6YDUY7Z80","A1PLQGQ95NICAF","3G9UA71JVVGUCOKNEKUVXTI6SA17JG","","img/set1/S1.jpg","83","1","random","83","random,structured_incentive,structured_load,structured_normal","2,3,1,2,4,2","2,4,3,1","true","","",""
"null","","html-keyboard-response","197","778329","0.0-197.0","3Z7ISHFUH1HQY1S4XDUPO6YDUY7Z80","A1PLQGQ95NICAF","3G9UA71JVVGUCOKNEKUVXTI6SA17JG","","<img src=""img/set1/S1.jpg"" width=""540"" height = ""360"" style=""border:16px solid orange"">","null","","","","","","","","","",""
"null","","html-keyboard-response","198","778535","0.0-198.0","3Z7ISHFUH1HQY1S4XDUPO6YDUY7Z80","A1PLQGQ95NICAF","3G9UA71JVVGUCOKNEKUVXTI6SA17JG","","","null","","","","","","","","","",""
"681","","image-keyboard-response","199","779217","0.0-199.0","3Z7ISHFUH1HQY1S4XDUPO6YDUY7Z80","A1PLQGQ95NICAF","3G9UA71JVVGUCOKNEKUVXTI6SA17JG","","img/set1/S2.jpg","68","2","random","68","random,structured_incentive,structured_load,structured_normal","2,3,1,2,4,2","2,4,3,1","true","","",""
"null","","html-keyboard-response","200","779573","0.0-200.0","3Z7ISHFUH1HQY1S4XDUPO6YDUY7Z80","A1PLQGQ95NICAF","3G9UA71JVVGUCOKNEKUVXTI6SA17JG","","<img src=""img/set1/S2.jpg"" width=""540"" height = ""360"" style=""border:16px solid orange"">","null","","","","","","","","","",""
"null","","html-keyboard-response","201","779779","0.0-201.0","3Z7ISHFUH1HQY1S4XDUPO6YDUY7Z80","A1PLQGQ95NICAF","3G9UA71JVVGUCOKNEKUVXTI6SA17JG","","","null","","","","","","","","","",""
"698","","image-keyboard-response","202","780480","0.0-202.0","3Z7ISHFUH1HQY1S4XDUPO6YDUY7Z80","A1PLQGQ95NICAF","3G9UA71JVVGUCOKNEKUVXTI6SA17JG","","img/set1/S1.jpg","83","1","random","83","random,structured_incentive,structured_load,structured_normal","2,3,1,2,4,2","2,4,3,1","true","","",""
"null","","html-keyboard-response","203","780836","0.0-203.0","3Z7ISHFUH1HQY1S4XDUPO6YDUY7Z80","A1PLQGQ95NICAF","3G9UA71JVVGUCOKNEKUVXTI6SA17JG","","<img src=""img/set1/S1.jpg"" width=""540"" height = ""360"" style=""border:16px solid orange"">","null","","","","","","","","","",""
"null","","html-keyboard-response","204","781043","0.0-204.0","3Z7ISHFUH1HQY1S4XDUPO6YDUY7Z80","A1PLQGQ95NICAF","3G9UA71JVVGUCOKNEKUVXTI6SA17JG","","","null","","","","","","","","","",""
"574","","image-keyboard-response","205","781621","0.0-205.0","3Z7ISHFUH1HQY1S4XDUPO6YDUY7Z80","A1PLQGQ95NICAF","3G9UA71JVVGUCOKNEKUVXTI6SA17JG","","img/set1/S4.jpg","74","4","random","74","random,structured_incentive,structured_load,structured_normal","2,3,1,2,4,2","2,4,3,1","true","","",""
"null","","html-keyboard-response","206","781979","0.0-206.0","3Z7ISHFUH1HQY1S4XDUPO6YDUY7Z80","A1PLQGQ95NICAF","3G9UA71JVVGUCOKNEKUVXTI6SA17JG","","<img src=""img/set1/S4.jpg"" width=""540"" height = ""360"" style=""border:16px solid orange"">","null","","","","","","","","","",""
"null","","html-keyboard-response","207","782181","0.0-207.0","3Z7ISHFUH1HQY1S4XDUPO6YDUY7Z80","A1PLQGQ95NICAF","3G9UA71JVVGUCOKNEKUVXTI6SA17JG","","","null","","","","","","","","","",""
"606","","image-keyboard-response","208","782788","0.0-208.0","3Z7ISHFUH1HQY1S4XDUPO6YDUY7Z80","A1PLQGQ95NICAF","3G9UA71JVVGUCOKNEKUVXTI6SA17JG","","img/set1/S2.jpg","68","2","random","68","random,structured_incentive,structured_load,structured_normal","2,3,1,2,4,2","2,4,3,1","true","","",""
"null","","html-keyboard-response","209","783145","0.0-209.0","3Z7ISHFUH1HQY1S4XDUPO6YDUY7Z80","A1PLQGQ95NICAF","3G9UA71JVVGUCOKNEKUVXTI6SA17JG","","<img src=""img/set1/S2.jpg"" width=""540"" height = ""360"" style=""border:16px solid orange"">","null","","","","","","","","","",""
"null","","html-keyboard-response","210","783352","0.0-210.0","3Z7ISHFUH1HQY1S4XDUPO6YDUY7Z80","A1PLQGQ95NICAF","3G9UA71JVVGUCOKNEKUVXTI6SA17JG","","","null","","","","","","","","","",""
"678","","image-keyboard-response","211","784031","0.0-211.0","3Z7ISHFUH1HQY1S4XDUPO6YDUY7Z80","A1PLQGQ95NICAF","3G9UA71JVVGUCOKNEKUVXTI6SA17JG","","img/set1/S1.jpg","83","1","random","83","random,structured_incentive,structured_load,structured_normal","2,3,1,2,4,2","2,4,3,1","true","","",""
"null","","html-keyboard-response","212","784388","0.0-212.0","3Z7ISHFUH1HQY1S4XDUPO6YDUY7Z80","A1PLQGQ95NICAF","3G9UA71JVVGUCOKNEKUVXTI6SA17JG","","<img src=""img/set1/S1.jpg"" width=""540"" height = ""360"" style=""border:16px solid orange"">","null","","","","","","","","","",""
"null","","html-keyboard-response","213","784590","0.0-213.0","3Z7ISHFUH1HQY1S4XDUPO6YDUY7Z80","A1PLQGQ95NICAF","3G9UA71JVVGUCOKNEKUVXTI6SA17JG","","","null","","","","","","","","","",""
"703","","image-keyboard-response","214","785296","0.0-214.0","3Z7ISHFUH1HQY1S4XDUPO6YDUY7Z80","A1PLQGQ95NICAF","3G9UA71JVVGUCOKNEKUVXTI6SA17JG","","img/set1/S3.jpg","74","3","random","72","random,structured_incentive,structured_load,structured_normal","2,3,1,2,4,2","2,4,3,1","false","","",""
"null","","html-keyboard-response","215","785649","0.0-215.0","3Z7ISHFUH1HQY1S4XDUPO6YDUY7Z80","A1PLQGQ95NICAF","3G9UA71JVVGUCOKNEKUVXTI6SA17JG","","<img src=""img/set1/S3.jpg"" width=""540"" height = ""360"">","null","","","","","","","","","",""
"null","","html-keyboard-response","216","785852","0.0-216.0","3Z7ISHFUH1HQY1S4XDUPO6YDUY7Z80","A1PLQGQ95NICAF","3G9UA71JVVGUCOKNEKUVXTI6SA17JG","","","null","","","","","","","","","",""
"835","","image-keyboard-response","217","786689","0.0-217.0","3Z7ISHFUH1HQY1S4XDUPO6YDUY7Z80","A1PLQGQ95NICAF","3G9UA71JVVGUCOKNEKUVXTI6SA17JG","","img/set1/S4.jpg","74","4","random","74","random,structured_incentive,structured_load,structured_normal","2,3,1,2,4,2","2,4,3,1","true","","",""
"null","","html-keyboard-response","218","787045","0.0-218.0","3Z7ISHFUH1HQY1S4XDUPO6YDUY7Z80","A1PLQGQ95NICAF","3G9UA71JVVGUCOKNEKUVXTI6SA17JG","","<img src=""img/set1/S4.jpg"" width=""540"" height = ""360"" style=""border:16px solid orange"">","null","","","","","","","","","",""
"null","","html-keyboard-response","219","787246","0.0-219.0","3Z7ISHFUH1HQY1S4XDUPO6YDUY7Z80","A1PLQGQ95NICAF","3G9UA71JVVGUCOKNEKUVXTI6SA17JG","","","null","","","","","","","","","",""
"595","","image-keyboard-response","220","787844","0.0-220.0","3Z7ISHFUH1HQY1S4XDUPO6YDUY7Z80","A1PLQGQ95NICAF","3G9UA71JVVGUCOKNEKUVXTI6SA17JG","","img/set1/S2.jpg","83","2","random","68","random,structured_incentive,structured_load,structured_normal","2,3,1,2,4,2","2,4,3,1","false","","",""
"null","","html-keyboard-response","221","788202","0.0-221.0","3Z7ISHFUH1HQY1S4XDUPO6YDUY7Z80","A1PLQGQ95NICAF","3G9UA71JVVGUCOKNEKUVXTI6SA17JG","","<img src=""img/set1/S2.jpg"" width=""540"" height = ""360"">","null","","","","","","","","","",""
"null","","html-keyboard-response","222","788405","0.0-222.0","3Z7ISHFUH1HQY1S4XDUPO6YDUY7Z80","A1PLQGQ95NICAF","3G9UA71JVVGUCOKNEKUVXTI6SA17JG","","","null","","","","","","","","","",""
"850","","image-keyboard-response","223","789259","0.0-223.0","3Z7ISHFUH1HQY1S4XDUPO6YDUY7Z80","A1PLQGQ95NICAF","3G9UA71JVVGUCOKNEKUVXTI6SA17JG","","img/set1/S4.jpg","74","4","random","74","random,structured_incentive,structured_load,structured_normal","2,3,1,2,4,2","2,4,3,1","true","","",""
"null","","html-keyboard-response","224","789613","0.0-224.0","3Z7ISHFUH1HQY1S4XDUPO6YDUY7Z80","A1PLQGQ95NICAF","3G9UA71JVVGUCOKNEKUVXTI6SA17JG","","<img src=""img/set1/S4.jpg"" width=""540"" height = ""360"" style=""border:16px solid orange"">","null","","","","","","","","","",""
"null","","html-keyboard-response","225","789820","0.0-225.0","3Z7ISHFUH1HQY1S4XDUPO6YDUY7Z80","A1PLQGQ95NICAF","3G9UA71JVVGUCOKNEKUVXTI6SA17JG","","","null","","","","","","","","","",""
"497","","image-keyboard-response","226","790317","0.0-226.0","3Z7ISHFUH1HQY1S4XDUPO6YDUY7Z80","A1PLQGQ95NICAF","3G9UA71JVVGUCOKNEKUVXTI6SA17JG","","img/set1/S4.jpg","74","4","random","74","random,structured_incentive,structured_load,structured_normal","2,3,1,2,4,2","2,4,3,1","true","","",""
"null","","html-keyboard-response","227","790674","0.0-227.0","3Z7ISHFUH1HQY1S4XDUPO6YDUY7Z80","A1PLQGQ95NICAF","3G9UA71JVVGUCOKNEKUVXTI6SA17JG","","<img src=""img/set1/S4.jpg"" width=""540"" height = ""360"" style=""border:16px solid orange"">","null","","","","","","","","","",""
"null","","html-keyboard-response","228","790876","0.0-228.0","3Z7ISHFUH1HQY1S4XDUPO6YDUY7Z80","A1PLQGQ95NICAF","3G9UA71JVVGUCOKNEKUVXTI6SA17JG","","","null","","","","","","","","","",""
"581","","image-keyboard-response","229","791459","0.0-229.0","3Z7ISHFUH1HQY1S4XDUPO6YDUY7Z80","A1PLQGQ95NICAF","3G9UA71JVVGUCOKNEKUVXTI6SA17JG","","img/set1/S2.jpg","68","2","random","68","random,structured_incentive,structured_load,structured_normal","2,3,1,2,4,2","2,4,3,1","true","","",""
"null","","html-keyboard-response","230","791812","0.0-230.0","3Z7ISHFUH1HQY1S4XDUPO6YDUY7Z80","A1PLQGQ95NICAF","3G9UA71JVVGUCOKNEKUVXTI6SA17JG","","<img src=""img/set1/S2.jpg"" width=""540"" height = ""360"" style=""border:16px solid orange"">","null","","","","","","","","","",""
"null","","html-keyboard-response","231","792018","0.0-231.0","3Z7ISHFUH1HQY1S4XDUPO6YDUY7Z80","A1PLQGQ95NICAF","3G9UA71JVVGUCOKNEKUVXTI6SA17JG","","","null","","","","","","","","","",""
"713","","image-keyboard-response","232","792734","0.0-232.0","3Z7ISHFUH1HQY1S4XDUPO6YDUY7Z80","A1PLQGQ95NICAF","3G9UA71JVVGUCOKNEKUVXTI6SA17JG","","img/set1/S1.jpg","83","1","random","83","random,structured_incentive,structured_load,structured_normal","2,3,1,2,4,2","2,4,3,1","true","","",""
"null","","html-keyboard-response","233","793092","0.0-233.0","3Z7ISHFUH1HQY1S4XDUPO6YDUY7Z80","A1PLQGQ95NICAF","3G9UA71JVVGUCOKNEKUVXTI6SA17JG","","<img src=""img/set1/S1.jpg"" width=""540"" height = ""360"" style=""border:16px solid orange"">","null","","","","","","","","","",""
"null","","html-keyboard-response","234","793297","0.0-234.0","3Z7ISHFUH1HQY1S4XDUPO6YDUY7Z80","A1PLQGQ95NICAF","3G9UA71JVVGUCOKNEKUVXTI6SA17JG","","","null","","","","","","","","","",""
"593","","image-keyboard-response","235","793891","0.0-235.0","3Z7ISHFUH1HQY1S4XDUPO6YDUY7Z80","A1PLQGQ95NICAF","3G9UA71JVVGUCOKNEKUVXTI6SA17JG","","img/set1/S1.jpg","83","1","random","83","random,structured_incentive,structured_load,structured_normal","2,3,1,2,4,2","2,4,3,1","true","","",""
"null","","html-keyboard-response","236","794248","0.0-236.0","3Z7ISHFUH1HQY1S4XDUPO6YDUY7Z80","A1PLQGQ95NICAF","3G9UA71JVVGUCOKNEKUVXTI6SA17JG","","<img src=""img/set1/S1.jpg"" width=""540"" height = ""360"" style=""border:16px solid orange"">","null","","","","","","","","","",""
"null","","html-keyboard-response","237","794454","0.0-237.0","3Z7ISHFUH1HQY1S4XDUPO6YDUY7Z80","A1PLQGQ95NICAF","3G9UA71JVVGUCOKNEKUVXTI6SA17JG","","","null","","","","","","","","","",""
"709","","image-keyboard-response","238","795164","0.0-238.0","3Z7ISHFUH1HQY1S4XDUPO6YDUY7Z80","A1PLQGQ95NICAF","3G9UA71JVVGUCOKNEKUVXTI6SA17JG","","img/set1/S4.jpg","74","4","random","74","random,structured_incentive,structured_load,structured_normal","2,3,1,2,4,2","2,4,3,1","true","","",""
"null","","html-keyboard-response","239","795521","0.0-239.0","3Z7ISHFUH1HQY1S4XDUPO6YDUY7Z80","A1PLQGQ95NICAF","3G9UA71JVVGUCOKNEKUVXTI6SA17JG","","<img src=""img/set1/S4.jpg"" width=""540"" height = ""360"" style=""border:16px solid orange"">","null","","","","","","","","","",""
"null","","html-keyboard-response","240","795728","0.0-240.0","3Z7ISHFUH1HQY1S4XDUPO6YDUY7Z80","A1PLQGQ95NICAF","3G9UA71JVVGUCOKNEKUVXTI6SA17JG","","","null","","","","","","","","","",""
"588","","image-keyboard-response","241","796319","0.0-241.0","3Z7ISHFUH1HQY1S4XDUPO6YDUY7Z80","A1PLQGQ95NICAF","3G9UA71JVVGUCOKNEKUVXTI6SA17JG","","img/set1/S1.jpg","83","1","random","83","random,structured_incentive,structured_load,structured_normal","2,3,1,2,4,2","2,4,3,1","true","","",""
"null","","html-keyboard-response","242","796676","0.0-242.0","3Z7ISHFUH1HQY1S4XDUPO6YDUY7Z80","A1PLQGQ95NICAF","3G9UA71JVVGUCOKNEKUVXTI6SA17JG","","<img src=""img/set1/S1.jpg"" width=""540"" height = ""360"" style=""border:16px solid orange"">","null","","","","","","","","","",""
"null","","html-keyboard-response","243","796882","0.0-243.0","3Z7ISHFUH1HQY1S4XDUPO6YDUY7Z80","A1PLQGQ95NICAF","3G9UA71JVVGUCOKNEKUVXTI6SA17JG","","","null","","","","","","","","","",""
"471","","image-keyboard-response","244","797355","0.0-244.0","3Z7ISHFUH1HQY1S4XDUPO6YDUY7Z80","A1PLQGQ95NICAF","3G9UA71JVVGUCOKNEKUVXTI6SA17JG","","img/set1/S1.jpg","83","1","random","83","random,structured_incentive,structured_load,structured_normal","2,3,1,2,4,2","2,4,3,1","true","","",""
"null","","html-keyboard-response","245","797714","0.0-245.0","3Z7ISHFUH1HQY1S4XDUPO6YDUY7Z80","A1PLQGQ95NICAF","3G9UA71JVVGUCOKNEKUVXTI6SA17JG","","<img src=""img/set1/S1.jpg"" width=""540"" height = ""360"" style=""border:16px solid orange"">","null","","","","","","","","","",""
"null","","html-keyboard-response","246","797917","0.0-246.0","3Z7ISHFUH1HQY1S4XDUPO6YDUY7Z80","A1PLQGQ95NICAF","3G9UA71JVVGUCOKNEKUVXTI6SA17JG","","","null","","","","","","","","","",""
"470","","image-keyboard-response","247","798390","0.0-247.0","3Z7ISHFUH1HQY1S4XDUPO6YDUY7Z80","A1PLQGQ95NICAF","3G9UA71JVVGUCOKNEKUVXTI6SA17JG","","img/set1/S1.jpg","83","1","random","83","random,structured_incentive,structured_load,structured_normal","2,3,1,2,4,2","2,4,3,1","true","","",""
"null","","html-keyboard-response","248","798743","0.0-248.0","3Z7ISHFUH1HQY1S4XDUPO6YDUY7Z80","A1PLQGQ95NICAF","3G9UA71JVVGUCOKNEKUVXTI6SA17JG","","<img src=""img/set1/S1.jpg"" width=""540"" height = ""360"" style=""border:16px solid orange"">","null","","","","","","","","","",""
"null","","html-keyboard-response","249","798945","0.0-249.0","3Z7ISHFUH1HQY1S4XDUPO6YDUY7Z80","A1PLQGQ95NICAF","3G9UA71JVVGUCOKNEKUVXTI6SA17JG","","","null","","","","","","","","","",""
"388","","image-keyboard-response","250","799337","0.0-250.0","3Z7ISHFUH1HQY1S4XDUPO6YDUY7Z80","A1PLQGQ95NICAF","3G9UA71JVVGUCOKNEKUVXTI6SA17JG","","img/set1/S1.jpg","83","1","random","83","random,structured_incentive,structured_load,structured_normal","2,3,1,2,4,2","2,4,3,1","true","","",""
"null","","html-keyboard-response","251","799693","0.0-251.0","3Z7ISHFUH1HQY1S4XDUPO6YDUY7Z80","A1PLQGQ95NICAF","3G9UA71JVVGUCOKNEKUVXTI6SA17JG","","<img src=""img/set1/S1.jpg"" width=""540"" height = ""360"" style=""border:16px solid orange"">","null","","","","","","","","","",""
"null","","html-keyboard-response","252","799900","0.0-252.0","3Z7ISHFUH1HQY1S4XDUPO6YDUY7Z80","A1PLQGQ95NICAF","3G9UA71JVVGUCOKNEKUVXTI6SA17JG","","","null","","","","","","","","","",""
"648","","image-keyboard-response","253","800550","0.0-253.0","3Z7ISHFUH1HQY1S4XDUPO6YDUY7Z80","A1PLQGQ95NICAF","3G9UA71JVVGUCOKNEKUVXTI6SA17JG","","img/set1/S4.jpg","72","4","random","74","random,structured_incentive,structured_load,structured_normal","2,3,1,2,4,2","2,4,3,1","false","","",""
"null","","html-keyboard-response","254","800903","0.0-254.0","3Z7ISHFUH1HQY1S4XDUPO6YDUY7Z80","A1PLQGQ95NICAF","3G9UA71JVVGUCOKNEKUVXTI6SA17JG","","<img src=""img/set1/S4.jpg"" width=""540"" height = ""360"">","null","","","","","","","","","",""
"null","","html-keyboard-response","255","801110","0.0-255.0","3Z7ISHFUH1HQY1S4XDUPO6YDUY7Z80","A1PLQGQ95NICAF","3G9UA71JVVGUCOKNEKUVXTI6SA17JG","","","null","","","","","","","","","",""
"473","","image-keyboard-response","256","801586","0.0-256.0","3Z7ISHFUH1HQY1S4XDUPO6YDUY7Z80","A1PLQGQ95NICAF","3G9UA71JVVGUCOKNEKUVXTI6SA17JG","","img/set1/S4.jpg","74","4","random","74","random,structured_incentive,structured_load,structured_normal","2,3,1,2,4,2","2,4,3,1","true","","",""
"null","","html-keyboard-response","257","801940","0.0-257.0","3Z7ISHFUH1HQY1S4XDUPO6YDUY7Z80","A1PLQGQ95NICAF","3G9UA71JVVGUCOKNEKUVXTI6SA17JG","","<img src=""img/set1/S4.jpg"" width=""540"" height = ""360"" style=""border:16px solid orange"">","null","","","","","","","","","",""
"null","","html-keyboard-response","258","802146","0.0-258.0","3Z7ISHFUH1HQY1S4XDUPO6YDUY7Z80","A1PLQGQ95NICAF","3G9UA71JVVGUCOKNEKUVXTI6SA17JG","","","null","","","","","","","","","",""
"576","","image-keyboard-response","259","802723","0.0-259.0","3Z7ISHFUH1HQY1S4XDUPO6YDUY7Z80","A1PLQGQ95NICAF","3G9UA71JVVGUCOKNEKUVXTI6SA17JG","","img/set1/S2.jpg","83","2","random","68","random,structured_incentive,structured_load,structured_normal","2,3,1,2,4,2","2,4,3,1","false","","",""
"null","","html-keyboard-response","260","803081","0.0-260.0","3Z7ISHFUH1HQY1S4XDUPO6YDUY7Z80","A1PLQGQ95NICAF","3G9UA71JVVGUCOKNEKUVXTI6SA17JG","","<img src=""img/set1/S2.jpg"" width=""540"" height = ""360"">","null","","","","","","","","","",""
"null","","html-keyboard-response","261","803283","0.0-261.0","3Z7ISHFUH1HQY1S4XDUPO6YDUY7Z80","A1PLQGQ95NICAF","3G9UA71JVVGUCOKNEKUVXTI6SA17JG","","","null","","","","","","","","","",""
"745","","image-keyboard-response","262","804030","0.0-262.0","3Z7ISHFUH1HQY1S4XDUPO6YDUY7Z80","A1PLQGQ95NICAF","3G9UA71JVVGUCOKNEKUVXTI6SA17JG","","img/set1/S1.jpg","83","1","random","83","random,structured_incentive,structured_load,structured_normal","2,3,1,2,4,2","2,4,3,1","true","","",""
"null","","html-keyboard-response","263","804382","0.0-263.0","3Z7ISHFUH1HQY1S4XDUPO6YDUY7Z80","A1PLQGQ95NICAF","3G9UA71JVVGUCOKNEKUVXTI6SA17JG","","<img src=""img/set1/S1.jpg"" width=""540"" height = ""360"" style=""border:16px solid orange"">","null","","","","","","","","","",""
"null","","html-keyboard-response","264","804589","0.0-264.0","3Z7ISHFUH1HQY1S4XDUPO6YDUY7Z80","A1PLQGQ95NICAF","3G9UA71JVVGUCOKNEKUVXTI6SA17JG","","","null","","","","","","","","","",""
"488","","image-keyboard-response","265","805079","0.0-265.0","3Z7ISHFUH1HQY1S4XDUPO6YDUY7Z80","A1PLQGQ95NICAF","3G9UA71JVVGUCOKNEKUVXTI6SA17JG","","img/set1/S1.jpg","83","1","random","83","random,structured_incentive,structured_load,structured_normal","2,3,1,2,4,2","2,4,3,1","true","","",""
"null","","html-keyboard-response","266","805437","0.0-266.0","3Z7ISHFUH1HQY1S4XDUPO6YDUY7Z80","A1PLQGQ95NICAF","3G9UA71JVVGUCOKNEKUVXTI6SA17JG","","<img src=""img/set1/S1.jpg"" width=""540"" height = ""360"" style=""border:16px solid orange"">","null","","","","","","","","","",""
"null","","html-keyboard-response","267","805644","0.0-267.0","3Z7ISHFUH1HQY1S4XDUPO6YDUY7Z80","A1PLQGQ95NICAF","3G9UA71JVVGUCOKNEKUVXTI6SA17JG","","","null","","","","","","","","","",""
"814","","image-keyboard-response","268","806459","0.0-268.0","3Z7ISHFUH1HQY1S4XDUPO6YDUY7Z80","A1PLQGQ95NICAF","3G9UA71JVVGUCOKNEKUVXTI6SA17JG","","img/set1/S3.jpg","72","3","random","72","random,structured_incentive,structured_load,structured_normal","2,3,1,2,4,2","2,4,3,1","true","","",""
"null","","html-keyboard-response","269","806818","0.0-269.0","3Z7ISHFUH1HQY1S4XDUPO6YDUY7Z80","A1PLQGQ95NICAF","3G9UA71JVVGUCOKNEKUVXTI6SA17JG","","<img src=""img/set1/S3.jpg"" width=""540"" height = ""360"" style=""border:16px solid orange"">","null","","","","","","","","","",""
"null","","html-keyboard-response","270","807024","0.0-270.0","3Z7ISHFUH1HQY1S4XDUPO6YDUY7Z80","A1PLQGQ95NICAF","3G9UA71JVVGUCOKNEKUVXTI6SA17JG","","","null","","","","","","","","","",""
"555","","image-keyboard-response","271","807581","0.0-271.0","3Z7ISHFUH1HQY1S4XDUPO6YDUY7Z80","A1PLQGQ95NICAF","3G9UA71JVVGUCOKNEKUVXTI6SA17JG","","img/set1/S2.jpg","68","2","random","68","random,structured_incentive,structured_load,structured_normal","2,3,1,2,4,2","2,4,3,1","true","","",""
"null","","html-keyboard-response","272","807932","0.0-272.0","3Z7ISHFUH1HQY1S4XDUPO6YDUY7Z80","A1PLQGQ95NICAF","3G9UA71JVVGUCOKNEKUVXTI6SA17JG","","<img src=""img/set1/S2.jpg"" width=""540"" height = ""360"" style=""border:16px solid orange"">","null","","","","","","","","","",""
"null","","html-keyboard-response","273","808137","0.0-273.0","3Z7ISHFUH1HQY1S4XDUPO6YDUY7Z80","A1PLQGQ95NICAF","3G9UA71JVVGUCOKNEKUVXTI6SA17JG","","","null","","","","","","","","","",""
"675","","image-keyboard-response","274","808814","0.0-274.0","3Z7ISHFUH1HQY1S4XDUPO6YDUY7Z80","A1PLQGQ95NICAF","3G9UA71JVVGUCOKNEKUVXTI6SA17JG","","img/set1/S4.jpg","74","4","random","74","random,structured_incentive,structured_load,structured_normal","2,3,1,2,4,2","2,4,3,1","true","","",""
"null","","html-keyboard-response","275","809171","0.0-275.0","3Z7ISHFUH1HQY1S4XDUPO6YDUY7Z80","A1PLQGQ95NICAF","3G9UA71JVVGUCOKNEKUVXTI6SA17JG","","<img src=""img/set1/S4.jpg"" width=""540"" height = ""360"" style=""border:16px solid orange"">","null","","","","","","","","","",""
"null","","html-keyboard-response","276","809372","0.0-276.0","3Z7ISHFUH1HQY1S4XDUPO6YDUY7Z80","A1PLQGQ95NICAF","3G9UA71JVVGUCOKNEKUVXTI6SA17JG","","","null","","","","","","","","","",""
"684","","image-keyboard-response","277","810059","0.0-277.0","3Z7ISHFUH1HQY1S4XDUPO6YDUY7Z80","A1PLQGQ95NICAF","3G9UA71JVVGUCOKNEKUVXTI6SA17JG","","img/set1/S1.jpg","83","1","random","83","random,structured_incentive,structured_load,structured_normal","2,3,1,2,4,2","2,4,3,1","true","","",""
"null","","html-keyboard-response","278","810415","0.0-278.0","3Z7ISHFUH1HQY1S4XDUPO6YDUY7Z80","A1PLQGQ95NICAF","3G9UA71JVVGUCOKNEKUVXTI6SA17JG","","<img src=""img/set1/S1.jpg"" width=""540"" height = ""360"" style=""border:16px solid orange"">","null","","","","","","","","","",""
"null","","html-keyboard-response","279","810620","0.0-279.0","3Z7ISHFUH1HQY1S4XDUPO6YDUY7Z80","A1PLQGQ95NICAF","3G9UA71JVVGUCOKNEKUVXTI6SA17JG","","","null","","","","","","","","","",""
"875","","image-keyboard-response","280","811495","0.0-280.0","3Z7ISHFUH1HQY1S4XDUPO6YDUY7Z80","A1PLQGQ95NICAF","3G9UA71JVVGUCOKNEKUVXTI6SA17JG","","img/set1/S4.jpg","74","4","random","74","random,structured_incentive,structured_load,structured_normal","2,3,1,2,4,2","2,4,3,1","true","","",""
"null","","html-keyboard-response","281","811852","0.0-281.0","3Z7ISHFUH1HQY1S4XDUPO6YDUY7Z80","A1PLQGQ95NICAF","3G9UA71JVVGUCOKNEKUVXTI6SA17JG","","<img src=""img/set1/S4.jpg"" width=""540"" height = ""360"" style=""border:16px solid orange"">","null","","","","","","","","","",""
"null","","html-keyboard-response","282","812055","0.0-282.0","3Z7ISHFUH1HQY1S4XDUPO6YDUY7Z80","A1PLQGQ95NICAF","3G9UA71JVVGUCOKNEKUVXTI6SA17JG","","","null","","","","","","","","","",""
"642","","image-keyboard-response","283","812698","0.0-283.0","3Z7ISHFUH1HQY1S4XDUPO6YDUY7Z80","A1PLQGQ95NICAF","3G9UA71JVVGUCOKNEKUVXTI6SA17JG","","img/set1/S2.jpg","68","2","random","68","random,structured_incentive,structured_load,structured_normal","2,3,1,2,4,2","2,4,3,1","true","","",""
"null","","html-keyboard-response","284","813052","0.0-284.0","3Z7ISHFUH1HQY1S4XDUPO6YDUY7Z80","A1PLQGQ95NICAF","3G9UA71JVVGUCOKNEKUVXTI6SA17JG","","<img src=""img/set1/S2.jpg"" width=""540"" height = ""360"" style=""border:16px solid orange"">","null","","","","","","","","","",""
"null","","html-keyboard-response","285","813259","0.0-285.0","3Z7ISHFUH1HQY1S4XDUPO6YDUY7Z80","A1PLQGQ95NICAF","3G9UA71JVVGUCOKNEKUVXTI6SA17JG","","","null","","","","","","","","","",""
"472","","image-keyboard-response","286","813733","0.0-286.0","3Z7ISHFUH1HQY1S4XDUPO6YDUY7Z80","A1PLQGQ95NICAF","3G9UA71JVVGUCOKNEKUVXTI6SA17JG","","img/set1/S3.jpg","72","3","random","72","random,structured_incentive,structured_load,structured_normal","2,3,1,2,4,2","2,4,3,1","true","","",""
"null","","html-keyboard-response","287","814090","0.0-287.0","3Z7ISHFUH1HQY1S4XDUPO6YDUY7Z80","A1PLQGQ95NICAF","3G9UA71JVVGUCOKNEKUVXTI6SA17JG","","<img src=""img/set1/S3.jpg"" width=""540"" height = ""360"" style=""border:16px solid orange"">","null","","","","","","","","","",""
"null","","html-keyboard-response","288","814297","0.0-288.0","3Z7ISHFUH1HQY1S4XDUPO6YDUY7Z80","A1PLQGQ95NICAF","3G9UA71JVVGUCOKNEKUVXTI6SA17JG","","","null","","","","","","","","","",""
"545","","image-keyboard-response","289","814844","0.0-289.0","3Z7ISHFUH1HQY1S4XDUPO6YDUY7Z80","A1PLQGQ95NICAF","3G9UA71JVVGUCOKNEKUVXTI6SA17JG","","img/set1/S2.jpg","68","2","random","68","random,structured_incentive,structured_load,structured_normal","2,3,1,2,4,2","2,4,3,1","true","","",""
"null","","html-keyboard-response","290","815201","0.0-290.0","3Z7ISHFUH1HQY1S4XDUPO6YDUY7Z80","A1PLQGQ95NICAF","3G9UA71JVVGUCOKNEKUVXTI6SA17JG","","<img src=""img/set1/S2.jpg"" width=""540"" height = ""360"" style=""border:16px solid orange"">","null","","","","","","","","","",""
"null","","html-keyboard-response","291","815403","0.0-291.0","3Z7ISHFUH1HQY1S4XDUPO6YDUY7Z80","A1PLQGQ95NICAF","3G9UA71JVVGUCOKNEKUVXTI6SA17JG","","","null","","","","","","","","","",""
"567","","image-keyboard-response","292","815970","0.0-292.0","3Z7ISHFUH1HQY1S4XDUPO6YDUY7Z80","A1PLQGQ95NICAF","3G9UA71JVVGUCOKNEKUVXTI6SA17JG","","img/set1/S4.jpg","74","4","random","74","random,structured_incentive,structured_load,structured_normal","2,3,1,2,4,2","2,4,3,1","true","","",""
"null","","html-keyboard-response","293","816329","0.0-293.0","3Z7ISHFUH1HQY1S4XDUPO6YDUY7Z80","A1PLQGQ95NICAF","3G9UA71JVVGUCOKNEKUVXTI6SA17JG","","<img src=""img/set1/S4.jpg"" width=""540"" height = ""360"" style=""border:16px solid orange"">","null","","","","","","","","","",""
"null","","html-keyboard-response","294","816531","0.0-294.0","3Z7ISHFUH1HQY1S4XDUPO6YDUY7Z80","A1PLQGQ95NICAF","3G9UA71JVVGUCOKNEKUVXTI6SA17JG","","","null","","","","","","","","","",""
"438","","image-keyboard-response","295","816971","0.0-295.0","3Z7ISHFUH1HQY1S4XDUPO6YDUY7Z80","A1PLQGQ95NICAF","3G9UA71JVVGUCOKNEKUVXTI6SA17JG","","img/set1/S3.jpg","72","3","random","72","random,structured_incentive,structured_load,structured_normal","2,3,1,2,4,2","2,4,3,1","true","","",""
"null","","html-keyboard-response","296","817328","0.0-296.0","3Z7ISHFUH1HQY1S4XDUPO6YDUY7Z80","A1PLQGQ95NICAF","3G9UA71JVVGUCOKNEKUVXTI6SA17JG","","<img src=""img/set1/S3.jpg"" width=""540"" height = ""360"" style=""border:16px solid orange"">","null","","","","","","","","","",""
"null","","html-keyboard-response","297","817535","0.0-297.0","3Z7ISHFUH1HQY1S4XDUPO6YDUY7Z80","A1PLQGQ95NICAF","3G9UA71JVVGUCOKNEKUVXTI6SA17JG","","","null","","","","","","","","","",""
"635","","image-keyboard-response","298","818174","0.0-298.0","3Z7ISHFUH1HQY1S4XDUPO6YDUY7Z80","A1PLQGQ95NICAF","3G9UA71JVVGUCOKNEKUVXTI6SA17JG","","img/set1/S2.jpg","68","2","random","68","random,structured_incentive,structured_load,structured_normal","2,3,1,2,4,2","2,4,3,1","true","","",""
"null","","html-keyboard-response","299","818526","0.0-299.0","3Z7ISHFUH1HQY1S4XDUPO6YDUY7Z80","A1PLQGQ95NICAF","3G9UA71JVVGUCOKNEKUVXTI6SA17JG","","<img src=""img/set1/S2.jpg"" width=""540"" height = ""360"" style=""border:16px solid orange"">","null","","","","","","","","","",""
"null","","html-keyboard-response","300","818730","0.0-300.0","3Z7ISHFUH1HQY1S4XDUPO6YDUY7Z80","A1PLQGQ95NICAF","3G9UA71JVVGUCOKNEKUVXTI6SA17JG","","","null","","","","","","","","","",""
"554","","image-keyboard-response","301","819285","0.0-301.0","3Z7ISHFUH1HQY1S4XDUPO6YDUY7Z80","A1PLQGQ95NICAF","3G9UA71JVVGUCOKNEKUVXTI6SA17JG","","img/set1/S1.jpg","74","1","random","83","random,structured_incentive,structured_load,structured_normal","2,3,1,2,4,2","2,4,3,1","false","","",""
"null","","html-keyboard-response","302","819643","0.0-302.0","3Z7ISHFUH1HQY1S4XDUPO6YDUY7Z80","A1PLQGQ95NICAF","3G9UA71JVVGUCOKNEKUVXTI6SA17JG","","<img src=""img/set1/S1.jpg"" width=""540"" height = ""360"">","null","","","","","","","","","",""
"null","","html-keyboard-response","303","819847","0.0-303.0","3Z7ISHFUH1HQY1S4XDUPO6YDUY7Z80","A1PLQGQ95NICAF","3G9UA71JVVGUCOKNEKUVXTI6SA17JG","","","null","","","","","","","","","",""
"561","","image-keyboard-response","304","820410","0.0-304.0","3Z7ISHFUH1HQY1S4XDUPO6YDUY7Z80","A1PLQGQ95NICAF","3G9UA71JVVGUCOKNEKUVXTI6SA17JG","","img/set1/S4.jpg","74","4","random","74","random,structured_incentive,structured_load,structured_normal","2,3,1,2,4,2","2,4,3,1","true","","",""
"null","","html-keyboard-response","305","820763","0.0-305.0","3Z7ISHFUH1HQY1S4XDUPO6YDUY7Z80","A1PLQGQ95NICAF","3G9UA71JVVGUCOKNEKUVXTI6SA17JG","","<img src=""img/set1/S4.jpg"" width=""540"" height = ""360"" style=""border:16px solid orange"">","null","","","","","","","","","",""
"null","","html-keyboard-response","306","820968","0.0-306.0","3Z7ISHFUH1HQY1S4XDUPO6YDUY7Z80","A1PLQGQ95NICAF","3G9UA71JVVGUCOKNEKUVXTI6SA17JG","","","null","","","","","","","","","",""
"655","","image-keyboard-response","307","821625","0.0-307.0","3Z7ISHFUH1HQY1S4XDUPO6YDUY7Z80","A1PLQGQ95NICAF","3G9UA71JVVGUCOKNEKUVXTI6SA17JG","","img/set1/S2.jpg","68","2","random","68","random,structured_incentive,structured_load,structured_normal","2,3,1,2,4,2","2,4,3,1","true","","",""
"null","","html-keyboard-response","308","821977","0.0-308.0","3Z7ISHFUH1HQY1S4XDUPO6YDUY7Z80","A1PLQGQ95NICAF","3G9UA71JVVGUCOKNEKUVXTI6SA17JG","","<img src=""img/set1/S2.jpg"" width=""540"" height = ""360"" style=""border:16px solid orange"">","null","","","","","","","","","",""
"null","","html-keyboard-response","309","822179","0.0-309.0","3Z7ISHFUH1HQY1S4XDUPO6YDUY7Z80","A1PLQGQ95NICAF","3G9UA71JVVGUCOKNEKUVXTI6SA17JG","","","null","","","","","","","","","",""
"433","","image-keyboard-response","310","822615","0.0-310.0","3Z7ISHFUH1HQY1S4XDUPO6YDUY7Z80","A1PLQGQ95NICAF","3G9UA71JVVGUCOKNEKUVXTI6SA17JG","","img/set1/S3.jpg","72","3","random","72","random,structured_incentive,structured_load,structured_normal","2,3,1,2,4,2","2,4,3,1","true","","",""
"null","","html-keyboard-response","311","822972","0.0-311.0","3Z7ISHFUH1HQY1S4XDUPO6YDUY7Z80","A1PLQGQ95NICAF","3G9UA71JVVGUCOKNEKUVXTI6SA17JG","","<img src=""img/set1/S3.jpg"" width=""540"" height = ""360"" style=""border:16px solid orange"">","null","","","","","","","","","",""
"null","","html-keyboard-response","312","823179","0.0-312.0","3Z7ISHFUH1HQY1S4XDUPO6YDUY7Z80","A1PLQGQ95NICAF","3G9UA71JVVGUCOKNEKUVXTI6SA17JG","","","null","","","","","","","","","",""
"515","","image-keyboard-response","313","823697","0.0-313.0","3Z7ISHFUH1HQY1S4XDUPO6YDUY7Z80","A1PLQGQ95NICAF","3G9UA71JVVGUCOKNEKUVXTI6SA17JG","","img/set1/S2.jpg","68","2","random","68","random,structured_incentive,structured_load,structured_normal","2,3,1,2,4,2","2,4,3,1","true","","",""
"null","","html-keyboard-response","314","824052","0.0-314.0","3Z7ISHFUH1HQY1S4XDUPO6YDUY7Z80","A1PLQGQ95NICAF","3G9UA71JVVGUCOKNEKUVXTI6SA17JG","","<img src=""img/set1/S2.jpg"" width=""540"" height = ""360"" style=""border:16px solid orange"">","null","","","","","","","","","",""
"null","","html-keyboard-response","315","824258","0.0-315.0","3Z7ISHFUH1HQY1S4XDUPO6YDUY7Z80","A1PLQGQ95NICAF","3G9UA71JVVGUCOKNEKUVXTI6SA17JG","","","null","","","","","","","","","",""
"481","","image-keyboard-response","316","824740","0.0-316.0","3Z7ISHFUH1HQY1S4XDUPO6YDUY7Z80","A1PLQGQ95NICAF","3G9UA71JVVGUCOKNEKUVXTI6SA17JG","","img/set1/S3.jpg","72","3","random","72","random,structured_incentive,structured_load,structured_normal","2,3,1,2,4,2","2,4,3,1","true","","",""
"null","","html-keyboard-response","317","825095","0.0-317.0","3Z7ISHFUH1HQY1S4XDUPO6YDUY7Z80","A1PLQGQ95NICAF","3G9UA71JVVGUCOKNEKUVXTI6SA17JG","","<img src=""img/set1/S3.jpg"" width=""540"" height = ""360"" style=""border:16px solid orange"">","null","","","","","","","","","",""
"null","","html-keyboard-response","318","825298","0.0-318.0","3Z7ISHFUH1HQY1S4XDUPO6YDUY7Z80","A1PLQGQ95NICAF","3G9UA71JVVGUCOKNEKUVXTI6SA17JG","","","null","","","","","","","","","",""
"463","","image-keyboard-response","319","825764","0.0-319.0","3Z7ISHFUH1HQY1S4XDUPO6YDUY7Z80","A1PLQGQ95NICAF","3G9UA71JVVGUCOKNEKUVXTI6SA17JG","","img/set1/S2.jpg","68","2","random","68","random,structured_incentive,structured_load,structured_normal","2,3,1,2,4,2","2,4,3,1","true","","",""
"null","","html-keyboard-response","320","826118","0.0-320.0","3Z7ISHFUH1HQY1S4XDUPO6YDUY7Z80","A1PLQGQ95NICAF","3G9UA71JVVGUCOKNEKUVXTI6SA17JG","","<img src=""img/set1/S2.jpg"" width=""540"" height = ""360"" style=""border:16px solid orange"">","null","","","","","","","","","",""
"null","","html-keyboard-response","321","826320","0.0-321.0","3Z7ISHFUH1HQY1S4XDUPO6YDUY7Z80","A1PLQGQ95NICAF","3G9UA71JVVGUCOKNEKUVXTI6SA17JG","","","null","","","","","","","","","",""
"597","","image-keyboard-response","322","826920","0.0-322.0","3Z7ISHFUH1HQY1S4XDUPO6YDUY7Z80","A1PLQGQ95NICAF","3G9UA71JVVGUCOKNEKUVXTI6SA17JG","","img/set1/S3.jpg","72","3","random","72","random,structured_incentive,structured_load,structured_normal","2,3,1,2,4,2","2,4,3,1","true","","",""
"null","","html-keyboard-response","323","827273","0.0-323.0","3Z7ISHFUH1HQY1S4XDUPO6YDUY7Z80","A1PLQGQ95NICAF","3G9UA71JVVGUCOKNEKUVXTI6SA17JG","","<img src=""img/set1/S3.jpg"" width=""540"" height = ""360"" style=""border:16px solid orange"">","null","","","","","","","","","",""
"null","","html-keyboard-response","324","827477","0.0-324.0","3Z7ISHFUH1HQY1S4XDUPO6YDUY7Z80","A1PLQGQ95NICAF","3G9UA71JVVGUCOKNEKUVXTI6SA17JG","","","null","","","","","","","","","",""
"547","","image-keyboard-response","325","828025","0.0-325.0","3Z7ISHFUH1HQY1S4XDUPO6YDUY7Z80","A1PLQGQ95NICAF","3G9UA71JVVGUCOKNEKUVXTI6SA17JG","","img/set1/S4.jpg","74","4","random","74","random,structured_incentive,structured_load,structured_normal","2,3,1,2,4,2","2,4,3,1","true","","",""
"null","","html-keyboard-response","326","828382","0.0-326.0","3Z7ISHFUH1HQY1S4XDUPO6YDUY7Z80","A1PLQGQ95NICAF","3G9UA71JVVGUCOKNEKUVXTI6SA17JG","","<img src=""img/set1/S4.jpg"" width=""540"" height = ""360"" style=""border:16px solid orange"">","null","","","","","","","","","",""
"null","","html-keyboard-response","327","828585","0.0-327.0","3Z7ISHFUH1HQY1S4XDUPO6YDUY7Z80","A1PLQGQ95NICAF","3G9UA71JVVGUCOKNEKUVXTI6SA17JG","","","null","","","","","","","","","",""
"417","","image-keyboard-response","328","829005","0.0-328.0","3Z7ISHFUH1HQY1S4XDUPO6YDUY7Z80","A1PLQGQ95NICAF","3G9UA71JVVGUCOKNEKUVXTI6SA17JG","","img/set1/S3.jpg","72","3","random","72","random,structured_incentive,structured_load,structured_normal","2,3,1,2,4,2","2,4,3,1","true","","",""
"null","","html-keyboard-response","329","829357","0.0-329.0","3Z7ISHFUH1HQY1S4XDUPO6YDUY7Z80","A1PLQGQ95NICAF","3G9UA71JVVGUCOKNEKUVXTI6SA17JG","","<img src=""img/set1/S3.jpg"" width=""540"" height = ""360"" style=""border:16px solid orange"">","null","","","","","","","","","",""
"null","","html-keyboard-response","330","829564","0.0-330.0","3Z7ISHFUH1HQY1S4XDUPO6YDUY7Z80","A1PLQGQ95NICAF","3G9UA71JVVGUCOKNEKUVXTI6SA17JG","","","null","","","","","","","","","",""
"563","","image-keyboard-response","331","830130","0.0-331.0","3Z7ISHFUH1HQY1S4XDUPO6YDUY7Z80","A1PLQGQ95NICAF","3G9UA71JVVGUCOKNEKUVXTI6SA17JG","","img/set1/S2.jpg","68","2","random","68","random,structured_incentive,structured_load,structured_normal","2,3,1,2,4,2","2,4,3,1","true","","",""
"null","","html-keyboard-response","332","830487","0.0-332.0","3Z7ISHFUH1HQY1S4XDUPO6YDUY7Z80","A1PLQGQ95NICAF","3G9UA71JVVGUCOKNEKUVXTI6SA17JG","","<img src=""img/set1/S2.jpg"" width=""540"" height = ""360"" style=""border:16px solid orange"">","null","","","","","","","","","",""
"null","","html-keyboard-response","333","830690","0.0-333.0","3Z7ISHFUH1HQY1S4XDUPO6YDUY7Z80","A1PLQGQ95NICAF","3G9UA71JVVGUCOKNEKUVXTI6SA17JG","","","null","","","","","","","","","",""
"574","","image-keyboard-response","334","831266","0.0-334.0","3Z7ISHFUH1HQY1S4XDUPO6YDUY7Z80","A1PLQGQ95NICAF","3G9UA71JVVGUCOKNEKUVXTI6SA17JG","","img/set1/S3.jpg","72","3","random","72","random,structured_incentive,structured_load,structured_normal","2,3,1,2,4,2","2,4,3,1","true","","",""
"null","","html-keyboard-response","335","831623","0.0-335.0","3Z7ISHFUH1HQY1S4XDUPO6YDUY7Z80","A1PLQGQ95NICAF","3G9UA71JVVGUCOKNEKUVXTI6SA17JG","","<img src=""img/set1/S3.jpg"" width=""540"" height = ""360"" style=""border:16px solid orange"">","null","","","","","","","","","",""
"null","","html-keyboard-response","336","831829","0.0-336.0","3Z7ISHFUH1HQY1S4XDUPO6YDUY7Z80","A1PLQGQ95NICAF","3G9UA71JVVGUCOKNEKUVXTI6SA17JG","","","null","","","","","","","","","",""
"469","","image-keyboard-response","337","832301","0.0-337.0","3Z7ISHFUH1HQY1S4XDUPO6YDUY7Z80","A1PLQGQ95NICAF","3G9UA71JVVGUCOKNEKUVXTI6SA17JG","","img/set1/S4.jpg","74","4","random","74","random,structured_incentive,structured_load,structured_normal","2,3,1,2,4,2","2,4,3,1","true","","",""
"null","","html-keyboard-response","338","832653","0.0-338.0","3Z7ISHFUH1HQY1S4XDUPO6YDUY7Z80","A1PLQGQ95NICAF","3G9UA71JVVGUCOKNEKUVXTI6SA17JG","","<img src=""img/set1/S4.jpg"" width=""540"" height = ""360"" style=""border:16px solid orange"">","null","","","","","","","","","",""
"null","","html-keyboard-response","339","832859","0.0-339.0","3Z7ISHFUH1HQY1S4XDUPO6YDUY7Z80","A1PLQGQ95NICAF","3G9UA71JVVGUCOKNEKUVXTI6SA17JG","","","null","","","","","","","","","",""
"554","","image-keyboard-response","340","833414","0.0-340.0","3Z7ISHFUH1HQY1S4XDUPO6YDUY7Z80","A1PLQGQ95NICAF","3G9UA71JVVGUCOKNEKUVXTI6SA17JG","","img/set1/S4.jpg","74","4","random","74","random,structured_incentive,structured_load,structured_normal","2,3,1,2,4,2","2,4,3,1","true","","",""
"null","","html-keyboard-response","341","833769","0.0-341.0","3Z7ISHFUH1HQY1S4XDUPO6YDUY7Z80","A1PLQGQ95NICAF","3G9UA71JVVGUCOKNEKUVXTI6SA17JG","","<img src=""img/set1/S4.jpg"" width=""540"" height = ""360"" style=""border:16px solid orange"">","null","","","","","","","","","",""
"null","","html-keyboard-response","342","833976","0.0-342.0","3Z7ISHFUH1HQY1S4XDUPO6YDUY7Z80","A1PLQGQ95NICAF","3G9UA71JVVGUCOKNEKUVXTI6SA17JG","","","null","","","","","","","","","",""
"605","","image-keyboard-response","343","834582","0.0-343.0","3Z7ISHFUH1HQY1S4XDUPO6YDUY7Z80","A1PLQGQ95NICAF","3G9UA71JVVGUCOKNEKUVXTI6SA17JG","","img/set1/S2.jpg","68","2","random","68","random,structured_incentive,structured_load,structured_normal","2,3,1,2,4,2","2,4,3,1","true","","",""
"null","","html-keyboard-response","344","834939","0.0-344.0","3Z7ISHFUH1HQY1S4XDUPO6YDUY7Z80","A1PLQGQ95NICAF","3G9UA71JVVGUCOKNEKUVXTI6SA17JG","","<img src=""img/set1/S2.jpg"" width=""540"" height = ""360"" style=""border:16px solid orange"">","null","","","","","","","","","",""
"null","","html-keyboard-response","345","835146","0.0-345.0","3Z7ISHFUH1HQY1S4XDUPO6YDUY7Z80","A1PLQGQ95NICAF","3G9UA71JVVGUCOKNEKUVXTI6SA17JG","","","null","","","","","","","","","",""
"426","","image-keyboard-response","346","835574","0.0-346.0","3Z7ISHFUH1HQY1S4XDUPO6YDUY7Z80","A1PLQGQ95NICAF","3G9UA71JVVGUCOKNEKUVXTI6SA17JG","","img/set1/S2.jpg","68","2","random","68","random,structured_incentive,structured_load,structured_normal","2,3,1,2,4,2","2,4,3,1","true","","",""
"null","","html-keyboard-response","347","835930","0.0-347.0","3Z7ISHFUH1HQY1S4XDUPO6YDUY7Z80","A1PLQGQ95NICAF","3G9UA71JVVGUCOKNEKUVXTI6SA17JG","","<img src=""img/set1/S2.jpg"" width=""540"" height = ""360"" style=""border:16px solid orange"">","null","","","","","","","","","",""
"null","","html-keyboard-response","348","836136","0.0-348.0","3Z7ISHFUH1HQY1S4XDUPO6YDUY7Z80","A1PLQGQ95NICAF","3G9UA71JVVGUCOKNEKUVXTI6SA17JG","","","null","","","","","","","","","",""
"560","","image-keyboard-response","349","836698","0.0-349.0","3Z7ISHFUH1HQY1S4XDUPO6YDUY7Z80","A1PLQGQ95NICAF","3G9UA71JVVGUCOKNEKUVXTI6SA17JG","","img/set1/S1.jpg","83","1","random","83","random,structured_incentive,structured_load,structured_normal","2,3,1,2,4,2","2,4,3,1","true","","",""
"null","","html-keyboard-response","350","837051","0.0-350.0","3Z7ISHFUH1HQY1S4XDUPO6YDUY7Z80","A1PLQGQ95NICAF","3G9UA71JVVGUCOKNEKUVXTI6SA17JG","","<img src=""img/set1/S1.jpg"" width=""540"" height = ""360"" style=""border:16px solid orange"">","null","","","","","","","","","",""
"null","","html-keyboard-response","351","837255","0.0-351.0","3Z7ISHFUH1HQY1S4XDUPO6YDUY7Z80","A1PLQGQ95NICAF","3G9UA71JVVGUCOKNEKUVXTI6SA17JG","","","null","","","","","","","","","",""
"521","","image-keyboard-response","352","837778","0.0-352.0","3Z7ISHFUH1HQY1S4XDUPO6YDUY7Z80","A1PLQGQ95NICAF","3G9UA71JVVGUCOKNEKUVXTI6SA17JG","","img/set1/S3.jpg","68","3","random","72","random,structured_incentive,structured_load,structured_normal","2,3,1,2,4,2","2,4,3,1","false","","",""
"null","","html-keyboard-response","353","838134","0.0-353.0","3Z7ISHFUH1HQY1S4XDUPO6YDUY7Z80","A1PLQGQ95NICAF","3G9UA71JVVGUCOKNEKUVXTI6SA17JG","","<img src=""img/set1/S3.jpg"" width=""540"" height = ""360"">","null","","","","","","","","","",""
"null","","html-keyboard-response","354","838342","0.0-354.0","3Z7ISHFUH1HQY1S4XDUPO6YDUY7Z80","A1PLQGQ95NICAF","3G9UA71JVVGUCOKNEKUVXTI6SA17JG","","","null","","","","","","","","","",""
"695","","image-keyboard-response","355","839039","0.0-355.0","3Z7ISHFUH1HQY1S4XDUPO6YDUY7Z80","A1PLQGQ95NICAF","3G9UA71JVVGUCOKNEKUVXTI6SA17JG","","img/set1/S2.jpg","68","2","random","68","random,structured_incentive,structured_load,structured_normal","2,3,1,2,4,2","2,4,3,1","true","","",""
"null","","html-keyboard-response","356","839396","0.0-356.0","3Z7ISHFUH1HQY1S4XDUPO6YDUY7Z80","A1PLQGQ95NICAF","3G9UA71JVVGUCOKNEKUVXTI6SA17JG","","<img src=""img/set1/S2.jpg"" width=""540"" height = ""360"" style=""border:16px solid orange"">","null","","","","","","","","","",""
"null","","html-keyboard-response","357","839603","0.0-357.0","3Z7ISHFUH1HQY1S4XDUPO6YDUY7Z80","A1PLQGQ95NICAF","3G9UA71JVVGUCOKNEKUVXTI6SA17JG","","","null","","","","","","","","","",""
"409","","image-keyboard-response","358","840015","0.0-358.0","3Z7ISHFUH1HQY1S4XDUPO6YDUY7Z80","A1PLQGQ95NICAF","3G9UA71JVVGUCOKNEKUVXTI6SA17JG","","img/set1/S2.jpg","68","2","random","68","random,structured_incentive,structured_load,structured_normal","2,3,1,2,4,2","2,4,3,1","true","","",""
"null","","html-keyboard-response","359","840370","0.0-359.0","3Z7ISHFUH1HQY1S4XDUPO6YDUY7Z80","A1PLQGQ95NICAF","3G9UA71JVVGUCOKNEKUVXTI6SA17JG","","<img src=""img/set1/S2.jpg"" width=""540"" height = ""360"" style=""border:16px solid orange"">","null","","","","","","","","","",""
"null","","html-keyboard-response","360","840576","0.0-360.0","3Z7ISHFUH1HQY1S4XDUPO6YDUY7Z80","A1PLQGQ95NICAF","3G9UA71JVVGUCOKNEKUVXTI6SA17JG","","","null","","","","","","","","","",""
"412","","image-keyboard-response","361","840989","0.0-361.0","3Z7ISHFUH1HQY1S4XDUPO6YDUY7Z80","A1PLQGQ95NICAF","3G9UA71JVVGUCOKNEKUVXTI6SA17JG","","img/set1/S2.jpg","68","2","random","68","random,structured_incentive,structured_load,structured_normal","2,3,1,2,4,2","2,4,3,1","true","","",""
"null","","html-keyboard-response","362","841343","0.0-362.0","3Z7ISHFUH1HQY1S4XDUPO6YDUY7Z80","A1PLQGQ95NICAF","3G9UA71JVVGUCOKNEKUVXTI6SA17JG","","<img src=""img/set1/S2.jpg"" width=""540"" height = ""360"" style=""border:16px solid orange"">","null","","","","","","","","","",""
"null","","html-keyboard-response","363","841545","0.0-363.0","3Z7ISHFUH1HQY1S4XDUPO6YDUY7Z80","A1PLQGQ95NICAF","3G9UA71JVVGUCOKNEKUVXTI6SA17JG","","","null","","","","","","","","","",""
"401","","image-keyboard-response","364","841949","0.0-364.0","3Z7ISHFUH1HQY1S4XDUPO6YDUY7Z80","A1PLQGQ95NICAF","3G9UA71JVVGUCOKNEKUVXTI6SA17JG","","img/set1/S2.jpg","68","2","random","68","random,structured_incentive,structured_load,structured_normal","2,3,1,2,4,2","2,4,3,1","true","","",""
"null","","html-keyboard-response","365","842302","0.0-365.0","3Z7ISHFUH1HQY1S4XDUPO6YDUY7Z80","A1PLQGQ95NICAF","3G9UA71JVVGUCOKNEKUVXTI6SA17JG","","<img src=""img/set1/S2.jpg"" width=""540"" height = ""360"" style=""border:16px solid orange"">","null","","","","","","","","","",""
"null","","html-keyboard-response","366","842509","0.0-366.0","3Z7ISHFUH1HQY1S4XDUPO6YDUY7Z80","A1PLQGQ95NICAF","3G9UA71JVVGUCOKNEKUVXTI6SA17JG","","","null","","","","","","","","","",""
"667","","image-keyboard-response","367","843179","0.0-367.0","3Z7ISHFUH1HQY1S4XDUPO6YDUY7Z80","A1PLQGQ95NICAF","3G9UA71JVVGUCOKNEKUVXTI6SA17JG","","img/set1/S4.jpg","74","4","random","74","random,structured_incentive,structured_load,structured_normal","2,3,1,2,4,2","2,4,3,1","true","","",""
"null","","html-keyboard-response","368","843537","0.0-368.0","3Z7ISHFUH1HQY1S4XDUPO6YDUY7Z80","A1PLQGQ95NICAF","3G9UA71JVVGUCOKNEKUVXTI6SA17JG","","<img src=""img/set1/S4.jpg"" width=""540"" height = ""360"" style=""border:16px solid orange"">","null","","","","","","","","","",""
"null","","html-keyboard-response","369","843738","0.0-369.0","3Z7ISHFUH1HQY1S4XDUPO6YDUY7Z80","A1PLQGQ95NICAF","3G9UA71JVVGUCOKNEKUVXTI6SA17JG","","","null","","","","","","","","","",""
"368","","image-keyboard-response","370","844109","0.0-370.0","3Z7ISHFUH1HQY1S4XDUPO6YDUY7Z80","A1PLQGQ95NICAF","3G9UA71JVVGUCOKNEKUVXTI6SA17JG","","img/set1/S4.jpg","74","4","random","74","random,structured_incentive,structured_load,structured_normal","2,3,1,2,4,2","2,4,3,1","true","","",""
"null","","html-keyboard-response","371","844466","0.0-371.0","3Z7ISHFUH1HQY1S4XDUPO6YDUY7Z80","A1PLQGQ95NICAF","3G9UA71JVVGUCOKNEKUVXTI6SA17JG","","<img src=""img/set1/S4.jpg"" width=""540"" height = ""360"" style=""border:16px solid orange"">","null","","","","","","","","","",""
"null","","html-keyboard-response","372","844668","0.0-372.0","3Z7ISHFUH1HQY1S4XDUPO6YDUY7Z80","A1PLQGQ95NICAF","3G9UA71JVVGUCOKNEKUVXTI6SA17JG","","","null","","","","","","","","","",""
"665","","image-keyboard-response","373","845334","0.0-373.0","3Z7ISHFUH1HQY1S4XDUPO6YDUY7Z80","A1PLQGQ95NICAF","3G9UA71JVVGUCOKNEKUVXTI6SA17JG","","img/set1/S1.jpg","83","1","random","83","random,structured_incentive,structured_load,structured_normal","2,3,1,2,4,2","2,4,3,1","true","","",""
"null","","html-keyboard-response","374","845691","0.0-374.0","3Z7ISHFUH1HQY1S4XDUPO6YDUY7Z80","A1PLQGQ95NICAF","3G9UA71JVVGUCOKNEKUVXTI6SA17JG","","<img src=""img/set1/S1.jpg"" width=""540"" height = ""360"" style=""border:16px solid orange"">","null","","","","","","","","","",""
"null","","html-keyboard-response","375","845897","0.0-375.0","3Z7ISHFUH1HQY1S4XDUPO6YDUY7Z80","A1PLQGQ95NICAF","3G9UA71JVVGUCOKNEKUVXTI6SA17JG","","","null","","","","","","","","","",""
"593","","image-keyboard-response","376","846493","0.0-376.0","3Z7ISHFUH1HQY1S4XDUPO6YDUY7Z80","A1PLQGQ95NICAF","3G9UA71JVVGUCOKNEKUVXTI6SA17JG","","img/set1/S3.jpg","72","3","random","72","random,structured_incentive,structured_load,structured_normal","2,3,1,2,4,2","2,4,3,1","true","","",""
"null","","html-keyboard-response","377","846847","0.0-377.0","3Z7ISHFUH1HQY1S4XDUPO6YDUY7Z80","A1PLQGQ95NICAF","3G9UA71JVVGUCOKNEKUVXTI6SA17JG","","<img src=""img/set1/S3.jpg"" width=""540"" height = ""360"" style=""border:16px solid orange"">","null","","","","","","","","","",""
"null","","html-keyboard-response","378","847053","0.0-378.0","3Z7ISHFUH1HQY1S4XDUPO6YDUY7Z80","A1PLQGQ95NICAF","3G9UA71JVVGUCOKNEKUVXTI6SA17JG","","","null","","","","","","","","","",""
"474","","image-keyboard-response","379","847528","0.0-379.0","3Z7ISHFUH1HQY1S4XDUPO6YDUY7Z80","A1PLQGQ95NICAF","3G9UA71JVVGUCOKNEKUVXTI6SA17JG","","img/set1/S3.jpg","72","3","random","72","random,structured_incentive,structured_load,structured_normal","2,3,1,2,4,2","2,4,3,1","true","","",""
"null","","html-keyboard-response","380","847882","0.0-380.0","3Z7ISHFUH1HQY1S4XDUPO6YDUY7Z80","A1PLQGQ95NICAF","3G9UA71JVVGUCOKNEKUVXTI6SA17JG","","<img src=""img/set1/S3.jpg"" width=""540"" height = ""360"" style=""border:16px solid orange"">","null","","","","","","","","","",""
"null","","html-keyboard-response","381","848087","0.0-381.0","3Z7ISHFUH1HQY1S4XDUPO6YDUY7Z80","A1PLQGQ95NICAF","3G9UA71JVVGUCOKNEKUVXTI6SA17JG","","","null","","","","","","","","","",""
"472","","image-keyboard-response","382","848560","0.0-382.0","3Z7ISHFUH1HQY1S4XDUPO6YDUY7Z80","A1PLQGQ95NICAF","3G9UA71JVVGUCOKNEKUVXTI6SA17JG","","img/set1/S4.jpg","74","4","random","74","random,structured_incentive,structured_load,structured_normal","2,3,1,2,4,2","2,4,3,1","true","","",""
"null","","html-keyboard-response","383","848916","0.0-383.0","3Z7ISHFUH1HQY1S4XDUPO6YDUY7Z80","A1PLQGQ95NICAF","3G9UA71JVVGUCOKNEKUVXTI6SA17JG","","<img src=""img/set1/S4.jpg"" width=""540"" height = ""360"" style=""border:16px solid orange"">","null","","","","","","","","","",""
"null","","html-keyboard-response","384","849123","0.0-384.0","3Z7ISHFUH1HQY1S4XDUPO6YDUY7Z80","A1PLQGQ95NICAF","3G9UA71JVVGUCOKNEKUVXTI6SA17JG","","","null","","","","","","","","","",""
"383","","image-keyboard-response","385","849509","0.0-385.0","3Z7ISHFUH1HQY1S4XDUPO6YDUY7Z80","A1PLQGQ95NICAF","3G9UA71JVVGUCOKNEKUVXTI6SA17JG","","img/set1/S3.jpg","72","3","random","72","random,structured_incentive,structured_load,structured_normal","2,3,1,2,4,2","2,4,3,1","true","","",""
"null","","html-keyboard-response","386","849867","0.0-386.0","3Z7ISHFUH1HQY1S4XDUPO6YDUY7Z80","A1PLQGQ95NICAF","3G9UA71JVVGUCOKNEKUVXTI6SA17JG","","<img src=""img/set1/S3.jpg"" width=""540"" height = ""360"" style=""border:16px solid orange"">","null","","","","","","","","","",""
"null","","html-keyboard-response","387","850072","0.0-387.0","3Z7ISHFUH1HQY1S4XDUPO6YDUY7Z80","A1PLQGQ95NICAF","3G9UA71JVVGUCOKNEKUVXTI6SA17JG","","","null","","","","","","","","","",""
"575","","image-keyboard-response","388","850648","0.0-388.0","3Z7ISHFUH1HQY1S4XDUPO6YDUY7Z80","A1PLQGQ95NICAF","3G9UA71JVVGUCOKNEKUVXTI6SA17JG","","img/set1/S1.jpg","68","1","random","83","random,structured_incentive,structured_load,structured_normal","2,3,1,2,4,2","2,4,3,1","false","","",""
"null","","html-keyboard-response","389","851006","0.0-389.0","3Z7ISHFUH1HQY1S4XDUPO6YDUY7Z80","A1PLQGQ95NICAF","3G9UA71JVVGUCOKNEKUVXTI6SA17JG","","<img src=""img/set1/S1.jpg"" width=""540"" height = ""360"">","null","","","","","","","","","",""
"null","","html-keyboard-response","390","851213","0.0-390.0","3Z7ISHFUH1HQY1S4XDUPO6YDUY7Z80","A1PLQGQ95NICAF","3G9UA71JVVGUCOKNEKUVXTI6SA17JG","","","null","","","","","","","","","",""
"571","","image-keyboard-response","391","851785","0.0-391.0","3Z7ISHFUH1HQY1S4XDUPO6YDUY7Z80","A1PLQGQ95NICAF","3G9UA71JVVGUCOKNEKUVXTI6SA17JG","","img/set1/S2.jpg","68","2","random","68","random,structured_incentive,structured_load,structured_normal","2,3,1,2,4,2","2,4,3,1","true","","",""
"null","","html-keyboard-response","392","852142","0.0-392.0","3Z7ISHFUH1HQY1S4XDUPO6YDUY7Z80","A1PLQGQ95NICAF","3G9UA71JVVGUCOKNEKUVXTI6SA17JG","","<img src=""img/set1/S2.jpg"" width=""540"" height = ""360"" style=""border:16px solid orange"">","null","","","","","","","","","",""
"null","","html-keyboard-response","393","852345","0.0-393.0","3Z7ISHFUH1HQY1S4XDUPO6YDUY7Z80","A1PLQGQ95NICAF","3G9UA71JVVGUCOKNEKUVXTI6SA17JG","","","null","","","","","","","","","",""
