"rt","url","trial_type","trial_index","time_elapsed","internal_node_id","assignmentID","mturkID","hitID","view_history","stimulus","key_press","state","test_part","correct_response","order_block","order_chunk","order_freq","correct","responses","question_order","bonus"
"214145","consent.html","external-html","0","214611","0.0-0.0","3NS0A6KXC5U5RGYMGB6DGJFBIHLGZY","A1R1E7TZ9OHFIG","3URJ6VVYUP9BUCT1SZOT2DFI02L4OC","","","","","","","","","","","","",""
"189350","","instructions","1","403964","0.0-1.0","3NS0A6KXC5U5RGYMGB6DGJFBIHLGZY","A1R1E7TZ9OHFIG","3URJ6VVYUP9BUCT1SZOT2DFI02L4OC","[{""page_index"":0,""viewing_time"":12726},{""page_index"":1,""viewing_time"":33587},{""page_index"":2,""viewing_time"":17994},{""page_index"":3,""viewing_time"":24038},{""page_index"":4,""viewing_time"":29789},{""page_index"":5,""viewing_time"":42399},{""page_index"":6,""viewing_time"":28815}]","","","","","","","","","","","",""
"30464","","instructions","2","434430","0.0-2.0","3NS0A6KXC5U5RGYMGB6DGJFBIHLGZY","A1R1E7TZ9OHFIG","3URJ6VVYUP9BUCT1SZOT2DFI02L4OC","[{""page_index"":0,""viewing_time"":30463}]","","","","","","","","","","","",""
"9339","","instructions","3","443771","0.0-3.0","3NS0A6KXC5U5RGYMGB6DGJFBIHLGZY","A1R1E7TZ9OHFIG","3URJ6VVYUP9BUCT1SZOT2DFI02L4OC","[{""page_index"":0,""viewing_time"":9339}]","","","","","","","","","","","",""
"null","","image-keyboard-response","4","446276","0.0-4.0","3NS0A6KXC5U5RGYMGB6DGJFBIHLGZY","A1R1E7TZ9OHFIG","3URJ6VVYUP9BUCT1SZOT2DFI02L4OC","","img/set1/S1.jpg","null","1","structured_normal","83","structured_normal,structured_incentive,random,structured_load","1,2,4,2,2,3","2,4,1,3","false","","",""
"null","","html-keyboard-response","5","446634","0.0-5.0","3NS0A6KXC5U5RGYMGB6DGJFBIHLGZY","A1R1E7TZ9OHFIG","3URJ6VVYUP9BUCT1SZOT2DFI02L4OC","","<img src=""img/set1/S1.jpg"" width=""540"" height = ""360"">","null","","","","","","","","","",""
"null","","html-keyboard-response","6","446836","0.0-6.0","3NS0A6KXC5U5RGYMGB6DGJFBIHLGZY","A1R1E7TZ9OHFIG","3URJ6VVYUP9BUCT1SZOT2DFI02L4OC","","","null","","","","","","","","","",""
"679","","image-keyboard-response","7","447522","0.0-7.0","3NS0A6KXC5U5RGYMGB6DGJFBIHLGZY","A1R1E7TZ9OHFIG","3URJ6VVYUP9BUCT1SZOT2DFI02L4OC","","img/set1/S4.jpg","83","4","structured_normal","74","structured_normal,structured_incentive,random,structured_load","1,2,4,2,2,3","2,4,1,3","false","","",""
"null","","html-keyboard-response","8","447875","0.0-8.0","3NS0A6KXC5U5RGYMGB6DGJFBIHLGZY","A1R1E7TZ9OHFIG","3URJ6VVYUP9BUCT1SZOT2DFI02L4OC","","<img src=""img/set1/S4.jpg"" width=""540"" height = ""360"">","null","","","","","","","","","",""
"null","","html-keyboard-response","9","448075","0.0-9.0","3NS0A6KXC5U5RGYMGB6DGJFBIHLGZY","A1R1E7TZ9OHFIG","3URJ6VVYUP9BUCT1SZOT2DFI02L4OC","","","null","","","","","","","","","",""
"770","","image-keyboard-response","10","448847","0.0-10.0","3NS0A6KXC5U5RGYMGB6DGJFBIHLGZY","A1R1E7TZ9OHFIG","3URJ6VVYUP9BUCT1SZOT2DFI02L4OC","","img/set1/S4.jpg","68","4","structured_normal","74","structured_normal,structured_incentive,random,structured_load","1,2,4,2,2,3","2,4,1,3","false","","",""
"null","","html-keyboard-response","11","449199","0.0-11.0","3NS0A6KXC5U5RGYMGB6DGJFBIHLGZY","A1R1E7TZ9OHFIG","3URJ6VVYUP9BUCT1SZOT2DFI02L4OC","","<img src=""img/set1/S4.jpg"" width=""540"" height = ""360"">","null","","","","","","","","","",""
"null","","html-keyboard-response","12","449404","0.0-12.0","3NS0A6KXC5U5RGYMGB6DGJFBIHLGZY","A1R1E7TZ9OHFIG","3URJ6VVYUP9BUCT1SZOT2DFI02L4OC","","","null","","","","","","","","","",""
"64","","image-keyboard-response","13","449470","0.0-13.0","3NS0A6KXC5U5RGYMGB6DGJFBIHLGZY","A1R1E7TZ9OHFIG","3URJ6VVYUP9BUCT1SZOT2DFI02L4OC","","img/set1/S3.jpg","74","3","structured_normal","72","structured_normal,structured_incentive,random,structured_load","1,2,4,2,2,3","2,4,1,3","false","","",""
"null","","html-keyboard-response","14","449823","0.0-14.0","3NS0A6KXC5U5RGYMGB6DGJFBIHLGZY","A1R1E7TZ9OHFIG","3URJ6VVYUP9BUCT1SZOT2DFI02L4OC","","<img src=""img/set1/S3.jpg"" width=""540"" height = ""360"">","null","","","","","","","","","",""
"null","","html-keyboard-response","15","450073","0.0-15.0","3NS0A6KXC5U5RGYMGB6DGJFBIHLGZY","A1R1E7TZ9OHFIG","3URJ6VVYUP9BUCT1SZOT2DFI02L4OC","","","null","","","","","","","","","",""
"901","","image-keyboard-response","16","450976","0.0-16.0","3NS0A6KXC5U5RGYMGB6DGJFBIHLGZY","A1R1E7TZ9OHFIG","3URJ6VVYUP9BUCT1SZOT2DFI02L4OC","","img/set1/S1.jpg","83","1","structured_normal","83","structured_normal,structured_incentive,random,structured_load","1,2,4,2,2,3","2,4,1,3","true","","",""
"null","","html-keyboard-response","17","451327","0.0-17.0","3NS0A6KXC5U5RGYMGB6DGJFBIHLGZY","A1R1E7TZ9OHFIG","3URJ6VVYUP9BUCT1SZOT2DFI02L4OC","","<img src=""img/set1/S1.jpg"" width=""540"" height = ""360"" style=""border:16px solid orange"">","null","","","","","","","","","",""
"null","","html-keyboard-response","18","451531","0.0-18.0","3NS0A6KXC5U5RGYMGB6DGJFBIHLGZY","A1R1E7TZ9OHFIG","3URJ6VVYUP9BUCT1SZOT2DFI02L4OC","","","null","","","","","","","","","",""
"651","","image-keyboard-response","19","452184","0.0-19.0","3NS0A6KXC5U5RGYMGB6DGJFBIHLGZY","A1R1E7TZ9OHFIG","3URJ6VVYUP9BUCT1SZOT2DFI02L4OC","","img/set1/S2.jpg","83","2","structured_normal","68","structured_normal,structured_incentive,random,structured_load","1,2,4,2,2,3","2,4,1,3","false","","",""
"null","","html-keyboard-response","20","452537","0.0-20.0","3NS0A6KXC5U5RGYMGB6DGJFBIHLGZY","A1R1E7TZ9OHFIG","3URJ6VVYUP9BUCT1SZOT2DFI02L4OC","","<img src=""img/set1/S2.jpg"" width=""540"" height = ""360"">","null","","","","","","","","","",""
"null","","html-keyboard-response","21","452739","0.0-21.0","3NS0A6KXC5U5RGYMGB6DGJFBIHLGZY","A1R1E7TZ9OHFIG","3URJ6VVYUP9BUCT1SZOT2DFI02L4OC","","","null","","","","","","","","","",""
"516","","image-keyboard-response","22","453257","0.0-22.0","3NS0A6KXC5U5RGYMGB6DGJFBIHLGZY","A1R1E7TZ9OHFIG","3URJ6VVYUP9BUCT1SZOT2DFI02L4OC","","img/set1/S3.jpg","72","3","structured_normal","72","structured_normal,structured_incentive,random,structured_load","1,2,4,2,2,3","2,4,1,3","true","","",""
"null","","html-keyboard-response","23","453609","0.0-23.0","3NS0A6KXC5U5RGYMGB6DGJFBIHLGZY","A1R1E7TZ9OHFIG","3URJ6VVYUP9BUCT1SZOT2DFI02L4OC","","<img src=""img/set1/S3.jpg"" width=""540"" height = ""360"" style=""border:16px solid orange"">","null","","","","","","","","","",""
"null","","html-keyboard-response","24","453810","0.0-24.0","3NS0A6KXC5U5RGYMGB6DGJFBIHLGZY","A1R1E7TZ9OHFIG","3URJ6VVYUP9BUCT1SZOT2DFI02L4OC","","","null","","","","","","","","","",""
"1604","","image-keyboard-response","25","455416","0.0-25.0","3NS0A6KXC5U5RGYMGB6DGJFBIHLGZY","A1R1E7TZ9OHFIG","3URJ6VVYUP9BUCT1SZOT2DFI02L4OC","","img/set1/S3.jpg","74","3","structured_normal","72","structured_normal,structured_incentive,random,structured_load","1,2,4,2,2,3","2,4,1,3","false","","",""
"null","","html-keyboard-response","26","455769","0.0-26.0","3NS0A6KXC5U5RGYMGB6DGJFBIHLGZY","A1R1E7TZ9OHFIG","3URJ6VVYUP9BUCT1SZOT2DFI02L4OC","","<img src=""img/set1/S3.jpg"" width=""540"" height = ""360"">","null","","","","","","","","","",""
"null","","html-keyboard-response","27","455969","0.0-27.0","3NS0A6KXC5U5RGYMGB6DGJFBIHLGZY","A1R1E7TZ9OHFIG","3URJ6VVYUP9BUCT1SZOT2DFI02L4OC","","","null","","","","","","","","","",""
"436","","image-keyboard-response","28","456406","0.0-28.0","3NS0A6KXC5U5RGYMGB6DGJFBIHLGZY","A1R1E7TZ9OHFIG","3URJ6VVYUP9BUCT1SZOT2DFI02L4OC","","img/set1/S3.jpg","72","3","structured_normal","72","structured_normal,structured_incentive,random,structured_load","1,2,4,2,2,3","2,4,1,3","true","","",""
"null","","html-keyboard-response","29","456758","0.0-29.0","3NS0A6KXC5U5RGYMGB6DGJFBIHLGZY","A1R1E7TZ9OHFIG","3URJ6VVYUP9BUCT1SZOT2DFI02L4OC","","<img src=""img/set1/S3.jpg"" width=""540"" height = ""360"" style=""border:16px solid orange"">","null","","","","","","","","","",""
"null","","html-keyboard-response","30","456961","0.0-30.0","3NS0A6KXC5U5RGYMGB6DGJFBIHLGZY","A1R1E7TZ9OHFIG","3URJ6VVYUP9BUCT1SZOT2DFI02L4OC","","","null","","","","","","","","","",""
"782","","image-keyboard-response","31","457745","0.0-31.0","3NS0A6KXC5U5RGYMGB6DGJFBIHLGZY","A1R1E7TZ9OHFIG","3URJ6VVYUP9BUCT1SZOT2DFI02L4OC","","img/set1/S1.jpg","68","1","structured_normal","83","structured_normal,structured_incentive,random,structured_load","1,2,4,2,2,3","2,4,1,3","false","","",""
"null","","html-keyboard-response","32","458096","0.0-32.0","3NS0A6KXC5U5RGYMGB6DGJFBIHLGZY","A1R1E7TZ9OHFIG","3URJ6VVYUP9BUCT1SZOT2DFI02L4OC","","<img src=""img/set1/S1.jpg"" width=""540"" height = ""360"">","null","","","","","","","","","",""
"null","","html-keyboard-response","33","458299","0.0-33.0","3NS0A6KXC5U5RGYMGB6DGJFBIHLGZY","A1R1E7TZ9OHFIG","3URJ6VVYUP9BUCT1SZOT2DFI02L4OC","","","null","","","","","","","","","",""
"539","","image-keyboard-response","34","458840","0.0-34.0","3NS0A6KXC5U5RGYMGB6DGJFBIHLGZY","A1R1E7TZ9OHFIG","3URJ6VVYUP9BUCT1SZOT2DFI02L4OC","","img/set1/S2.jpg","83","2","structured_normal","68","structured_normal,structured_incentive,random,structured_load","1,2,4,2,2,3","2,4,1,3","false","","",""
"null","","html-keyboard-response","35","459192","0.0-35.0","3NS0A6KXC5U5RGYMGB6DGJFBIHLGZY","A1R1E7TZ9OHFIG","3URJ6VVYUP9BUCT1SZOT2DFI02L4OC","","<img src=""img/set1/S2.jpg"" width=""540"" height = ""360"">","null","","","","","","","","","",""
"null","","html-keyboard-response","36","459393","0.0-36.0","3NS0A6KXC5U5RGYMGB6DGJFBIHLGZY","A1R1E7TZ9OHFIG","3URJ6VVYUP9BUCT1SZOT2DFI02L4OC","","","null","","","","","","","","","",""
"559","","image-keyboard-response","37","459954","0.0-37.0","3NS0A6KXC5U5RGYMGB6DGJFBIHLGZY","A1R1E7TZ9OHFIG","3URJ6VVYUP9BUCT1SZOT2DFI02L4OC","","img/set1/S3.jpg","74","3","structured_normal","72","structured_normal,structured_incentive,random,structured_load","1,2,4,2,2,3","2,4,1,3","false","","",""
"null","","html-keyboard-response","38","460305","0.0-38.0","3NS0A6KXC5U5RGYMGB6DGJFBIHLGZY","A1R1E7TZ9OHFIG","3URJ6VVYUP9BUCT1SZOT2DFI02L4OC","","<img src=""img/set1/S3.jpg"" width=""540"" height = ""360"">","null","","","","","","","","","",""
"null","","html-keyboard-response","39","460506","0.0-39.0","3NS0A6KXC5U5RGYMGB6DGJFBIHLGZY","A1R1E7TZ9OHFIG","3URJ6VVYUP9BUCT1SZOT2DFI02L4OC","","","null","","","","","","","","","",""
"460","","image-keyboard-response","40","460968","0.0-40.0","3NS0A6KXC5U5RGYMGB6DGJFBIHLGZY","A1R1E7TZ9OHFIG","3URJ6VVYUP9BUCT1SZOT2DFI02L4OC","","img/set1/S4.jpg","72","4","structured_normal","74","structured_normal,structured_incentive,random,structured_load","1,2,4,2,2,3","2,4,1,3","false","","",""
"null","","html-keyboard-response","41","461382","0.0-41.0","3NS0A6KXC5U5RGYMGB6DGJFBIHLGZY","A1R1E7TZ9OHFIG","3URJ6VVYUP9BUCT1SZOT2DFI02L4OC","","<img src=""img/set1/S4.jpg"" width=""540"" height = ""360"">","null","","","","","","","","","",""
"null","","html-keyboard-response","42","461586","0.0-42.0","3NS0A6KXC5U5RGYMGB6DGJFBIHLGZY","A1R1E7TZ9OHFIG","3URJ6VVYUP9BUCT1SZOT2DFI02L4OC","","","null","","","","","","","","","",""
"580","","image-keyboard-response","43","462168","0.0-43.0","3NS0A6KXC5U5RGYMGB6DGJFBIHLGZY","A1R1E7TZ9OHFIG","3URJ6VVYUP9BUCT1SZOT2DFI02L4OC","","img/set1/S3.jpg","74","3","structured_normal","72","structured_normal,structured_incentive,random,structured_load","1,2,4,2,2,3","2,4,1,3","false","","",""
"null","","html-keyboard-response","44","462521","0.0-44.0","3NS0A6KXC5U5RGYMGB6DGJFBIHLGZY","A1R1E7TZ9OHFIG","3URJ6VVYUP9BUCT1SZOT2DFI02L4OC","","<img src=""img/set1/S3.jpg"" width=""540"" height = ""360"">","null","","","","","","","","","",""
"null","","html-keyboard-response","45","462722","0.0-45.0","3NS0A6KXC5U5RGYMGB6DGJFBIHLGZY","A1R1E7TZ9OHFIG","3URJ6VVYUP9BUCT1SZOT2DFI02L4OC","","","null","","","","","","","","","",""
"486","","image-keyboard-response","46","463210","0.0-46.0","3NS0A6KXC5U5RGYMGB6DGJFBIHLGZY","A1R1E7TZ9OHFIG","3URJ6VVYUP9BUCT1SZOT2DFI02L4OC","","img/set1/S2.jpg","72","2","structured_normal","68","structured_normal,structured_incentive,random,structured_load","1,2,4,2,2,3","2,4,1,3","false","","",""
"null","","html-keyboard-response","47","463562","0.0-47.0","3NS0A6KXC5U5RGYMGB6DGJFBIHLGZY","A1R1E7TZ9OHFIG","3URJ6VVYUP9BUCT1SZOT2DFI02L4OC","","<img src=""img/set1/S2.jpg"" width=""540"" height = ""360"">","null","","","","","","","","","",""
"null","","html-keyboard-response","48","463763","0.0-48.0","3NS0A6KXC5U5RGYMGB6DGJFBIHLGZY","A1R1E7TZ9OHFIG","3URJ6VVYUP9BUCT1SZOT2DFI02L4OC","","","null","","","","","","","","","",""
"679","","image-keyboard-response","49","464444","0.0-49.0","3NS0A6KXC5U5RGYMGB6DGJFBIHLGZY","A1R1E7TZ9OHFIG","3URJ6VVYUP9BUCT1SZOT2DFI02L4OC","","img/set1/S3.jpg","72","3","structured_normal","72","structured_normal,structured_incentive,random,structured_load","1,2,4,2,2,3","2,4,1,3","true","","",""
"null","","html-keyboard-response","50","464797","0.0-50.0","3NS0A6KXC5U5RGYMGB6DGJFBIHLGZY","A1R1E7TZ9OHFIG","3URJ6VVYUP9BUCT1SZOT2DFI02L4OC","","<img src=""img/set1/S3.jpg"" width=""540"" height = ""360"" style=""border:16px solid orange"">","null","","","","","","","","","",""
"null","","html-keyboard-response","51","464997","0.0-51.0","3NS0A6KXC5U5RGYMGB6DGJFBIHLGZY","A1R1E7TZ9OHFIG","3URJ6VVYUP9BUCT1SZOT2DFI02L4OC","","","null","","","","","","","","","",""
"1113","","image-keyboard-response","52","466112","0.0-52.0","3NS0A6KXC5U5RGYMGB6DGJFBIHLGZY","A1R1E7TZ9OHFIG","3URJ6VVYUP9BUCT1SZOT2DFI02L4OC","","img/set1/S4.jpg","74","4","structured_normal","74","structured_normal,structured_incentive,random,structured_load","1,2,4,2,2,3","2,4,1,3","true","","",""
"null","","html-keyboard-response","53","466463","0.0-53.0","3NS0A6KXC5U5RGYMGB6DGJFBIHLGZY","A1R1E7TZ9OHFIG","3URJ6VVYUP9BUCT1SZOT2DFI02L4OC","","<img src=""img/set1/S4.jpg"" width=""540"" height = ""360"" style=""border:16px solid orange"">","null","","","","","","","","","",""
"null","","html-keyboard-response","54","466664","0.0-54.0","3NS0A6KXC5U5RGYMGB6DGJFBIHLGZY","A1R1E7TZ9OHFIG","3URJ6VVYUP9BUCT1SZOT2DFI02L4OC","","","null","","","","","","","","","",""
"576","","image-keyboard-response","55","467242","0.0-55.0","3NS0A6KXC5U5RGYMGB6DGJFBIHLGZY","A1R1E7TZ9OHFIG","3URJ6VVYUP9BUCT1SZOT2DFI02L4OC","","img/set1/S3.jpg","72","3","structured_normal","72","structured_normal,structured_incentive,random,structured_load","1,2,4,2,2,3","2,4,1,3","true","","",""
"null","","html-keyboard-response","56","467677","0.0-56.0","3NS0A6KXC5U5RGYMGB6DGJFBIHLGZY","A1R1E7TZ9OHFIG","3URJ6VVYUP9BUCT1SZOT2DFI02L4OC","","<img src=""img/set1/S3.jpg"" width=""540"" height = ""360"" style=""border:16px solid orange"">","null","","","","","","","","","",""
"null","","html-keyboard-response","57","467913","0.0-57.0","3NS0A6KXC5U5RGYMGB6DGJFBIHLGZY","A1R1E7TZ9OHFIG","3URJ6VVYUP9BUCT1SZOT2DFI02L4OC","","","null","","","","","","","","","",""
"451","","image-keyboard-response","58","468365","0.0-58.0","3NS0A6KXC5U5RGYMGB6DGJFBIHLGZY","A1R1E7TZ9OHFIG","3URJ6VVYUP9BUCT1SZOT2DFI02L4OC","","img/set1/S2.jpg","68","2","structured_normal","68","structured_normal,structured_incentive,random,structured_load","1,2,4,2,2,3","2,4,1,3","true","","",""
"null","","html-keyboard-response","59","468717","0.0-59.0","3NS0A6KXC5U5RGYMGB6DGJFBIHLGZY","A1R1E7TZ9OHFIG","3URJ6VVYUP9BUCT1SZOT2DFI02L4OC","","<img src=""img/set1/S2.jpg"" width=""540"" height = ""360"" style=""border:16px solid orange"">","null","","","","","","","","","",""
"null","","html-keyboard-response","60","468918","0.0-60.0","3NS0A6KXC5U5RGYMGB6DGJFBIHLGZY","A1R1E7TZ9OHFIG","3URJ6VVYUP9BUCT1SZOT2DFI02L4OC","","","null","","","","","","","","","",""
"465","","image-keyboard-response","61","469385","0.0-61.0","3NS0A6KXC5U5RGYMGB6DGJFBIHLGZY","A1R1E7TZ9OHFIG","3URJ6VVYUP9BUCT1SZOT2DFI02L4OC","","img/set1/S4.jpg","83","4","structured_normal","74","structured_normal,structured_incentive,random,structured_load","1,2,4,2,2,3","2,4,1,3","false","","",""
"null","","html-keyboard-response","62","469740","0.0-62.0","3NS0A6KXC5U5RGYMGB6DGJFBIHLGZY","A1R1E7TZ9OHFIG","3URJ6VVYUP9BUCT1SZOT2DFI02L4OC","","<img src=""img/set1/S4.jpg"" width=""540"" height = ""360"">","null","","","","","","","","","",""
"null","","html-keyboard-response","63","469952","0.0-63.0","3NS0A6KXC5U5RGYMGB6DGJFBIHLGZY","A1R1E7TZ9OHFIG","3URJ6VVYUP9BUCT1SZOT2DFI02L4OC","","","null","","","","","","","","","",""
"679","","image-keyboard-response","64","470633","0.0-64.0","3NS0A6KXC5U5RGYMGB6DGJFBIHLGZY","A1R1E7TZ9OHFIG","3URJ6VVYUP9BUCT1SZOT2DFI02L4OC","","img/set1/S1.jpg","83","1","structured_normal","83","structured_normal,structured_incentive,random,structured_load","1,2,4,2,2,3","2,4,1,3","true","","",""
"null","","html-keyboard-response","65","470985","0.0-65.0","3NS0A6KXC5U5RGYMGB6DGJFBIHLGZY","A1R1E7TZ9OHFIG","3URJ6VVYUP9BUCT1SZOT2DFI02L4OC","","<img src=""img/set1/S1.jpg"" width=""540"" height = ""360"" style=""border:16px solid orange"">","null","","","","","","","","","",""
"null","","html-keyboard-response","66","471191","0.0-66.0","3NS0A6KXC5U5RGYMGB6DGJFBIHLGZY","A1R1E7TZ9OHFIG","3URJ6VVYUP9BUCT1SZOT2DFI02L4OC","","","null","","","","","","","","","",""
"646","","image-keyboard-response","67","471838","0.0-67.0","3NS0A6KXC5U5RGYMGB6DGJFBIHLGZY","A1R1E7TZ9OHFIG","3URJ6VVYUP9BUCT1SZOT2DFI02L4OC","","img/set1/S2.jpg","68","2","structured_normal","68","structured_normal,structured_incentive,random,structured_load","1,2,4,2,2,3","2,4,1,3","true","","",""
"null","","html-keyboard-response","68","472195","0.0-68.0","3NS0A6KXC5U5RGYMGB6DGJFBIHLGZY","A1R1E7TZ9OHFIG","3URJ6VVYUP9BUCT1SZOT2DFI02L4OC","","<img src=""img/set1/S2.jpg"" width=""540"" height = ""360"" style=""border:16px solid orange"">","null","","","","","","","","","",""
"null","","html-keyboard-response","69","472398","0.0-69.0","3NS0A6KXC5U5RGYMGB6DGJFBIHLGZY","A1R1E7TZ9OHFIG","3URJ6VVYUP9BUCT1SZOT2DFI02L4OC","","","null","","","","","","","","","",""
"407","","image-keyboard-response","70","472840","0.0-70.0","3NS0A6KXC5U5RGYMGB6DGJFBIHLGZY","A1R1E7TZ9OHFIG","3URJ6VVYUP9BUCT1SZOT2DFI02L4OC","","img/set1/S2.jpg","72","2","structured_normal","68","structured_normal,structured_incentive,random,structured_load","1,2,4,2,2,3","2,4,1,3","false","","",""
"null","","html-keyboard-response","71","473192","0.0-71.0","3NS0A6KXC5U5RGYMGB6DGJFBIHLGZY","A1R1E7TZ9OHFIG","3URJ6VVYUP9BUCT1SZOT2DFI02L4OC","","<img src=""img/set1/S2.jpg"" width=""540"" height = ""360"">","null","","","","","","","","","",""
"null","","html-keyboard-response","72","473393","0.0-72.0","3NS0A6KXC5U5RGYMGB6DGJFBIHLGZY","A1R1E7TZ9OHFIG","3URJ6VVYUP9BUCT1SZOT2DFI02L4OC","","","null","","","","","","","","","",""
"463","","image-keyboard-response","73","473862","0.0-73.0","3NS0A6KXC5U5RGYMGB6DGJFBIHLGZY","A1R1E7TZ9OHFIG","3URJ6VVYUP9BUCT1SZOT2DFI02L4OC","","img/set1/S3.jpg","74","3","structured_normal","72","structured_normal,structured_incentive,random,structured_load","1,2,4,2,2,3","2,4,1,3","false","","",""
"null","","html-keyboard-response","74","474213","0.0-74.0","3NS0A6KXC5U5RGYMGB6DGJFBIHLGZY","A1R1E7TZ9OHFIG","3URJ6VVYUP9BUCT1SZOT2DFI02L4OC","","<img src=""img/set1/S3.jpg"" width=""540"" height = ""360"">","null","","","","","","","","","",""
"null","","html-keyboard-response","75","474416","0.0-75.0","3NS0A6KXC5U5RGYMGB6DGJFBIHLGZY","A1R1E7TZ9OHFIG","3URJ6VVYUP9BUCT1SZOT2DFI02L4OC","","","null","","","","","","","","","",""
"490","","image-keyboard-response","76","474908","0.0-76.0","3NS0A6KXC5U5RGYMGB6DGJFBIHLGZY","A1R1E7TZ9OHFIG","3URJ6VVYUP9BUCT1SZOT2DFI02L4OC","","img/set1/S4.jpg","68","4","structured_normal","74","structured_normal,structured_incentive,random,structured_load","1,2,4,2,2,3","2,4,1,3","false","","",""
"null","","html-keyboard-response","77","475260","0.0-77.0","3NS0A6KXC5U5RGYMGB6DGJFBIHLGZY","A1R1E7TZ9OHFIG","3URJ6VVYUP9BUCT1SZOT2DFI02L4OC","","<img src=""img/set1/S4.jpg"" width=""540"" height = ""360"">","null","","","","","","","","","",""
"null","","html-keyboard-response","78","475461","0.0-78.0","3NS0A6KXC5U5RGYMGB6DGJFBIHLGZY","A1R1E7TZ9OHFIG","3URJ6VVYUP9BUCT1SZOT2DFI02L4OC","","","null","","","","","","","","","",""
"415","","image-keyboard-response","79","475877","0.0-79.0","3NS0A6KXC5U5RGYMGB6DGJFBIHLGZY","A1R1E7TZ9OHFIG","3URJ6VVYUP9BUCT1SZOT2DFI02L4OC","","img/set1/S4.jpg","83","4","structured_normal","74","structured_normal,structured_incentive,random,structured_load","1,2,4,2,2,3","2,4,1,3","false","","",""
"null","","html-keyboard-response","80","476261","0.0-80.0","3NS0A6KXC5U5RGYMGB6DGJFBIHLGZY","A1R1E7TZ9OHFIG","3URJ6VVYUP9BUCT1SZOT2DFI02L4OC","","<img src=""img/set1/S4.jpg"" width=""540"" height = ""360"">","null","","","","","","","","","",""
"null","","html-keyboard-response","81","476474","0.0-81.0","3NS0A6KXC5U5RGYMGB6DGJFBIHLGZY","A1R1E7TZ9OHFIG","3URJ6VVYUP9BUCT1SZOT2DFI02L4OC","","","null","","","","","","","","","",""
"481","","image-keyboard-response","82","476957","0.0-82.0","3NS0A6KXC5U5RGYMGB6DGJFBIHLGZY","A1R1E7TZ9OHFIG","3URJ6VVYUP9BUCT1SZOT2DFI02L4OC","","img/set1/S1.jpg","68","1","structured_normal","83","structured_normal,structured_incentive,random,structured_load","1,2,4,2,2,3","2,4,1,3","false","","",""
"null","","html-keyboard-response","83","477308","0.0-83.0","3NS0A6KXC5U5RGYMGB6DGJFBIHLGZY","A1R1E7TZ9OHFIG","3URJ6VVYUP9BUCT1SZOT2DFI02L4OC","","<img src=""img/set1/S1.jpg"" width=""540"" height = ""360"">","null","","","","","","","","","",""
"null","","html-keyboard-response","84","477509","0.0-84.0","3NS0A6KXC5U5RGYMGB6DGJFBIHLGZY","A1R1E7TZ9OHFIG","3URJ6VVYUP9BUCT1SZOT2DFI02L4OC","","","null","","","","","","","","","",""
"455","","image-keyboard-response","85","477966","0.0-85.0","3NS0A6KXC5U5RGYMGB6DGJFBIHLGZY","A1R1E7TZ9OHFIG","3URJ6VVYUP9BUCT1SZOT2DFI02L4OC","","img/set1/S2.jpg","72","2","structured_normal","68","structured_normal,structured_incentive,random,structured_load","1,2,4,2,2,3","2,4,1,3","false","","",""
"null","","html-keyboard-response","86","478317","0.0-86.0","3NS0A6KXC5U5RGYMGB6DGJFBIHLGZY","A1R1E7TZ9OHFIG","3URJ6VVYUP9BUCT1SZOT2DFI02L4OC","","<img src=""img/set1/S2.jpg"" width=""540"" height = ""360"">","null","","","","","","","","","",""
"null","","html-keyboard-response","87","478523","0.0-87.0","3NS0A6KXC5U5RGYMGB6DGJFBIHLGZY","A1R1E7TZ9OHFIG","3URJ6VVYUP9BUCT1SZOT2DFI02L4OC","","","null","","","","","","","","","",""
"436","","image-keyboard-response","88","478960","0.0-88.0","3NS0A6KXC5U5RGYMGB6DGJFBIHLGZY","A1R1E7TZ9OHFIG","3URJ6VVYUP9BUCT1SZOT2DFI02L4OC","","img/set1/S4.jpg","74","4","structured_normal","74","structured_normal,structured_incentive,random,structured_load","1,2,4,2,2,3","2,4,1,3","true","","",""
"null","","html-keyboard-response","89","479356","0.0-89.0","3NS0A6KXC5U5RGYMGB6DGJFBIHLGZY","A1R1E7TZ9OHFIG","3URJ6VVYUP9BUCT1SZOT2DFI02L4OC","","<img src=""img/set1/S4.jpg"" width=""540"" height = ""360"" style=""border:16px solid orange"">","null","","","","","","","","","",""
"null","","html-keyboard-response","90","479557","0.0-90.0","3NS0A6KXC5U5RGYMGB6DGJFBIHLGZY","A1R1E7TZ9OHFIG","3URJ6VVYUP9BUCT1SZOT2DFI02L4OC","","","null","","","","","","","","","",""
"594","","image-keyboard-response","91","480153","0.0-91.0","3NS0A6KXC5U5RGYMGB6DGJFBIHLGZY","A1R1E7TZ9OHFIG","3URJ6VVYUP9BUCT1SZOT2DFI02L4OC","","img/set1/S3.jpg","74","3","structured_normal","72","structured_normal,structured_incentive,random,structured_load","1,2,4,2,2,3","2,4,1,3","false","","",""
"null","","html-keyboard-response","92","480507","0.0-92.0","3NS0A6KXC5U5RGYMGB6DGJFBIHLGZY","A1R1E7TZ9OHFIG","3URJ6VVYUP9BUCT1SZOT2DFI02L4OC","","<img src=""img/set1/S3.jpg"" width=""540"" height = ""360"">","null","","","","","","","","","",""
"null","","html-keyboard-response","93","480707","0.0-93.0","3NS0A6KXC5U5RGYMGB6DGJFBIHLGZY","A1R1E7TZ9OHFIG","3URJ6VVYUP9BUCT1SZOT2DFI02L4OC","","","null","","","","","","","","","",""
"722","","image-keyboard-response","94","481431","0.0-94.0","3NS0A6KXC5U5RGYMGB6DGJFBIHLGZY","A1R1E7TZ9OHFIG","3URJ6VVYUP9BUCT1SZOT2DFI02L4OC","","img/set1/S1.jpg","74","1","structured_normal","83","structured_normal,structured_incentive,random,structured_load","1,2,4,2,2,3","2,4,1,3","false","","",""
"null","","html-keyboard-response","95","481782","0.0-95.0","3NS0A6KXC5U5RGYMGB6DGJFBIHLGZY","A1R1E7TZ9OHFIG","3URJ6VVYUP9BUCT1SZOT2DFI02L4OC","","<img src=""img/set1/S1.jpg"" width=""540"" height = ""360"">","null","","","","","","","","","",""
"null","","html-keyboard-response","96","481983","0.0-96.0","3NS0A6KXC5U5RGYMGB6DGJFBIHLGZY","A1R1E7TZ9OHFIG","3URJ6VVYUP9BUCT1SZOT2DFI02L4OC","","","null","","","","","","","","","",""
"563","","image-keyboard-response","97","482547","0.0-97.0","3NS0A6KXC5U5RGYMGB6DGJFBIHLGZY","A1R1E7TZ9OHFIG","3URJ6VVYUP9BUCT1SZOT2DFI02L4OC","","img/set1/S2.jpg","68","2","structured_normal","68","structured_normal,structured_incentive,random,structured_load","1,2,4,2,2,3","2,4,1,3","true","","",""
"null","","html-keyboard-response","98","482899","0.0-98.0","3NS0A6KXC5U5RGYMGB6DGJFBIHLGZY","A1R1E7TZ9OHFIG","3URJ6VVYUP9BUCT1SZOT2DFI02L4OC","","<img src=""img/set1/S2.jpg"" width=""540"" height = ""360"" style=""border:16px solid orange"">","null","","","","","","","","","",""
"null","","html-keyboard-response","99","483100","0.0-99.0","3NS0A6KXC5U5RGYMGB6DGJFBIHLGZY","A1R1E7TZ9OHFIG","3URJ6VVYUP9BUCT1SZOT2DFI02L4OC","","","null","","","","","","","","","",""
"838","","image-keyboard-response","100","483940","0.0-100.0","3NS0A6KXC5U5RGYMGB6DGJFBIHLGZY","A1R1E7TZ9OHFIG","3URJ6VVYUP9BUCT1SZOT2DFI02L4OC","","img/set1/S3.jpg","83","3","structured_normal","72","structured_normal,structured_incentive,random,structured_load","1,2,4,2,2,3","2,4,1,3","false","","",""
"null","","html-keyboard-response","101","484308","0.0-101.0","3NS0A6KXC5U5RGYMGB6DGJFBIHLGZY","A1R1E7TZ9OHFIG","3URJ6VVYUP9BUCT1SZOT2DFI02L4OC","","<img src=""img/set1/S3.jpg"" width=""540"" height = ""360"">","null","","","","","","","","","",""
"null","","html-keyboard-response","102","484508","0.0-102.0","3NS0A6KXC5U5RGYMGB6DGJFBIHLGZY","A1R1E7TZ9OHFIG","3URJ6VVYUP9BUCT1SZOT2DFI02L4OC","","","null","","","","","","","","","",""
"755","","image-keyboard-response","103","485265","0.0-103.0","3NS0A6KXC5U5RGYMGB6DGJFBIHLGZY","A1R1E7TZ9OHFIG","3URJ6VVYUP9BUCT1SZOT2DFI02L4OC","","img/set1/S2.jpg","68","2","structured_normal","68","structured_normal,structured_incentive,random,structured_load","1,2,4,2,2,3","2,4,1,3","true","","",""
"null","","html-keyboard-response","104","485616","0.0-104.0","3NS0A6KXC5U5RGYMGB6DGJFBIHLGZY","A1R1E7TZ9OHFIG","3URJ6VVYUP9BUCT1SZOT2DFI02L4OC","","<img src=""img/set1/S2.jpg"" width=""540"" height = ""360"" style=""border:16px solid orange"">","null","","","","","","","","","",""
"null","","html-keyboard-response","105","485817","0.0-105.0","3NS0A6KXC5U5RGYMGB6DGJFBIHLGZY","A1R1E7TZ9OHFIG","3URJ6VVYUP9BUCT1SZOT2DFI02L4OC","","","null","","","","","","","","","",""
"846","","image-keyboard-response","106","486664","0.0-106.0","3NS0A6KXC5U5RGYMGB6DGJFBIHLGZY","A1R1E7TZ9OHFIG","3URJ6VVYUP9BUCT1SZOT2DFI02L4OC","","img/set1/S1.jpg","68","1","structured_normal","83","structured_normal,structured_incentive,random,structured_load","1,2,4,2,2,3","2,4,1,3","false","","",""
"null","","html-keyboard-response","107","487018","0.0-107.0","3NS0A6KXC5U5RGYMGB6DGJFBIHLGZY","A1R1E7TZ9OHFIG","3URJ6VVYUP9BUCT1SZOT2DFI02L4OC","","<img src=""img/set1/S1.jpg"" width=""540"" height = ""360"">","null","","","","","","","","","",""
"null","","html-keyboard-response","108","487219","0.0-108.0","3NS0A6KXC5U5RGYMGB6DGJFBIHLGZY","A1R1E7TZ9OHFIG","3URJ6VVYUP9BUCT1SZOT2DFI02L4OC","","","null","","","","","","","","","",""
"16","","image-keyboard-response","109","487237","0.0-109.0","3NS0A6KXC5U5RGYMGB6DGJFBIHLGZY","A1R1E7TZ9OHFIG","3URJ6VVYUP9BUCT1SZOT2DFI02L4OC","","img/set1/S2.jpg","72","2","structured_normal","68","structured_normal,structured_incentive,random,structured_load","1,2,4,2,2,3","2,4,1,3","false","","",""
"null","","html-keyboard-response","110","487590","0.0-110.0","3NS0A6KXC5U5RGYMGB6DGJFBIHLGZY","A1R1E7TZ9OHFIG","3URJ6VVYUP9BUCT1SZOT2DFI02L4OC","","<img src=""img/set1/S2.jpg"" width=""540"" height = ""360"">","null","","","","","","","","","",""
"null","","html-keyboard-response","111","487791","0.0-111.0","3NS0A6KXC5U5RGYMGB6DGJFBIHLGZY","A1R1E7TZ9OHFIG","3URJ6VVYUP9BUCT1SZOT2DFI02L4OC","","","null","","","","","","","","","",""
"903","","image-keyboard-response","112","488695","0.0-112.0","3NS0A6KXC5U5RGYMGB6DGJFBIHLGZY","A1R1E7TZ9OHFIG","3URJ6VVYUP9BUCT1SZOT2DFI02L4OC","","img/set1/S1.jpg","72","1","structured_normal","83","structured_normal,structured_incentive,random,structured_load","1,2,4,2,2,3","2,4,1,3","false","","",""
"null","","html-keyboard-response","113","489046","0.0-113.0","3NS0A6KXC5U5RGYMGB6DGJFBIHLGZY","A1R1E7TZ9OHFIG","3URJ6VVYUP9BUCT1SZOT2DFI02L4OC","","<img src=""img/set1/S1.jpg"" width=""540"" height = ""360"">","null","","","","","","","","","",""
"null","","html-keyboard-response","114","489247","0.0-114.0","3NS0A6KXC5U5RGYMGB6DGJFBIHLGZY","A1R1E7TZ9OHFIG","3URJ6VVYUP9BUCT1SZOT2DFI02L4OC","","","null","","","","","","","","","",""
"801","","image-keyboard-response","115","490049","0.0-115.0","3NS0A6KXC5U5RGYMGB6DGJFBIHLGZY","A1R1E7TZ9OHFIG","3URJ6VVYUP9BUCT1SZOT2DFI02L4OC","","img/set1/S2.jpg","83","2","structured_normal","68","structured_normal,structured_incentive,random,structured_load","1,2,4,2,2,3","2,4,1,3","false","","",""
"null","","html-keyboard-response","116","490419","0.0-116.0","3NS0A6KXC5U5RGYMGB6DGJFBIHLGZY","A1R1E7TZ9OHFIG","3URJ6VVYUP9BUCT1SZOT2DFI02L4OC","","<img src=""img/set1/S2.jpg"" width=""540"" height = ""360"">","null","","","","","","","","","",""
"null","","html-keyboard-response","117","490620","0.0-117.0","3NS0A6KXC5U5RGYMGB6DGJFBIHLGZY","A1R1E7TZ9OHFIG","3URJ6VVYUP9BUCT1SZOT2DFI02L4OC","","","null","","","","","","","","","",""
"586","","image-keyboard-response","118","491211","0.0-118.0","3NS0A6KXC5U5RGYMGB6DGJFBIHLGZY","A1R1E7TZ9OHFIG","3URJ6VVYUP9BUCT1SZOT2DFI02L4OC","","img/set1/S3.jpg","68","3","structured_normal","72","structured_normal,structured_incentive,random,structured_load","1,2,4,2,2,3","2,4,1,3","false","","",""
"null","","html-keyboard-response","119","491563","0.0-119.0","3NS0A6KXC5U5RGYMGB6DGJFBIHLGZY","A1R1E7TZ9OHFIG","3URJ6VVYUP9BUCT1SZOT2DFI02L4OC","","<img src=""img/set1/S3.jpg"" width=""540"" height = ""360"">","null","","","","","","","","","",""
"null","","html-keyboard-response","120","491765","0.0-120.0","3NS0A6KXC5U5RGYMGB6DGJFBIHLGZY","A1R1E7TZ9OHFIG","3URJ6VVYUP9BUCT1SZOT2DFI02L4OC","","","null","","","","","","","","","",""
"846","","image-keyboard-response","121","492615","0.0-121.0","3NS0A6KXC5U5RGYMGB6DGJFBIHLGZY","A1R1E7TZ9OHFIG","3URJ6VVYUP9BUCT1SZOT2DFI02L4OC","","img/set1/S1.jpg","74","1","structured_normal","83","structured_normal,structured_incentive,random,structured_load","1,2,4,2,2,3","2,4,1,3","false","","",""
"null","","html-keyboard-response","122","492971","0.0-122.0","3NS0A6KXC5U5RGYMGB6DGJFBIHLGZY","A1R1E7TZ9OHFIG","3URJ6VVYUP9BUCT1SZOT2DFI02L4OC","","<img src=""img/set1/S1.jpg"" width=""540"" height = ""360"">","null","","","","","","","","","",""
"null","","html-keyboard-response","123","493173","0.0-123.0","3NS0A6KXC5U5RGYMGB6DGJFBIHLGZY","A1R1E7TZ9OHFIG","3URJ6VVYUP9BUCT1SZOT2DFI02L4OC","","","null","","","","","","","","","",""
"877","","image-keyboard-response","124","494051","0.0-124.0","3NS0A6KXC5U5RGYMGB6DGJFBIHLGZY","A1R1E7TZ9OHFIG","3URJ6VVYUP9BUCT1SZOT2DFI02L4OC","","img/set1/S4.jpg","74","4","structured_normal","74","structured_normal,structured_incentive,random,structured_load","1,2,4,2,2,3","2,4,1,3","true","","",""
"null","","html-keyboard-response","125","494403","0.0-125.0","3NS0A6KXC5U5RGYMGB6DGJFBIHLGZY","A1R1E7TZ9OHFIG","3URJ6VVYUP9BUCT1SZOT2DFI02L4OC","","<img src=""img/set1/S4.jpg"" width=""540"" height = ""360"" style=""border:16px solid orange"">","null","","","","","","","","","",""
"null","","html-keyboard-response","126","494639","0.0-126.0","3NS0A6KXC5U5RGYMGB6DGJFBIHLGZY","A1R1E7TZ9OHFIG","3URJ6VVYUP9BUCT1SZOT2DFI02L4OC","","","null","","","","","","","","","",""
"871","","image-keyboard-response","127","495512","0.0-127.0","3NS0A6KXC5U5RGYMGB6DGJFBIHLGZY","A1R1E7TZ9OHFIG","3URJ6VVYUP9BUCT1SZOT2DFI02L4OC","","img/set1/S3.jpg","72","3","structured_normal","72","structured_normal,structured_incentive,random,structured_load","1,2,4,2,2,3","2,4,1,3","true","","",""
"null","","html-keyboard-response","128","495863","0.0-128.0","3NS0A6KXC5U5RGYMGB6DGJFBIHLGZY","A1R1E7TZ9OHFIG","3URJ6VVYUP9BUCT1SZOT2DFI02L4OC","","<img src=""img/set1/S3.jpg"" width=""540"" height = ""360"" style=""border:16px solid orange"">","null","","","","","","","","","",""
"null","","html-keyboard-response","129","496064","0.0-129.0","3NS0A6KXC5U5RGYMGB6DGJFBIHLGZY","A1R1E7TZ9OHFIG","3URJ6VVYUP9BUCT1SZOT2DFI02L4OC","","","null","","","","","","","","","",""
"936","","image-keyboard-response","130","497002","0.0-130.0","3NS0A6KXC5U5RGYMGB6DGJFBIHLGZY","A1R1E7TZ9OHFIG","3URJ6VVYUP9BUCT1SZOT2DFI02L4OC","","img/set1/S4.jpg","74","4","structured_normal","74","structured_normal,structured_incentive,random,structured_load","1,2,4,2,2,3","2,4,1,3","true","","",""
"null","","html-keyboard-response","131","497354","0.0-131.0","3NS0A6KXC5U5RGYMGB6DGJFBIHLGZY","A1R1E7TZ9OHFIG","3URJ6VVYUP9BUCT1SZOT2DFI02L4OC","","<img src=""img/set1/S4.jpg"" width=""540"" height = ""360"" style=""border:16px solid orange"">","null","","","","","","","","","",""
"null","","html-keyboard-response","132","497555","0.0-132.0","3NS0A6KXC5U5RGYMGB6DGJFBIHLGZY","A1R1E7TZ9OHFIG","3URJ6VVYUP9BUCT1SZOT2DFI02L4OC","","","null","","","","","","","","","",""
"601","","image-keyboard-response","133","498158","0.0-133.0","3NS0A6KXC5U5RGYMGB6DGJFBIHLGZY","A1R1E7TZ9OHFIG","3URJ6VVYUP9BUCT1SZOT2DFI02L4OC","","img/set1/S3.jpg","72","3","structured_normal","72","structured_normal,structured_incentive,random,structured_load","1,2,4,2,2,3","2,4,1,3","true","","",""
"null","","html-keyboard-response","134","498511","0.0-134.0","3NS0A6KXC5U5RGYMGB6DGJFBIHLGZY","A1R1E7TZ9OHFIG","3URJ6VVYUP9BUCT1SZOT2DFI02L4OC","","<img src=""img/set1/S3.jpg"" width=""540"" height = ""360"" style=""border:16px solid orange"">","null","","","","","","","","","",""
"null","","html-keyboard-response","135","498716","0.0-135.0","3NS0A6KXC5U5RGYMGB6DGJFBIHLGZY","A1R1E7TZ9OHFIG","3URJ6VVYUP9BUCT1SZOT2DFI02L4OC","","","null","","","","","","","","","",""
"795","","image-keyboard-response","136","499513","0.0-136.0","3NS0A6KXC5U5RGYMGB6DGJFBIHLGZY","A1R1E7TZ9OHFIG","3URJ6VVYUP9BUCT1SZOT2DFI02L4OC","","img/set1/S1.jpg","68","1","structured_normal","83","structured_normal,structured_incentive,random,structured_load","1,2,4,2,2,3","2,4,1,3","false","","",""
"null","","html-keyboard-response","137","499864","0.0-137.0","3NS0A6KXC5U5RGYMGB6DGJFBIHLGZY","A1R1E7TZ9OHFIG","3URJ6VVYUP9BUCT1SZOT2DFI02L4OC","","<img src=""img/set1/S1.jpg"" width=""540"" height = ""360"">","null","","","","","","","","","",""
"null","","html-keyboard-response","138","500068","0.0-138.0","3NS0A6KXC5U5RGYMGB6DGJFBIHLGZY","A1R1E7TZ9OHFIG","3URJ6VVYUP9BUCT1SZOT2DFI02L4OC","","","null","","","","","","","","","",""
"794","","image-keyboard-response","139","500864","0.0-139.0","3NS0A6KXC5U5RGYMGB6DGJFBIHLGZY","A1R1E7TZ9OHFIG","3URJ6VVYUP9BUCT1SZOT2DFI02L4OC","","img/set1/S2.jpg","83","2","structured_normal","68","structured_normal,structured_incentive,random,structured_load","1,2,4,2,2,3","2,4,1,3","false","","",""
"null","","html-keyboard-response","140","501252","0.0-140.0","3NS0A6KXC5U5RGYMGB6DGJFBIHLGZY","A1R1E7TZ9OHFIG","3URJ6VVYUP9BUCT1SZOT2DFI02L4OC","","<img src=""img/set1/S2.jpg"" width=""540"" height = ""360"">","null","","","","","","","","","",""
"null","","html-keyboard-response","141","501485","0.0-141.0","3NS0A6KXC5U5RGYMGB6DGJFBIHLGZY","A1R1E7TZ9OHFIG","3URJ6VVYUP9BUCT1SZOT2DFI02L4OC","","","null","","","","","","","","","",""
"938","","image-keyboard-response","142","502424","0.0-142.0","3NS0A6KXC5U5RGYMGB6DGJFBIHLGZY","A1R1E7TZ9OHFIG","3URJ6VVYUP9BUCT1SZOT2DFI02L4OC","","img/set1/S1.jpg","83","1","structured_normal","83","structured_normal,structured_incentive,random,structured_load","1,2,4,2,2,3","2,4,1,3","true","","",""
"null","","html-keyboard-response","143","502779","0.0-143.0","3NS0A6KXC5U5RGYMGB6DGJFBIHLGZY","A1R1E7TZ9OHFIG","3URJ6VVYUP9BUCT1SZOT2DFI02L4OC","","<img src=""img/set1/S1.jpg"" width=""540"" height = ""360"" style=""border:16px solid orange"">","null","","","","","","","","","",""
"null","","html-keyboard-response","144","502979","0.0-144.0","3NS0A6KXC5U5RGYMGB6DGJFBIHLGZY","A1R1E7TZ9OHFIG","3URJ6VVYUP9BUCT1SZOT2DFI02L4OC","","","null","","","","","","","","","",""
"643","","image-keyboard-response","145","503624","0.0-145.0","3NS0A6KXC5U5RGYMGB6DGJFBIHLGZY","A1R1E7TZ9OHFIG","3URJ6VVYUP9BUCT1SZOT2DFI02L4OC","","img/set1/S2.jpg","68","2","structured_normal","68","structured_normal,structured_incentive,random,structured_load","1,2,4,2,2,3","2,4,1,3","true","","",""
"null","","html-keyboard-response","146","503976","0.0-146.0","3NS0A6KXC5U5RGYMGB6DGJFBIHLGZY","A1R1E7TZ9OHFIG","3URJ6VVYUP9BUCT1SZOT2DFI02L4OC","","<img src=""img/set1/S2.jpg"" width=""540"" height = ""360"" style=""border:16px solid orange"">","null","","","","","","","","","",""
"null","","html-keyboard-response","147","504178","0.0-147.0","3NS0A6KXC5U5RGYMGB6DGJFBIHLGZY","A1R1E7TZ9OHFIG","3URJ6VVYUP9BUCT1SZOT2DFI02L4OC","","","null","","","","","","","","","",""
"657","","image-keyboard-response","148","504837","0.0-148.0","3NS0A6KXC5U5RGYMGB6DGJFBIHLGZY","A1R1E7TZ9OHFIG","3URJ6VVYUP9BUCT1SZOT2DFI02L4OC","","img/set1/S4.jpg","74","4","structured_normal","74","structured_normal,structured_incentive,random,structured_load","1,2,4,2,2,3","2,4,1,3","true","","",""
"null","","html-keyboard-response","149","505189","0.0-149.0","3NS0A6KXC5U5RGYMGB6DGJFBIHLGZY","A1R1E7TZ9OHFIG","3URJ6VVYUP9BUCT1SZOT2DFI02L4OC","","<img src=""img/set1/S4.jpg"" width=""540"" height = ""360"" style=""border:16px solid orange"">","null","","","","","","","","","",""
"null","","html-keyboard-response","150","505405","0.0-150.0","3NS0A6KXC5U5RGYMGB6DGJFBIHLGZY","A1R1E7TZ9OHFIG","3URJ6VVYUP9BUCT1SZOT2DFI02L4OC","","","null","","","","","","","","","",""
"573","","image-keyboard-response","151","505979","0.0-151.0","3NS0A6KXC5U5RGYMGB6DGJFBIHLGZY","A1R1E7TZ9OHFIG","3URJ6VVYUP9BUCT1SZOT2DFI02L4OC","","img/set1/S4.jpg","74","4","structured_normal","74","structured_normal,structured_incentive,random,structured_load","1,2,4,2,2,3","2,4,1,3","true","","",""
"null","","html-keyboard-response","152","506331","0.0-152.0","3NS0A6KXC5U5RGYMGB6DGJFBIHLGZY","A1R1E7TZ9OHFIG","3URJ6VVYUP9BUCT1SZOT2DFI02L4OC","","<img src=""img/set1/S4.jpg"" width=""540"" height = ""360"" style=""border:16px solid orange"">","null","","","","","","","","","",""
"null","","html-keyboard-response","153","506532","0.0-153.0","3NS0A6KXC5U5RGYMGB6DGJFBIHLGZY","A1R1E7TZ9OHFIG","3URJ6VVYUP9BUCT1SZOT2DFI02L4OC","","","null","","","","","","","","","",""
"597","","image-keyboard-response","154","507131","0.0-154.0","3NS0A6KXC5U5RGYMGB6DGJFBIHLGZY","A1R1E7TZ9OHFIG","3URJ6VVYUP9BUCT1SZOT2DFI02L4OC","","img/set1/S4.jpg","74","4","structured_normal","74","structured_normal,structured_incentive,random,structured_load","1,2,4,2,2,3","2,4,1,3","true","","",""
"null","","html-keyboard-response","155","507488","0.0-155.0","3NS0A6KXC5U5RGYMGB6DGJFBIHLGZY","A1R1E7TZ9OHFIG","3URJ6VVYUP9BUCT1SZOT2DFI02L4OC","","<img src=""img/set1/S4.jpg"" width=""540"" height = ""360"" style=""border:16px solid orange"">","null","","","","","","","","","",""
"null","","html-keyboard-response","156","507696","0.0-156.0","3NS0A6KXC5U5RGYMGB6DGJFBIHLGZY","A1R1E7TZ9OHFIG","3URJ6VVYUP9BUCT1SZOT2DFI02L4OC","","","null","","","","","","","","","",""
"1301","","image-keyboard-response","157","508998","0.0-157.0","3NS0A6KXC5U5RGYMGB6DGJFBIHLGZY","A1R1E7TZ9OHFIG","3URJ6VVYUP9BUCT1SZOT2DFI02L4OC","","img/set1/S1.jpg","68","1","structured_normal","83","structured_normal,structured_incentive,random,structured_load","1,2,4,2,2,3","2,4,1,3","false","","",""
"null","","html-keyboard-response","158","509351","0.0-158.0","3NS0A6KXC5U5RGYMGB6DGJFBIHLGZY","A1R1E7TZ9OHFIG","3URJ6VVYUP9BUCT1SZOT2DFI02L4OC","","<img src=""img/set1/S1.jpg"" width=""540"" height = ""360"">","null","","","","","","","","","",""
"null","","html-keyboard-response","159","509553","0.0-159.0","3NS0A6KXC5U5RGYMGB6DGJFBIHLGZY","A1R1E7TZ9OHFIG","3URJ6VVYUP9BUCT1SZOT2DFI02L4OC","","","null","","","","","","","","","",""
"941","","image-keyboard-response","160","510496","0.0-160.0","3NS0A6KXC5U5RGYMGB6DGJFBIHLGZY","A1R1E7TZ9OHFIG","3URJ6VVYUP9BUCT1SZOT2DFI02L4OC","","img/set1/S2.jpg","68","2","structured_normal","68","structured_normal,structured_incentive,random,structured_load","1,2,4,2,2,3","2,4,1,3","true","","",""
"null","","html-keyboard-response","161","510850","0.0-161.0","3NS0A6KXC5U5RGYMGB6DGJFBIHLGZY","A1R1E7TZ9OHFIG","3URJ6VVYUP9BUCT1SZOT2DFI02L4OC","","<img src=""img/set1/S2.jpg"" width=""540"" height = ""360"" style=""border:16px solid orange"">","null","","","","","","","","","",""
"null","","html-keyboard-response","162","511051","0.0-162.0","3NS0A6KXC5U5RGYMGB6DGJFBIHLGZY","A1R1E7TZ9OHFIG","3URJ6VVYUP9BUCT1SZOT2DFI02L4OC","","","null","","","","","","","","","",""
"753","","image-keyboard-response","163","511806","0.0-163.0","3NS0A6KXC5U5RGYMGB6DGJFBIHLGZY","A1R1E7TZ9OHFIG","3URJ6VVYUP9BUCT1SZOT2DFI02L4OC","","img/set1/S2.jpg","68","2","structured_normal","68","structured_normal,structured_incentive,random,structured_load","1,2,4,2,2,3","2,4,1,3","true","","",""
"null","","html-keyboard-response","164","512157","0.0-164.0","3NS0A6KXC5U5RGYMGB6DGJFBIHLGZY","A1R1E7TZ9OHFIG","3URJ6VVYUP9BUCT1SZOT2DFI02L4OC","","<img src=""img/set1/S2.jpg"" width=""540"" height = ""360"" style=""border:16px solid orange"">","null","","","","","","","","","",""
"null","","html-keyboard-response","165","512358","0.0-165.0","3NS0A6KXC5U5RGYMGB6DGJFBIHLGZY","A1R1E7TZ9OHFIG","3URJ6VVYUP9BUCT1SZOT2DFI02L4OC","","","null","","","","","","","","","",""
"603","","image-keyboard-response","166","512963","0.0-166.0","3NS0A6KXC5U5RGYMGB6DGJFBIHLGZY","A1R1E7TZ9OHFIG","3URJ6VVYUP9BUCT1SZOT2DFI02L4OC","","img/set1/S2.jpg","68","2","structured_normal","68","structured_normal,structured_incentive,random,structured_load","1,2,4,2,2,3","2,4,1,3","true","","",""
"null","","html-keyboard-response","167","513314","0.0-167.0","3NS0A6KXC5U5RGYMGB6DGJFBIHLGZY","A1R1E7TZ9OHFIG","3URJ6VVYUP9BUCT1SZOT2DFI02L4OC","","<img src=""img/set1/S2.jpg"" width=""540"" height = ""360"" style=""border:16px solid orange"">","null","","","","","","","","","",""
"null","","html-keyboard-response","168","513515","0.0-168.0","3NS0A6KXC5U5RGYMGB6DGJFBIHLGZY","A1R1E7TZ9OHFIG","3URJ6VVYUP9BUCT1SZOT2DFI02L4OC","","","null","","","","","","","","","",""
"739","","image-keyboard-response","169","514256","0.0-169.0","3NS0A6KXC5U5RGYMGB6DGJFBIHLGZY","A1R1E7TZ9OHFIG","3URJ6VVYUP9BUCT1SZOT2DFI02L4OC","","img/set1/S4.jpg","74","4","structured_normal","74","structured_normal,structured_incentive,random,structured_load","1,2,4,2,2,3","2,4,1,3","true","","",""
"null","","html-keyboard-response","170","514607","0.0-170.0","3NS0A6KXC5U5RGYMGB6DGJFBIHLGZY","A1R1E7TZ9OHFIG","3URJ6VVYUP9BUCT1SZOT2DFI02L4OC","","<img src=""img/set1/S4.jpg"" width=""540"" height = ""360"" style=""border:16px solid orange"">","null","","","","","","","","","",""
"null","","html-keyboard-response","171","514808","0.0-171.0","3NS0A6KXC5U5RGYMGB6DGJFBIHLGZY","A1R1E7TZ9OHFIG","3URJ6VVYUP9BUCT1SZOT2DFI02L4OC","","","null","","","","","","","","","",""
"797","","image-keyboard-response","172","515607","0.0-172.0","3NS0A6KXC5U5RGYMGB6DGJFBIHLGZY","A1R1E7TZ9OHFIG","3URJ6VVYUP9BUCT1SZOT2DFI02L4OC","","img/set1/S3.jpg","72","3","structured_normal","72","structured_normal,structured_incentive,random,structured_load","1,2,4,2,2,3","2,4,1,3","true","","",""
"null","","html-keyboard-response","173","515959","0.0-173.0","3NS0A6KXC5U5RGYMGB6DGJFBIHLGZY","A1R1E7TZ9OHFIG","3URJ6VVYUP9BUCT1SZOT2DFI02L4OC","","<img src=""img/set1/S3.jpg"" width=""540"" height = ""360"" style=""border:16px solid orange"">","null","","","","","","","","","",""
"null","","html-keyboard-response","174","516160","0.0-174.0","3NS0A6KXC5U5RGYMGB6DGJFBIHLGZY","A1R1E7TZ9OHFIG","3URJ6VVYUP9BUCT1SZOT2DFI02L4OC","","","null","","","","","","","","","",""
"673","","image-keyboard-response","175","516834","0.0-175.0","3NS0A6KXC5U5RGYMGB6DGJFBIHLGZY","A1R1E7TZ9OHFIG","3URJ6VVYUP9BUCT1SZOT2DFI02L4OC","","img/set1/S3.jpg","72","3","structured_normal","72","structured_normal,structured_incentive,random,structured_load","1,2,4,2,2,3","2,4,1,3","true","","",""
"null","","html-keyboard-response","176","517186","0.0-176.0","3NS0A6KXC5U5RGYMGB6DGJFBIHLGZY","A1R1E7TZ9OHFIG","3URJ6VVYUP9BUCT1SZOT2DFI02L4OC","","<img src=""img/set1/S3.jpg"" width=""540"" height = ""360"" style=""border:16px solid orange"">","null","","","","","","","","","",""
"null","","html-keyboard-response","177","517387","0.0-177.0","3NS0A6KXC5U5RGYMGB6DGJFBIHLGZY","A1R1E7TZ9OHFIG","3URJ6VVYUP9BUCT1SZOT2DFI02L4OC","","","null","","","","","","","","","",""
"655","","image-keyboard-response","178","518045","0.0-178.0","3NS0A6KXC5U5RGYMGB6DGJFBIHLGZY","A1R1E7TZ9OHFIG","3URJ6VVYUP9BUCT1SZOT2DFI02L4OC","","img/set1/S3.jpg","72","3","structured_normal","72","structured_normal,structured_incentive,random,structured_load","1,2,4,2,2,3","2,4,1,3","true","","",""
"null","","html-keyboard-response","179","518396","0.0-179.0","3NS0A6KXC5U5RGYMGB6DGJFBIHLGZY","A1R1E7TZ9OHFIG","3URJ6VVYUP9BUCT1SZOT2DFI02L4OC","","<img src=""img/set1/S3.jpg"" width=""540"" height = ""360"" style=""border:16px solid orange"">","null","","","","","","","","","",""
"null","","html-keyboard-response","180","518601","0.0-180.0","3NS0A6KXC5U5RGYMGB6DGJFBIHLGZY","A1R1E7TZ9OHFIG","3URJ6VVYUP9BUCT1SZOT2DFI02L4OC","","","null","","","","","","","","","",""
"644","","image-keyboard-response","181","519246","0.0-181.0","3NS0A6KXC5U5RGYMGB6DGJFBIHLGZY","A1R1E7TZ9OHFIG","3URJ6VVYUP9BUCT1SZOT2DFI02L4OC","","img/set1/S1.jpg","83","1","structured_normal","83","structured_normal,structured_incentive,random,structured_load","1,2,4,2,2,3","2,4,1,3","true","","",""
"null","","html-keyboard-response","182","519600","0.0-182.0","3NS0A6KXC5U5RGYMGB6DGJFBIHLGZY","A1R1E7TZ9OHFIG","3URJ6VVYUP9BUCT1SZOT2DFI02L4OC","","<img src=""img/set1/S1.jpg"" width=""540"" height = ""360"" style=""border:16px solid orange"">","null","","","","","","","","","",""
"null","","html-keyboard-response","183","519801","0.0-183.0","3NS0A6KXC5U5RGYMGB6DGJFBIHLGZY","A1R1E7TZ9OHFIG","3URJ6VVYUP9BUCT1SZOT2DFI02L4OC","","","null","","","","","","","","","",""
"754","","image-keyboard-response","184","520557","0.0-184.0","3NS0A6KXC5U5RGYMGB6DGJFBIHLGZY","A1R1E7TZ9OHFIG","3URJ6VVYUP9BUCT1SZOT2DFI02L4OC","","img/set1/S2.jpg","68","2","structured_normal","68","structured_normal,structured_incentive,random,structured_load","1,2,4,2,2,3","2,4,1,3","true","","",""
"null","","html-keyboard-response","185","520909","0.0-185.0","3NS0A6KXC5U5RGYMGB6DGJFBIHLGZY","A1R1E7TZ9OHFIG","3URJ6VVYUP9BUCT1SZOT2DFI02L4OC","","<img src=""img/set1/S2.jpg"" width=""540"" height = ""360"" style=""border:16px solid orange"">","null","","","","","","","","","",""
"null","","html-keyboard-response","186","521122","0.0-186.0","3NS0A6KXC5U5RGYMGB6DGJFBIHLGZY","A1R1E7TZ9OHFIG","3URJ6VVYUP9BUCT1SZOT2DFI02L4OC","","","null","","","","","","","","","",""
"871","","image-keyboard-response","187","521995","0.0-187.0","3NS0A6KXC5U5RGYMGB6DGJFBIHLGZY","A1R1E7TZ9OHFIG","3URJ6VVYUP9BUCT1SZOT2DFI02L4OC","","img/set1/S1.jpg","83","1","structured_normal","83","structured_normal,structured_incentive,random,structured_load","1,2,4,2,2,3","2,4,1,3","true","","",""
"null","","html-keyboard-response","188","522346","0.0-188.0","3NS0A6KXC5U5RGYMGB6DGJFBIHLGZY","A1R1E7TZ9OHFIG","3URJ6VVYUP9BUCT1SZOT2DFI02L4OC","","<img src=""img/set1/S1.jpg"" width=""540"" height = ""360"" style=""border:16px solid orange"">","null","","","","","","","","","",""
"null","","html-keyboard-response","189","522561","0.0-189.0","3NS0A6KXC5U5RGYMGB6DGJFBIHLGZY","A1R1E7TZ9OHFIG","3URJ6VVYUP9BUCT1SZOT2DFI02L4OC","","","null","","","","","","","","","",""
"743","","image-keyboard-response","190","523309","0.0-190.0","3NS0A6KXC5U5RGYMGB6DGJFBIHLGZY","A1R1E7TZ9OHFIG","3URJ6VVYUP9BUCT1SZOT2DFI02L4OC","","img/set1/S4.jpg","74","4","structured_normal","74","structured_normal,structured_incentive,random,structured_load","1,2,4,2,2,3","2,4,1,3","true","","",""
"null","","html-keyboard-response","191","523660","0.0-191.0","3NS0A6KXC5U5RGYMGB6DGJFBIHLGZY","A1R1E7TZ9OHFIG","3URJ6VVYUP9BUCT1SZOT2DFI02L4OC","","<img src=""img/set1/S4.jpg"" width=""540"" height = ""360"" style=""border:16px solid orange"">","null","","","","","","","","","",""
"null","","html-keyboard-response","192","523861","0.0-192.0","3NS0A6KXC5U5RGYMGB6DGJFBIHLGZY","A1R1E7TZ9OHFIG","3URJ6VVYUP9BUCT1SZOT2DFI02L4OC","","","null","","","","","","","","","",""
"772","","image-keyboard-response","193","524635","0.0-193.0","3NS0A6KXC5U5RGYMGB6DGJFBIHLGZY","A1R1E7TZ9OHFIG","3URJ6VVYUP9BUCT1SZOT2DFI02L4OC","","img/set1/S3.jpg","72","3","structured_normal","72","structured_normal,structured_incentive,random,structured_load","1,2,4,2,2,3","2,4,1,3","true","","",""
"null","","html-keyboard-response","194","524987","0.0-194.0","3NS0A6KXC5U5RGYMGB6DGJFBIHLGZY","A1R1E7TZ9OHFIG","3URJ6VVYUP9BUCT1SZOT2DFI02L4OC","","<img src=""img/set1/S3.jpg"" width=""540"" height = ""360"" style=""border:16px solid orange"">","null","","","","","","","","","",""
"null","","html-keyboard-response","195","525246","0.0-195.0","3NS0A6KXC5U5RGYMGB6DGJFBIHLGZY","A1R1E7TZ9OHFIG","3URJ6VVYUP9BUCT1SZOT2DFI02L4OC","","","null","","","","","","","","","",""
"852","","image-keyboard-response","196","526100","0.0-196.0","3NS0A6KXC5U5RGYMGB6DGJFBIHLGZY","A1R1E7TZ9OHFIG","3URJ6VVYUP9BUCT1SZOT2DFI02L4OC","","img/set1/S1.jpg","83","1","structured_normal","83","structured_normal,structured_incentive,random,structured_load","1,2,4,2,2,3","2,4,1,3","true","","",""
"null","","html-keyboard-response","197","526451","0.0-197.0","3NS0A6KXC5U5RGYMGB6DGJFBIHLGZY","A1R1E7TZ9OHFIG","3URJ6VVYUP9BUCT1SZOT2DFI02L4OC","","<img src=""img/set1/S1.jpg"" width=""540"" height = ""360"" style=""border:16px solid orange"">","null","","","","","","","","","",""
"null","","html-keyboard-response","198","526652","0.0-198.0","3NS0A6KXC5U5RGYMGB6DGJFBIHLGZY","A1R1E7TZ9OHFIG","3URJ6VVYUP9BUCT1SZOT2DFI02L4OC","","","null","","","","","","","","","",""
"674","","image-keyboard-response","199","527329","0.0-199.0","3NS0A6KXC5U5RGYMGB6DGJFBIHLGZY","A1R1E7TZ9OHFIG","3URJ6VVYUP9BUCT1SZOT2DFI02L4OC","","img/set1/S2.jpg","68","2","structured_normal","68","structured_normal,structured_incentive,random,structured_load","1,2,4,2,2,3","2,4,1,3","true","","",""
"null","","html-keyboard-response","200","527681","0.0-200.0","3NS0A6KXC5U5RGYMGB6DGJFBIHLGZY","A1R1E7TZ9OHFIG","3URJ6VVYUP9BUCT1SZOT2DFI02L4OC","","<img src=""img/set1/S2.jpg"" width=""540"" height = ""360"" style=""border:16px solid orange"">","null","","","","","","","","","",""
"null","","html-keyboard-response","201","527882","0.0-201.0","3NS0A6KXC5U5RGYMGB6DGJFBIHLGZY","A1R1E7TZ9OHFIG","3URJ6VVYUP9BUCT1SZOT2DFI02L4OC","","","null","","","","","","","","","",""
"920","","image-keyboard-response","202","528804","0.0-202.0","3NS0A6KXC5U5RGYMGB6DGJFBIHLGZY","A1R1E7TZ9OHFIG","3URJ6VVYUP9BUCT1SZOT2DFI02L4OC","","img/set1/S1.jpg","83","1","structured_normal","83","structured_normal,structured_incentive,random,structured_load","1,2,4,2,2,3","2,4,1,3","true","","",""
"null","","html-keyboard-response","203","529165","0.0-203.0","3NS0A6KXC5U5RGYMGB6DGJFBIHLGZY","A1R1E7TZ9OHFIG","3URJ6VVYUP9BUCT1SZOT2DFI02L4OC","","<img src=""img/set1/S1.jpg"" width=""540"" height = ""360"" style=""border:16px solid orange"">","null","","","","","","","","","",""
"null","","html-keyboard-response","204","529386","0.0-204.0","3NS0A6KXC5U5RGYMGB6DGJFBIHLGZY","A1R1E7TZ9OHFIG","3URJ6VVYUP9BUCT1SZOT2DFI02L4OC","","","null","","","","","","","","","",""
"647","","image-keyboard-response","205","530035","0.0-205.0","3NS0A6KXC5U5RGYMGB6DGJFBIHLGZY","A1R1E7TZ9OHFIG","3URJ6VVYUP9BUCT1SZOT2DFI02L4OC","","img/set1/S2.jpg","68","2","structured_normal","68","structured_normal,structured_incentive,random,structured_load","1,2,4,2,2,3","2,4,1,3","true","","",""
"null","","html-keyboard-response","206","530390","0.0-206.0","3NS0A6KXC5U5RGYMGB6DGJFBIHLGZY","A1R1E7TZ9OHFIG","3URJ6VVYUP9BUCT1SZOT2DFI02L4OC","","<img src=""img/set1/S2.jpg"" width=""540"" height = ""360"" style=""border:16px solid orange"">","null","","","","","","","","","",""
"null","","html-keyboard-response","207","530591","0.0-207.0","3NS0A6KXC5U5RGYMGB6DGJFBIHLGZY","A1R1E7TZ9OHFIG","3URJ6VVYUP9BUCT1SZOT2DFI02L4OC","","","null","","","","","","","","","",""
"946","","image-keyboard-response","208","531539","0.0-208.0","3NS0A6KXC5U5RGYMGB6DGJFBIHLGZY","A1R1E7TZ9OHFIG","3URJ6VVYUP9BUCT1SZOT2DFI02L4OC","","img/set1/S3.jpg","72","3","structured_normal","72","structured_normal,structured_incentive,random,structured_load","1,2,4,2,2,3","2,4,1,3","true","","",""
"null","","html-keyboard-response","209","531890","0.0-209.0","3NS0A6KXC5U5RGYMGB6DGJFBIHLGZY","A1R1E7TZ9OHFIG","3URJ6VVYUP9BUCT1SZOT2DFI02L4OC","","<img src=""img/set1/S3.jpg"" width=""540"" height = ""360"" style=""border:16px solid orange"">","null","","","","","","","","","",""
"null","","html-keyboard-response","210","532091","0.0-210.0","3NS0A6KXC5U5RGYMGB6DGJFBIHLGZY","A1R1E7TZ9OHFIG","3URJ6VVYUP9BUCT1SZOT2DFI02L4OC","","","null","","","","","","","","","",""
"732","","image-keyboard-response","211","532825","0.0-211.0","3NS0A6KXC5U5RGYMGB6DGJFBIHLGZY","A1R1E7TZ9OHFIG","3URJ6VVYUP9BUCT1SZOT2DFI02L4OC","","img/set1/S2.jpg","83","2","structured_normal","68","structured_normal,structured_incentive,random,structured_load","1,2,4,2,2,3","2,4,1,3","false","","",""
"null","","html-keyboard-response","212","533176","0.0-212.0","3NS0A6KXC5U5RGYMGB6DGJFBIHLGZY","A1R1E7TZ9OHFIG","3URJ6VVYUP9BUCT1SZOT2DFI02L4OC","","<img src=""img/set1/S2.jpg"" width=""540"" height = ""360"">","null","","","","","","","","","",""
"null","","html-keyboard-response","213","533412","0.0-213.0","3NS0A6KXC5U5RGYMGB6DGJFBIHLGZY","A1R1E7TZ9OHFIG","3URJ6VVYUP9BUCT1SZOT2DFI02L4OC","","","null","","","","","","","","","",""
"738","","image-keyboard-response","214","534151","0.0-214.0","3NS0A6KXC5U5RGYMGB6DGJFBIHLGZY","A1R1E7TZ9OHFIG","3URJ6VVYUP9BUCT1SZOT2DFI02L4OC","","img/set1/S3.jpg","72","3","structured_normal","72","structured_normal,structured_incentive,random,structured_load","1,2,4,2,2,3","2,4,1,3","true","","",""
"null","","html-keyboard-response","215","534506","0.0-215.0","3NS0A6KXC5U5RGYMGB6DGJFBIHLGZY","A1R1E7TZ9OHFIG","3URJ6VVYUP9BUCT1SZOT2DFI02L4OC","","<img src=""img/set1/S3.jpg"" width=""540"" height = ""360"" style=""border:16px solid orange"">","null","","","","","","","","","",""
"null","","html-keyboard-response","216","534708","0.0-216.0","3NS0A6KXC5U5RGYMGB6DGJFBIHLGZY","A1R1E7TZ9OHFIG","3URJ6VVYUP9BUCT1SZOT2DFI02L4OC","","","null","","","","","","","","","",""
"532","","image-keyboard-response","217","535241","0.0-217.0","3NS0A6KXC5U5RGYMGB6DGJFBIHLGZY","A1R1E7TZ9OHFIG","3URJ6VVYUP9BUCT1SZOT2DFI02L4OC","","img/set1/S4.jpg","74","4","structured_normal","74","structured_normal,structured_incentive,random,structured_load","1,2,4,2,2,3","2,4,1,3","true","","",""
"null","","html-keyboard-response","218","535592","0.0-218.0","3NS0A6KXC5U5RGYMGB6DGJFBIHLGZY","A1R1E7TZ9OHFIG","3URJ6VVYUP9BUCT1SZOT2DFI02L4OC","","<img src=""img/set1/S4.jpg"" width=""540"" height = ""360"" style=""border:16px solid orange"">","null","","","","","","","","","",""
"null","","html-keyboard-response","219","535795","0.0-219.0","3NS0A6KXC5U5RGYMGB6DGJFBIHLGZY","A1R1E7TZ9OHFIG","3URJ6VVYUP9BUCT1SZOT2DFI02L4OC","","","null","","","","","","","","","",""
"911","","image-keyboard-response","220","536708","0.0-220.0","3NS0A6KXC5U5RGYMGB6DGJFBIHLGZY","A1R1E7TZ9OHFIG","3URJ6VVYUP9BUCT1SZOT2DFI02L4OC","","img/set1/S2.jpg","68","2","structured_normal","68","structured_normal,structured_incentive,random,structured_load","1,2,4,2,2,3","2,4,1,3","true","","",""
"null","","html-keyboard-response","221","537060","0.0-221.0","3NS0A6KXC5U5RGYMGB6DGJFBIHLGZY","A1R1E7TZ9OHFIG","3URJ6VVYUP9BUCT1SZOT2DFI02L4OC","","<img src=""img/set1/S2.jpg"" width=""540"" height = ""360"" style=""border:16px solid orange"">","null","","","","","","","","","",""
"null","","html-keyboard-response","222","537262","0.0-222.0","3NS0A6KXC5U5RGYMGB6DGJFBIHLGZY","A1R1E7TZ9OHFIG","3URJ6VVYUP9BUCT1SZOT2DFI02L4OC","","","null","","","","","","","","","",""
"682","","image-keyboard-response","223","537946","0.0-223.0","3NS0A6KXC5U5RGYMGB6DGJFBIHLGZY","A1R1E7TZ9OHFIG","3URJ6VVYUP9BUCT1SZOT2DFI02L4OC","","img/set1/S1.jpg","83","1","structured_normal","83","structured_normal,structured_incentive,random,structured_load","1,2,4,2,2,3","2,4,1,3","true","","",""
"null","","html-keyboard-response","224","538299","0.0-224.0","3NS0A6KXC5U5RGYMGB6DGJFBIHLGZY","A1R1E7TZ9OHFIG","3URJ6VVYUP9BUCT1SZOT2DFI02L4OC","","<img src=""img/set1/S1.jpg"" width=""540"" height = ""360"" style=""border:16px solid orange"">","null","","","","","","","","","",""
"null","","html-keyboard-response","225","538499","0.0-225.0","3NS0A6KXC5U5RGYMGB6DGJFBIHLGZY","A1R1E7TZ9OHFIG","3URJ6VVYUP9BUCT1SZOT2DFI02L4OC","","","null","","","","","","","","","",""
"627","","image-keyboard-response","226","539132","0.0-226.0","3NS0A6KXC5U5RGYMGB6DGJFBIHLGZY","A1R1E7TZ9OHFIG","3URJ6VVYUP9BUCT1SZOT2DFI02L4OC","","img/set1/S2.jpg","68","2","structured_normal","68","structured_normal,structured_incentive,random,structured_load","1,2,4,2,2,3","2,4,1,3","true","","",""
"null","","html-keyboard-response","227","539494","0.0-227.0","3NS0A6KXC5U5RGYMGB6DGJFBIHLGZY","A1R1E7TZ9OHFIG","3URJ6VVYUP9BUCT1SZOT2DFI02L4OC","","<img src=""img/set1/S2.jpg"" width=""540"" height = ""360"" style=""border:16px solid orange"">","null","","","","","","","","","",""
"null","","html-keyboard-response","228","539695","0.0-228.0","3NS0A6KXC5U5RGYMGB6DGJFBIHLGZY","A1R1E7TZ9OHFIG","3URJ6VVYUP9BUCT1SZOT2DFI02L4OC","","","null","","","","","","","","","",""
"851","","image-keyboard-response","229","540548","0.0-229.0","3NS0A6KXC5U5RGYMGB6DGJFBIHLGZY","A1R1E7TZ9OHFIG","3URJ6VVYUP9BUCT1SZOT2DFI02L4OC","","img/set1/S4.jpg","74","4","structured_normal","74","structured_normal,structured_incentive,random,structured_load","1,2,4,2,2,3","2,4,1,3","true","","",""
"null","","html-keyboard-response","230","540903","0.0-230.0","3NS0A6KXC5U5RGYMGB6DGJFBIHLGZY","A1R1E7TZ9OHFIG","3URJ6VVYUP9BUCT1SZOT2DFI02L4OC","","<img src=""img/set1/S4.jpg"" width=""540"" height = ""360"" style=""border:16px solid orange"">","null","","","","","","","","","",""
"null","","html-keyboard-response","231","541103","0.0-231.0","3NS0A6KXC5U5RGYMGB6DGJFBIHLGZY","A1R1E7TZ9OHFIG","3URJ6VVYUP9BUCT1SZOT2DFI02L4OC","","","null","","","","","","","","","",""
"498","","image-keyboard-response","232","541603","0.0-232.0","3NS0A6KXC5U5RGYMGB6DGJFBIHLGZY","A1R1E7TZ9OHFIG","3URJ6VVYUP9BUCT1SZOT2DFI02L4OC","","img/set1/S4.jpg","74","4","structured_normal","74","structured_normal,structured_incentive,random,structured_load","1,2,4,2,2,3","2,4,1,3","true","","",""
"null","","html-keyboard-response","233","541955","0.0-233.0","3NS0A6KXC5U5RGYMGB6DGJFBIHLGZY","A1R1E7TZ9OHFIG","3URJ6VVYUP9BUCT1SZOT2DFI02L4OC","","<img src=""img/set1/S4.jpg"" width=""540"" height = ""360"" style=""border:16px solid orange"">","null","","","","","","","","","",""
"null","","html-keyboard-response","234","542160","0.0-234.0","3NS0A6KXC5U5RGYMGB6DGJFBIHLGZY","A1R1E7TZ9OHFIG","3URJ6VVYUP9BUCT1SZOT2DFI02L4OC","","","null","","","","","","","","","",""
"685","","image-keyboard-response","235","542847","0.0-235.0","3NS0A6KXC5U5RGYMGB6DGJFBIHLGZY","A1R1E7TZ9OHFIG","3URJ6VVYUP9BUCT1SZOT2DFI02L4OC","","img/set1/S3.jpg","72","3","structured_normal","72","structured_normal,structured_incentive,random,structured_load","1,2,4,2,2,3","2,4,1,3","true","","",""
"null","","html-keyboard-response","236","543205","0.0-236.0","3NS0A6KXC5U5RGYMGB6DGJFBIHLGZY","A1R1E7TZ9OHFIG","3URJ6VVYUP9BUCT1SZOT2DFI02L4OC","","<img src=""img/set1/S3.jpg"" width=""540"" height = ""360"" style=""border:16px solid orange"">","null","","","","","","","","","",""
"null","","html-keyboard-response","237","543410","0.0-237.0","3NS0A6KXC5U5RGYMGB6DGJFBIHLGZY","A1R1E7TZ9OHFIG","3URJ6VVYUP9BUCT1SZOT2DFI02L4OC","","","null","","","","","","","","","",""
"603","","image-keyboard-response","238","544015","0.0-238.0","3NS0A6KXC5U5RGYMGB6DGJFBIHLGZY","A1R1E7TZ9OHFIG","3URJ6VVYUP9BUCT1SZOT2DFI02L4OC","","img/set1/S4.jpg","74","4","structured_normal","74","structured_normal,structured_incentive,random,structured_load","1,2,4,2,2,3","2,4,1,3","true","","",""
"null","","html-keyboard-response","239","544368","0.0-239.0","3NS0A6KXC5U5RGYMGB6DGJFBIHLGZY","A1R1E7TZ9OHFIG","3URJ6VVYUP9BUCT1SZOT2DFI02L4OC","","<img src=""img/set1/S4.jpg"" width=""540"" height = ""360"" style=""border:16px solid orange"">","null","","","","","","","","","",""
"null","","html-keyboard-response","240","544568","0.0-240.0","3NS0A6KXC5U5RGYMGB6DGJFBIHLGZY","A1R1E7TZ9OHFIG","3URJ6VVYUP9BUCT1SZOT2DFI02L4OC","","","null","","","","","","","","","",""
"783","","image-keyboard-response","241","545353","0.0-241.0","3NS0A6KXC5U5RGYMGB6DGJFBIHLGZY","A1R1E7TZ9OHFIG","3URJ6VVYUP9BUCT1SZOT2DFI02L4OC","","img/set1/S3.jpg","72","3","structured_normal","72","structured_normal,structured_incentive,random,structured_load","1,2,4,2,2,3","2,4,1,3","true","","",""
"null","","html-keyboard-response","242","545704","0.0-242.0","3NS0A6KXC5U5RGYMGB6DGJFBIHLGZY","A1R1E7TZ9OHFIG","3URJ6VVYUP9BUCT1SZOT2DFI02L4OC","","<img src=""img/set1/S3.jpg"" width=""540"" height = ""360"" style=""border:16px solid orange"">","null","","","","","","","","","",""
"null","","html-keyboard-response","243","545979","0.0-243.0","3NS0A6KXC5U5RGYMGB6DGJFBIHLGZY","A1R1E7TZ9OHFIG","3URJ6VVYUP9BUCT1SZOT2DFI02L4OC","","","null","","","","","","","","","",""
"612","","image-keyboard-response","244","546594","0.0-244.0","3NS0A6KXC5U5RGYMGB6DGJFBIHLGZY","A1R1E7TZ9OHFIG","3URJ6VVYUP9BUCT1SZOT2DFI02L4OC","","img/set1/S4.jpg","74","4","structured_normal","74","structured_normal,structured_incentive,random,structured_load","1,2,4,2,2,3","2,4,1,3","true","","",""
"null","","html-keyboard-response","245","546951","0.0-245.0","3NS0A6KXC5U5RGYMGB6DGJFBIHLGZY","A1R1E7TZ9OHFIG","3URJ6VVYUP9BUCT1SZOT2DFI02L4OC","","<img src=""img/set1/S4.jpg"" width=""540"" height = ""360"" style=""border:16px solid orange"">","null","","","","","","","","","",""
"null","","html-keyboard-response","246","547151","0.0-246.0","3NS0A6KXC5U5RGYMGB6DGJFBIHLGZY","A1R1E7TZ9OHFIG","3URJ6VVYUP9BUCT1SZOT2DFI02L4OC","","","null","","","","","","","","","",""
"814","","image-keyboard-response","247","547974","0.0-247.0","3NS0A6KXC5U5RGYMGB6DGJFBIHLGZY","A1R1E7TZ9OHFIG","3URJ6VVYUP9BUCT1SZOT2DFI02L4OC","","img/set1/S3.jpg","72","3","structured_normal","72","structured_normal,structured_incentive,random,structured_load","1,2,4,2,2,3","2,4,1,3","true","","",""
"null","","html-keyboard-response","248","548325","0.0-248.0","3NS0A6KXC5U5RGYMGB6DGJFBIHLGZY","A1R1E7TZ9OHFIG","3URJ6VVYUP9BUCT1SZOT2DFI02L4OC","","<img src=""img/set1/S3.jpg"" width=""540"" height = ""360"" style=""border:16px solid orange"">","null","","","","","","","","","",""
"null","","html-keyboard-response","249","548526","0.0-249.0","3NS0A6KXC5U5RGYMGB6DGJFBIHLGZY","A1R1E7TZ9OHFIG","3URJ6VVYUP9BUCT1SZOT2DFI02L4OC","","","null","","","","","","","","","",""
"944","","image-keyboard-response","250","549472","0.0-250.0","3NS0A6KXC5U5RGYMGB6DGJFBIHLGZY","A1R1E7TZ9OHFIG","3URJ6VVYUP9BUCT1SZOT2DFI02L4OC","","img/set1/S1.jpg","83","1","structured_normal","83","structured_normal,structured_incentive,random,structured_load","1,2,4,2,2,3","2,4,1,3","true","","",""
"null","","html-keyboard-response","251","549826","0.0-251.0","3NS0A6KXC5U5RGYMGB6DGJFBIHLGZY","A1R1E7TZ9OHFIG","3URJ6VVYUP9BUCT1SZOT2DFI02L4OC","","<img src=""img/set1/S1.jpg"" width=""540"" height = ""360"" style=""border:16px solid orange"">","null","","","","","","","","","",""
"null","","html-keyboard-response","252","550027","0.0-252.0","3NS0A6KXC5U5RGYMGB6DGJFBIHLGZY","A1R1E7TZ9OHFIG","3URJ6VVYUP9BUCT1SZOT2DFI02L4OC","","","null","","","","","","","","","",""
"708","","image-keyboard-response","253","550737","0.0-253.0","3NS0A6KXC5U5RGYMGB6DGJFBIHLGZY","A1R1E7TZ9OHFIG","3URJ6VVYUP9BUCT1SZOT2DFI02L4OC","","img/set1/S4.jpg","74","4","structured_normal","74","structured_normal,structured_incentive,random,structured_load","1,2,4,2,2,3","2,4,1,3","true","","",""
"null","","html-keyboard-response","254","551089","0.0-254.0","3NS0A6KXC5U5RGYMGB6DGJFBIHLGZY","A1R1E7TZ9OHFIG","3URJ6VVYUP9BUCT1SZOT2DFI02L4OC","","<img src=""img/set1/S4.jpg"" width=""540"" height = ""360"" style=""border:16px solid orange"">","null","","","","","","","","","",""
"null","","html-keyboard-response","255","551290","0.0-255.0","3NS0A6KXC5U5RGYMGB6DGJFBIHLGZY","A1R1E7TZ9OHFIG","3URJ6VVYUP9BUCT1SZOT2DFI02L4OC","","","null","","","","","","","","","",""
"738","","image-keyboard-response","256","552030","0.0-256.0","3NS0A6KXC5U5RGYMGB6DGJFBIHLGZY","A1R1E7TZ9OHFIG","3URJ6VVYUP9BUCT1SZOT2DFI02L4OC","","img/set1/S1.jpg","83","1","structured_normal","83","structured_normal,structured_incentive,random,structured_load","1,2,4,2,2,3","2,4,1,3","true","","",""
"null","","html-keyboard-response","257","552385","0.0-257.0","3NS0A6KXC5U5RGYMGB6DGJFBIHLGZY","A1R1E7TZ9OHFIG","3URJ6VVYUP9BUCT1SZOT2DFI02L4OC","","<img src=""img/set1/S1.jpg"" width=""540"" height = ""360"" style=""border:16px solid orange"">","null","","","","","","","","","",""
"null","","html-keyboard-response","258","552589","0.0-258.0","3NS0A6KXC5U5RGYMGB6DGJFBIHLGZY","A1R1E7TZ9OHFIG","3URJ6VVYUP9BUCT1SZOT2DFI02L4OC","","","null","","","","","","","","","",""
"681","","image-keyboard-response","259","553271","0.0-259.0","3NS0A6KXC5U5RGYMGB6DGJFBIHLGZY","A1R1E7TZ9OHFIG","3URJ6VVYUP9BUCT1SZOT2DFI02L4OC","","img/set1/S2.jpg","68","2","structured_normal","68","structured_normal,structured_incentive,random,structured_load","1,2,4,2,2,3","2,4,1,3","true","","",""
"null","","html-keyboard-response","260","553666","0.0-260.0","3NS0A6KXC5U5RGYMGB6DGJFBIHLGZY","A1R1E7TZ9OHFIG","3URJ6VVYUP9BUCT1SZOT2DFI02L4OC","","<img src=""img/set1/S2.jpg"" width=""540"" height = ""360"" style=""border:16px solid orange"">","null","","","","","","","","","",""
"null","","html-keyboard-response","261","553901","0.0-261.0","3NS0A6KXC5U5RGYMGB6DGJFBIHLGZY","A1R1E7TZ9OHFIG","3URJ6VVYUP9BUCT1SZOT2DFI02L4OC","","","null","","","","","","","","","",""
"623","","image-keyboard-response","262","554525","0.0-262.0","3NS0A6KXC5U5RGYMGB6DGJFBIHLGZY","A1R1E7TZ9OHFIG","3URJ6VVYUP9BUCT1SZOT2DFI02L4OC","","img/set1/S4.jpg","74","4","structured_normal","74","structured_normal,structured_incentive,random,structured_load","1,2,4,2,2,3","2,4,1,3","true","","",""
"null","","html-keyboard-response","263","554876","0.0-263.0","3NS0A6KXC5U5RGYMGB6DGJFBIHLGZY","A1R1E7TZ9OHFIG","3URJ6VVYUP9BUCT1SZOT2DFI02L4OC","","<img src=""img/set1/S4.jpg"" width=""540"" height = ""360"" style=""border:16px solid orange"">","null","","","","","","","","","",""
"null","","html-keyboard-response","264","555077","0.0-264.0","3NS0A6KXC5U5RGYMGB6DGJFBIHLGZY","A1R1E7TZ9OHFIG","3URJ6VVYUP9BUCT1SZOT2DFI02L4OC","","","null","","","","","","","","","",""
"1282","","image-keyboard-response","265","556361","0.0-265.0","3NS0A6KXC5U5RGYMGB6DGJFBIHLGZY","A1R1E7TZ9OHFIG","3URJ6VVYUP9BUCT1SZOT2DFI02L4OC","","img/set1/S1.jpg","83","1","structured_normal","83","structured_normal,structured_incentive,random,structured_load","1,2,4,2,2,3","2,4,1,3","true","","",""
"null","","html-keyboard-response","266","556712","0.0-266.0","3NS0A6KXC5U5RGYMGB6DGJFBIHLGZY","A1R1E7TZ9OHFIG","3URJ6VVYUP9BUCT1SZOT2DFI02L4OC","","<img src=""img/set1/S1.jpg"" width=""540"" height = ""360"" style=""border:16px solid orange"">","null","","","","","","","","","",""
"null","","html-keyboard-response","267","556913","0.0-267.0","3NS0A6KXC5U5RGYMGB6DGJFBIHLGZY","A1R1E7TZ9OHFIG","3URJ6VVYUP9BUCT1SZOT2DFI02L4OC","","","null","","","","","","","","","",""
"681","","image-keyboard-response","268","557596","0.0-268.0","3NS0A6KXC5U5RGYMGB6DGJFBIHLGZY","A1R1E7TZ9OHFIG","3URJ6VVYUP9BUCT1SZOT2DFI02L4OC","","img/set1/S2.jpg","68","2","structured_normal","68","structured_normal,structured_incentive,random,structured_load","1,2,4,2,2,3","2,4,1,3","true","","",""
"null","","html-keyboard-response","269","557947","0.0-269.0","3NS0A6KXC5U5RGYMGB6DGJFBIHLGZY","A1R1E7TZ9OHFIG","3URJ6VVYUP9BUCT1SZOT2DFI02L4OC","","<img src=""img/set1/S2.jpg"" width=""540"" height = ""360"" style=""border:16px solid orange"">","null","","","","","","","","","",""
"null","","html-keyboard-response","270","558152","0.0-270.0","3NS0A6KXC5U5RGYMGB6DGJFBIHLGZY","A1R1E7TZ9OHFIG","3URJ6VVYUP9BUCT1SZOT2DFI02L4OC","","","null","","","","","","","","","",""
"663","","image-keyboard-response","271","558817","0.0-271.0","3NS0A6KXC5U5RGYMGB6DGJFBIHLGZY","A1R1E7TZ9OHFIG","3URJ6VVYUP9BUCT1SZOT2DFI02L4OC","","img/set1/S1.jpg","83","1","structured_normal","83","structured_normal,structured_incentive,random,structured_load","1,2,4,2,2,3","2,4,1,3","true","","",""
"null","","html-keyboard-response","272","559213","0.0-272.0","3NS0A6KXC5U5RGYMGB6DGJFBIHLGZY","A1R1E7TZ9OHFIG","3URJ6VVYUP9BUCT1SZOT2DFI02L4OC","","<img src=""img/set1/S1.jpg"" width=""540"" height = ""360"" style=""border:16px solid orange"">","null","","","","","","","","","",""
"null","","html-keyboard-response","273","559446","0.0-273.0","3NS0A6KXC5U5RGYMGB6DGJFBIHLGZY","A1R1E7TZ9OHFIG","3URJ6VVYUP9BUCT1SZOT2DFI02L4OC","","","null","","","","","","","","","",""
"615","","image-keyboard-response","274","560063","0.0-274.0","3NS0A6KXC5U5RGYMGB6DGJFBIHLGZY","A1R1E7TZ9OHFIG","3URJ6VVYUP9BUCT1SZOT2DFI02L4OC","","img/set1/S4.jpg","74","4","structured_normal","74","structured_normal,structured_incentive,random,structured_load","1,2,4,2,2,3","2,4,1,3","true","","",""
"null","","html-keyboard-response","275","560415","0.0-275.0","3NS0A6KXC5U5RGYMGB6DGJFBIHLGZY","A1R1E7TZ9OHFIG","3URJ6VVYUP9BUCT1SZOT2DFI02L4OC","","<img src=""img/set1/S4.jpg"" width=""540"" height = ""360"" style=""border:16px solid orange"">","null","","","","","","","","","",""
"null","","html-keyboard-response","276","560623","0.0-276.0","3NS0A6KXC5U5RGYMGB6DGJFBIHLGZY","A1R1E7TZ9OHFIG","3URJ6VVYUP9BUCT1SZOT2DFI02L4OC","","","null","","","","","","","","","",""
"542","","image-keyboard-response","277","561166","0.0-277.0","3NS0A6KXC5U5RGYMGB6DGJFBIHLGZY","A1R1E7TZ9OHFIG","3URJ6VVYUP9BUCT1SZOT2DFI02L4OC","","img/set1/S4.jpg","74","4","structured_normal","74","structured_normal,structured_incentive,random,structured_load","1,2,4,2,2,3","2,4,1,3","true","","",""
"null","","html-keyboard-response","278","561518","0.0-278.0","3NS0A6KXC5U5RGYMGB6DGJFBIHLGZY","A1R1E7TZ9OHFIG","3URJ6VVYUP9BUCT1SZOT2DFI02L4OC","","<img src=""img/set1/S4.jpg"" width=""540"" height = ""360"" style=""border:16px solid orange"">","null","","","","","","","","","",""
"null","","html-keyboard-response","279","561719","0.0-279.0","3NS0A6KXC5U5RGYMGB6DGJFBIHLGZY","A1R1E7TZ9OHFIG","3URJ6VVYUP9BUCT1SZOT2DFI02L4OC","","","null","","","","","","","","","",""
"939","","image-keyboard-response","280","562660","0.0-280.0","3NS0A6KXC5U5RGYMGB6DGJFBIHLGZY","A1R1E7TZ9OHFIG","3URJ6VVYUP9BUCT1SZOT2DFI02L4OC","","img/set1/S1.jpg","83","1","structured_normal","83","structured_normal,structured_incentive,random,structured_load","1,2,4,2,2,3","2,4,1,3","true","","",""
"null","","html-keyboard-response","281","563012","0.0-281.0","3NS0A6KXC5U5RGYMGB6DGJFBIHLGZY","A1R1E7TZ9OHFIG","3URJ6VVYUP9BUCT1SZOT2DFI02L4OC","","<img src=""img/set1/S1.jpg"" width=""540"" height = ""360"" style=""border:16px solid orange"">","null","","","","","","","","","",""
"null","","html-keyboard-response","282","563213","0.0-282.0","3NS0A6KXC5U5RGYMGB6DGJFBIHLGZY","A1R1E7TZ9OHFIG","3URJ6VVYUP9BUCT1SZOT2DFI02L4OC","","","null","","","","","","","","","",""
"759","","image-keyboard-response","283","563974","0.0-283.0","3NS0A6KXC5U5RGYMGB6DGJFBIHLGZY","A1R1E7TZ9OHFIG","3URJ6VVYUP9BUCT1SZOT2DFI02L4OC","","img/set1/S4.jpg","74","4","structured_normal","74","structured_normal,structured_incentive,random,structured_load","1,2,4,2,2,3","2,4,1,3","true","","",""
"null","","html-keyboard-response","284","564392","0.0-284.0","3NS0A6KXC5U5RGYMGB6DGJFBIHLGZY","A1R1E7TZ9OHFIG","3URJ6VVYUP9BUCT1SZOT2DFI02L4OC","","<img src=""img/set1/S4.jpg"" width=""540"" height = ""360"" style=""border:16px solid orange"">","null","","","","","","","","","",""
"null","","html-keyboard-response","285","564657","0.0-285.0","3NS0A6KXC5U5RGYMGB6DGJFBIHLGZY","A1R1E7TZ9OHFIG","3URJ6VVYUP9BUCT1SZOT2DFI02L4OC","","","null","","","","","","","","","",""
"776","","image-keyboard-response","286","565434","0.0-286.0","3NS0A6KXC5U5RGYMGB6DGJFBIHLGZY","A1R1E7TZ9OHFIG","3URJ6VVYUP9BUCT1SZOT2DFI02L4OC","","img/set1/S3.jpg","72","3","structured_normal","72","structured_normal,structured_incentive,random,structured_load","1,2,4,2,2,3","2,4,1,3","true","","",""
"null","","html-keyboard-response","287","565787","0.0-287.0","3NS0A6KXC5U5RGYMGB6DGJFBIHLGZY","A1R1E7TZ9OHFIG","3URJ6VVYUP9BUCT1SZOT2DFI02L4OC","","<img src=""img/set1/S3.jpg"" width=""540"" height = ""360"" style=""border:16px solid orange"">","null","","","","","","","","","",""
"null","","html-keyboard-response","288","566005","0.0-288.0","3NS0A6KXC5U5RGYMGB6DGJFBIHLGZY","A1R1E7TZ9OHFIG","3URJ6VVYUP9BUCT1SZOT2DFI02L4OC","","","null","","","","","","","","","",""
"753","","image-keyboard-response","289","566759","0.0-289.0","3NS0A6KXC5U5RGYMGB6DGJFBIHLGZY","A1R1E7TZ9OHFIG","3URJ6VVYUP9BUCT1SZOT2DFI02L4OC","","img/set1/S3.jpg","72","3","structured_normal","72","structured_normal,structured_incentive,random,structured_load","1,2,4,2,2,3","2,4,1,3","true","","",""
"null","","html-keyboard-response","290","567110","0.0-290.0","3NS0A6KXC5U5RGYMGB6DGJFBIHLGZY","A1R1E7TZ9OHFIG","3URJ6VVYUP9BUCT1SZOT2DFI02L4OC","","<img src=""img/set1/S3.jpg"" width=""540"" height = ""360"" style=""border:16px solid orange"">","null","","","","","","","","","",""
"null","","html-keyboard-response","291","567311","0.0-291.0","3NS0A6KXC5U5RGYMGB6DGJFBIHLGZY","A1R1E7TZ9OHFIG","3URJ6VVYUP9BUCT1SZOT2DFI02L4OC","","","null","","","","","","","","","",""
"569","","image-keyboard-response","292","567882","0.0-292.0","3NS0A6KXC5U5RGYMGB6DGJFBIHLGZY","A1R1E7TZ9OHFIG","3URJ6VVYUP9BUCT1SZOT2DFI02L4OC","","img/set1/S3.jpg","72","3","structured_normal","72","structured_normal,structured_incentive,random,structured_load","1,2,4,2,2,3","2,4,1,3","true","","",""
"null","","html-keyboard-response","293","568237","0.0-293.0","3NS0A6KXC5U5RGYMGB6DGJFBIHLGZY","A1R1E7TZ9OHFIG","3URJ6VVYUP9BUCT1SZOT2DFI02L4OC","","<img src=""img/set1/S3.jpg"" width=""540"" height = ""360"" style=""border:16px solid orange"">","null","","","","","","","","","",""
"null","","html-keyboard-response","294","568437","0.0-294.0","3NS0A6KXC5U5RGYMGB6DGJFBIHLGZY","A1R1E7TZ9OHFIG","3URJ6VVYUP9BUCT1SZOT2DFI02L4OC","","","null","","","","","","","","","",""
"743","","image-keyboard-response","295","569182","0.0-295.0","3NS0A6KXC5U5RGYMGB6DGJFBIHLGZY","A1R1E7TZ9OHFIG","3URJ6VVYUP9BUCT1SZOT2DFI02L4OC","","img/set1/S1.jpg","83","1","structured_normal","83","structured_normal,structured_incentive,random,structured_load","1,2,4,2,2,3","2,4,1,3","true","","",""
"null","","html-keyboard-response","296","569535","0.0-296.0","3NS0A6KXC5U5RGYMGB6DGJFBIHLGZY","A1R1E7TZ9OHFIG","3URJ6VVYUP9BUCT1SZOT2DFI02L4OC","","<img src=""img/set1/S1.jpg"" width=""540"" height = ""360"" style=""border:16px solid orange"">","null","","","","","","","","","",""
"null","","html-keyboard-response","297","569743","0.0-297.0","3NS0A6KXC5U5RGYMGB6DGJFBIHLGZY","A1R1E7TZ9OHFIG","3URJ6VVYUP9BUCT1SZOT2DFI02L4OC","","","null","","","","","","","","","",""
"831","","image-keyboard-response","298","570583","0.0-298.0","3NS0A6KXC5U5RGYMGB6DGJFBIHLGZY","A1R1E7TZ9OHFIG","3URJ6VVYUP9BUCT1SZOT2DFI02L4OC","","img/set1/S2.jpg","68","2","structured_normal","68","structured_normal,structured_incentive,random,structured_load","1,2,4,2,2,3","2,4,1,3","true","","",""
"null","","html-keyboard-response","299","570935","0.0-299.0","3NS0A6KXC5U5RGYMGB6DGJFBIHLGZY","A1R1E7TZ9OHFIG","3URJ6VVYUP9BUCT1SZOT2DFI02L4OC","","<img src=""img/set1/S2.jpg"" width=""540"" height = ""360"" style=""border:16px solid orange"">","null","","","","","","","","","",""
"null","","html-keyboard-response","300","571152","0.0-300.0","3NS0A6KXC5U5RGYMGB6DGJFBIHLGZY","A1R1E7TZ9OHFIG","3URJ6VVYUP9BUCT1SZOT2DFI02L4OC","","","null","","","","","","","","","",""
"737","","image-keyboard-response","301","571890","0.0-301.0","3NS0A6KXC5U5RGYMGB6DGJFBIHLGZY","A1R1E7TZ9OHFIG","3URJ6VVYUP9BUCT1SZOT2DFI02L4OC","","img/set1/S3.jpg","72","3","structured_normal","72","structured_normal,structured_incentive,random,structured_load","1,2,4,2,2,3","2,4,1,3","true","","",""
"null","","html-keyboard-response","302","572242","0.0-302.0","3NS0A6KXC5U5RGYMGB6DGJFBIHLGZY","A1R1E7TZ9OHFIG","3URJ6VVYUP9BUCT1SZOT2DFI02L4OC","","<img src=""img/set1/S3.jpg"" width=""540"" height = ""360"" style=""border:16px solid orange"">","null","","","","","","","","","",""
"null","","html-keyboard-response","303","572443","0.0-303.0","3NS0A6KXC5U5RGYMGB6DGJFBIHLGZY","A1R1E7TZ9OHFIG","3URJ6VVYUP9BUCT1SZOT2DFI02L4OC","","","null","","","","","","","","","",""
"693","","image-keyboard-response","304","573137","0.0-304.0","3NS0A6KXC5U5RGYMGB6DGJFBIHLGZY","A1R1E7TZ9OHFIG","3URJ6VVYUP9BUCT1SZOT2DFI02L4OC","","img/set1/S1.jpg","83","1","structured_normal","83","structured_normal,structured_incentive,random,structured_load","1,2,4,2,2,3","2,4,1,3","true","","",""
"null","","html-keyboard-response","305","573493","0.0-305.0","3NS0A6KXC5U5RGYMGB6DGJFBIHLGZY","A1R1E7TZ9OHFIG","3URJ6VVYUP9BUCT1SZOT2DFI02L4OC","","<img src=""img/set1/S1.jpg"" width=""540"" height = ""360"" style=""border:16px solid orange"">","null","","","","","","","","","",""
"null","","html-keyboard-response","306","573693","0.0-306.0","3NS0A6KXC5U5RGYMGB6DGJFBIHLGZY","A1R1E7TZ9OHFIG","3URJ6VVYUP9BUCT1SZOT2DFI02L4OC","","","null","","","","","","","","","",""
"589","","image-keyboard-response","307","574283","0.0-307.0","3NS0A6KXC5U5RGYMGB6DGJFBIHLGZY","A1R1E7TZ9OHFIG","3URJ6VVYUP9BUCT1SZOT2DFI02L4OC","","img/set1/S4.jpg","74","4","structured_normal","74","structured_normal,structured_incentive,random,structured_load","1,2,4,2,2,3","2,4,1,3","true","","",""
"null","","html-keyboard-response","308","574640","0.0-308.0","3NS0A6KXC5U5RGYMGB6DGJFBIHLGZY","A1R1E7TZ9OHFIG","3URJ6VVYUP9BUCT1SZOT2DFI02L4OC","","<img src=""img/set1/S4.jpg"" width=""540"" height = ""360"" style=""border:16px solid orange"">","null","","","","","","","","","",""
"null","","html-keyboard-response","309","574842","0.0-309.0","3NS0A6KXC5U5RGYMGB6DGJFBIHLGZY","A1R1E7TZ9OHFIG","3URJ6VVYUP9BUCT1SZOT2DFI02L4OC","","","null","","","","","","","","","",""
"1418","","image-keyboard-response","310","576262","0.0-310.0","3NS0A6KXC5U5RGYMGB6DGJFBIHLGZY","A1R1E7TZ9OHFIG","3URJ6VVYUP9BUCT1SZOT2DFI02L4OC","","img/set1/S3.jpg","72","3","structured_normal","72","structured_normal,structured_incentive,random,structured_load","1,2,4,2,2,3","2,4,1,3","true","","",""
"null","","html-keyboard-response","311","576615","0.0-311.0","3NS0A6KXC5U5RGYMGB6DGJFBIHLGZY","A1R1E7TZ9OHFIG","3URJ6VVYUP9BUCT1SZOT2DFI02L4OC","","<img src=""img/set1/S3.jpg"" width=""540"" height = ""360"" style=""border:16px solid orange"">","null","","","","","","","","","",""
"null","","html-keyboard-response","312","576816","0.0-312.0","3NS0A6KXC5U5RGYMGB6DGJFBIHLGZY","A1R1E7TZ9OHFIG","3URJ6VVYUP9BUCT1SZOT2DFI02L4OC","","","null","","","","","","","","","",""
"511","","image-keyboard-response","313","577329","0.0-313.0","3NS0A6KXC5U5RGYMGB6DGJFBIHLGZY","A1R1E7TZ9OHFIG","3URJ6VVYUP9BUCT1SZOT2DFI02L4OC","","img/set1/S3.jpg","72","3","structured_normal","72","structured_normal,structured_incentive,random,structured_load","1,2,4,2,2,3","2,4,1,3","true","","",""
"null","","html-keyboard-response","314","577681","0.0-314.0","3NS0A6KXC5U5RGYMGB6DGJFBIHLGZY","A1R1E7TZ9OHFIG","3URJ6VVYUP9BUCT1SZOT2DFI02L4OC","","<img src=""img/set1/S3.jpg"" width=""540"" height = ""360"" style=""border:16px solid orange"">","null","","","","","","","","","",""
"null","","html-keyboard-response","315","577881","0.0-315.0","3NS0A6KXC5U5RGYMGB6DGJFBIHLGZY","A1R1E7TZ9OHFIG","3URJ6VVYUP9BUCT1SZOT2DFI02L4OC","","","null","","","","","","","","","",""
"759","","image-keyboard-response","316","578642","0.0-316.0","3NS0A6KXC5U5RGYMGB6DGJFBIHLGZY","A1R1E7TZ9OHFIG","3URJ6VVYUP9BUCT1SZOT2DFI02L4OC","","img/set1/S1.jpg","83","1","structured_normal","83","structured_normal,structured_incentive,random,structured_load","1,2,4,2,2,3","2,4,1,3","true","","",""
"null","","html-keyboard-response","317","578994","0.0-317.0","3NS0A6KXC5U5RGYMGB6DGJFBIHLGZY","A1R1E7TZ9OHFIG","3URJ6VVYUP9BUCT1SZOT2DFI02L4OC","","<img src=""img/set1/S1.jpg"" width=""540"" height = ""360"" style=""border:16px solid orange"">","null","","","","","","","","","",""
"null","","html-keyboard-response","318","579195","0.0-318.0","3NS0A6KXC5U5RGYMGB6DGJFBIHLGZY","A1R1E7TZ9OHFIG","3URJ6VVYUP9BUCT1SZOT2DFI02L4OC","","","null","","","","","","","","","",""
"448","","image-keyboard-response","319","579645","0.0-319.0","3NS0A6KXC5U5RGYMGB6DGJFBIHLGZY","A1R1E7TZ9OHFIG","3URJ6VVYUP9BUCT1SZOT2DFI02L4OC","","img/set1/S2.jpg","68","2","structured_normal","68","structured_normal,structured_incentive,random,structured_load","1,2,4,2,2,3","2,4,1,3","true","","",""
"null","","html-keyboard-response","320","579998","0.0-320.0","3NS0A6KXC5U5RGYMGB6DGJFBIHLGZY","A1R1E7TZ9OHFIG","3URJ6VVYUP9BUCT1SZOT2DFI02L4OC","","<img src=""img/set1/S2.jpg"" width=""540"" height = ""360"" style=""border:16px solid orange"">","null","","","","","","","","","",""
"null","","html-keyboard-response","321","580199","0.0-321.0","3NS0A6KXC5U5RGYMGB6DGJFBIHLGZY","A1R1E7TZ9OHFIG","3URJ6VVYUP9BUCT1SZOT2DFI02L4OC","","","null","","","","","","","","","",""
"1191","","image-keyboard-response","322","581392","0.0-322.0","3NS0A6KXC5U5RGYMGB6DGJFBIHLGZY","A1R1E7TZ9OHFIG","3URJ6VVYUP9BUCT1SZOT2DFI02L4OC","","img/set1/S1.jpg","83","1","structured_normal","83","structured_normal,structured_incentive,random,structured_load","1,2,4,2,2,3","2,4,1,3","true","","",""
"null","","html-keyboard-response","323","581747","0.0-323.0","3NS0A6KXC5U5RGYMGB6DGJFBIHLGZY","A1R1E7TZ9OHFIG","3URJ6VVYUP9BUCT1SZOT2DFI02L4OC","","<img src=""img/set1/S1.jpg"" width=""540"" height = ""360"" style=""border:16px solid orange"">","null","","","","","","","","","",""
"null","","html-keyboard-response","324","581948","0.0-324.0","3NS0A6KXC5U5RGYMGB6DGJFBIHLGZY","A1R1E7TZ9OHFIG","3URJ6VVYUP9BUCT1SZOT2DFI02L4OC","","","null","","","","","","","","","",""
"643","","image-keyboard-response","325","582593","0.0-325.0","3NS0A6KXC5U5RGYMGB6DGJFBIHLGZY","A1R1E7TZ9OHFIG","3URJ6VVYUP9BUCT1SZOT2DFI02L4OC","","img/set1/S4.jpg","74","4","structured_normal","74","structured_normal,structured_incentive,random,structured_load","1,2,4,2,2,3","2,4,1,3","true","","",""
"null","","html-keyboard-response","326","582947","0.0-326.0","3NS0A6KXC5U5RGYMGB6DGJFBIHLGZY","A1R1E7TZ9OHFIG","3URJ6VVYUP9BUCT1SZOT2DFI02L4OC","","<img src=""img/set1/S4.jpg"" width=""540"" height = ""360"" style=""border:16px solid orange"">","null","","","","","","","","","",""
"null","","html-keyboard-response","327","583148","0.0-327.0","3NS0A6KXC5U5RGYMGB6DGJFBIHLGZY","A1R1E7TZ9OHFIG","3URJ6VVYUP9BUCT1SZOT2DFI02L4OC","","","null","","","","","","","","","",""
"692","","image-keyboard-response","328","583842","0.0-328.0","3NS0A6KXC5U5RGYMGB6DGJFBIHLGZY","A1R1E7TZ9OHFIG","3URJ6VVYUP9BUCT1SZOT2DFI02L4OC","","img/set1/S1.jpg","83","1","structured_normal","83","structured_normal,structured_incentive,random,structured_load","1,2,4,2,2,3","2,4,1,3","true","","",""
"null","","html-keyboard-response","329","584224","0.0-329.0","3NS0A6KXC5U5RGYMGB6DGJFBIHLGZY","A1R1E7TZ9OHFIG","3URJ6VVYUP9BUCT1SZOT2DFI02L4OC","","<img src=""img/set1/S1.jpg"" width=""540"" height = ""360"" style=""border:16px solid orange"">","null","","","","","","","","","",""
"null","","html-keyboard-response","330","584450","0.0-330.0","3NS0A6KXC5U5RGYMGB6DGJFBIHLGZY","A1R1E7TZ9OHFIG","3URJ6VVYUP9BUCT1SZOT2DFI02L4OC","","","null","","","","","","","","","",""
"657","","image-keyboard-response","331","585108","0.0-331.0","3NS0A6KXC5U5RGYMGB6DGJFBIHLGZY","A1R1E7TZ9OHFIG","3URJ6VVYUP9BUCT1SZOT2DFI02L4OC","","img/set1/S2.jpg","68","2","structured_normal","68","structured_normal,structured_incentive,random,structured_load","1,2,4,2,2,3","2,4,1,3","true","","",""
"null","","html-keyboard-response","332","585463","0.0-332.0","3NS0A6KXC5U5RGYMGB6DGJFBIHLGZY","A1R1E7TZ9OHFIG","3URJ6VVYUP9BUCT1SZOT2DFI02L4OC","","<img src=""img/set1/S2.jpg"" width=""540"" height = ""360"" style=""border:16px solid orange"">","null","","","","","","","","","",""
"null","","html-keyboard-response","333","585663","0.0-333.0","3NS0A6KXC5U5RGYMGB6DGJFBIHLGZY","A1R1E7TZ9OHFIG","3URJ6VVYUP9BUCT1SZOT2DFI02L4OC","","","null","","","","","","","","","",""
"591","","image-keyboard-response","334","586255","0.0-334.0","3NS0A6KXC5U5RGYMGB6DGJFBIHLGZY","A1R1E7TZ9OHFIG","3URJ6VVYUP9BUCT1SZOT2DFI02L4OC","","img/set1/S4.jpg","74","4","structured_normal","74","structured_normal,structured_incentive,random,structured_load","1,2,4,2,2,3","2,4,1,3","true","","",""
"null","","html-keyboard-response","335","586607","0.0-335.0","3NS0A6KXC5U5RGYMGB6DGJFBIHLGZY","A1R1E7TZ9OHFIG","3URJ6VVYUP9BUCT1SZOT2DFI02L4OC","","<img src=""img/set1/S4.jpg"" width=""540"" height = ""360"" style=""border:16px solid orange"">","null","","","","","","","","","",""
"null","","html-keyboard-response","336","586809","0.0-336.0","3NS0A6KXC5U5RGYMGB6DGJFBIHLGZY","A1R1E7TZ9OHFIG","3URJ6VVYUP9BUCT1SZOT2DFI02L4OC","","","null","","","","","","","","","",""
"663","","image-keyboard-response","337","587473","0.0-337.0","3NS0A6KXC5U5RGYMGB6DGJFBIHLGZY","A1R1E7TZ9OHFIG","3URJ6VVYUP9BUCT1SZOT2DFI02L4OC","","img/set1/S4.jpg","74","4","structured_normal","74","structured_normal,structured_incentive,random,structured_load","1,2,4,2,2,3","2,4,1,3","true","","",""
"null","","html-keyboard-response","338","587889","0.0-338.0","3NS0A6KXC5U5RGYMGB6DGJFBIHLGZY","A1R1E7TZ9OHFIG","3URJ6VVYUP9BUCT1SZOT2DFI02L4OC","","<img src=""img/set1/S4.jpg"" width=""540"" height = ""360"" style=""border:16px solid orange"">","null","","","","","","","","","",""
"null","","html-keyboard-response","339","588090","0.0-339.0","3NS0A6KXC5U5RGYMGB6DGJFBIHLGZY","A1R1E7TZ9OHFIG","3URJ6VVYUP9BUCT1SZOT2DFI02L4OC","","","null","","","","","","","","","",""
"531","","image-keyboard-response","340","588622","0.0-340.0","3NS0A6KXC5U5RGYMGB6DGJFBIHLGZY","A1R1E7TZ9OHFIG","3URJ6VVYUP9BUCT1SZOT2DFI02L4OC","","img/set1/S3.jpg","72","3","structured_normal","72","structured_normal,structured_incentive,random,structured_load","1,2,4,2,2,3","2,4,1,3","true","","",""
"null","","html-keyboard-response","341","588975","0.0-341.0","3NS0A6KXC5U5RGYMGB6DGJFBIHLGZY","A1R1E7TZ9OHFIG","3URJ6VVYUP9BUCT1SZOT2DFI02L4OC","","<img src=""img/set1/S3.jpg"" width=""540"" height = ""360"" style=""border:16px solid orange"">","null","","","","","","","","","",""
"null","","html-keyboard-response","342","589175","0.0-342.0","3NS0A6KXC5U5RGYMGB6DGJFBIHLGZY","A1R1E7TZ9OHFIG","3URJ6VVYUP9BUCT1SZOT2DFI02L4OC","","","null","","","","","","","","","",""
"951","","image-keyboard-response","343","590128","0.0-343.0","3NS0A6KXC5U5RGYMGB6DGJFBIHLGZY","A1R1E7TZ9OHFIG","3URJ6VVYUP9BUCT1SZOT2DFI02L4OC","","img/set1/S1.jpg","83","1","structured_normal","83","structured_normal,structured_incentive,random,structured_load","1,2,4,2,2,3","2,4,1,3","true","","",""
"null","","html-keyboard-response","344","590484","0.0-344.0","3NS0A6KXC5U5RGYMGB6DGJFBIHLGZY","A1R1E7TZ9OHFIG","3URJ6VVYUP9BUCT1SZOT2DFI02L4OC","","<img src=""img/set1/S1.jpg"" width=""540"" height = ""360"" style=""border:16px solid orange"">","null","","","","","","","","","",""
"null","","html-keyboard-response","345","590684","0.0-345.0","3NS0A6KXC5U5RGYMGB6DGJFBIHLGZY","A1R1E7TZ9OHFIG","3URJ6VVYUP9BUCT1SZOT2DFI02L4OC","","","null","","","","","","","","","",""
"732","","image-keyboard-response","346","591418","0.0-346.0","3NS0A6KXC5U5RGYMGB6DGJFBIHLGZY","A1R1E7TZ9OHFIG","3URJ6VVYUP9BUCT1SZOT2DFI02L4OC","","img/set1/S2.jpg","68","2","structured_normal","68","structured_normal,structured_incentive,random,structured_load","1,2,4,2,2,3","2,4,1,3","true","","",""
"null","","html-keyboard-response","347","591770","0.0-347.0","3NS0A6KXC5U5RGYMGB6DGJFBIHLGZY","A1R1E7TZ9OHFIG","3URJ6VVYUP9BUCT1SZOT2DFI02L4OC","","<img src=""img/set1/S2.jpg"" width=""540"" height = ""360"" style=""border:16px solid orange"">","null","","","","","","","","","",""
"null","","html-keyboard-response","348","591972","0.0-348.0","3NS0A6KXC5U5RGYMGB6DGJFBIHLGZY","A1R1E7TZ9OHFIG","3URJ6VVYUP9BUCT1SZOT2DFI02L4OC","","","null","","","","","","","","","",""
"990","","image-keyboard-response","349","592964","0.0-349.0","3NS0A6KXC5U5RGYMGB6DGJFBIHLGZY","A1R1E7TZ9OHFIG","3URJ6VVYUP9BUCT1SZOT2DFI02L4OC","","img/set1/S1.jpg","72","1","structured_normal","83","structured_normal,structured_incentive,random,structured_load","1,2,4,2,2,3","2,4,1,3","false","","",""
"null","","html-keyboard-response","350","593316","0.0-350.0","3NS0A6KXC5U5RGYMGB6DGJFBIHLGZY","A1R1E7TZ9OHFIG","3URJ6VVYUP9BUCT1SZOT2DFI02L4OC","","<img src=""img/set1/S1.jpg"" width=""540"" height = ""360"">","null","","","","","","","","","",""
"null","","html-keyboard-response","351","593520","0.0-351.0","3NS0A6KXC5U5RGYMGB6DGJFBIHLGZY","A1R1E7TZ9OHFIG","3URJ6VVYUP9BUCT1SZOT2DFI02L4OC","","","null","","","","","","","","","",""
"1289","","image-keyboard-response","352","594812","0.0-352.0","3NS0A6KXC5U5RGYMGB6DGJFBIHLGZY","A1R1E7TZ9OHFIG","3URJ6VVYUP9BUCT1SZOT2DFI02L4OC","","img/set1/S2.jpg","68","2","structured_normal","68","structured_normal,structured_incentive,random,structured_load","1,2,4,2,2,3","2,4,1,3","true","","",""
"null","","html-keyboard-response","353","595164","0.0-353.0","3NS0A6KXC5U5RGYMGB6DGJFBIHLGZY","A1R1E7TZ9OHFIG","3URJ6VVYUP9BUCT1SZOT2DFI02L4OC","","<img src=""img/set1/S2.jpg"" width=""540"" height = ""360"" style=""border:16px solid orange"">","null","","","","","","","","","",""
"null","","html-keyboard-response","354","595365","0.0-354.0","3NS0A6KXC5U5RGYMGB6DGJFBIHLGZY","A1R1E7TZ9OHFIG","3URJ6VVYUP9BUCT1SZOT2DFI02L4OC","","","null","","","","","","","","","",""
"762","","image-keyboard-response","355","596129","0.0-355.0","3NS0A6KXC5U5RGYMGB6DGJFBIHLGZY","A1R1E7TZ9OHFIG","3URJ6VVYUP9BUCT1SZOT2DFI02L4OC","","img/set1/S1.jpg","83","1","structured_normal","83","structured_normal,structured_incentive,random,structured_load","1,2,4,2,2,3","2,4,1,3","true","","",""
"null","","html-keyboard-response","356","596499","0.0-356.0","3NS0A6KXC5U5RGYMGB6DGJFBIHLGZY","A1R1E7TZ9OHFIG","3URJ6VVYUP9BUCT1SZOT2DFI02L4OC","","<img src=""img/set1/S1.jpg"" width=""540"" height = ""360"" style=""border:16px solid orange"">","null","","","","","","","","","",""
"null","","html-keyboard-response","357","596704","0.0-357.0","3NS0A6KXC5U5RGYMGB6DGJFBIHLGZY","A1R1E7TZ9OHFIG","3URJ6VVYUP9BUCT1SZOT2DFI02L4OC","","","null","","","","","","","","","",""
"746","","image-keyboard-response","358","597453","0.0-358.0","3NS0A6KXC5U5RGYMGB6DGJFBIHLGZY","A1R1E7TZ9OHFIG","3URJ6VVYUP9BUCT1SZOT2DFI02L4OC","","img/set1/S2.jpg","68","2","structured_normal","68","structured_normal,structured_incentive,random,structured_load","1,2,4,2,2,3","2,4,1,3","true","","",""
"null","","html-keyboard-response","359","597844","0.0-359.0","3NS0A6KXC5U5RGYMGB6DGJFBIHLGZY","A1R1E7TZ9OHFIG","3URJ6VVYUP9BUCT1SZOT2DFI02L4OC","","<img src=""img/set1/S2.jpg"" width=""540"" height = ""360"" style=""border:16px solid orange"">","null","","","","","","","","","",""
"null","","html-keyboard-response","360","598097","0.0-360.0","3NS0A6KXC5U5RGYMGB6DGJFBIHLGZY","A1R1E7TZ9OHFIG","3URJ6VVYUP9BUCT1SZOT2DFI02L4OC","","","null","","","","","","","","","",""
"569","","image-keyboard-response","361","598667","0.0-361.0","3NS0A6KXC5U5RGYMGB6DGJFBIHLGZY","A1R1E7TZ9OHFIG","3URJ6VVYUP9BUCT1SZOT2DFI02L4OC","","img/set1/S4.jpg","74","4","structured_normal","74","structured_normal,structured_incentive,random,structured_load","1,2,4,2,2,3","2,4,1,3","true","","",""
"null","","html-keyboard-response","362","599020","0.0-362.0","3NS0A6KXC5U5RGYMGB6DGJFBIHLGZY","A1R1E7TZ9OHFIG","3URJ6VVYUP9BUCT1SZOT2DFI02L4OC","","<img src=""img/set1/S4.jpg"" width=""540"" height = ""360"" style=""border:16px solid orange"">","null","","","","","","","","","",""
"null","","html-keyboard-response","363","599225","0.0-363.0","3NS0A6KXC5U5RGYMGB6DGJFBIHLGZY","A1R1E7TZ9OHFIG","3URJ6VVYUP9BUCT1SZOT2DFI02L4OC","","","null","","","","","","","","","",""
"818","","image-keyboard-response","364","600045","0.0-364.0","3NS0A6KXC5U5RGYMGB6DGJFBIHLGZY","A1R1E7TZ9OHFIG","3URJ6VVYUP9BUCT1SZOT2DFI02L4OC","","img/set1/S1.jpg","83","1","structured_normal","83","structured_normal,structured_incentive,random,structured_load","1,2,4,2,2,3","2,4,1,3","true","","",""
"null","","html-keyboard-response","365","600401","0.0-365.0","3NS0A6KXC5U5RGYMGB6DGJFBIHLGZY","A1R1E7TZ9OHFIG","3URJ6VVYUP9BUCT1SZOT2DFI02L4OC","","<img src=""img/set1/S1.jpg"" width=""540"" height = ""360"" style=""border:16px solid orange"">","null","","","","","","","","","",""
"null","","html-keyboard-response","366","600602","0.0-366.0","3NS0A6KXC5U5RGYMGB6DGJFBIHLGZY","A1R1E7TZ9OHFIG","3URJ6VVYUP9BUCT1SZOT2DFI02L4OC","","","null","","","","","","","","","",""
"643","","image-keyboard-response","367","601247","0.0-367.0","3NS0A6KXC5U5RGYMGB6DGJFBIHLGZY","A1R1E7TZ9OHFIG","3URJ6VVYUP9BUCT1SZOT2DFI02L4OC","","img/set1/S4.jpg","74","4","structured_normal","74","structured_normal,structured_incentive,random,structured_load","1,2,4,2,2,3","2,4,1,3","true","","",""
"null","","html-keyboard-response","368","601600","0.0-368.0","3NS0A6KXC5U5RGYMGB6DGJFBIHLGZY","A1R1E7TZ9OHFIG","3URJ6VVYUP9BUCT1SZOT2DFI02L4OC","","<img src=""img/set1/S4.jpg"" width=""540"" height = ""360"" style=""border:16px solid orange"">","null","","","","","","","","","",""
"null","","html-keyboard-response","369","601801","0.0-369.0","3NS0A6KXC5U5RGYMGB6DGJFBIHLGZY","A1R1E7TZ9OHFIG","3URJ6VVYUP9BUCT1SZOT2DFI02L4OC","","","null","","","","","","","","","",""
"709","","image-keyboard-response","370","602511","0.0-370.0","3NS0A6KXC5U5RGYMGB6DGJFBIHLGZY","A1R1E7TZ9OHFIG","3URJ6VVYUP9BUCT1SZOT2DFI02L4OC","","img/set1/S3.jpg","72","3","structured_normal","72","structured_normal,structured_incentive,random,structured_load","1,2,4,2,2,3","2,4,1,3","true","","",""
"null","","html-keyboard-response","371","602862","0.0-371.0","3NS0A6KXC5U5RGYMGB6DGJFBIHLGZY","A1R1E7TZ9OHFIG","3URJ6VVYUP9BUCT1SZOT2DFI02L4OC","","<img src=""img/set1/S3.jpg"" width=""540"" height = ""360"" style=""border:16px solid orange"">","null","","","","","","","","","",""
"null","","html-keyboard-response","372","603063","0.0-372.0","3NS0A6KXC5U5RGYMGB6DGJFBIHLGZY","A1R1E7TZ9OHFIG","3URJ6VVYUP9BUCT1SZOT2DFI02L4OC","","","null","","","","","","","","","",""
"690","","image-keyboard-response","373","603755","0.0-373.0","3NS0A6KXC5U5RGYMGB6DGJFBIHLGZY","A1R1E7TZ9OHFIG","3URJ6VVYUP9BUCT1SZOT2DFI02L4OC","","img/set1/S1.jpg","83","1","structured_normal","83","structured_normal,structured_incentive,random,structured_load","1,2,4,2,2,3","2,4,1,3","true","","",""
"null","","html-keyboard-response","374","604176","0.0-374.0","3NS0A6KXC5U5RGYMGB6DGJFBIHLGZY","A1R1E7TZ9OHFIG","3URJ6VVYUP9BUCT1SZOT2DFI02L4OC","","<img src=""img/set1/S1.jpg"" width=""540"" height = ""360"" style=""border:16px solid orange"">","null","","","","","","","","","",""
"null","","html-keyboard-response","375","604395","0.0-375.0","3NS0A6KXC5U5RGYMGB6DGJFBIHLGZY","A1R1E7TZ9OHFIG","3URJ6VVYUP9BUCT1SZOT2DFI02L4OC","","","null","","","","","","","","","",""
"753","","image-keyboard-response","376","605150","0.0-376.0","3NS0A6KXC5U5RGYMGB6DGJFBIHLGZY","A1R1E7TZ9OHFIG","3URJ6VVYUP9BUCT1SZOT2DFI02L4OC","","img/set1/S2.jpg","68","2","structured_normal","68","structured_normal,structured_incentive,random,structured_load","1,2,4,2,2,3","2,4,1,3","true","","",""
"null","","html-keyboard-response","377","605501","0.0-377.0","3NS0A6KXC5U5RGYMGB6DGJFBIHLGZY","A1R1E7TZ9OHFIG","3URJ6VVYUP9BUCT1SZOT2DFI02L4OC","","<img src=""img/set1/S2.jpg"" width=""540"" height = ""360"" style=""border:16px solid orange"">","null","","","","","","","","","",""
"null","","html-keyboard-response","378","605702","0.0-378.0","3NS0A6KXC5U5RGYMGB6DGJFBIHLGZY","A1R1E7TZ9OHFIG","3URJ6VVYUP9BUCT1SZOT2DFI02L4OC","","","null","","","","","","","","","",""
"582","","image-keyboard-response","379","606285","0.0-379.0","3NS0A6KXC5U5RGYMGB6DGJFBIHLGZY","A1R1E7TZ9OHFIG","3URJ6VVYUP9BUCT1SZOT2DFI02L4OC","","img/set1/S4.jpg","74","4","structured_normal","74","structured_normal,structured_incentive,random,structured_load","1,2,4,2,2,3","2,4,1,3","true","","",""
"null","","html-keyboard-response","380","606638","0.0-380.0","3NS0A6KXC5U5RGYMGB6DGJFBIHLGZY","A1R1E7TZ9OHFIG","3URJ6VVYUP9BUCT1SZOT2DFI02L4OC","","<img src=""img/set1/S4.jpg"" width=""540"" height = ""360"" style=""border:16px solid orange"">","null","","","","","","","","","",""
"null","","html-keyboard-response","381","606839","0.0-381.0","3NS0A6KXC5U5RGYMGB6DGJFBIHLGZY","A1R1E7TZ9OHFIG","3URJ6VVYUP9BUCT1SZOT2DFI02L4OC","","","null","","","","","","","","","",""
"696","","image-keyboard-response","382","607537","0.0-382.0","3NS0A6KXC5U5RGYMGB6DGJFBIHLGZY","A1R1E7TZ9OHFIG","3URJ6VVYUP9BUCT1SZOT2DFI02L4OC","","img/set1/S4.jpg","74","4","structured_normal","74","structured_normal,structured_incentive,random,structured_load","1,2,4,2,2,3","2,4,1,3","true","","",""
"null","","html-keyboard-response","383","607922","0.0-383.0","3NS0A6KXC5U5RGYMGB6DGJFBIHLGZY","A1R1E7TZ9OHFIG","3URJ6VVYUP9BUCT1SZOT2DFI02L4OC","","<img src=""img/set1/S4.jpg"" width=""540"" height = ""360"" style=""border:16px solid orange"">","null","","","","","","","","","",""
"null","","html-keyboard-response","384","608122","0.0-384.0","3NS0A6KXC5U5RGYMGB6DGJFBIHLGZY","A1R1E7TZ9OHFIG","3URJ6VVYUP9BUCT1SZOT2DFI02L4OC","","","null","","","","","","","","","",""
"638","","image-keyboard-response","385","608762","0.0-385.0","3NS0A6KXC5U5RGYMGB6DGJFBIHLGZY","A1R1E7TZ9OHFIG","3URJ6VVYUP9BUCT1SZOT2DFI02L4OC","","img/set1/S3.jpg","72","3","structured_normal","72","structured_normal,structured_incentive,random,structured_load","1,2,4,2,2,3","2,4,1,3","true","","",""
"null","","html-keyboard-response","386","609115","0.0-386.0","3NS0A6KXC5U5RGYMGB6DGJFBIHLGZY","A1R1E7TZ9OHFIG","3URJ6VVYUP9BUCT1SZOT2DFI02L4OC","","<img src=""img/set1/S3.jpg"" width=""540"" height = ""360"" style=""border:16px solid orange"">","null","","","","","","","","","",""
"null","","html-keyboard-response","387","609315","0.0-387.0","3NS0A6KXC5U5RGYMGB6DGJFBIHLGZY","A1R1E7TZ9OHFIG","3URJ6VVYUP9BUCT1SZOT2DFI02L4OC","","","null","","","","","","","","","",""
"878","","image-keyboard-response","388","610195","0.0-388.0","3NS0A6KXC5U5RGYMGB6DGJFBIHLGZY","A1R1E7TZ9OHFIG","3URJ6VVYUP9BUCT1SZOT2DFI02L4OC","","img/set1/S2.jpg","68","2","structured_normal","68","structured_normal,structured_incentive,random,structured_load","1,2,4,2,2,3","2,4,1,3","true","","",""
