"rt","url","trial_type","trial_index","time_elapsed","internal_node_id","view_history","stimulus","key_press","state","test_part","correct_response","order_block","order_chunk","order_freq","correct","responses","question_order","bonus"
"4463.599999904633","consent.html","external-html","0","4643","0.0-0.0","","","","","","","","","","","","",""
"19566.5","","instructions","1","24212","0.0-1.0","[{""page_index"":0,""viewing_time"":4278},{""page_index"":1,""viewing_time"":1744.4000000953674},{""page_index"":2,""viewing_time"":1279.5999999046326},{""page_index"":3,""viewing_time"":3399.5999999046326},{""page_index"":4,""viewing_time"":1582.7000002861023},{""page_index"":5,""viewing_time"":4192.099999904633},{""page_index"":6,""viewing_time"":3088.5999999046326}]","","","","","","","","","","","",""
"2893.199999809265","","instructions","2","27108","0.0-2.0","[{""page_index"":0,""viewing_time"":2892.7999997138977}]","","","","","","","","","","","",""
"1148","","instructions","3","28258","0.0-3.0","[{""page_index"":0,""viewing_time"":1147.5}]","","","","","","","","","","","",""
"null","","image-keyboard-response","4","30762","0.0-4.0","","img/set1/S1.jpg","null","1","random","83","random,structured_load,structured_normal,structured_incentive","3,4,2,1,2,3","4,2,3,1","false","","",""
"null","","html-keyboard-response","5","31117","0.0-5.0","","<img src=""img/set1/S1.jpg"" width=""540"" height = ""360"">","null","","","","","","","","","",""
"null","","html-keyboard-response","6","31319","0.0-6.0","","","null","","","","","","","","","",""
"null","","image-keyboard-response","7","33824","0.0-7.0","","img/set1/S4.jpg","null","4","random","74","random,structured_load,structured_normal,structured_incentive","3,4,2,1,2,3","4,2,3,1","false","","",""
"null","","html-keyboard-response","8","34178","0.0-8.0","","<img src=""img/set1/S4.jpg"" width=""540"" height = ""360"">","null","","","","","","","","","",""
"null","","html-keyboard-response","9","34380","0.0-9.0","","","null","","","","","","","","","",""
"45.60000038146973","","image-keyboard-response","10","34428","0.0-10.0","","img/set1/S1.jpg","74","1","random","83","random,structured_load,structured_normal,structured_incentive","3,4,2,1,2,3","4,2,3,1","false","","",""
"null","","html-keyboard-response","11","34780","0.0-11.0","","<img src=""img/set1/S1.jpg"" width=""540"" height = ""360"">","null","","","","","","","","","",""
"null","","html-keyboard-response","12","34982","0.0-12.0","","","null","","","","","","","","","",""
"82.7999997138977","","image-keyboard-response","13","35066","0.0-13.0","","img/set1/S2.jpg","68","2","random","68","random,structured_load,structured_normal,structured_incentive","3,4,2,1,2,3","4,2,3,1","true","","",""
"null","","html-keyboard-response","14","35420","0.0-14.0","","<img src=""img/set1/S2.jpg"" width=""540"" height = ""360"" style=""border:16px solid orange"">","null","","","","","","","","","",""
"null","","html-keyboard-response","15","35622","0.0-15.0","","","null","","","","","","","","","",""
"20.09999990463257","","image-keyboard-response","16","35644","0.0-16.0","","img/set1/S2.jpg","74","2","random","68","random,structured_load,structured_normal,structured_incentive","3,4,2,1,2,3","4,2,3,1","false","","",""
"null","","html-keyboard-response","17","35998","0.0-17.0","","<img src=""img/set1/S2.jpg"" width=""540"" height = ""360"">","null","","","","","","","","","",""
"null","","html-keyboard-response","18","36200","0.0-18.0","","","null","","","","","","","","","",""
"18.199999809265137","","image-keyboard-response","19","36219","0.0-19.0","","img/set1/S3.jpg","83","3","random","72","random,structured_load,structured_normal,structured_incentive","3,4,2,1,2,3","4,2,3,1","false","","",""
"null","","html-keyboard-response","20","36572","0.0-20.0","","<img src=""img/set1/S3.jpg"" width=""540"" height = ""360"">","null","","","","","","","","","",""
"null","","html-keyboard-response","21","36773","0.0-21.0","","","null","","","","","","","","","",""
"35.69999980926514","","image-keyboard-response","22","36810","0.0-22.0","","img/set1/S3.jpg","72","3","random","72","random,structured_load,structured_normal,structured_incentive","3,4,2,1,2,3","4,2,3,1","true","","",""
"null","","html-keyboard-response","23","37162","0.0-23.0","","<img src=""img/set1/S3.jpg"" width=""540"" height = ""360"" style=""border:16px solid orange"">","null","","","","","","","","","",""
"null","","html-keyboard-response","24","37364","0.0-24.0","","","null","","","","","","","","","",""
"5.099999904632568","","image-keyboard-response","25","37371","0.0-25.0","","img/set1/S2.jpg","68","2","random","68","random,structured_load,structured_normal,structured_incentive","3,4,2,1,2,3","4,2,3,1","true","","",""
"null","","html-keyboard-response","26","37723","0.0-26.0","","<img src=""img/set1/S2.jpg"" width=""540"" height = ""360"" style=""border:16px solid orange"">","null","","","","","","","","","",""
"null","","html-keyboard-response","27","37925","0.0-27.0","","","null","","","","","","","","","",""
"3.4000000953674316","","image-keyboard-response","28","37930","0.0-28.0","","img/set1/S1.jpg","74","1","random","83","random,structured_load,structured_normal,structured_incentive","3,4,2,1,2,3","4,2,3,1","false","","",""
"null","","html-keyboard-response","29","38284","0.0-29.0","","<img src=""img/set1/S1.jpg"" width=""540"" height = ""360"">","null","","","","","","","","","",""
"null","","html-keyboard-response","30","38485","0.0-30.0","","","null","","","","","","","","","",""
"75","","image-keyboard-response","31","38562","0.0-31.0","","img/set1/S4.jpg","74","4","random","74","random,structured_load,structured_normal,structured_incentive","3,4,2,1,2,3","4,2,3,1","true","","",""
"null","","html-keyboard-response","32","38914","0.0-32.0","","<img src=""img/set1/S4.jpg"" width=""540"" height = ""360"" style=""border:16px solid orange"">","null","","","","","","","","","",""
"null","","html-keyboard-response","33","39115","0.0-33.0","","","null","","","","","","","","","",""
"70.90000009536743","","image-keyboard-response","34","39188","0.0-34.0","","img/set1/S1.jpg","83","1","random","83","random,structured_load,structured_normal,structured_incentive","3,4,2,1,2,3","4,2,3,1","true","","",""
"null","","html-keyboard-response","35","39539","0.0-35.0","","<img src=""img/set1/S1.jpg"" width=""540"" height = ""360"" style=""border:16px solid orange"">","null","","","","","","","","","",""
"null","","html-keyboard-response","36","39741","0.0-36.0","","","null","","","","","","","","","",""
"12.199999809265137","","image-keyboard-response","37","39755","0.0-37.0","","img/set1/S2.jpg","83","2","random","68","random,structured_load,structured_normal,structured_incentive","3,4,2,1,2,3","4,2,3,1","false","","",""
"null","","html-keyboard-response","38","40107","0.0-38.0","","<img src=""img/set1/S2.jpg"" width=""540"" height = ""360"">","null","","","","","","","","","",""
"null","","html-keyboard-response","39","40310","0.0-39.0","","","null","","","","","","","","","",""
"3.9000000953674316","","image-keyboard-response","40","40315","0.0-40.0","","img/set1/S3.jpg","83","3","random","72","random,structured_load,structured_normal,structured_incentive","3,4,2,1,2,3","4,2,3,1","false","","",""
"null","","html-keyboard-response","41","40668","0.0-41.0","","<img src=""img/set1/S3.jpg"" width=""540"" height = ""360"">","null","","","","","","","","","",""
"null","","html-keyboard-response","42","40870","0.0-42.0","","","null","","","","","","","","","",""
"7","","image-keyboard-response","43","40878","0.0-43.0","","img/set1/S1.jpg","74","1","random","83","random,structured_load,structured_normal,structured_incentive","3,4,2,1,2,3","4,2,3,1","false","","",""
"null","","html-keyboard-response","44","41231","0.0-44.0","","<img src=""img/set1/S1.jpg"" width=""540"" height = ""360"">","null","","","","","","","","","",""
"null","","html-keyboard-response","45","41432","0.0-45.0","","","null","","","","","","","","","",""
"9.099999904632568","","image-keyboard-response","46","41442","0.0-46.0","","img/set1/S4.jpg","72","4","random","74","random,structured_load,structured_normal,structured_incentive","3,4,2,1,2,3","4,2,3,1","false","","",""
"null","","html-keyboard-response","47","41794","0.0-47.0","","<img src=""img/set1/S4.jpg"" width=""540"" height = ""360"">","null","","","","","","","","","",""
"null","","html-keyboard-response","48","41996","0.0-48.0","","","null","","","","","","","","","",""
"null","","image-keyboard-response","49","44498","0.0-49.0","","img/set1/S2.jpg","null","2","random","68","random,structured_load,structured_normal,structured_incentive","3,4,2,1,2,3","4,2,3,1","false","","",""
"null","","html-keyboard-response","50","44850","0.0-50.0","","<img src=""img/set1/S2.jpg"" width=""540"" height = ""360"">","null","","","","","","","","","",""
"null","","html-keyboard-response","51","45052","0.0-51.0","","","null","","","","","","","","","",""
"654.6999998092651","","image-keyboard-response","52","45708","0.0-52.0","","img/set1/S2.jpg","83","2","random","68","random,structured_load,structured_normal,structured_incentive","3,4,2,1,2,3","4,2,3,1","false","","",""
"null","","html-keyboard-response","53","46062","0.0-53.0","","<img src=""img/set1/S2.jpg"" width=""540"" height = ""360"">","null","","","","","","","","","",""
"null","","html-keyboard-response","54","46263","0.0-54.0","","","null","","","","","","","","","",""
"116.7999997138977","","image-keyboard-response","55","46381","0.0-55.0","","img/set1/S3.jpg","68","3","random","72","random,structured_load,structured_normal,structured_incentive","3,4,2,1,2,3","4,2,3,1","false","","",""
"null","","html-keyboard-response","56","46733","0.0-56.0","","<img src=""img/set1/S3.jpg"" width=""540"" height = ""360"">","null","","","","","","","","","",""
"null","","html-keyboard-response","57","46936","0.0-57.0","","","null","","","","","","","","","",""
"852.5999999046326","","image-keyboard-response","58","47790","0.0-58.0","","img/set1/S2.jpg","72","2","random","68","random,structured_load,structured_normal,structured_incentive","3,4,2,1,2,3","4,2,3,1","false","","",""
"null","","html-keyboard-response","59","48142","0.0-59.0","","<img src=""img/set1/S2.jpg"" width=""540"" height = ""360"">","null","","","","","","","","","",""
"null","","html-keyboard-response","60","48343","0.0-60.0","","","null","","","","","","","","","",""
"154.59999990463257","","image-keyboard-response","61","48499","0.0-61.0","","img/set1/S3.jpg","68","3","random","72","random,structured_load,structured_normal,structured_incentive","3,4,2,1,2,3","4,2,3,1","false","","",""
"null","","html-keyboard-response","62","48852","0.0-62.0","","<img src=""img/set1/S3.jpg"" width=""540"" height = ""360"">","null","","","","","","","","","",""
"null","","html-keyboard-response","63","49054","0.0-63.0","","","null","","","","","","","","","",""
"61.09999990463257","","image-keyboard-response","64","49116","0.0-64.0","","img/set1/S2.jpg","68","2","random","68","random,structured_load,structured_normal,structured_incentive","3,4,2,1,2,3","4,2,3,1","true","","",""
"null","","html-keyboard-response","65","49468","0.0-65.0","","<img src=""img/set1/S2.jpg"" width=""540"" height = ""360"" style=""border:16px solid orange"">","null","","","","","","","","","",""
"null","","html-keyboard-response","66","49669","0.0-66.0","","","null","","","","","","","","","",""
"94.2999997138977","","image-keyboard-response","67","49765","0.0-67.0","","img/set1/S4.jpg","83","4","random","74","random,structured_load,structured_normal,structured_incentive","3,4,2,1,2,3","4,2,3,1","false","","",""
"null","","html-keyboard-response","68","50117","0.0-68.0","","<img src=""img/set1/S4.jpg"" width=""540"" height = ""360"">","null","","","","","","","","","",""
"null","","html-keyboard-response","69","50320","0.0-69.0","","","null","","","","","","","","","",""
"16.5","","image-keyboard-response","70","50339","0.0-70.0","","img/set1/S3.jpg","68","3","random","72","random,structured_load,structured_normal,structured_incentive","3,4,2,1,2,3","4,2,3,1","false","","",""
"null","","html-keyboard-response","71","50691","0.0-71.0","","<img src=""img/set1/S3.jpg"" width=""540"" height = ""360"">","null","","","","","","","","","",""
"null","","html-keyboard-response","72","50893","0.0-72.0","","","null","","","","","","","","","",""
"70.80000019073486","","image-keyboard-response","73","50965","0.0-73.0","","img/set1/S2.jpg","68","2","random","68","random,structured_load,structured_normal,structured_incentive","3,4,2,1,2,3","4,2,3,1","true","","",""
"null","","html-keyboard-response","74","51317","0.0-74.0","","<img src=""img/set1/S2.jpg"" width=""540"" height = ""360"" style=""border:16px solid orange"">","null","","","","","","","","","",""
"null","","html-keyboard-response","75","51519","0.0-75.0","","","null","","","","","","","","","",""
"116.7999997138977","","image-keyboard-response","76","51637","0.0-76.0","","img/set1/S2.jpg","68","2","random","68","random,structured_load,structured_normal,structured_incentive","3,4,2,1,2,3","4,2,3,1","true","","",""
"null","","html-keyboard-response","77","51990","0.0-77.0","","<img src=""img/set1/S2.jpg"" width=""540"" height = ""360"" style=""border:16px solid orange"">","null","","","","","","","","","",""
"null","","html-keyboard-response","78","52192","0.0-78.0","","","null","","","","","","","","","",""
"4.200000286102295","","image-keyboard-response","79","52197","0.0-79.0","","img/set1/S1.jpg","68","1","random","83","random,structured_load,structured_normal,structured_incentive","3,4,2,1,2,3","4,2,3,1","false","","",""
"null","","html-keyboard-response","80","52549","0.0-80.0","","<img src=""img/set1/S1.jpg"" width=""540"" height = ""360"">","null","","","","","","","","","",""
"null","","html-keyboard-response","81","52751","0.0-81.0","","","null","","","","","","","","","",""
"197.39999961853027","","image-keyboard-response","82","52950","0.0-82.0","","img/set1/S4.jpg","83","4","random","74","random,structured_load,structured_normal,structured_incentive","3,4,2,1,2,3","4,2,3,1","false","","",""
"null","","html-keyboard-response","83","53301","0.0-83.0","","<img src=""img/set1/S4.jpg"" width=""540"" height = ""360"">","null","","","","","","","","","",""
"null","","html-keyboard-response","84","53503","0.0-84.0","","","null","","","","","","","","","",""
"67.2000002861023","","image-keyboard-response","85","53572","0.0-85.0","","img/set1/S2.jpg","83","2","random","68","random,structured_load,structured_normal,structured_incentive","3,4,2,1,2,3","4,2,3,1","false","","",""
"null","","html-keyboard-response","86","53925","0.0-86.0","","<img src=""img/set1/S2.jpg"" width=""540"" height = ""360"">","null","","","","","","","","","",""
"null","","html-keyboard-response","87","54126","0.0-87.0","","","null","","","","","","","","","",""
"109.80000019073486","","image-keyboard-response","88","54237","0.0-88.0","","img/set1/S2.jpg","68","2","random","68","random,structured_load,structured_normal,structured_incentive","3,4,2,1,2,3","4,2,3,1","true","","",""
"null","","html-keyboard-response","89","54590","0.0-89.0","","<img src=""img/set1/S2.jpg"" width=""540"" height = ""360"" style=""border:16px solid orange"">","null","","","","","","","","","",""
"null","","html-keyboard-response","90","54792","0.0-90.0","","","null","","","","","","","","","",""
"189.19999980926514","","image-keyboard-response","91","54982","0.0-91.0","","img/set1/S3.jpg","68","3","random","72","random,structured_load,structured_normal,structured_incentive","3,4,2,1,2,3","4,2,3,1","false","","",""
"null","","html-keyboard-response","92","55334","0.0-92.0","","<img src=""img/set1/S3.jpg"" width=""540"" height = ""360"">","null","","","","","","","","","",""
"null","","html-keyboard-response","93","55536","0.0-93.0","","","null","","","","","","","","","",""
"146.5","","image-keyboard-response","94","55684","0.0-94.0","","img/set1/S3.jpg","74","3","random","72","random,structured_load,structured_normal,structured_incentive","3,4,2,1,2,3","4,2,3,1","false","","",""
"null","","html-keyboard-response","95","56036","0.0-95.0","","<img src=""img/set1/S3.jpg"" width=""540"" height = ""360"">","null","","","","","","","","","",""
"null","","html-keyboard-response","96","56237","0.0-96.0","","","null","","","","","","","","","",""
"1238.0999999046326","","image-keyboard-response","97","57479","0.0-97.0","","img/set1/S2.jpg","74","2","random","68","random,structured_load,structured_normal,structured_incentive","3,4,2,1,2,3","4,2,3,1","false","","",""
"null","","html-keyboard-response","98","57831","0.0-98.0","","<img src=""img/set1/S2.jpg"" width=""540"" height = ""360"">","null","","","","","","","","","",""
"null","","html-keyboard-response","99","58033","0.0-99.0","","","null","","","","","","","","","",""
"156.10000038146973","","image-keyboard-response","100","58190","0.0-100.0","","img/set1/S3.jpg","72","3","random","72","random,structured_load,structured_normal,structured_incentive","3,4,2,1,2,3","4,2,3,1","true","","",""
"null","","html-keyboard-response","101","58542","0.0-101.0","","<img src=""img/set1/S3.jpg"" width=""540"" height = ""360"" style=""border:16px solid orange"">","null","","","","","","","","","",""
"null","","html-keyboard-response","102","58744","0.0-102.0","","","null","","","","","","","","","",""
"517.0999999046326","","image-keyboard-response","103","59263","0.0-103.0","","img/set1/S1.jpg","74","1","random","83","random,structured_load,structured_normal,structured_incentive","3,4,2,1,2,3","4,2,3,1","false","","",""
"null","","html-keyboard-response","104","59615","0.0-104.0","","<img src=""img/set1/S1.jpg"" width=""540"" height = ""360"">","null","","","","","","","","","",""
"null","","html-keyboard-response","105","59817","0.0-105.0","","","null","","","","","","","","","",""
"73.80000019073486","","image-keyboard-response","106","59892","0.0-106.0","","img/set1/S1.jpg","83","1","random","83","random,structured_load,structured_normal,structured_incentive","3,4,2,1,2,3","4,2,3,1","true","","",""
"null","","html-keyboard-response","107","60245","0.0-107.0","","<img src=""img/set1/S1.jpg"" width=""540"" height = ""360"" style=""border:16px solid orange"">","null","","","","","","","","","",""
"null","","html-keyboard-response","108","60445","0.0-108.0","","","null","","","","","","","","","",""
"45.799999713897705","","image-keyboard-response","109","60492","0.0-109.0","","img/set1/S1.jpg","68","1","random","83","random,structured_load,structured_normal,structured_incentive","3,4,2,1,2,3","4,2,3,1","false","","",""
"null","","html-keyboard-response","110","60844","0.0-110.0","","<img src=""img/set1/S1.jpg"" width=""540"" height = ""360"">","null","","","","","","","","","",""
"null","","html-keyboard-response","111","61046","0.0-111.0","","","null","","","","","","","","","",""
"85","","image-keyboard-response","112","61132","0.0-112.0","","img/set1/S4.jpg","83","4","random","74","random,structured_load,structured_normal,structured_incentive","3,4,2,1,2,3","4,2,3,1","false","","",""
"null","","html-keyboard-response","113","61484","0.0-113.0","","<img src=""img/set1/S4.jpg"" width=""540"" height = ""360"">","null","","","","","","","","","",""
"null","","html-keyboard-response","114","61687","0.0-114.0","","","null","","","","","","","","","",""
"7.699999809265137","","image-keyboard-response","115","61695","0.0-115.0","","img/set1/S2.jpg","74","2","random","68","random,structured_load,structured_normal,structured_incentive","3,4,2,1,2,3","4,2,3,1","false","","",""
"null","","html-keyboard-response","116","62048","0.0-116.0","","<img src=""img/set1/S2.jpg"" width=""540"" height = ""360"">","null","","","","","","","","","",""
"null","","html-keyboard-response","117","62250","0.0-117.0","","","null","","","","","","","","","",""
"121","","image-keyboard-response","118","62372","0.0-118.0","","img/set1/S1.jpg","83","1","random","83","random,structured_load,structured_normal,structured_incentive","3,4,2,1,2,3","4,2,3,1","true","","",""
"null","","html-keyboard-response","119","62724","0.0-119.0","","<img src=""img/set1/S1.jpg"" width=""540"" height = ""360"" style=""border:16px solid orange"">","null","","","","","","","","","",""
"null","","html-keyboard-response","120","62927","0.0-120.0","","","null","","","","","","","","","",""
"69.5","","image-keyboard-response","121","62998","0.0-121.0","","img/set1/S2.jpg","68","2","random","68","random,structured_load,structured_normal,structured_incentive","3,4,2,1,2,3","4,2,3,1","true","","",""
"null","","html-keyboard-response","122","63350","0.0-122.0","","<img src=""img/set1/S2.jpg"" width=""540"" height = ""360"" style=""border:16px solid orange"">","null","","","","","","","","","",""
"null","","html-keyboard-response","123","63552","0.0-123.0","","","null","","","","","","","","","",""
"22.09999990463257","","image-keyboard-response","124","63575","0.0-124.0","","img/set1/S1.jpg","68","1","random","83","random,structured_load,structured_normal,structured_incentive","3,4,2,1,2,3","4,2,3,1","false","","",""
"null","","html-keyboard-response","125","63927","0.0-125.0","","<img src=""img/set1/S1.jpg"" width=""540"" height = ""360"">","null","","","","","","","","","",""
"null","","html-keyboard-response","126","64129","0.0-126.0","","","null","","","","","","","","","",""
"106.19999980926514","","image-keyboard-response","127","64237","0.0-127.0","","img/set1/S3.jpg","83","3","random","72","random,structured_load,structured_normal,structured_incentive","3,4,2,1,2,3","4,2,3,1","false","","",""
"null","","html-keyboard-response","128","64589","0.0-128.0","","<img src=""img/set1/S3.jpg"" width=""540"" height = ""360"">","null","","","","","","","","","",""
"null","","html-keyboard-response","129","64791","0.0-129.0","","","null","","","","","","","","","",""
"86.5","","image-keyboard-response","130","64878","0.0-130.0","","img/set1/S3.jpg","68","3","random","72","random,structured_load,structured_normal,structured_incentive","3,4,2,1,2,3","4,2,3,1","false","","",""
"null","","html-keyboard-response","131","65230","0.0-131.0","","<img src=""img/set1/S3.jpg"" width=""540"" height = ""360"">","null","","","","","","","","","",""
"null","","html-keyboard-response","132","65431","0.0-132.0","","","null","","","","","","","","","",""
"79.30000019073486","","image-keyboard-response","133","65512","0.0-133.0","","img/set1/S1.jpg","83","1","random","83","random,structured_load,structured_normal,structured_incentive","3,4,2,1,2,3","4,2,3,1","true","","",""
"null","","html-keyboard-response","134","65866","0.0-134.0","","<img src=""img/set1/S1.jpg"" width=""540"" height = ""360"" style=""border:16px solid orange"">","null","","","","","","","","","",""
"null","","html-keyboard-response","135","66067","0.0-135.0","","","null","","","","","","","","","",""
"3.299999713897705","","image-keyboard-response","136","66071","0.0-136.0","","img/set1/S2.jpg","72","2","random","68","random,structured_load,structured_normal,structured_incentive","3,4,2,1,2,3","4,2,3,1","false","","",""
"null","","html-keyboard-response","137","66423","0.0-137.0","","<img src=""img/set1/S2.jpg"" width=""540"" height = ""360"">","null","","","","","","","","","",""
"null","","html-keyboard-response","138","66626","0.0-138.0","","","null","","","","","","","","","",""
"138.40000009536743","","image-keyboard-response","139","66765","0.0-139.0","","img/set1/S2.jpg","72","2","random","68","random,structured_load,structured_normal,structured_incentive","3,4,2,1,2,3","4,2,3,1","false","","",""
"null","","html-keyboard-response","140","67118","0.0-140.0","","<img src=""img/set1/S2.jpg"" width=""540"" height = ""360"">","null","","","","","","","","","",""
"null","","html-keyboard-response","141","67319","0.0-141.0","","","null","","","","","","","","","",""
"38.5","","image-keyboard-response","142","67359","0.0-142.0","","img/set1/S3.jpg","83","3","random","72","random,structured_load,structured_normal,structured_incentive","3,4,2,1,2,3","4,2,3,1","false","","",""
"null","","html-keyboard-response","143","67710","0.0-143.0","","<img src=""img/set1/S3.jpg"" width=""540"" height = ""360"">","null","","","","","","","","","",""
"null","","html-keyboard-response","144","67911","0.0-144.0","","","null","","","","","","","","","",""
"62.30000019073486","","image-keyboard-response","145","67975","0.0-145.0","","img/set1/S1.jpg","68","1","random","83","random,structured_load,structured_normal,structured_incentive","3,4,2,1,2,3","4,2,3,1","false","","",""
"null","","html-keyboard-response","146","68327","0.0-146.0","","<img src=""img/set1/S1.jpg"" width=""540"" height = ""360"">","null","","","","","","","","","",""
"null","","html-keyboard-response","147","68529","0.0-147.0","","","null","","","","","","","","","",""
"114.7999997138977","","image-keyboard-response","148","68645","0.0-148.0","","img/set1/S1.jpg","83","1","random","83","random,structured_load,structured_normal,structured_incentive","3,4,2,1,2,3","4,2,3,1","true","","",""
"null","","html-keyboard-response","149","68997","0.0-149.0","","<img src=""img/set1/S1.jpg"" width=""540"" height = ""360"" style=""border:16px solid orange"">","null","","","","","","","","","",""
"null","","html-keyboard-response","150","69199","0.0-150.0","","","null","","","","","","","","","",""
"96.40000009536743","","image-keyboard-response","151","69297","0.0-151.0","","img/set1/S2.jpg","68","2","random","68","random,structured_load,structured_normal,structured_incentive","3,4,2,1,2,3","4,2,3,1","true","","",""
"null","","html-keyboard-response","152","69649","0.0-152.0","","<img src=""img/set1/S2.jpg"" width=""540"" height = ""360"" style=""border:16px solid orange"">","null","","","","","","","","","",""
"null","","html-keyboard-response","153","69850","0.0-153.0","","","null","","","","","","","","","",""
"122.30000019073486","","image-keyboard-response","154","69973","0.0-154.0","","img/set1/S3.jpg","83","3","random","72","random,structured_load,structured_normal,structured_incentive","3,4,2,1,2,3","4,2,3,1","false","","",""
"null","","html-keyboard-response","155","70326","0.0-155.0","","<img src=""img/set1/S3.jpg"" width=""540"" height = ""360"">","null","","","","","","","","","",""
"null","","html-keyboard-response","156","70532","0.0-156.0","","","null","","","","","","","","","",""
"50.59999990463257","","image-keyboard-response","157","70583","0.0-157.0","","img/set1/S4.jpg","72","4","random","74","random,structured_load,structured_normal,structured_incentive","3,4,2,1,2,3","4,2,3,1","false","","",""
"null","","html-keyboard-response","158","70935","0.0-158.0","","<img src=""img/set1/S4.jpg"" width=""540"" height = ""360"">","null","","","","","","","","","",""
"null","","html-keyboard-response","159","71138","0.0-159.0","","","null","","","","","","","","","",""
"3.8000001907348633","","image-keyboard-response","160","71143","0.0-160.0","","img/set1/S4.jpg","68","4","random","74","random,structured_load,structured_normal,structured_incentive","3,4,2,1,2,3","4,2,3,1","false","","",""
"null","","html-keyboard-response","161","71495","0.0-161.0","","<img src=""img/set1/S4.jpg"" width=""540"" height = ""360"">","null","","","","","","","","","",""
"null","","html-keyboard-response","162","71696","0.0-162.0","","","null","","","","","","","","","",""
"158.40000009536743","","image-keyboard-response","163","71856","0.0-163.0","","img/set1/S1.jpg","83","1","random","83","random,structured_load,structured_normal,structured_incentive","3,4,2,1,2,3","4,2,3,1","true","","",""
"null","","html-keyboard-response","164","72209","0.0-164.0","","<img src=""img/set1/S1.jpg"" width=""540"" height = ""360"" style=""border:16px solid orange"">","null","","","","","","","","","",""
"null","","html-keyboard-response","165","72410","0.0-165.0","","","null","","","","","","","","","",""
"74.09999990463257","","image-keyboard-response","166","72485","0.0-166.0","","img/set1/S2.jpg","68","2","random","68","random,structured_load,structured_normal,structured_incentive","3,4,2,1,2,3","4,2,3,1","true","","",""
"null","","html-keyboard-response","167","72837","0.0-167.0","","<img src=""img/set1/S2.jpg"" width=""540"" height = ""360"" style=""border:16px solid orange"">","null","","","","","","","","","",""
"null","","html-keyboard-response","168","73038","0.0-168.0","","","null","","","","","","","","","",""
"133.69999980926514","","image-keyboard-response","169","73173","0.0-169.0","","img/set1/S1.jpg","83","1","random","83","random,structured_load,structured_normal,structured_incentive","3,4,2,1,2,3","4,2,3,1","true","","",""
"null","","html-keyboard-response","170","73525","0.0-170.0","","<img src=""img/set1/S1.jpg"" width=""540"" height = ""360"" style=""border:16px solid orange"">","null","","","","","","","","","",""
"null","","html-keyboard-response","171","73726","0.0-171.0","","","null","","","","","","","","","",""
"69.7999997138977","","image-keyboard-response","172","73797","0.0-172.0","","img/set1/S1.jpg","68","1","random","83","random,structured_load,structured_normal,structured_incentive","3,4,2,1,2,3","4,2,3,1","false","","",""
"null","","html-keyboard-response","173","74148","0.0-173.0","","<img src=""img/set1/S1.jpg"" width=""540"" height = ""360"">","null","","","","","","","","","",""
"null","","html-keyboard-response","174","74349","0.0-174.0","","","null","","","","","","","","","",""
"6.900000095367432","","image-keyboard-response","175","74357","0.0-175.0","","img/set1/S2.jpg","72","2","random","68","random,structured_load,structured_normal,structured_incentive","3,4,2,1,2,3","4,2,3,1","false","","",""
"null","","html-keyboard-response","176","74709","0.0-176.0","","<img src=""img/set1/S2.jpg"" width=""540"" height = ""360"">","null","","","","","","","","","",""
"null","","html-keyboard-response","177","74912","0.0-177.0","","","null","","","","","","","","","",""
"8.599999904632568","","image-keyboard-response","178","74922","0.0-178.0","","img/set1/S3.jpg","68","3","random","72","random,structured_load,structured_normal,structured_incentive","3,4,2,1,2,3","4,2,3,1","false","","",""
"null","","html-keyboard-response","179","75274","0.0-179.0","","<img src=""img/set1/S3.jpg"" width=""540"" height = ""360"">","null","","","","","","","","","",""
"null","","html-keyboard-response","180","75475","0.0-180.0","","","null","","","","","","","","","",""
"160.40000009536743","","image-keyboard-response","181","75637","0.0-181.0","","img/set1/S2.jpg","83","2","random","68","random,structured_load,structured_normal,structured_incentive","3,4,2,1,2,3","4,2,3,1","false","","",""
"null","","html-keyboard-response","182","75988","0.0-182.0","","<img src=""img/set1/S2.jpg"" width=""540"" height = ""360"">","null","","","","","","","","","",""
"null","","html-keyboard-response","183","76189","0.0-183.0","","","null","","","","","","","","","",""
"65.30000019073486","","image-keyboard-response","184","76256","0.0-184.0","","img/set1/S4.jpg","68","4","random","74","random,structured_load,structured_normal,structured_incentive","3,4,2,1,2,3","4,2,3,1","false","","",""
"null","","html-keyboard-response","185","76608","0.0-185.0","","<img src=""img/set1/S4.jpg"" width=""540"" height = ""360"">","null","","","","","","","","","",""
"null","","html-keyboard-response","186","76810","0.0-186.0","","","null","","","","","","","","","",""
"5","","image-keyboard-response","187","76816","0.0-187.0","","img/set1/S3.jpg","72","3","random","72","random,structured_load,structured_normal,structured_incentive","3,4,2,1,2,3","4,2,3,1","true","","",""
"null","","html-keyboard-response","188","77168","0.0-188.0","","<img src=""img/set1/S3.jpg"" width=""540"" height = ""360"" style=""border:16px solid orange"">","null","","","","","","","","","",""
"null","","html-keyboard-response","189","77370","0.0-189.0","","","null","","","","","","","","","",""
"4.400000095367432","","image-keyboard-response","190","77375","0.0-190.0","","img/set1/S1.jpg","72","1","random","83","random,structured_load,structured_normal,structured_incentive","3,4,2,1,2,3","4,2,3,1","false","","",""
"null","","html-keyboard-response","191","77727","0.0-191.0","","<img src=""img/set1/S1.jpg"" width=""540"" height = ""360"">","null","","","","","","","","","",""
"null","","html-keyboard-response","192","77929","0.0-192.0","","","null","","","","","","","","","",""
"107.90000009536743","","image-keyboard-response","193","78038","0.0-193.0","","img/set1/S1.jpg","83","1","random","83","random,structured_load,structured_normal,structured_incentive","3,4,2,1,2,3","4,2,3,1","true","","",""
"null","","html-keyboard-response","194","78390","0.0-194.0","","<img src=""img/set1/S1.jpg"" width=""540"" height = ""360"" style=""border:16px solid orange"">","null","","","","","","","","","",""
"null","","html-keyboard-response","195","78591","0.0-195.0","","","null","","","","","","","","","",""
"119","","image-keyboard-response","196","78711","0.0-196.0","","img/set1/S4.jpg","68","4","random","74","random,structured_load,structured_normal,structured_incentive","3,4,2,1,2,3","4,2,3,1","false","","",""
"null","","html-keyboard-response","197","79063","0.0-197.0","","<img src=""img/set1/S4.jpg"" width=""540"" height = ""360"">","null","","","","","","","","","",""
"null","","html-keyboard-response","198","79264","0.0-198.0","","","null","","","","","","","","","",""
"78.30000019073486","","image-keyboard-response","199","79344","0.0-199.0","","img/set1/S1.jpg","68","1","random","83","random,structured_load,structured_normal,structured_incentive","3,4,2,1,2,3","4,2,3,1","false","","",""
"null","","html-keyboard-response","200","79696","0.0-200.0","","<img src=""img/set1/S1.jpg"" width=""540"" height = ""360"">","null","","","","","","","","","",""
"null","","html-keyboard-response","201","79897","0.0-201.0","","","null","","","","","","","","","",""
"28.5","","image-keyboard-response","202","79927","0.0-202.0","","img/set1/S1.jpg","68","1","random","83","random,structured_load,structured_normal,structured_incentive","3,4,2,1,2,3","4,2,3,1","false","","",""
"null","","html-keyboard-response","203","80280","0.0-203.0","","<img src=""img/set1/S1.jpg"" width=""540"" height = ""360"">","null","","","","","","","","","",""
"null","","html-keyboard-response","204","80481","0.0-204.0","","","null","","","","","","","","","",""
"11.599999904632568","","image-keyboard-response","205","80494","0.0-205.0","","img/set1/S3.jpg","72","3","random","72","random,structured_load,structured_normal,structured_incentive","3,4,2,1,2,3","4,2,3,1","true","","",""
"null","","html-keyboard-response","206","80847","0.0-206.0","","<img src=""img/set1/S3.jpg"" width=""540"" height = ""360"" style=""border:16px solid orange"">","null","","","","","","","","","",""
"null","","html-keyboard-response","207","81049","0.0-207.0","","","null","","","","","","","","","",""
"124.5","","image-keyboard-response","208","81174","0.0-208.0","","img/set1/S4.jpg","83","4","random","74","random,structured_load,structured_normal,structured_incentive","3,4,2,1,2,3","4,2,3,1","false","","",""
"null","","html-keyboard-response","209","81527","0.0-209.0","","<img src=""img/set1/S4.jpg"" width=""540"" height = ""360"">","null","","","","","","","","","",""
"null","","html-keyboard-response","210","81728","0.0-210.0","","","null","","","","","","","","","",""
"83.90000009536743","","image-keyboard-response","211","81814","0.0-211.0","","img/set1/S1.jpg","72","1","random","83","random,structured_load,structured_normal,structured_incentive","3,4,2,1,2,3","4,2,3,1","false","","",""
"null","","html-keyboard-response","212","82166","0.0-212.0","","<img src=""img/set1/S1.jpg"" width=""540"" height = ""360"">","null","","","","","","","","","",""
"null","","html-keyboard-response","213","82368","0.0-213.0","","","null","","","","","","","","","",""
"38.200000286102295","","image-keyboard-response","214","82407","0.0-214.0","","img/set1/S4.jpg","68","4","random","74","random,structured_load,structured_normal,structured_incentive","3,4,2,1,2,3","4,2,3,1","false","","",""
"null","","html-keyboard-response","215","82758","0.0-215.0","","<img src=""img/set1/S4.jpg"" width=""540"" height = ""360"">","null","","","","","","","","","",""
"null","","html-keyboard-response","216","82960","0.0-216.0","","","null","","","","","","","","","",""
"6.700000286102295","","image-keyboard-response","217","82968","0.0-217.0","","img/set1/S1.jpg","68","1","random","83","random,structured_load,structured_normal,structured_incentive","3,4,2,1,2,3","4,2,3,1","false","","",""
"null","","html-keyboard-response","218","83319","0.0-218.0","","<img src=""img/set1/S1.jpg"" width=""540"" height = ""360"">","null","","","","","","","","","",""
"null","","html-keyboard-response","219","83522","0.0-219.0","","","null","","","","","","","","","",""
"46","","image-keyboard-response","220","83571","0.0-220.0","","img/set1/S2.jpg","68","2","random","68","random,structured_load,structured_normal,structured_incentive","3,4,2,1,2,3","4,2,3,1","true","","",""
"null","","html-keyboard-response","221","83924","0.0-221.0","","<img src=""img/set1/S2.jpg"" width=""540"" height = ""360"" style=""border:16px solid orange"">","null","","","","","","","","","",""
"null","","html-keyboard-response","222","84126","0.0-222.0","","","null","","","","","","","","","",""
"49.10000038146973","","image-keyboard-response","223","84176","0.0-223.0","","img/set1/S1.jpg","72","1","random","83","random,structured_load,structured_normal,structured_incentive","3,4,2,1,2,3","4,2,3,1","false","","",""
"null","","html-keyboard-response","224","84528","0.0-224.0","","<img src=""img/set1/S1.jpg"" width=""540"" height = ""360"">","null","","","","","","","","","",""
"null","","html-keyboard-response","225","84729","0.0-225.0","","","null","","","","","","","","","",""
"27.09999990463257","","image-keyboard-response","226","84757","0.0-226.0","","img/set1/S1.jpg","72","1","random","83","random,structured_load,structured_normal,structured_incentive","3,4,2,1,2,3","4,2,3,1","false","","",""
"null","","html-keyboard-response","227","85110","0.0-227.0","","<img src=""img/set1/S1.jpg"" width=""540"" height = ""360"">","null","","","","","","","","","",""
"null","","html-keyboard-response","228","85311","0.0-228.0","","","null","","","","","","","","","",""
"15.5","","image-keyboard-response","229","85328","0.0-229.0","","img/set1/S1.jpg","72","1","random","83","random,structured_load,structured_normal,structured_incentive","3,4,2,1,2,3","4,2,3,1","false","","",""
"null","","html-keyboard-response","230","85680","0.0-230.0","","<img src=""img/set1/S1.jpg"" width=""540"" height = ""360"">","null","","","","","","","","","",""
"null","","html-keyboard-response","231","85881","0.0-231.0","","","null","","","","","","","","","",""
"45.5","","image-keyboard-response","232","85928","0.0-232.0","","img/set1/S4.jpg","72","4","random","74","random,structured_load,structured_normal,structured_incentive","3,4,2,1,2,3","4,2,3,1","false","","",""
"null","","html-keyboard-response","233","86282","0.0-233.0","","<img src=""img/set1/S4.jpg"" width=""540"" height = ""360"">","null","","","","","","","","","",""
"null","","html-keyboard-response","234","86485","0.0-234.0","","","null","","","","","","","","","",""
"41.700000286102295","","image-keyboard-response","235","86527","0.0-235.0","","img/set1/S4.jpg","72","4","random","74","random,structured_load,structured_normal,structured_incentive","3,4,2,1,2,3","4,2,3,1","false","","",""
"null","","html-keyboard-response","236","86879","0.0-236.0","","<img src=""img/set1/S4.jpg"" width=""540"" height = ""360"">","null","","","","","","","","","",""
"null","","html-keyboard-response","237","87081","0.0-237.0","","","null","","","","","","","","","",""
"4.099999904632568","","image-keyboard-response","238","87087","0.0-238.0","","img/set1/S1.jpg","72","1","random","83","random,structured_load,structured_normal,structured_incentive","3,4,2,1,2,3","4,2,3,1","false","","",""
"null","","html-keyboard-response","239","87438","0.0-239.0","","<img src=""img/set1/S1.jpg"" width=""540"" height = ""360"">","null","","","","","","","","","",""
"null","","html-keyboard-response","240","87640","0.0-240.0","","","null","","","","","","","","","",""
"18.59999990463257","","image-keyboard-response","241","87660","0.0-241.0","","img/set1/S3.jpg","68","3","random","72","random,structured_load,structured_normal,structured_incentive","3,4,2,1,2,3","4,2,3,1","false","","",""
"null","","html-keyboard-response","242","88012","0.0-242.0","","<img src=""img/set1/S3.jpg"" width=""540"" height = ""360"">","null","","","","","","","","","",""
"null","","html-keyboard-response","243","88214","0.0-243.0","","","null","","","","","","","","","",""
"153.10000038146973","","image-keyboard-response","244","88368","0.0-244.0","","img/set1/S4.jpg","83","4","random","74","random,structured_load,structured_normal,structured_incentive","3,4,2,1,2,3","4,2,3,1","false","","",""
"null","","html-keyboard-response","245","88721","0.0-245.0","","<img src=""img/set1/S4.jpg"" width=""540"" height = ""360"">","null","","","","","","","","","",""
"null","","html-keyboard-response","246","88922","0.0-246.0","","","null","","","","","","","","","",""
"99.09999990463257","","image-keyboard-response","247","89022","0.0-247.0","","img/set1/S4.jpg","72","4","random","74","random,structured_load,structured_normal,structured_incentive","3,4,2,1,2,3","4,2,3,1","false","","",""
"null","","html-keyboard-response","248","89374","0.0-248.0","","<img src=""img/set1/S4.jpg"" width=""540"" height = ""360"">","null","","","","","","","","","",""
"null","","html-keyboard-response","249","89575","0.0-249.0","","","null","","","","","","","","","",""
"49.09999990463257","","image-keyboard-response","250","89626","0.0-250.0","","img/set1/S4.jpg","68","4","random","74","random,structured_load,structured_normal,structured_incentive","3,4,2,1,2,3","4,2,3,1","false","","",""
"null","","html-keyboard-response","251","89979","0.0-251.0","","<img src=""img/set1/S4.jpg"" width=""540"" height = ""360"">","null","","","","","","","","","",""
"null","","html-keyboard-response","252","90180","0.0-252.0","","","null","","","","","","","","","",""
"27.90000009536743","","image-keyboard-response","253","90209","0.0-253.0","","img/set1/S2.jpg","68","2","random","68","random,structured_load,structured_normal,structured_incentive","3,4,2,1,2,3","4,2,3,1","true","","",""
"null","","html-keyboard-response","254","90560","0.0-254.0","","<img src=""img/set1/S2.jpg"" width=""540"" height = ""360"" style=""border:16px solid orange"">","null","","","","","","","","","",""
"null","","html-keyboard-response","255","90762","0.0-255.0","","","null","","","","","","","","","",""
"118","","image-keyboard-response","256","90881","0.0-256.0","","img/set1/S4.jpg","83","4","random","74","random,structured_load,structured_normal,structured_incentive","3,4,2,1,2,3","4,2,3,1","false","","",""
"null","","html-keyboard-response","257","91233","0.0-257.0","","<img src=""img/set1/S4.jpg"" width=""540"" height = ""360"">","null","","","","","","","","","",""
"null","","html-keyboard-response","258","91434","0.0-258.0","","","null","","","","","","","","","",""
"122.80000019073486","","image-keyboard-response","259","91558","0.0-259.0","","img/set1/S3.jpg","68","3","random","72","random,structured_load,structured_normal,structured_incentive","3,4,2,1,2,3","4,2,3,1","false","","",""
"null","","html-keyboard-response","260","91910","0.0-260.0","","<img src=""img/set1/S3.jpg"" width=""540"" height = ""360"">","null","","","","","","","","","",""
"null","","html-keyboard-response","261","92115","0.0-261.0","","","null","","","","","","","","","",""
"28","","image-keyboard-response","262","92144","0.0-262.0","","img/set1/S3.jpg","68","3","random","72","random,structured_load,structured_normal,structured_incentive","3,4,2,1,2,3","4,2,3,1","false","","",""
"null","","html-keyboard-response","263","92497","0.0-263.0","","<img src=""img/set1/S3.jpg"" width=""540"" height = ""360"">","null","","","","","","","","","",""
"null","","html-keyboard-response","264","92698","0.0-264.0","","","null","","","","","","","","","",""
"57.799999713897705","","image-keyboard-response","265","92757","0.0-265.0","","img/set1/S2.jpg","68","2","random","68","random,structured_load,structured_normal,structured_incentive","3,4,2,1,2,3","4,2,3,1","true","","",""
"null","","html-keyboard-response","266","93109","0.0-266.0","","<img src=""img/set1/S2.jpg"" width=""540"" height = ""360"" style=""border:16px solid orange"">","null","","","","","","","","","",""
"null","","html-keyboard-response","267","93311","0.0-267.0","","","null","","","","","","","","","",""
"34.69999980926514","","image-keyboard-response","268","93346","0.0-268.0","","img/set1/S4.jpg","72","4","random","74","random,structured_load,structured_normal,structured_incentive","3,4,2,1,2,3","4,2,3,1","false","","",""
"null","","html-keyboard-response","269","93702","0.0-269.0","","<img src=""img/set1/S4.jpg"" width=""540"" height = ""360"">","null","","","","","","","","","",""
"null","","html-keyboard-response","270","93904","0.0-270.0","","","null","","","","","","","","","",""
"93.59999990463257","","image-keyboard-response","271","93998","0.0-271.0","","img/set1/S1.jpg","83","1","random","83","random,structured_load,structured_normal,structured_incentive","3,4,2,1,2,3","4,2,3,1","true","","",""
"null","","html-keyboard-response","272","94349","0.0-272.0","","<img src=""img/set1/S1.jpg"" width=""540"" height = ""360"" style=""border:16px solid orange"">","null","","","","","","","","","",""
"null","","html-keyboard-response","273","94551","0.0-273.0","","","null","","","","","","","","","",""
"24.5","","image-keyboard-response","274","94577","0.0-274.0","","img/set1/S1.jpg","83","1","random","83","random,structured_load,structured_normal,structured_incentive","3,4,2,1,2,3","4,2,3,1","true","","",""
"null","","html-keyboard-response","275","94928","0.0-275.0","","<img src=""img/set1/S1.jpg"" width=""540"" height = ""360"" style=""border:16px solid orange"">","null","","","","","","","","","",""
"null","","html-keyboard-response","276","95131","0.0-276.0","","","null","","","","","","","","","",""
"132.5","","image-keyboard-response","277","95264","0.0-277.0","","img/set1/S1.jpg","68","1","random","83","random,structured_load,structured_normal,structured_incentive","3,4,2,1,2,3","4,2,3,1","false","","",""
"null","","html-keyboard-response","278","95616","0.0-278.0","","<img src=""img/set1/S1.jpg"" width=""540"" height = ""360"">","null","","","","","","","","","",""
"null","","html-keyboard-response","279","95818","0.0-279.0","","","null","","","","","","","","","",""
"88.7999997138977","","image-keyboard-response","280","95908","0.0-280.0","","img/set1/S4.jpg","72","4","random","74","random,structured_load,structured_normal,structured_incentive","3,4,2,1,2,3","4,2,3,1","false","","",""
"null","","html-keyboard-response","281","96260","0.0-281.0","","<img src=""img/set1/S4.jpg"" width=""540"" height = ""360"">","null","","","","","","","","","",""
"null","","html-keyboard-response","282","96461","0.0-282.0","","","null","","","","","","","","","",""
"49.299999713897705","","image-keyboard-response","283","96512","0.0-283.0","","img/set1/S2.jpg","83","2","random","68","random,structured_load,structured_normal,structured_incentive","3,4,2,1,2,3","4,2,3,1","false","","",""
"null","","html-keyboard-response","284","96866","0.0-284.0","","<img src=""img/set1/S2.jpg"" width=""540"" height = ""360"">","null","","","","","","","","","",""
"null","","html-keyboard-response","285","97068","0.0-285.0","","","null","","","","","","","","","",""
"20.5","","image-keyboard-response","286","97089","0.0-286.0","","img/set1/S1.jpg","83","1","random","83","random,structured_load,structured_normal,structured_incentive","3,4,2,1,2,3","4,2,3,1","true","","",""
"null","","html-keyboard-response","287","97441","0.0-287.0","","<img src=""img/set1/S1.jpg"" width=""540"" height = ""360"" style=""border:16px solid orange"">","null","","","","","","","","","",""
"null","","html-keyboard-response","288","97643","0.0-288.0","","","null","","","","","","","","","",""
"37.59999990463257","","image-keyboard-response","289","97682","0.0-289.0","","img/set1/S1.jpg","83","1","random","83","random,structured_load,structured_normal,structured_incentive","3,4,2,1,2,3","4,2,3,1","true","","",""
"null","","html-keyboard-response","290","98034","0.0-290.0","","<img src=""img/set1/S1.jpg"" width=""540"" height = ""360"" style=""border:16px solid orange"">","null","","","","","","","","","",""
"null","","html-keyboard-response","291","98237","0.0-291.0","","","null","","","","","","","","","",""
"106.09999990463257","","image-keyboard-response","292","98344","0.0-292.0","","img/set1/S1.jpg","68","1","random","83","random,structured_load,structured_normal,structured_incentive","3,4,2,1,2,3","4,2,3,1","false","","",""
"null","","html-keyboard-response","293","98695","0.0-293.0","","<img src=""img/set1/S1.jpg"" width=""540"" height = ""360"">","null","","","","","","","","","",""
"null","","html-keyboard-response","294","98897","0.0-294.0","","","null","","","","","","","","","",""
"31.5","","image-keyboard-response","295","98929","0.0-295.0","","img/set1/S4.jpg","68","4","random","74","random,structured_load,structured_normal,structured_incentive","3,4,2,1,2,3","4,2,3,1","false","","",""
"null","","html-keyboard-response","296","99281","0.0-296.0","","<img src=""img/set1/S4.jpg"" width=""540"" height = ""360"">","null","","","","","","","","","",""
"null","","html-keyboard-response","297","99483","0.0-297.0","","","null","","","","","","","","","",""
"19.5","","image-keyboard-response","298","99504","0.0-298.0","","img/set1/S4.jpg","68","4","random","74","random,structured_load,structured_normal,structured_incentive","3,4,2,1,2,3","4,2,3,1","false","","",""
"null","","html-keyboard-response","299","99856","0.0-299.0","","<img src=""img/set1/S4.jpg"" width=""540"" height = ""360"">","null","","","","","","","","","",""
"null","","html-keyboard-response","300","100057","0.0-300.0","","","null","","","","","","","","","",""
"70.40000009536743","","image-keyboard-response","301","100129","0.0-301.0","","img/set1/S1.jpg","83","1","random","83","random,structured_load,structured_normal,structured_incentive","3,4,2,1,2,3","4,2,3,1","true","","",""
"null","","html-keyboard-response","302","100482","0.0-302.0","","<img src=""img/set1/S1.jpg"" width=""540"" height = ""360"" style=""border:16px solid orange"">","null","","","","","","","","","",""
"null","","html-keyboard-response","303","100683","0.0-303.0","","","null","","","","","","","","","",""
"124.5","","image-keyboard-response","304","100809","0.0-304.0","","img/set1/S3.jpg","72","3","random","72","random,structured_load,structured_normal,structured_incentive","3,4,2,1,2,3","4,2,3,1","true","","",""
"null","","html-keyboard-response","305","101161","0.0-305.0","","<img src=""img/set1/S3.jpg"" width=""540"" height = ""360"" style=""border:16px solid orange"">","null","","","","","","","","","",""
"null","","html-keyboard-response","306","101363","0.0-306.0","","","null","","","","","","","","","",""
"12.100000381469727","","image-keyboard-response","307","101376","0.0-307.0","","img/set1/S3.jpg","72","3","random","72","random,structured_load,structured_normal,structured_incentive","3,4,2,1,2,3","4,2,3,1","true","","",""
"null","","html-keyboard-response","308","101729","0.0-308.0","","<img src=""img/set1/S3.jpg"" width=""540"" height = ""360"" style=""border:16px solid orange"">","null","","","","","","","","","",""
"null","","html-keyboard-response","309","101930","0.0-309.0","","","null","","","","","","","","","",""
"2267.9000000953674","","image-keyboard-response","310","104199","0.0-310.0","","img/set1/S3.jpg","74","3","random","72","random,structured_load,structured_normal,structured_incentive","3,4,2,1,2,3","4,2,3,1","false","","",""
"null","","html-keyboard-response","311","104551","0.0-311.0","","<img src=""img/set1/S3.jpg"" width=""540"" height = ""360"">","null","","","","","","","","","",""
"null","","html-keyboard-response","312","104752","0.0-312.0","","","null","","","","","","","","","",""
"38","","image-keyboard-response","313","104791","0.0-313.0","","img/set1/S2.jpg","83","2","random","68","random,structured_load,structured_normal,structured_incentive","3,4,2,1,2,3","4,2,3,1","false","","",""
"null","","html-keyboard-response","314","105143","0.0-314.0","","<img src=""img/set1/S2.jpg"" width=""540"" height = ""360"">","null","","","","","","","","","",""
"null","","html-keyboard-response","315","105345","0.0-315.0","","","null","","","","","","","","","",""
"23.200000286102295","","image-keyboard-response","316","105369","0.0-316.0","","img/set1/S1.jpg","83","1","random","83","random,structured_load,structured_normal,structured_incentive","3,4,2,1,2,3","4,2,3,1","true","","",""
"null","","html-keyboard-response","317","105724","0.0-317.0","","<img src=""img/set1/S1.jpg"" width=""540"" height = ""360"" style=""border:16px solid orange"">","null","","","","","","","","","",""
"null","","html-keyboard-response","318","105925","0.0-318.0","","","null","","","","","","","","","",""
"99.7000002861023","","image-keyboard-response","319","106026","0.0-319.0","","img/set1/S4.jpg","74","4","random","74","random,structured_load,structured_normal,structured_incentive","3,4,2,1,2,3","4,2,3,1","true","","",""
"null","","html-keyboard-response","320","106378","0.0-320.0","","<img src=""img/set1/S4.jpg"" width=""540"" height = ""360"" style=""border:16px solid orange"">","null","","","","","","","","","",""
"null","","html-keyboard-response","321","106579","0.0-321.0","","","null","","","","","","","","","",""
"56.40000009536743","","image-keyboard-response","322","106638","0.0-322.0","","img/set1/S2.jpg","68","2","random","68","random,structured_load,structured_normal,structured_incentive","3,4,2,1,2,3","4,2,3,1","true","","",""
"null","","html-keyboard-response","323","106991","0.0-323.0","","<img src=""img/set1/S2.jpg"" width=""540"" height = ""360"" style=""border:16px solid orange"">","null","","","","","","","","","",""
"null","","html-keyboard-response","324","107194","0.0-324.0","","","null","","","","","","","","","",""
"7.699999809265137","","image-keyboard-response","325","107202","0.0-325.0","","img/set1/S2.jpg","68","2","random","68","random,structured_load,structured_normal,structured_incentive","3,4,2,1,2,3","4,2,3,1","true","","",""
"null","","html-keyboard-response","326","107558","0.0-326.0","","<img src=""img/set1/S2.jpg"" width=""540"" height = ""360"" style=""border:16px solid orange"">","null","","","","","","","","","",""
"null","","html-keyboard-response","327","107760","0.0-327.0","","","null","","","","","","","","","",""
"7.899999618530273","","image-keyboard-response","328","107769","0.0-328.0","","img/set1/S1.jpg","68","1","random","83","random,structured_load,structured_normal,structured_incentive","3,4,2,1,2,3","4,2,3,1","false","","",""
"null","","html-keyboard-response","329","108121","0.0-329.0","","<img src=""img/set1/S1.jpg"" width=""540"" height = ""360"">","null","","","","","","","","","",""
"null","","html-keyboard-response","330","108323","0.0-330.0","","","null","","","","","","","","","",""
"92.40000009536743","","image-keyboard-response","331","108416","0.0-331.0","","img/set1/S2.jpg","74","2","random","68","random,structured_load,structured_normal,structured_incentive","3,4,2,1,2,3","4,2,3,1","false","","",""
"null","","html-keyboard-response","332","108768","0.0-332.0","","<img src=""img/set1/S2.jpg"" width=""540"" height = ""360"">","null","","","","","","","","","",""
"null","","html-keyboard-response","333","108970","0.0-333.0","","","null","","","","","","","","","",""
"18.799999713897705","","image-keyboard-response","334","108992","0.0-334.0","","img/set1/S4.jpg","74","4","random","74","random,structured_load,structured_normal,structured_incentive","3,4,2,1,2,3","4,2,3,1","true","","",""
"null","","html-keyboard-response","335","109344","0.0-335.0","","<img src=""img/set1/S4.jpg"" width=""540"" height = ""360"" style=""border:16px solid orange"">","null","","","","","","","","","",""
"null","","html-keyboard-response","336","109546","0.0-336.0","","","null","","","","","","","","","",""
"84.80000019073486","","image-keyboard-response","337","109632","0.0-337.0","","img/set1/S2.jpg","68","2","random","68","random,structured_load,structured_normal,structured_incentive","3,4,2,1,2,3","4,2,3,1","true","","",""
"null","","html-keyboard-response","338","109984","0.0-338.0","","<img src=""img/set1/S2.jpg"" width=""540"" height = ""360"" style=""border:16px solid orange"">","null","","","","","","","","","",""
"null","","html-keyboard-response","339","110185","0.0-339.0","","","null","","","","","","","","","",""
"71.19999980926514","","image-keyboard-response","340","110257","0.0-340.0","","img/set1/S3.jpg","72","3","random","72","random,structured_load,structured_normal,structured_incentive","3,4,2,1,2,3","4,2,3,1","true","","",""
"null","","html-keyboard-response","341","110610","0.0-341.0","","<img src=""img/set1/S3.jpg"" width=""540"" height = ""360"" style=""border:16px solid orange"">","null","","","","","","","","","",""
"null","","html-keyboard-response","342","110811","0.0-342.0","","","null","","","","","","","","","",""
"12","","image-keyboard-response","343","110824","0.0-343.0","","img/set1/S1.jpg","68","1","random","83","random,structured_load,structured_normal,structured_incentive","3,4,2,1,2,3","4,2,3,1","false","","",""
"null","","html-keyboard-response","344","111176","0.0-344.0","","<img src=""img/set1/S1.jpg"" width=""540"" height = ""360"">","null","","","","","","","","","",""
"null","","html-keyboard-response","345","111378","0.0-345.0","","","null","","","","","","","","","",""
"103.69999980926514","","image-keyboard-response","346","111482","0.0-346.0","","img/set1/S1.jpg","72","1","random","83","random,structured_load,structured_normal,structured_incentive","3,4,2,1,2,3","4,2,3,1","false","","",""
"null","","html-keyboard-response","347","111835","0.0-347.0","","<img src=""img/set1/S1.jpg"" width=""540"" height = ""360"">","null","","","","","","","","","",""
"null","","html-keyboard-response","348","112036","0.0-348.0","","","null","","","","","","","","","",""
"202","","image-keyboard-response","349","112239","0.0-349.0","","img/set1/S3.jpg","72","3","random","72","random,structured_load,structured_normal,structured_incentive","3,4,2,1,2,3","4,2,3,1","true","","",""
"null","","html-keyboard-response","350","112591","0.0-350.0","","<img src=""img/set1/S3.jpg"" width=""540"" height = ""360"" style=""border:16px solid orange"">","null","","","","","","","","","",""
"null","","html-keyboard-response","351","112793","0.0-351.0","","","null","","","","","","","","","",""
"45","","image-keyboard-response","352","112839","0.0-352.0","","img/set1/S4.jpg","74","4","random","74","random,structured_load,structured_normal,structured_incentive","3,4,2,1,2,3","4,2,3,1","true","","",""
"null","","html-keyboard-response","353","113191","0.0-353.0","","<img src=""img/set1/S4.jpg"" width=""540"" height = ""360"" style=""border:16px solid orange"">","null","","","","","","","","","",""
"null","","html-keyboard-response","354","113392","0.0-354.0","","","null","","","","","","","","","",""
"111.7000002861023","","image-keyboard-response","355","113505","0.0-355.0","","img/set1/S4.jpg","83","4","random","74","random,structured_load,structured_normal,structured_incentive","3,4,2,1,2,3","4,2,3,1","false","","",""
"null","","html-keyboard-response","356","113857","0.0-356.0","","<img src=""img/set1/S4.jpg"" width=""540"" height = ""360"">","null","","","","","","","","","",""
"null","","html-keyboard-response","357","114057","0.0-357.0","","","null","","","","","","","","","",""
"55.200000286102295","","image-keyboard-response","358","114114","0.0-358.0","","img/set1/S1.jpg","72","1","random","83","random,structured_load,structured_normal,structured_incentive","3,4,2,1,2,3","4,2,3,1","false","","",""
"null","","html-keyboard-response","359","114466","0.0-359.0","","<img src=""img/set1/S1.jpg"" width=""540"" height = ""360"">","null","","","","","","","","","",""
"null","","html-keyboard-response","360","114667","0.0-360.0","","","null","","","","","","","","","",""
"24.90000009536743","","image-keyboard-response","361","114693","0.0-361.0","","img/set1/S4.jpg","68","4","random","74","random,structured_load,structured_normal,structured_incentive","3,4,2,1,2,3","4,2,3,1","false","","",""
"null","","html-keyboard-response","362","115045","0.0-362.0","","<img src=""img/set1/S4.jpg"" width=""540"" height = ""360"">","null","","","","","","","","","",""
"null","","html-keyboard-response","363","115247","0.0-363.0","","","null","","","","","","","","","",""
"2.0999999046325684","","html-keyboard-response","364","115250","0.0-364.0","","<p class=""center-content"">You have completed a block! </p><p class=""center-content"">Press any key on the keyboard to continue, </p><p class=""center-content"">or wait for the automatic progression to the next block after one minute.</p>","68","","","","","","","","","",""
"7216","","instructions","365","122465","0.0-365.0","[{""page_index"":0,""viewing_time"":7215.599999904633}]","","","","","","","","","","","",""
"4693.299999713898","","instructions","366","127159","0.0-366.0","[{""page_index"":0,""viewing_time"":1862.5},{""page_index"":1,""viewing_time"":2830.5999999046326}]","","","","","","","","","","","",""
"null","","image-keyboard-response","367","129661","0.0-367.0","","img/set2/S3.jpg","null","3","structured_load","72","random,structured_load,structured_normal,structured_incentive","3,4,2,1,2,3","4,2,3,1","false","","",""
"null","","html-keyboard-response","368","130014","0.0-368.0","","<img src=""img/set2/S3.jpg"" width=""540"" height = ""360"">","null","","","","","","","","","",""
"null","","html-keyboard-response","369","130216","0.0-369.0","","","null","","","","","","","","","",""
"null","","image-keyboard-response","370","132717","0.0-370.0","","img/set2/S4.jpg","null","4","structured_load","74","random,structured_load,structured_normal,structured_incentive","3,4,2,1,2,3","4,2,3,1","false","","",""
"null","","html-keyboard-response","371","133070","0.0-371.0","","<img src=""img/set2/S4.jpg"" width=""540"" height = ""360"">","null","","","","","","","","","",""
"null","","html-keyboard-response","372","133272","0.0-372.0","","","null","","","","","","","","","",""
"288","","image-keyboard-response","373","133561","0.0-373.0","","img/set2/S3.jpg","83","3","structured_load","72","random,structured_load,structured_normal,structured_incentive","3,4,2,1,2,3","4,2,3,1","false","","",""
"null","","html-keyboard-response","374","133912","0.0-374.0","","<img src=""img/set2/S3.jpg"" width=""540"" height = ""360"">","null","","","","","","","","","",""
"null","","html-keyboard-response","375","134114","0.0-375.0","","","null","","","","","","","","","",""
"4.900000095367432","","image-keyboard-response","376","134119","0.0-376.0","","img/set2/S4.jpg","83","4","structured_load","74","random,structured_load,structured_normal,structured_incentive","3,4,2,1,2,3","4,2,3,1","false","","",""
"null","","html-keyboard-response","377","134481","0.0-377.0","","<img src=""img/set2/S4.jpg"" width=""540"" height = ""360"">","null","","","","","","","","","",""
"null","","html-keyboard-response","378","134684","0.0-378.0","","","null","","","","","","","","","",""
"11.899999618530273","","image-keyboard-response","379","134698","0.0-379.0","","img/set2/S2.jpg","68","2","structured_load","68","random,structured_load,structured_normal,structured_incentive","3,4,2,1,2,3","4,2,3,1","true","","",""
"null","","html-keyboard-response","380","135050","0.0-380.0","","<img src=""img/set2/S2.jpg"" width=""540"" height = ""360"" style=""border:16px solid orange"">","null","","","","","","","","","",""
"null","","html-keyboard-response","381","135253","0.0-381.0","","","null","","","","","","","","","",""
"129.39999961853027","","image-keyboard-response","382","135384","0.0-382.0","","img/set2/S2.jpg","83","2","structured_load","68","random,structured_load,structured_normal,structured_incentive","3,4,2,1,2,3","4,2,3,1","false","","",""
"null","","html-keyboard-response","383","135736","0.0-383.0","","<img src=""img/set2/S2.jpg"" width=""540"" height = ""360"">","null","","","","","","","","","",""
"null","","html-keyboard-response","384","135941","0.0-384.0","","","null","","","","","","","","","",""
"41.5","","image-keyboard-response","385","135984","0.0-385.0","","img/set2/S2.jpg","83","2","structured_load","68","random,structured_load,structured_normal,structured_incentive","3,4,2,1,2,3","4,2,3,1","false","","",""
"null","","html-keyboard-response","386","136336","0.0-386.0","","<img src=""img/set2/S2.jpg"" width=""540"" height = ""360"">","null","","","","","","","","","",""
"null","","html-keyboard-response","387","136537","0.0-387.0","","","null","","","","","","","","","",""
"127","","image-keyboard-response","388","136665","0.0-388.0","","img/set2/S1.jpg","68","1","structured_load","83","random,structured_load,structured_normal,structured_incentive","3,4,2,1,2,3","4,2,3,1","false","","",""
"null","","html-keyboard-response","389","137017","0.0-389.0","","<img src=""img/set2/S1.jpg"" width=""540"" height = ""360"">","null","","","","","","","","","",""
"null","","html-keyboard-response","390","137219","0.0-390.0","","","null","","","","","","","","","",""
"45.69999980926514","","image-keyboard-response","391","137266","0.0-391.0","","img/set2/S3.jpg","68","3","structured_load","72","random,structured_load,structured_normal,structured_incentive","3,4,2,1,2,3","4,2,3,1","false","","",""
"null","","html-keyboard-response","392","137619","0.0-392.0","","<img src=""img/set2/S3.jpg"" width=""540"" height = ""360"">","null","","","","","","","","","",""
"null","","html-keyboard-response","393","137821","0.0-393.0","","","null","","","","","","","","","",""
"11.299999713897705","","image-keyboard-response","394","137833","0.0-394.0","","img/set2/S4.jpg","72","4","structured_load","74","random,structured_load,structured_normal,structured_incentive","3,4,2,1,2,3","4,2,3,1","false","","",""
"null","","html-keyboard-response","395","138185","0.0-395.0","","<img src=""img/set2/S4.jpg"" width=""540"" height = ""360"">","null","","","","","","","","","",""
"null","","html-keyboard-response","396","138386","0.0-396.0","","","null","","","","","","","","","",""
"118.19999980926514","","image-keyboard-response","397","138506","0.0-397.0","","img/set2/S1.jpg","74","1","structured_load","83","random,structured_load,structured_normal,structured_incentive","3,4,2,1,2,3","4,2,3,1","false","","",""
"null","","html-keyboard-response","398","138859","0.0-398.0","","<img src=""img/set2/S1.jpg"" width=""540"" height = ""360"">","null","","","","","","","","","",""
"null","","html-keyboard-response","399","139061","0.0-399.0","","","null","","","","","","","","","",""
"92.59999990463257","","image-keyboard-response","400","139155","0.0-400.0","","img/set2/S2.jpg","72","2","structured_load","68","random,structured_load,structured_normal,structured_incentive","3,4,2,1,2,3","4,2,3,1","false","","",""
"null","","html-keyboard-response","401","139507","0.0-401.0","","<img src=""img/set2/S2.jpg"" width=""540"" height = ""360"">","null","","","","","","","","","",""
"null","","html-keyboard-response","402","139708","0.0-402.0","","","null","","","","","","","","","",""
"59.90000009536743","","image-keyboard-response","403","139769","0.0-403.0","","img/set2/S3.jpg","74","3","structured_load","72","random,structured_load,structured_normal,structured_incentive","3,4,2,1,2,3","4,2,3,1","false","","",""
"null","","html-keyboard-response","404","140121","0.0-404.0","","<img src=""img/set2/S3.jpg"" width=""540"" height = ""360"">","null","","","","","","","","","",""
"null","","html-keyboard-response","405","140322","0.0-405.0","","","null","","","","","","","","","",""
"22.800000190734863","","image-keyboard-response","406","140346","0.0-406.0","","img/set2/S4.jpg","83","4","structured_load","74","random,structured_load,structured_normal,structured_incentive","3,4,2,1,2,3","4,2,3,1","false","","",""
"null","","html-keyboard-response","407","140698","0.0-407.0","","<img src=""img/set2/S4.jpg"" width=""540"" height = ""360"">","null","","","","","","","","","",""
"null","","html-keyboard-response","408","140900","0.0-408.0","","","null","","","","","","","","","",""
"37.90000009536743","","image-keyboard-response","409","140939","0.0-409.0","","img/set2/S3.jpg","72","3","structured_load","72","random,structured_load,structured_normal,structured_incentive","3,4,2,1,2,3","4,2,3,1","true","","",""
"null","","html-keyboard-response","410","141290","0.0-410.0","","<img src=""img/set2/S3.jpg"" width=""540"" height = ""360"" style=""border:16px solid orange"">","null","","","","","","","","","",""
"null","","html-keyboard-response","411","141493","0.0-411.0","","","null","","","","","","","","","",""
"5","","image-keyboard-response","412","141499","0.0-412.0","","img/set2/S4.jpg","68","4","structured_load","74","random,structured_load,structured_normal,structured_incentive","3,4,2,1,2,3","4,2,3,1","false","","",""
"null","","html-keyboard-response","413","141852","0.0-413.0","","<img src=""img/set2/S4.jpg"" width=""540"" height = ""360"">","null","","","","","","","","","",""
"null","","html-keyboard-response","414","142053","0.0-414.0","","","null","","","","","","","","","",""
"11.600000381469727","","image-keyboard-response","415","142065","0.0-415.0","","img/set2/S3.jpg","72","3","structured_load","72","random,structured_load,structured_normal,structured_incentive","3,4,2,1,2,3","4,2,3,1","true","","",""
"null","","html-keyboard-response","416","142417","0.0-416.0","","<img src=""img/set2/S3.jpg"" width=""540"" height = ""360"" style=""border:16px solid orange"">","null","","","","","","","","","",""
"null","","html-keyboard-response","417","142618","0.0-417.0","","","null","","","","","","","","","",""
"0.19999980926513672","","image-keyboard-response","418","142619","0.0-418.0","","img/set2/S4.jpg","72","4","structured_load","74","random,structured_load,structured_normal,structured_incentive","3,4,2,1,2,3","4,2,3,1","false","","",""
"null","","html-keyboard-response","419","142971","0.0-419.0","","<img src=""img/set2/S4.jpg"" width=""540"" height = ""360"">","null","","","","","","","","","",""
"null","","html-keyboard-response","420","143174","0.0-420.0","","","null","","","","","","","","","",""
"97.7999997138977","","image-keyboard-response","421","143273","0.0-421.0","","img/set2/S1.jpg","74","1","structured_load","83","random,structured_load,structured_normal,structured_incentive","3,4,2,1,2,3","4,2,3,1","false","","",""
"null","","html-keyboard-response","422","143625","0.0-422.0","","<img src=""img/set2/S1.jpg"" width=""540"" height = ""360"">","null","","","","","","","","","",""
"null","","html-keyboard-response","423","143826","0.0-423.0","","","null","","","","","","","","","",""
"85.59999990463257","","image-keyboard-response","424","143913","0.0-424.0","","img/set2/S1.jpg","83","1","structured_load","83","random,structured_load,structured_normal,structured_incentive","3,4,2,1,2,3","4,2,3,1","true","","",""
"null","","html-keyboard-response","425","144264","0.0-425.0","","<img src=""img/set2/S1.jpg"" width=""540"" height = ""360"" style=""border:16px solid orange"">","null","","","","","","","","","",""
"null","","html-keyboard-response","426","144468","0.0-426.0","","","null","","","","","","","","","",""
"69.90000009536743","","image-keyboard-response","427","144539","0.0-427.0","","img/set2/S3.jpg","83","3","structured_load","72","random,structured_load,structured_normal,structured_incentive","3,4,2,1,2,3","4,2,3,1","false","","",""
"null","","html-keyboard-response","428","144891","0.0-428.0","","<img src=""img/set2/S3.jpg"" width=""540"" height = ""360"">","null","","","","","","","","","",""
"null","","html-keyboard-response","429","145092","0.0-429.0","","","null","","","","","","","","","",""
"188.19999980926514","","image-keyboard-response","430","145282","0.0-430.0","","img/set2/S4.jpg","72","4","structured_load","74","random,structured_load,structured_normal,structured_incentive","3,4,2,1,2,3","4,2,3,1","false","","",""
"null","","html-keyboard-response","431","145637","0.0-431.0","","<img src=""img/set2/S4.jpg"" width=""540"" height = ""360"">","null","","","","","","","","","",""
"null","","html-keyboard-response","432","145840","0.0-432.0","","","null","","","","","","","","","",""
"113.89999961853027","","image-keyboard-response","433","145955","0.0-433.0","","img/set2/S3.jpg","83","3","structured_load","72","random,structured_load,structured_normal,structured_incentive","3,4,2,1,2,3","4,2,3,1","false","","",""
"null","","html-keyboard-response","434","146308","0.0-434.0","","<img src=""img/set2/S3.jpg"" width=""540"" height = ""360"">","null","","","","","","","","","",""
"null","","html-keyboard-response","435","146510","0.0-435.0","","","null","","","","","","","","","",""
"97.90000009536743","","image-keyboard-response","436","146610","0.0-436.0","","img/set2/S4.jpg","68","4","structured_load","74","random,structured_load,structured_normal,structured_incentive","3,4,2,1,2,3","4,2,3,1","false","","",""
"null","","html-keyboard-response","437","146963","0.0-437.0","","<img src=""img/set2/S4.jpg"" width=""540"" height = ""360"">","null","","","","","","","","","",""
"null","","html-keyboard-response","438","147164","0.0-438.0","","","null","","","","","","","","","",""
"19.40000009536743","","image-keyboard-response","439","147185","0.0-439.0","","img/set2/S3.jpg","68","3","structured_load","72","random,structured_load,structured_normal,structured_incentive","3,4,2,1,2,3","4,2,3,1","false","","",""
"null","","html-keyboard-response","440","147537","0.0-440.0","","<img src=""img/set2/S3.jpg"" width=""540"" height = ""360"">","null","","","","","","","","","",""
"null","","html-keyboard-response","441","147739","0.0-441.0","","","null","","","","","","","","","",""
"45.299999713897705","","image-keyboard-response","442","147789","0.0-442.0","","img/set2/S4.jpg","68","4","structured_load","74","random,structured_load,structured_normal,structured_incentive","3,4,2,1,2,3","4,2,3,1","false","","",""
"null","","html-keyboard-response","443","148142","0.0-443.0","","<img src=""img/set2/S4.jpg"" width=""540"" height = ""360"">","null","","","","","","","","","",""
"null","","html-keyboard-response","444","148343","0.0-444.0","","","null","","","","","","","","","",""
"28.699999809265137","","image-keyboard-response","445","148373","0.0-445.0","","img/set2/S2.jpg","68","2","structured_load","68","random,structured_load,structured_normal,structured_incentive","3,4,2,1,2,3","4,2,3,1","true","","",""
"null","","html-keyboard-response","446","148725","0.0-446.0","","<img src=""img/set2/S2.jpg"" width=""540"" height = ""360"" style=""border:16px solid orange"">","null","","","","","","","","","",""
"null","","html-keyboard-response","447","148926","0.0-447.0","","","null","","","","","","","","","",""
"12.900000095367432","","image-keyboard-response","448","148940","0.0-448.0","","img/set2/S2.jpg","72","2","structured_load","68","random,structured_load,structured_normal,structured_incentive","3,4,2,1,2,3","4,2,3,1","false","","",""
"null","","html-keyboard-response","449","149292","0.0-449.0","","<img src=""img/set2/S2.jpg"" width=""540"" height = ""360"">","null","","","","","","","","","",""
"null","","html-keyboard-response","450","149493","0.0-450.0","","","null","","","","","","","","","",""
"44.59999990463257","","image-keyboard-response","451","149539","0.0-451.0","","img/set2/S2.jpg","68","2","structured_load","68","random,structured_load,structured_normal,structured_incentive","3,4,2,1,2,3","4,2,3,1","true","","",""
"null","","html-keyboard-response","452","149891","0.0-452.0","","<img src=""img/set2/S2.jpg"" width=""540"" height = ""360"" style=""border:16px solid orange"">","null","","","","","","","","","",""
"null","","html-keyboard-response","453","150093","0.0-453.0","","","null","","","","","","","","","",""
"36.5","","image-keyboard-response","454","150131","0.0-454.0","","img/set2/S3.jpg","72","3","structured_load","72","random,structured_load,structured_normal,structured_incentive","3,4,2,1,2,3","4,2,3,1","true","","",""
"null","","html-keyboard-response","455","150484","0.0-455.0","","<img src=""img/set2/S3.jpg"" width=""540"" height = ""360"" style=""border:16px solid orange"">","null","","","","","","","","","",""
"null","","html-keyboard-response","456","150686","0.0-456.0","","","null","","","","","","","","","",""
"4.599999904632568","","image-keyboard-response","457","150692","0.0-457.0","","img/set2/S4.jpg","72","4","structured_load","74","random,structured_load,structured_normal,structured_incentive","3,4,2,1,2,3","4,2,3,1","false","","",""
"null","","html-keyboard-response","458","151045","0.0-458.0","","<img src=""img/set2/S4.jpg"" width=""540"" height = ""360"">","null","","","","","","","","","",""
"null","","html-keyboard-response","459","151248","0.0-459.0","","","null","","","","","","","","","",""
"178.39999961853027","","image-keyboard-response","460","151427","0.0-460.0","","img/set2/S3.jpg","74","3","structured_load","72","random,structured_load,structured_normal,structured_incentive","3,4,2,1,2,3","4,2,3,1","false","","",""
"null","","html-keyboard-response","461","151779","0.0-461.0","","<img src=""img/set2/S3.jpg"" width=""540"" height = ""360"">","null","","","","","","","","","",""
"null","","html-keyboard-response","462","151981","0.0-462.0","","","null","","","","","","","","","",""
"122.30000019073486","","image-keyboard-response","463","152104","0.0-463.0","","img/set2/S4.jpg","74","4","structured_load","74","random,structured_load,structured_normal,structured_incentive","3,4,2,1,2,3","4,2,3,1","true","","",""
"null","","html-keyboard-response","464","152457","0.0-464.0","","<img src=""img/set2/S4.jpg"" width=""540"" height = ""360"" style=""border:16px solid orange"">","null","","","","","","","","","",""
"null","","html-keyboard-response","465","152659","0.0-465.0","","","null","","","","","","","","","",""
"38","","image-keyboard-response","466","152698","0.0-466.0","","img/set2/S3.jpg","74","3","structured_load","72","random,structured_load,structured_normal,structured_incentive","3,4,2,1,2,3","4,2,3,1","false","","",""
"null","","html-keyboard-response","467","153051","0.0-467.0","","<img src=""img/set2/S3.jpg"" width=""540"" height = ""360"">","null","","","","","","","","","",""
"null","","html-keyboard-response","468","153253","0.0-468.0","","","null","","","","","","","","","",""
"37.40000009536743","","image-keyboard-response","469","153292","0.0-469.0","","img/set2/S4.jpg","83","4","structured_load","74","random,structured_load,structured_normal,structured_incentive","3,4,2,1,2,3","4,2,3,1","false","","",""
"null","","html-keyboard-response","470","153645","0.0-470.0","","<img src=""img/set2/S4.jpg"" width=""540"" height = ""360"">","null","","","","","","","","","",""
"null","","html-keyboard-response","471","153847","0.0-471.0","","","null","","","","","","","","","",""
"1.5","","image-keyboard-response","472","153850","0.0-472.0","","img/set2/S3.jpg","83","3","structured_load","72","random,structured_load,structured_normal,structured_incentive","3,4,2,1,2,3","4,2,3,1","false","","",""
"null","","html-keyboard-response","473","154205","0.0-473.0","","<img src=""img/set2/S3.jpg"" width=""540"" height = ""360"">","null","","","","","","","","","",""
"null","","html-keyboard-response","474","154408","0.0-474.0","","","null","","","","","","","","","",""
"18.40000009536743","","image-keyboard-response","475","154427","0.0-475.0","","img/set2/S4.jpg","74","4","structured_load","74","random,structured_load,structured_normal,structured_incentive","3,4,2,1,2,3","4,2,3,1","true","","",""
"null","","html-keyboard-response","476","154780","0.0-476.0","","<img src=""img/set2/S4.jpg"" width=""540"" height = ""360"" style=""border:16px solid orange"">","null","","","","","","","","","",""
"null","","html-keyboard-response","477","154981","0.0-477.0","","","null","","","","","","","","","",""
"45","","image-keyboard-response","478","155027","0.0-478.0","","img/set2/S3.jpg","74","3","structured_load","72","random,structured_load,structured_normal,structured_incentive","3,4,2,1,2,3","4,2,3,1","false","","",""
"null","","html-keyboard-response","479","155378","0.0-479.0","","<img src=""img/set2/S3.jpg"" width=""540"" height = ""360"">","null","","","","","","","","","",""
"null","","html-keyboard-response","480","155580","0.0-480.0","","","null","","","","","","","","","",""
"236.09999990463257","","image-keyboard-response","481","155817","0.0-481.0","","img/set2/S4.jpg","83","4","structured_load","74","random,structured_load,structured_normal,structured_incentive","3,4,2,1,2,3","4,2,3,1","false","","",""
"null","","html-keyboard-response","482","156170","0.0-482.0","","<img src=""img/set2/S4.jpg"" width=""540"" height = ""360"">","null","","","","","","","","","",""
"null","","html-keyboard-response","483","156372","0.0-483.0","","","null","","","","","","","","","",""
"44.69999980926514","","image-keyboard-response","484","156418","0.0-484.0","","img/set2/S3.jpg","83","3","structured_load","72","random,structured_load,structured_normal,structured_incentive","3,4,2,1,2,3","4,2,3,1","false","","",""
"null","","html-keyboard-response","485","156770","0.0-485.0","","<img src=""img/set2/S3.jpg"" width=""540"" height = ""360"">","null","","","","","","","","","",""
"null","","html-keyboard-response","486","156971","0.0-486.0","","","null","","","","","","","","","",""
"31.200000286102295","","image-keyboard-response","487","157003","0.0-487.0","","img/set2/S4.jpg","83","4","structured_load","74","random,structured_load,structured_normal,structured_incentive","3,4,2,1,2,3","4,2,3,1","false","","",""
"null","","html-keyboard-response","488","157354","0.0-488.0","","<img src=""img/set2/S4.jpg"" width=""540"" height = ""360"">","null","","","","","","","","","",""
"null","","html-keyboard-response","489","157556","0.0-489.0","","","null","","","","","","","","","",""
"7.700000286102295","","image-keyboard-response","490","157565","0.0-490.0","","img/set2/S2.jpg","83","2","structured_load","68","random,structured_load,structured_normal,structured_incentive","3,4,2,1,2,3","4,2,3,1","false","","",""
"null","","html-keyboard-response","491","157918","0.0-491.0","","<img src=""img/set2/S2.jpg"" width=""540"" height = ""360"">","null","","","","","","","","","",""
"null","","html-keyboard-response","492","158120","0.0-492.0","","","null","","","","","","","","","",""
"22.09999990463257","","image-keyboard-response","493","158143","0.0-493.0","","img/set2/S1.jpg","83","1","structured_load","83","random,structured_load,structured_normal,structured_incentive","3,4,2,1,2,3","4,2,3,1","true","","",""
"null","","html-keyboard-response","494","158495","0.0-494.0","","<img src=""img/set2/S1.jpg"" width=""540"" height = ""360"" style=""border:16px solid orange"">","null","","","","","","","","","",""
"null","","html-keyboard-response","495","158696","0.0-495.0","","","null","","","","","","","","","",""
"24.899999618530273","","image-keyboard-response","496","158722","0.0-496.0","","img/set2/S1.jpg","74","1","structured_load","83","random,structured_load,structured_normal,structured_incentive","3,4,2,1,2,3","4,2,3,1","false","","",""
"null","","html-keyboard-response","497","159074","0.0-497.0","","<img src=""img/set2/S1.jpg"" width=""540"" height = ""360"">","null","","","","","","","","","",""
"null","","html-keyboard-response","498","159275","0.0-498.0","","","null","","","","","","","","","",""
"38.700000286102295","","image-keyboard-response","499","159315","0.0-499.0","","img/set2/S1.jpg","83","1","structured_load","83","random,structured_load,structured_normal,structured_incentive","3,4,2,1,2,3","4,2,3,1","true","","",""
"null","","html-keyboard-response","500","159667","0.0-500.0","","<img src=""img/set2/S1.jpg"" width=""540"" height = ""360"" style=""border:16px solid orange"">","null","","","","","","","","","",""
"null","","html-keyboard-response","501","159869","0.0-501.0","","","null","","","","","","","","","",""
"20.700000286102295","","image-keyboard-response","502","159891","0.0-502.0","","img/set2/S2.jpg","74","2","structured_load","68","random,structured_load,structured_normal,structured_incentive","3,4,2,1,2,3","4,2,3,1","false","","",""
"null","","html-keyboard-response","503","160243","0.0-503.0","","<img src=""img/set2/S2.jpg"" width=""540"" height = ""360"">","null","","","","","","","","","",""
"null","","html-keyboard-response","504","160445","0.0-504.0","","","null","","","","","","","","","",""
"35.299999713897705","","image-keyboard-response","505","160481","0.0-505.0","","img/set2/S1.jpg","74","1","structured_load","83","random,structured_load,structured_normal,structured_incentive","3,4,2,1,2,3","4,2,3,1","false","","",""
"null","","html-keyboard-response","506","160833","0.0-506.0","","<img src=""img/set2/S1.jpg"" width=""540"" height = ""360"">","null","","","","","","","","","",""
"null","","html-keyboard-response","507","161035","0.0-507.0","","","null","","","","","","","","","",""
"77.69999980926514","","image-keyboard-response","508","161114","0.0-508.0","","img/set2/S3.jpg","74","3","structured_load","72","random,structured_load,structured_normal,structured_incentive","3,4,2,1,2,3","4,2,3,1","false","","",""
"null","","html-keyboard-response","509","161467","0.0-509.0","","<img src=""img/set2/S3.jpg"" width=""540"" height = ""360"">","null","","","","","","","","","",""
"null","","html-keyboard-response","510","161669","0.0-510.0","","","null","","","","","","","","","",""
"60.19999980926514","","image-keyboard-response","511","161731","0.0-511.0","","img/set2/S4.jpg","83","4","structured_load","74","random,structured_load,structured_normal,structured_incentive","3,4,2,1,2,3","4,2,3,1","false","","",""
"null","","html-keyboard-response","512","162083","0.0-512.0","","<img src=""img/set2/S4.jpg"" width=""540"" height = ""360"">","null","","","","","","","","","",""
"null","","html-keyboard-response","513","162285","0.0-513.0","","","null","","","","","","","","","",""
"30.40000009536743","","image-keyboard-response","514","162316","0.0-514.0","","img/set2/S1.jpg","83","1","structured_load","83","random,structured_load,structured_normal,structured_incentive","3,4,2,1,2,3","4,2,3,1","true","","",""
"null","","html-keyboard-response","515","162668","0.0-515.0","","<img src=""img/set2/S1.jpg"" width=""540"" height = ""360"" style=""border:16px solid orange"">","null","","","","","","","","","",""
"null","","html-keyboard-response","516","162870","0.0-516.0","","","null","","","","","","","","","",""
"139.60000038146973","","image-keyboard-response","517","163010","0.0-517.0","","img/set2/S1.jpg","68","1","structured_load","83","random,structured_load,structured_normal,structured_incentive","3,4,2,1,2,3","4,2,3,1","false","","",""
"null","","html-keyboard-response","518","163364","0.0-518.0","","<img src=""img/set2/S1.jpg"" width=""540"" height = ""360"">","null","","","","","","","","","",""
"null","","html-keyboard-response","519","163565","0.0-519.0","","","null","","","","","","","","","",""
"3.4000000953674316","","image-keyboard-response","520","163570","0.0-520.0","","img/set2/S1.jpg","68","1","structured_load","83","random,structured_load,structured_normal,structured_incentive","3,4,2,1,2,3","4,2,3,1","false","","",""
"null","","html-keyboard-response","521","163927","0.0-521.0","","<img src=""img/set2/S1.jpg"" width=""540"" height = ""360"">","null","","","","","","","","","",""
"null","","html-keyboard-response","522","164129","0.0-522.0","","","null","","","","","","","","","",""
"87.2000002861023","","image-keyboard-response","523","164217","0.0-523.0","","img/set2/S3.jpg","72","3","structured_load","72","random,structured_load,structured_normal,structured_incentive","3,4,2,1,2,3","4,2,3,1","true","","",""
"null","","html-keyboard-response","524","164570","0.0-524.0","","<img src=""img/set2/S3.jpg"" width=""540"" height = ""360"" style=""border:16px solid orange"">","null","","","","","","","","","",""
"null","","html-keyboard-response","525","164772","0.0-525.0","","","null","","","","","","","","","",""
"76.7000002861023","","image-keyboard-response","526","164850","0.0-526.0","","img/set2/S4.jpg","72","4","structured_load","74","random,structured_load,structured_normal,structured_incentive","3,4,2,1,2,3","4,2,3,1","false","","",""
"null","","html-keyboard-response","527","165202","0.0-527.0","","<img src=""img/set2/S4.jpg"" width=""540"" height = ""360"">","null","","","","","","","","","",""
"null","","html-keyboard-response","528","165404","0.0-528.0","","","null","","","","","","","","","",""
"15.800000190734863","","image-keyboard-response","529","165420","0.0-529.0","","img/set2/S2.jpg","72","2","structured_load","68","random,structured_load,structured_normal,structured_incentive","3,4,2,1,2,3","4,2,3,1","false","","",""
"null","","html-keyboard-response","530","165773","0.0-530.0","","<img src=""img/set2/S2.jpg"" width=""540"" height = ""360"">","null","","","","","","","","","",""
"null","","html-keyboard-response","531","165974","0.0-531.0","","","null","","","","","","","","","",""
"60.5","","image-keyboard-response","532","166035","0.0-532.0","","img/set2/S2.jpg","68","2","structured_load","68","random,structured_load,structured_normal,structured_incentive","3,4,2,1,2,3","4,2,3,1","true","","",""
"null","","html-keyboard-response","533","166390","0.0-533.0","","<img src=""img/set2/S2.jpg"" width=""540"" height = ""360"" style=""border:16px solid orange"">","null","","","","","","","","","",""
"null","","html-keyboard-response","534","166591","0.0-534.0","","","null","","","","","","","","","",""
"17.899999618530273","","image-keyboard-response","535","166610","0.0-535.0","","img/set2/S2.jpg","68","2","structured_load","68","random,structured_load,structured_normal,structured_incentive","3,4,2,1,2,3","4,2,3,1","true","","",""
"null","","html-keyboard-response","536","166963","0.0-536.0","","<img src=""img/set2/S2.jpg"" width=""540"" height = ""360"" style=""border:16px solid orange"">","null","","","","","","","","","",""
"null","","html-keyboard-response","537","167164","0.0-537.0","","","null","","","","","","","","","",""
"9.199999809265137","","image-keyboard-response","538","167177","0.0-538.0","","img/set2/S2.jpg","68","2","structured_load","68","random,structured_load,structured_normal,structured_incentive","3,4,2,1,2,3","4,2,3,1","true","","",""
"null","","html-keyboard-response","539","167529","0.0-539.0","","<img src=""img/set2/S2.jpg"" width=""540"" height = ""360"" style=""border:16px solid orange"">","null","","","","","","","","","",""
"null","","html-keyboard-response","540","167730","0.0-540.0","","","null","","","","","","","","","",""
"40.700000286102295","","image-keyboard-response","541","167772","0.0-541.0","","img/set2/S2.jpg","68","2","structured_load","68","random,structured_load,structured_normal,structured_incentive","3,4,2,1,2,3","4,2,3,1","true","","",""
"null","","html-keyboard-response","542","168125","0.0-542.0","","<img src=""img/set2/S2.jpg"" width=""540"" height = ""360"" style=""border:16px solid orange"">","null","","","","","","","","","",""
"null","","html-keyboard-response","543","168328","0.0-543.0","","","null","","","","","","","","","",""
"2.4000000953674316","","image-keyboard-response","544","168332","0.0-544.0","","img/set2/S2.jpg","68","2","structured_load","68","random,structured_load,structured_normal,structured_incentive","3,4,2,1,2,3","4,2,3,1","true","","",""
"null","","html-keyboard-response","545","168689","0.0-545.0","","<img src=""img/set2/S2.jpg"" width=""540"" height = ""360"" style=""border:16px solid orange"">","null","","","","","","","","","",""
"null","","html-keyboard-response","546","168892","0.0-546.0","","","null","","","","","","","","","",""
"119.09999990463257","","image-keyboard-response","547","169012","0.0-547.0","","img/set2/S1.jpg","74","1","structured_load","83","random,structured_load,structured_normal,structured_incentive","3,4,2,1,2,3","4,2,3,1","false","","",""
"null","","html-keyboard-response","548","169364","0.0-548.0","","<img src=""img/set2/S1.jpg"" width=""540"" height = ""360"">","null","","","","","","","","","",""
"null","","html-keyboard-response","549","169565","0.0-549.0","","","null","","","","","","","","","",""
"5.300000190734863","","image-keyboard-response","550","169572","0.0-550.0","","img/set2/S3.jpg","74","3","structured_load","72","random,structured_load,structured_normal,structured_incentive","3,4,2,1,2,3","4,2,3,1","false","","",""
"null","","html-keyboard-response","551","169925","0.0-551.0","","<img src=""img/set2/S3.jpg"" width=""540"" height = ""360"">","null","","","","","","","","","",""
"null","","html-keyboard-response","552","170131","0.0-552.0","","","null","","","","","","","","","",""
"17.40000009536743","","image-keyboard-response","553","170150","0.0-553.0","","img/set2/S4.jpg","74","4","structured_load","74","random,structured_load,structured_normal,structured_incentive","3,4,2,1,2,3","4,2,3,1","true","","",""
"null","","html-keyboard-response","554","170502","0.0-554.0","","<img src=""img/set2/S4.jpg"" width=""540"" height = ""360"" style=""border:16px solid orange"">","null","","","","","","","","","",""
"null","","html-keyboard-response","555","170703","0.0-555.0","","","null","","","","","","","","","",""
"73.59999990463257","","image-keyboard-response","556","170779","0.0-556.0","","img/set2/S3.jpg","74","3","structured_load","72","random,structured_load,structured_normal,structured_incentive","3,4,2,1,2,3","4,2,3,1","false","","",""
"null","","html-keyboard-response","557","171131","0.0-557.0","","<img src=""img/set2/S3.jpg"" width=""540"" height = ""360"">","null","","","","","","","","","",""
"null","","html-keyboard-response","558","171333","0.0-558.0","","","null","","","","","","","","","",""
"55.69999980926514","","image-keyboard-response","559","171390","0.0-559.0","","img/set2/S4.jpg","72","4","structured_load","74","random,structured_load,structured_normal,structured_incentive","3,4,2,1,2,3","4,2,3,1","false","","",""
"null","","html-keyboard-response","560","171744","0.0-560.0","","<img src=""img/set2/S4.jpg"" width=""540"" height = ""360"">","null","","","","","","","","","",""
"null","","html-keyboard-response","561","171946","0.0-561.0","","","null","","","","","","","","","",""
"152.30000019073486","","image-keyboard-response","562","172100","0.0-562.0","","img/set2/S2.jpg","74","2","structured_load","68","random,structured_load,structured_normal,structured_incentive","3,4,2,1,2,3","4,2,3,1","false","","",""
"null","","html-keyboard-response","563","172456","0.0-563.0","","<img src=""img/set2/S2.jpg"" width=""540"" height = ""360"">","null","","","","","","","","","",""
"null","","html-keyboard-response","564","172658","0.0-564.0","","","null","","","","","","","","","",""
"81.40000009536743","","image-keyboard-response","565","172740","0.0-565.0","","img/set2/S2.jpg","83","2","structured_load","68","random,structured_load,structured_normal,structured_incentive","3,4,2,1,2,3","4,2,3,1","false","","",""
"null","","html-keyboard-response","566","173092","0.0-566.0","","<img src=""img/set2/S2.jpg"" width=""540"" height = ""360"">","null","","","","","","","","","",""
"null","","html-keyboard-response","567","173294","0.0-567.0","","","null","","","","","","","","","",""
"43","","image-keyboard-response","568","173338","0.0-568.0","","img/set2/S3.jpg","83","3","structured_load","72","random,structured_load,structured_normal,structured_incentive","3,4,2,1,2,3","4,2,3,1","false","","",""
"null","","html-keyboard-response","569","173690","0.0-569.0","","<img src=""img/set2/S3.jpg"" width=""540"" height = ""360"">","null","","","","","","","","","",""
"null","","html-keyboard-response","570","173892","0.0-570.0","","","null","","","","","","","","","",""
"56.19999980926514","","image-keyboard-response","571","173949","0.0-571.0","","img/set2/S4.jpg","72","4","structured_load","74","random,structured_load,structured_normal,structured_incentive","3,4,2,1,2,3","4,2,3,1","false","","",""
"null","","html-keyboard-response","572","174301","0.0-572.0","","<img src=""img/set2/S4.jpg"" width=""540"" height = ""360"">","null","","","","","","","","","",""
"null","","html-keyboard-response","573","174503","0.0-573.0","","","null","","","","","","","","","",""
"12.5","","image-keyboard-response","574","174516","0.0-574.0","","img/set2/S2.jpg","68","2","structured_load","68","random,structured_load,structured_normal,structured_incentive","3,4,2,1,2,3","4,2,3,1","true","","",""
"null","","html-keyboard-response","575","174869","0.0-575.0","","<img src=""img/set2/S2.jpg"" width=""540"" height = ""360"" style=""border:16px solid orange"">","null","","","","","","","","","",""
"null","","html-keyboard-response","576","175071","0.0-576.0","","","null","","","","","","","","","",""
"12.5","","image-keyboard-response","577","175085","0.0-577.0","","img/set2/S1.jpg","83","1","structured_load","83","random,structured_load,structured_normal,structured_incentive","3,4,2,1,2,3","4,2,3,1","true","","",""
"null","","html-keyboard-response","578","175438","0.0-578.0","","<img src=""img/set2/S1.jpg"" width=""540"" height = ""360"" style=""border:16px solid orange"">","null","","","","","","","","","",""
"null","","html-keyboard-response","579","175639","0.0-579.0","","","null","","","","","","","","","",""
"100.19999980926514","","image-keyboard-response","580","175741","0.0-580.0","","img/set2/S3.jpg","83","3","structured_load","72","random,structured_load,structured_normal,structured_incentive","3,4,2,1,2,3","4,2,3,1","false","","",""
"null","","html-keyboard-response","581","176094","0.0-581.0","","<img src=""img/set2/S3.jpg"" width=""540"" height = ""360"">","null","","","","","","","","","",""
"null","","html-keyboard-response","582","176295","0.0-582.0","","","null","","","","","","","","","",""
"106.69999980926514","","image-keyboard-response","583","176402","0.0-583.0","","img/set2/S4.jpg","83","4","structured_load","74","random,structured_load,structured_normal,structured_incentive","3,4,2,1,2,3","4,2,3,1","false","","",""
"null","","html-keyboard-response","584","176755","0.0-584.0","","<img src=""img/set2/S4.jpg"" width=""540"" height = ""360"">","null","","","","","","","","","",""
"null","","html-keyboard-response","585","176958","0.0-585.0","","","null","","","","","","","","","",""
"32.19999980926514","","image-keyboard-response","586","176991","0.0-586.0","","img/set2/S2.jpg","74","2","structured_load","68","random,structured_load,structured_normal,structured_incentive","3,4,2,1,2,3","4,2,3,1","false","","",""
