"rt","url","trial_type","trial_index","time_elapsed","internal_node_id","view_history","stimulus","key_press","state","test_part","correct_response","order_block","order_chunk","order_freq","correct","responses","question_order","bonus"
"3518393.5","consent.html","external-html","0","3519227","0.0-0.0","","","","","","","","","","","","",""
"58149.199999999255","","instructions","1","3577575","0.0-1.0","[{""page_index"":0,""viewing_time"":3472.39999999851},{""page_index"":1,""viewing_time"":3227.400000002235},{""page_index"":2,""viewing_time"":1779.5},{""page_index"":3,""viewing_time"":8236.39999999851},{""page_index"":4,""viewing_time"":15927.400000002235},{""page_index"":5,""viewing_time"":9120.5},{""page_index"":6,""viewing_time"":16350.699999999255}]","","","","","","","","","","","",""
"21728.400000002235","","instructions","2","3599335","0.0-2.0","[{""page_index"":0,""viewing_time"":21727.60000000149}]","","","","","","","","","","","",""
"6080.39999999851","","instructions","3","3605418","0.0-3.0","[{""page_index"":0,""viewing_time"":6079.5}]","","","","","","","","","","","",""
"1252.199999999255","","image-keyboard-response","4","3606676","0.0-4.0","","img/set1/S4.jpg","68","4","structured_normal","74","structured_normal,random,structured_incentive,structured_load","2,3,2,1,3,4","4,1,2,3","false","","",""
"null","","html-keyboard-response","5","3607100","0.0-5.0","","<img src=""img/set1/S4.jpg"" width=""540"" height = ""360"">","null","","","","","","","","","",""
"null","","html-keyboard-response","6","3607304","0.0-6.0","","","null","","","","","","","","","",""
"404.3999999985099","","image-keyboard-response","7","3607740","0.0-7.0","","img/set1/S4.jpg","72","4","structured_normal","74","structured_normal,random,structured_incentive,structured_load","2,3,2,1,3,4","4,1,2,3","false","","",""
"null","","html-keyboard-response","8","3608094","0.0-8.0","","<img src=""img/set1/S4.jpg"" width=""540"" height = ""360"">","null","","","","","","","","","",""
"null","","html-keyboard-response","9","3608298","0.0-9.0","","","null","","","","","","","","","",""
"221.30000000074506","","image-keyboard-response","10","3608521","0.0-10.0","","img/set1/S2.jpg","72","2","structured_normal","68","structured_normal,random,structured_incentive,structured_load","2,3,2,1,3,4","4,1,2,3","false","","",""
"null","","html-keyboard-response","11","3608876","0.0-11.0","","<img src=""img/set1/S2.jpg"" width=""540"" height = ""360"">","null","","","","","","","","","",""
"null","","html-keyboard-response","12","3609079","0.0-12.0","","","null","","","","","","","","","",""
"226.5","","image-keyboard-response","13","3609307","0.0-13.0","","img/set1/S3.jpg","74","3","structured_normal","72","structured_normal,random,structured_incentive,structured_load","2,3,2,1,3,4","4,1,2,3","false","","",""
"null","","html-keyboard-response","14","3609660","0.0-14.0","","<img src=""img/set1/S3.jpg"" width=""540"" height = ""360"">","null","","","","","","","","","",""
"null","","html-keyboard-response","15","3609862","0.0-15.0","","","null","","","","","","","","","",""
"245.19999999925494","","image-keyboard-response","16","3610109","0.0-16.0","","img/set1/S4.jpg","72","4","structured_normal","74","structured_normal,random,structured_incentive,structured_load","2,3,2,1,3,4","4,1,2,3","false","","",""
"null","","html-keyboard-response","17","3610463","0.0-17.0","","<img src=""img/set1/S4.jpg"" width=""540"" height = ""360"">","null","","","","","","","","","",""
"null","","html-keyboard-response","18","3610665","0.0-18.0","","","null","","","","","","","","","",""
"12.199999999254942","","image-keyboard-response","19","3610679","0.0-19.0","","img/set1/S4.jpg","74","4","structured_normal","74","structured_normal,random,structured_incentive,structured_load","2,3,2,1,3,4","4,1,2,3","true","","",""
"null","","html-keyboard-response","20","3611033","0.0-20.0","","<img src=""img/set1/S4.jpg"" width=""540"" height = ""360"" style=""border:16px solid orange"">","null","","","","","","","","","",""
"null","","html-keyboard-response","21","3611235","0.0-21.0","","","null","","","","","","","","","",""
"68","","image-keyboard-response","22","3611305","0.0-22.0","","img/set1/S2.jpg","72","2","structured_normal","68","structured_normal,random,structured_incentive,structured_load","2,3,2,1,3,4","4,1,2,3","false","","",""
"null","","html-keyboard-response","23","3611658","0.0-23.0","","<img src=""img/set1/S2.jpg"" width=""540"" height = ""360"">","null","","","","","","","","","",""
"null","","html-keyboard-response","24","3611860","0.0-24.0","","","null","","","","","","","","","",""
"14.900000002235174","","image-keyboard-response","25","3611877","0.0-25.0","","img/set1/S3.jpg","74","3","structured_normal","72","structured_normal,random,structured_incentive,structured_load","2,3,2,1,3,4","4,1,2,3","false","","",""
"null","","html-keyboard-response","26","3612230","0.0-26.0","","<img src=""img/set1/S3.jpg"" width=""540"" height = ""360"">","null","","","","","","","","","",""
"null","","html-keyboard-response","27","3612432","0.0-27.0","","","null","","","","","","","","","",""
"259.4000000022352","","image-keyboard-response","28","3612694","0.0-28.0","","img/set1/S2.jpg","83","2","structured_normal","68","structured_normal,random,structured_incentive,structured_load","2,3,2,1,3,4","4,1,2,3","false","","",""
"null","","html-keyboard-response","29","3613049","0.0-29.0","","<img src=""img/set1/S2.jpg"" width=""540"" height = ""360"">","null","","","","","","","","","",""
"null","","html-keyboard-response","30","3613251","0.0-30.0","","","null","","","","","","","","","",""
"62.600000001490116","","image-keyboard-response","31","3613317","0.0-31.0","","img/set1/S3.jpg","68","3","structured_normal","72","structured_normal,random,structured_incentive,structured_load","2,3,2,1,3,4","4,1,2,3","false","","",""
"null","","html-keyboard-response","32","3613671","0.0-32.0","","<img src=""img/set1/S3.jpg"" width=""540"" height = ""360"">","null","","","","","","","","","",""
"null","","html-keyboard-response","33","3613874","0.0-33.0","","","null","","","","","","","","","",""
"122.39999999850988","","image-keyboard-response","34","3613998","0.0-34.0","","img/set1/S4.jpg","83","4","structured_normal","74","structured_normal,random,structured_incentive,structured_load","2,3,2,1,3,4","4,1,2,3","false","","",""
"null","","html-keyboard-response","35","3614352","0.0-35.0","","<img src=""img/set1/S4.jpg"" width=""540"" height = ""360"">","null","","","","","","","","","",""
"null","","html-keyboard-response","36","3614554","0.0-36.0","","","null","","","","","","","","","",""
"337.8999999985099","","image-keyboard-response","37","3614894","0.0-37.0","","img/set1/S1.jpg","72","1","structured_normal","83","structured_normal,random,structured_incentive,structured_load","2,3,2,1,3,4","4,1,2,3","false","","",""
"null","","html-keyboard-response","38","3615248","0.0-38.0","","<img src=""img/set1/S1.jpg"" width=""540"" height = ""360"">","null","","","","","","","","","",""
"null","","html-keyboard-response","39","3615450","0.0-39.0","","","null","","","","","","","","","",""
"194.20000000298023","","image-keyboard-response","40","3615646","0.0-40.0","","img/set1/S4.jpg","68","4","structured_normal","74","structured_normal,random,structured_incentive,structured_load","2,3,2,1,3,4","4,1,2,3","false","","",""
"null","","html-keyboard-response","41","3616000","0.0-41.0","","<img src=""img/set1/S4.jpg"" width=""540"" height = ""360"">","null","","","","","","","","","",""
"null","","html-keyboard-response","42","3616203","0.0-42.0","","","null","","","","","","","","","",""
"257.1000000014901","","image-keyboard-response","43","3616462","0.0-43.0","","img/set1/S1.jpg","83","1","structured_normal","83","structured_normal,random,structured_incentive,structured_load","2,3,2,1,3,4","4,1,2,3","true","","",""
"null","","html-keyboard-response","44","3616816","0.0-44.0","","<img src=""img/set1/S1.jpg"" width=""540"" height = ""360"" style=""border:16px solid orange"">","null","","","","","","","","","",""
"null","","html-keyboard-response","45","3617018","0.0-45.0","","","null","","","","","","","","","",""
"75.5","","image-keyboard-response","46","3617096","0.0-46.0","","img/set1/S4.jpg","72","4","structured_normal","74","structured_normal,random,structured_incentive,structured_load","2,3,2,1,3,4","4,1,2,3","false","","",""
"null","","html-keyboard-response","47","3617449","0.0-47.0","","<img src=""img/set1/S4.jpg"" width=""540"" height = ""360"">","null","","","","","","","","","",""
"null","","html-keyboard-response","48","3617651","0.0-48.0","","","null","","","","","","","","","",""
"100.30000000074506","","image-keyboard-response","49","3617754","0.0-49.0","","img/set1/S1.jpg","68","1","structured_normal","83","structured_normal,random,structured_incentive,structured_load","2,3,2,1,3,4","4,1,2,3","false","","",""
"null","","html-keyboard-response","50","3618107","0.0-50.0","","<img src=""img/set1/S1.jpg"" width=""540"" height = ""360"">","null","","","","","","","","","",""
"null","","html-keyboard-response","51","3618309","0.0-51.0","","","null","","","","","","","","","",""
"239","","image-keyboard-response","52","3618550","0.0-52.0","","img/set1/S4.jpg","83","4","structured_normal","74","structured_normal,random,structured_incentive,structured_load","2,3,2,1,3,4","4,1,2,3","false","","",""
"null","","html-keyboard-response","53","3618904","0.0-53.0","","<img src=""img/set1/S4.jpg"" width=""540"" height = ""360"">","null","","","","","","","","","",""
"null","","html-keyboard-response","54","3619106","0.0-54.0","","","null","","","","","","","","","",""
"298.1000000014901","","image-keyboard-response","55","3619406","0.0-55.0","","img/set1/S1.jpg","68","1","structured_normal","83","structured_normal,random,structured_incentive,structured_load","2,3,2,1,3,4","4,1,2,3","false","","",""
"null","","html-keyboard-response","56","3619760","0.0-56.0","","<img src=""img/set1/S1.jpg"" width=""540"" height = ""360"">","null","","","","","","","","","",""
"null","","html-keyboard-response","57","3619962","0.0-57.0","","","null","","","","","","","","","",""
"183.5","","image-keyboard-response","58","3620147","0.0-58.0","","img/set1/S2.jpg","74","2","structured_normal","68","structured_normal,random,structured_incentive,structured_load","2,3,2,1,3,4","4,1,2,3","false","","",""
"null","","html-keyboard-response","59","3620500","0.0-59.0","","<img src=""img/set1/S2.jpg"" width=""540"" height = ""360"">","null","","","","","","","","","",""
"null","","html-keyboard-response","60","3620702","0.0-60.0","","","null","","","","","","","","","",""
"71.69999999925494","","image-keyboard-response","61","3620775","0.0-61.0","","img/set1/S3.jpg","83","3","structured_normal","72","structured_normal,random,structured_incentive,structured_load","2,3,2,1,3,4","4,1,2,3","false","","",""
"null","","html-keyboard-response","62","3621128","0.0-62.0","","<img src=""img/set1/S3.jpg"" width=""540"" height = ""360"">","null","","","","","","","","","",""
"null","","html-keyboard-response","63","3621331","0.0-63.0","","","null","","","","","","","","","",""
"9.899999998509884","","image-keyboard-response","64","3621343","0.0-64.0","","img/set1/S1.jpg","68","1","structured_normal","83","structured_normal,random,structured_incentive,structured_load","2,3,2,1,3,4","4,1,2,3","false","","",""
"null","","html-keyboard-response","65","3621698","0.0-65.0","","<img src=""img/set1/S1.jpg"" width=""540"" height = ""360"">","null","","","","","","","","","",""
"null","","html-keyboard-response","66","3621900","0.0-66.0","","","null","","","","","","","","","",""
"472.80000000074506","","image-keyboard-response","67","3622375","0.0-67.0","","img/set1/S1.jpg","83","1","structured_normal","83","structured_normal,random,structured_incentive,structured_load","2,3,2,1,3,4","4,1,2,3","true","","",""
"null","","html-keyboard-response","68","3622728","0.0-68.0","","<img src=""img/set1/S1.jpg"" width=""540"" height = ""360"" style=""border:16px solid orange"">","null","","","","","","","","","",""
"null","","html-keyboard-response","69","3622930","0.0-69.0","","","null","","","","","","","","","",""
"91.80000000074506","","image-keyboard-response","70","3623028","0.0-70.0","","img/set1/S2.jpg","83","2","structured_normal","68","structured_normal,random,structured_incentive,structured_load","2,3,2,1,3,4","4,1,2,3","false","","",""
"null","","html-keyboard-response","71","3623382","0.0-71.0","","<img src=""img/set1/S2.jpg"" width=""540"" height = ""360"">","null","","","","","","","","","",""
"null","","html-keyboard-response","72","3623584","0.0-72.0","","","null","","","","","","","","","",""
"94.80000000074506","","image-keyboard-response","73","3623681","0.0-73.0","","img/set1/S3.jpg","72","3","structured_normal","72","structured_normal,random,structured_incentive,structured_load","2,3,2,1,3,4","4,1,2,3","true","","",""
"null","","html-keyboard-response","74","3624035","0.0-74.0","","<img src=""img/set1/S3.jpg"" width=""540"" height = ""360"" style=""border:16px solid orange"">","null","","","","","","","","","",""
"null","","html-keyboard-response","75","3624237","0.0-75.0","","","null","","","","","","","","","",""
"273.30000000074506","","image-keyboard-response","76","3624512","0.0-76.0","","img/set1/S4.jpg","83","4","structured_normal","74","structured_normal,random,structured_incentive,structured_load","2,3,2,1,3,4","4,1,2,3","false","","",""
"null","","html-keyboard-response","77","3624866","0.0-77.0","","<img src=""img/set1/S4.jpg"" width=""540"" height = ""360"">","null","","","","","","","","","",""
"null","","html-keyboard-response","78","3625068","0.0-78.0","","","null","","","","","","","","","",""
"426.69999999925494","","image-keyboard-response","79","3625497","0.0-79.0","","img/set1/S2.jpg","72","2","structured_normal","68","structured_normal,random,structured_incentive,structured_load","2,3,2,1,3,4","4,1,2,3","false","","",""
"null","","html-keyboard-response","80","3625850","0.0-80.0","","<img src=""img/set1/S2.jpg"" width=""540"" height = ""360"">","null","","","","","","","","","",""
"null","","html-keyboard-response","81","3626052","0.0-81.0","","","null","","","","","","","","","",""
"535.8999999985099","","image-keyboard-response","82","3626590","0.0-82.0","","img/set1/S3.jpg","72","3","structured_normal","72","structured_normal,random,structured_incentive,structured_load","2,3,2,1,3,4","4,1,2,3","true","","",""
"null","","html-keyboard-response","83","3626944","0.0-83.0","","<img src=""img/set1/S3.jpg"" width=""540"" height = ""360"" style=""border:16px solid orange"">","null","","","","","","","","","",""
"null","","html-keyboard-response","84","3627146","0.0-84.0","","","null","","","","","","","","","",""
"139.5","","image-keyboard-response","85","3627288","0.0-85.0","","img/set1/S2.jpg","83","2","structured_normal","68","structured_normal,random,structured_incentive,structured_load","2,3,2,1,3,4","4,1,2,3","false","","",""
"null","","html-keyboard-response","86","3627641","0.0-86.0","","<img src=""img/set1/S2.jpg"" width=""540"" height = ""360"">","null","","","","","","","","","",""
"null","","html-keyboard-response","87","3627843","0.0-87.0","","","null","","","","","","","","","",""
"342.80000000074506","","image-keyboard-response","88","3628188","0.0-88.0","","img/set1/S3.jpg","68","3","structured_normal","72","structured_normal,random,structured_incentive,structured_load","2,3,2,1,3,4","4,1,2,3","false","","",""
"null","","html-keyboard-response","89","3628542","0.0-89.0","","<img src=""img/set1/S3.jpg"" width=""540"" height = ""360"">","null","","","","","","","","","",""
"null","","html-keyboard-response","90","3628744","0.0-90.0","","","null","","","","","","","","","",""
"344","","image-keyboard-response","91","3629090","0.0-91.0","","img/set1/S2.jpg","72","2","structured_normal","68","structured_normal,random,structured_incentive,structured_load","2,3,2,1,3,4","4,1,2,3","false","","",""
"null","","html-keyboard-response","92","3629446","0.0-92.0","","<img src=""img/set1/S2.jpg"" width=""540"" height = ""360"">","null","","","","","","","","","",""
"null","","html-keyboard-response","93","3629648","0.0-93.0","","","null","","","","","","","","","",""
"454.30000000074506","","image-keyboard-response","94","3630104","0.0-94.0","","img/set1/S3.jpg","68","3","structured_normal","72","structured_normal,random,structured_incentive,structured_load","2,3,2,1,3,4","4,1,2,3","false","","",""
"null","","html-keyboard-response","95","3630458","0.0-95.0","","<img src=""img/set1/S3.jpg"" width=""540"" height = ""360"">","null","","","","","","","","","",""
"null","","html-keyboard-response","96","3630660","0.0-96.0","","","null","","","","","","","","","",""
"147.30000000074506","","image-keyboard-response","97","3630809","0.0-97.0","","img/set1/S1.jpg","72","1","structured_normal","83","structured_normal,random,structured_incentive,structured_load","2,3,2,1,3,4","4,1,2,3","false","","",""
"null","","html-keyboard-response","98","3631162","0.0-98.0","","<img src=""img/set1/S1.jpg"" width=""540"" height = ""360"">","null","","","","","","","","","",""
"null","","html-keyboard-response","99","3631364","0.0-99.0","","","null","","","","","","","","","",""
"225.90000000223517","","image-keyboard-response","100","3631592","0.0-100.0","","img/set1/S2.jpg","68","2","structured_normal","68","structured_normal,random,structured_incentive,structured_load","2,3,2,1,3,4","4,1,2,3","true","","",""
"null","","html-keyboard-response","101","3631946","0.0-101.0","","<img src=""img/set1/S2.jpg"" width=""540"" height = ""360"" style=""border:16px solid orange"">","null","","","","","","","","","",""
"null","","html-keyboard-response","102","3632148","0.0-102.0","","","null","","","","","","","","","",""
"119.90000000223517","","image-keyboard-response","103","3632270","0.0-103.0","","img/set1/S3.jpg","72","3","structured_normal","72","structured_normal,random,structured_incentive,structured_load","2,3,2,1,3,4","4,1,2,3","true","","",""
"null","","html-keyboard-response","104","3632624","0.0-104.0","","<img src=""img/set1/S3.jpg"" width=""540"" height = ""360"" style=""border:16px solid orange"">","null","","","","","","","","","",""
"null","","html-keyboard-response","105","3632826","0.0-105.0","","","null","","","","","","","","","",""
"50.100000001490116","","image-keyboard-response","106","3632878","0.0-106.0","","img/set1/S1.jpg","72","1","structured_normal","83","structured_normal,random,structured_incentive,structured_load","2,3,2,1,3,4","4,1,2,3","false","","",""
"null","","html-keyboard-response","107","3633231","0.0-107.0","","<img src=""img/set1/S1.jpg"" width=""540"" height = ""360"">","null","","","","","","","","","",""
"null","","html-keyboard-response","108","3633433","0.0-108.0","","","null","","","","","","","","","",""
"116.89999999850988","","image-keyboard-response","109","3633552","0.0-109.0","","img/set1/S4.jpg","68","4","structured_normal","74","structured_normal,random,structured_incentive,structured_load","2,3,2,1,3,4","4,1,2,3","false","","",""
"null","","html-keyboard-response","110","3633904","0.0-110.0","","<img src=""img/set1/S4.jpg"" width=""540"" height = ""360"">","null","","","","","","","","","",""
"null","","html-keyboard-response","111","3634107","0.0-111.0","","","null","","","","","","","","","",""
"195.30000000074506","","image-keyboard-response","112","3634304","0.0-112.0","","img/set1/S2.jpg","83","2","structured_normal","68","structured_normal,random,structured_incentive,structured_load","2,3,2,1,3,4","4,1,2,3","false","","",""
"null","","html-keyboard-response","113","3634657","0.0-113.0","","<img src=""img/set1/S2.jpg"" width=""540"" height = ""360"">","null","","","","","","","","","",""
"null","","html-keyboard-response","114","3634859","0.0-114.0","","","null","","","","","","","","","",""
"193.80000000074506","","image-keyboard-response","115","3635055","0.0-115.0","","img/set1/S3.jpg","74","3","structured_normal","72","structured_normal,random,structured_incentive,structured_load","2,3,2,1,3,4","4,1,2,3","false","","",""
"null","","html-keyboard-response","116","3635407","0.0-116.0","","<img src=""img/set1/S3.jpg"" width=""540"" height = ""360"">","null","","","","","","","","","",""
"null","","html-keyboard-response","117","3635609","0.0-117.0","","","null","","","","","","","","","",""
"567.1999999992549","","image-keyboard-response","118","3636179","0.0-118.0","","img/set1/S2.jpg","72","2","structured_normal","68","structured_normal,random,structured_incentive,structured_load","2,3,2,1,3,4","4,1,2,3","false","","",""
"null","","html-keyboard-response","119","3636533","0.0-119.0","","<img src=""img/set1/S2.jpg"" width=""540"" height = ""360"">","null","","","","","","","","","",""
"null","","html-keyboard-response","120","3636734","0.0-120.0","","","null","","","","","","","","","",""
"288.3999999985099","","image-keyboard-response","121","3637025","0.0-121.0","","img/set1/S3.jpg","72","3","structured_normal","72","structured_normal,random,structured_incentive,structured_load","2,3,2,1,3,4","4,1,2,3","true","","",""
"null","","html-keyboard-response","122","3637378","0.0-122.0","","<img src=""img/set1/S3.jpg"" width=""540"" height = ""360"" style=""border:16px solid orange"">","null","","","","","","","","","",""
"null","","html-keyboard-response","123","3637581","0.0-123.0","","","null","","","","","","","","","",""
"198.60000000149012","","image-keyboard-response","124","3637782","0.0-124.0","","img/set1/S2.jpg","68","2","structured_normal","68","structured_normal,random,structured_incentive,structured_load","2,3,2,1,3,4","4,1,2,3","true","","",""
"null","","html-keyboard-response","125","3638134","0.0-125.0","","<img src=""img/set1/S2.jpg"" width=""540"" height = ""360"" style=""border:16px solid orange"">","null","","","","","","","","","",""
"null","","html-keyboard-response","126","3638336","0.0-126.0","","","null","","","","","","","","","",""
"186","","image-keyboard-response","127","3638525","0.0-127.0","","img/set1/S3.jpg","83","3","structured_normal","72","structured_normal,random,structured_incentive,structured_load","2,3,2,1,3,4","4,1,2,3","false","","",""
"null","","html-keyboard-response","128","3638878","0.0-128.0","","<img src=""img/set1/S3.jpg"" width=""540"" height = ""360"">","null","","","","","","","","","",""
"null","","html-keyboard-response","129","3639080","0.0-129.0","","","null","","","","","","","","","",""
"416.5","","image-keyboard-response","130","3639500","0.0-130.0","","img/set1/S1.jpg","74","1","structured_normal","83","structured_normal,random,structured_incentive,structured_load","2,3,2,1,3,4","4,1,2,3","false","","",""
"null","","html-keyboard-response","131","3639853","0.0-131.0","","<img src=""img/set1/S1.jpg"" width=""540"" height = ""360"">","null","","","","","","","","","",""
"null","","html-keyboard-response","132","3640055","0.0-132.0","","","null","","","","","","","","","",""
"391.69999999925494","","image-keyboard-response","133","3640450","0.0-133.0","","img/set1/S4.jpg","83","4","structured_normal","74","structured_normal,random,structured_incentive,structured_load","2,3,2,1,3,4","4,1,2,3","false","","",""
"null","","html-keyboard-response","134","3640803","0.0-134.0","","<img src=""img/set1/S4.jpg"" width=""540"" height = ""360"">","null","","","","","","","","","",""
"null","","html-keyboard-response","135","3641005","0.0-135.0","","","null","","","","","","","","","",""
"416.30000000074506","","image-keyboard-response","136","3641424","0.0-136.0","","img/set1/S2.jpg","74","2","structured_normal","68","structured_normal,random,structured_incentive,structured_load","2,3,2,1,3,4","4,1,2,3","false","","",""
"null","","html-keyboard-response","137","3641777","0.0-137.0","","<img src=""img/set1/S2.jpg"" width=""540"" height = ""360"">","null","","","","","","","","","",""
"null","","html-keyboard-response","138","3641980","0.0-138.0","","","null","","","","","","","","","",""
"49.69999999925494","","image-keyboard-response","139","3642032","0.0-139.0","","img/set1/S3.jpg","68","3","structured_normal","72","structured_normal,random,structured_incentive,structured_load","2,3,2,1,3,4","4,1,2,3","false","","",""
"null","","html-keyboard-response","140","3642386","0.0-140.0","","<img src=""img/set1/S3.jpg"" width=""540"" height = ""360"">","null","","","","","","","","","",""
"null","","html-keyboard-response","141","3642587","0.0-141.0","","","null","","","","","","","","","",""
"412.5","","image-keyboard-response","142","3643002","0.0-142.0","","img/set1/S1.jpg","68","1","structured_normal","83","structured_normal,random,structured_incentive,structured_load","2,3,2,1,3,4","4,1,2,3","false","","",""
"null","","html-keyboard-response","143","3643357","0.0-143.0","","<img src=""img/set1/S1.jpg"" width=""540"" height = ""360"">","null","","","","","","","","","",""
"null","","html-keyboard-response","144","3643558","0.0-144.0","","","null","","","","","","","","","",""
"272.79999999701977","","image-keyboard-response","145","3643832","0.0-145.0","","img/set1/S2.jpg","72","2","structured_normal","68","structured_normal,random,structured_incentive,structured_load","2,3,2,1,3,4","4,1,2,3","false","","",""
"null","","html-keyboard-response","146","3644189","0.0-146.0","","<img src=""img/set1/S2.jpg"" width=""540"" height = ""360"">","null","","","","","","","","","",""
"null","","html-keyboard-response","147","3644391","0.0-147.0","","","null","","","","","","","","","",""
"167.89999999850988","","image-keyboard-response","148","3644561","0.0-148.0","","img/set1/S3.jpg","72","3","structured_normal","72","structured_normal,random,structured_incentive,structured_load","2,3,2,1,3,4","4,1,2,3","true","","",""
"null","","html-keyboard-response","149","3644915","0.0-149.0","","<img src=""img/set1/S3.jpg"" width=""540"" height = ""360"" style=""border:16px solid orange"">","null","","","","","","","","","",""
"null","","html-keyboard-response","150","3645117","0.0-150.0","","","null","","","","","","","","","",""
"279.19999999925494","","image-keyboard-response","151","3645398","0.0-151.0","","img/set1/S2.jpg","74","2","structured_normal","68","structured_normal,random,structured_incentive,structured_load","2,3,2,1,3,4","4,1,2,3","false","","",""
"null","","html-keyboard-response","152","3645752","0.0-152.0","","<img src=""img/set1/S2.jpg"" width=""540"" height = ""360"">","null","","","","","","","","","",""
"null","","html-keyboard-response","153","3645954","0.0-153.0","","","null","","","","","","","","","",""
"93","","image-keyboard-response","154","3646048","0.0-154.0","","img/set1/S3.jpg","72","3","structured_normal","72","structured_normal,random,structured_incentive,structured_load","2,3,2,1,3,4","4,1,2,3","true","","",""
"null","","html-keyboard-response","155","3646430","0.0-155.0","","<img src=""img/set1/S3.jpg"" width=""540"" height = ""360"" style=""border:16px solid orange"">","null","","","","","","","","","",""
"null","","html-keyboard-response","156","3646632","0.0-156.0","","","null","","","","","","","","","",""
"53.399999998509884","","image-keyboard-response","157","3646687","0.0-157.0","","img/set1/S4.jpg","74","4","structured_normal","74","structured_normal,random,structured_incentive,structured_load","2,3,2,1,3,4","4,1,2,3","true","","",""
"null","","html-keyboard-response","158","3647040","0.0-158.0","","<img src=""img/set1/S4.jpg"" width=""540"" height = ""360"" style=""border:16px solid orange"">","null","","","","","","","","","",""
"null","","html-keyboard-response","159","3647242","0.0-159.0","","","null","","","","","","","","","",""
"319.79999999701977","","image-keyboard-response","160","3647564","0.0-160.0","","img/set1/S2.jpg","72","2","structured_normal","68","structured_normal,random,structured_incentive,structured_load","2,3,2,1,3,4","4,1,2,3","false","","",""
"null","","html-keyboard-response","161","3647918","0.0-161.0","","<img src=""img/set1/S2.jpg"" width=""540"" height = ""360"">","null","","","","","","","","","",""
"null","","html-keyboard-response","162","3648120","0.0-162.0","","","null","","","","","","","","","",""
"134.5","","image-keyboard-response","163","3648257","0.0-163.0","","img/set1/S3.jpg","74","3","structured_normal","72","structured_normal,random,structured_incentive,structured_load","2,3,2,1,3,4","4,1,2,3","false","","",""
"null","","html-keyboard-response","164","3648610","0.0-164.0","","<img src=""img/set1/S3.jpg"" width=""540"" height = ""360"">","null","","","","","","","","","",""
"null","","html-keyboard-response","165","3648812","0.0-165.0","","","null","","","","","","","","","",""
"105.30000000074506","","image-keyboard-response","166","3648919","0.0-166.0","","img/set1/S4.jpg","72","4","structured_normal","74","structured_normal,random,structured_incentive,structured_load","2,3,2,1,3,4","4,1,2,3","false","","",""
"null","","html-keyboard-response","167","3649273","0.0-167.0","","<img src=""img/set1/S4.jpg"" width=""540"" height = ""360"">","null","","","","","","","","","",""
"null","","html-keyboard-response","168","3649475","0.0-168.0","","","null","","","","","","","","","",""
"223.39999999850988","","image-keyboard-response","169","3649700","0.0-169.0","","img/set1/S1.jpg","68","1","structured_normal","83","structured_normal,random,structured_incentive,structured_load","2,3,2,1,3,4","4,1,2,3","false","","",""
"null","","html-keyboard-response","170","3650053","0.0-170.0","","<img src=""img/set1/S1.jpg"" width=""540"" height = ""360"">","null","","","","","","","","","",""
"null","","html-keyboard-response","171","3650255","0.0-171.0","","","null","","","","","","","","","",""
"186.59999999776483","","image-keyboard-response","172","3650443","0.0-172.0","","img/set1/S2.jpg","74","2","structured_normal","68","structured_normal,random,structured_incentive,structured_load","2,3,2,1,3,4","4,1,2,3","false","","",""
"null","","html-keyboard-response","173","3650797","0.0-173.0","","<img src=""img/set1/S2.jpg"" width=""540"" height = ""360"">","null","","","","","","","","","",""
"null","","html-keyboard-response","174","3650999","0.0-174.0","","","null","","","","","","","","","",""
"218.19999999925494","","image-keyboard-response","175","3651219","0.0-175.0","","img/set1/S3.jpg","72","3","structured_normal","72","structured_normal,random,structured_incentive,structured_load","2,3,2,1,3,4","4,1,2,3","true","","",""
"null","","html-keyboard-response","176","3651571","0.0-176.0","","<img src=""img/set1/S3.jpg"" width=""540"" height = ""360"" style=""border:16px solid orange"">","null","","","","","","","","","",""
"null","","html-keyboard-response","177","3651773","0.0-177.0","","","null","","","","","","","","","",""
"201.39999999850988","","image-keyboard-response","178","3651976","0.0-178.0","","img/set1/S1.jpg","74","1","structured_normal","83","structured_normal,random,structured_incentive,structured_load","2,3,2,1,3,4","4,1,2,3","false","","",""
"null","","html-keyboard-response","179","3652331","0.0-179.0","","<img src=""img/set1/S1.jpg"" width=""540"" height = ""360"">","null","","","","","","","","","",""
"null","","html-keyboard-response","180","3652533","0.0-180.0","","","null","","","","","","","","","",""
"74.39999999850988","","image-keyboard-response","181","3652609","0.0-181.0","","img/set1/S1.jpg","72","1","structured_normal","83","structured_normal,random,structured_incentive,structured_load","2,3,2,1,3,4","4,1,2,3","false","","",""
"null","","html-keyboard-response","182","3652962","0.0-182.0","","<img src=""img/set1/S1.jpg"" width=""540"" height = ""360"">","null","","","","","","","","","",""
"null","","html-keyboard-response","183","3653164","0.0-183.0","","","null","","","","","","","","","",""
"131.19999999925494","","image-keyboard-response","184","3653297","0.0-184.0","","img/set1/S2.jpg","74","2","structured_normal","68","structured_normal,random,structured_incentive,structured_load","2,3,2,1,3,4","4,1,2,3","false","","",""
"null","","html-keyboard-response","185","3653651","0.0-185.0","","<img src=""img/set1/S2.jpg"" width=""540"" height = ""360"">","null","","","","","","","","","",""
"null","","html-keyboard-response","186","3653853","0.0-186.0","","","null","","","","","","","","","",""
"139.69999999925494","","image-keyboard-response","187","3653995","0.0-187.0","","img/set1/S3.jpg","72","3","structured_normal","72","structured_normal,random,structured_incentive,structured_load","2,3,2,1,3,4","4,1,2,3","true","","",""
"null","","html-keyboard-response","188","3654349","0.0-188.0","","<img src=""img/set1/S3.jpg"" width=""540"" height = ""360"" style=""border:16px solid orange"">","null","","","","","","","","","",""
"null","","html-keyboard-response","189","3654551","0.0-189.0","","","null","","","","","","","","","",""
"144.29999999701977","","image-keyboard-response","190","3654698","0.0-190.0","","img/set1/S2.jpg","74","2","structured_normal","68","structured_normal,random,structured_incentive,structured_load","2,3,2,1,3,4","4,1,2,3","false","","",""
"null","","html-keyboard-response","191","3655051","0.0-191.0","","<img src=""img/set1/S2.jpg"" width=""540"" height = ""360"">","null","","","","","","","","","",""
"null","","html-keyboard-response","192","3655253","0.0-192.0","","","null","","","","","","","","","",""
"80.19999999925494","","image-keyboard-response","193","3655335","0.0-193.0","","img/set1/S3.jpg","72","3","structured_normal","72","structured_normal,random,structured_incentive,structured_load","2,3,2,1,3,4","4,1,2,3","true","","",""
"null","","html-keyboard-response","194","3655688","0.0-194.0","","<img src=""img/set1/S3.jpg"" width=""540"" height = ""360"" style=""border:16px solid orange"">","null","","","","","","","","","",""
"null","","html-keyboard-response","195","3655890","0.0-195.0","","","null","","","","","","","","","",""
"146.5","","image-keyboard-response","196","3656038","0.0-196.0","","img/set1/S2.jpg","74","2","structured_normal","68","structured_normal,random,structured_incentive,structured_load","2,3,2,1,3,4","4,1,2,3","false","","",""
"null","","html-keyboard-response","197","3656392","0.0-197.0","","<img src=""img/set1/S2.jpg"" width=""540"" height = ""360"">","null","","","","","","","","","",""
"null","","html-keyboard-response","198","3656594","0.0-198.0","","","null","","","","","","","","","",""
"59.5","","image-keyboard-response","199","3656658","0.0-199.0","","img/set1/S3.jpg","72","3","structured_normal","72","structured_normal,random,structured_incentive,structured_load","2,3,2,1,3,4","4,1,2,3","true","","",""
"null","","html-keyboard-response","200","3657011","0.0-200.0","","<img src=""img/set1/S3.jpg"" width=""540"" height = ""360"" style=""border:16px solid orange"">","null","","","","","","","","","",""
"null","","html-keyboard-response","201","3657213","0.0-201.0","","","null","","","","","","","","","",""
"119.80000000074506","","image-keyboard-response","202","3657335","0.0-202.0","","img/set1/S2.jpg","74","2","structured_normal","68","structured_normal,random,structured_incentive,structured_load","2,3,2,1,3,4","4,1,2,3","false","","",""
"null","","html-keyboard-response","203","3657689","0.0-203.0","","<img src=""img/set1/S2.jpg"" width=""540"" height = ""360"">","null","","","","","","","","","",""
"null","","html-keyboard-response","204","3657891","0.0-204.0","","","null","","","","","","","","","",""
"99.69999999925494","","image-keyboard-response","205","3657993","0.0-205.0","","img/set1/S3.jpg","72","3","structured_normal","72","structured_normal,random,structured_incentive,structured_load","2,3,2,1,3,4","4,1,2,3","true","","",""
"null","","html-keyboard-response","206","3658347","0.0-206.0","","<img src=""img/set1/S3.jpg"" width=""540"" height = ""360"" style=""border:16px solid orange"">","null","","","","","","","","","",""
"null","","html-keyboard-response","207","3658549","0.0-207.0","","","null","","","","","","","","","",""
"258.20000000298023","","image-keyboard-response","208","3658811","0.0-208.0","","img/set1/S1.jpg","74","1","structured_normal","83","structured_normal,random,structured_incentive,structured_load","2,3,2,1,3,4","4,1,2,3","false","","",""
"null","","html-keyboard-response","209","3659164","0.0-209.0","","<img src=""img/set1/S1.jpg"" width=""540"" height = ""360"">","null","","","","","","","","","",""
"null","","html-keyboard-response","210","3659366","0.0-210.0","","","null","","","","","","","","","",""
"84.30000000074506","","image-keyboard-response","211","3659452","0.0-211.0","","img/set1/S4.jpg","72","4","structured_normal","74","structured_normal,random,structured_incentive,structured_load","2,3,2,1,3,4","4,1,2,3","false","","",""
"null","","html-keyboard-response","212","3659805","0.0-212.0","","<img src=""img/set1/S4.jpg"" width=""540"" height = ""360"">","null","","","","","","","","","",""
"null","","html-keyboard-response","213","3660007","0.0-213.0","","","null","","","","","","","","","",""
"22.800000000745058","","image-keyboard-response","214","3660032","0.0-214.0","","img/set1/S1.jpg","72","1","structured_normal","83","structured_normal,random,structured_incentive,structured_load","2,3,2,1,3,4","4,1,2,3","false","","",""
"null","","html-keyboard-response","215","3660385","0.0-215.0","","<img src=""img/set1/S1.jpg"" width=""540"" height = ""360"">","null","","","","","","","","","",""
"null","","html-keyboard-response","216","3660587","0.0-216.0","","","null","","","","","","","","","",""
"333.19999999925494","","image-keyboard-response","217","3660923","0.0-217.0","","img/set1/S2.jpg","72","2","structured_normal","68","structured_normal,random,structured_incentive,structured_load","2,3,2,1,3,4","4,1,2,3","false","","",""
"null","","html-keyboard-response","218","3661276","0.0-218.0","","<img src=""img/set1/S2.jpg"" width=""540"" height = ""360"">","null","","","","","","","","","",""
"null","","html-keyboard-response","219","3661478","0.0-219.0","","","null","","","","","","","","","",""
"421.79999999701977","","image-keyboard-response","220","3661903","0.0-220.0","","img/set1/S3.jpg","72","3","structured_normal","72","structured_normal,random,structured_incentive,structured_load","2,3,2,1,3,4","4,1,2,3","true","","",""
"null","","html-keyboard-response","221","3662256","0.0-221.0","","<img src=""img/set1/S3.jpg"" width=""540"" height = ""360"" style=""border:16px solid orange"">","null","","","","","","","","","",""
"null","","html-keyboard-response","222","3662458","0.0-222.0","","","null","","","","","","","","","",""
"183.60000000149012","","image-keyboard-response","223","3662644","0.0-223.0","","img/set1/S4.jpg","83","4","structured_normal","74","structured_normal,random,structured_incentive,structured_load","2,3,2,1,3,4","4,1,2,3","false","","",""
"null","","html-keyboard-response","224","3662998","0.0-224.0","","<img src=""img/set1/S4.jpg"" width=""540"" height = ""360"">","null","","","","","","","","","",""
"null","","html-keyboard-response","225","3663200","0.0-225.0","","","null","","","","","","","","","",""
"253","","image-keyboard-response","226","3663455","0.0-226.0","","img/set1/S4.jpg","68","4","structured_normal","74","structured_normal,random,structured_incentive,structured_load","2,3,2,1,3,4","4,1,2,3","false","","",""
"null","","html-keyboard-response","227","3663809","0.0-227.0","","<img src=""img/set1/S4.jpg"" width=""540"" height = ""360"">","null","","","","","","","","","",""
"null","","html-keyboard-response","228","3664011","0.0-228.0","","","null","","","","","","","","","",""
"75","","image-keyboard-response","229","3664089","0.0-229.0","","img/set1/S4.jpg","83","4","structured_normal","74","structured_normal,random,structured_incentive,structured_load","2,3,2,1,3,4","4,1,2,3","false","","",""
"null","","html-keyboard-response","230","3664442","0.0-230.0","","<img src=""img/set1/S4.jpg"" width=""540"" height = ""360"">","null","","","","","","","","","",""
"null","","html-keyboard-response","231","3664644","0.0-231.0","","","null","","","","","","","","","",""
"154.5","","image-keyboard-response","232","3664801","0.0-232.0","","img/set1/S1.jpg","68","1","structured_normal","83","structured_normal,random,structured_incentive,structured_load","2,3,2,1,3,4","4,1,2,3","false","","",""
"null","","html-keyboard-response","233","3665153","0.0-233.0","","<img src=""img/set1/S1.jpg"" width=""540"" height = ""360"">","null","","","","","","","","","",""
"null","","html-keyboard-response","234","3665355","0.0-234.0","","","null","","","","","","","","","",""
"274.69999999925494","","image-keyboard-response","235","3665632","0.0-235.0","","img/set1/S2.jpg","83","2","structured_normal","68","structured_normal,random,structured_incentive,structured_load","2,3,2,1,3,4","4,1,2,3","false","","",""
"null","","html-keyboard-response","236","3665986","0.0-236.0","","<img src=""img/set1/S2.jpg"" width=""540"" height = ""360"">","null","","","","","","","","","",""
"null","","html-keyboard-response","237","3666188","0.0-237.0","","","null","","","","","","","","","",""
"253.30000000074506","","image-keyboard-response","238","3666444","0.0-238.0","","img/set1/S3.jpg","72","3","structured_normal","72","structured_normal,random,structured_incentive,structured_load","2,3,2,1,3,4","4,1,2,3","true","","",""
"null","","html-keyboard-response","239","3666797","0.0-239.0","","<img src=""img/set1/S3.jpg"" width=""540"" height = ""360"" style=""border:16px solid orange"">","null","","","","","","","","","",""
"null","","html-keyboard-response","240","3666999","0.0-240.0","","","null","","","","","","","","","",""
"13.800000000745058","","image-keyboard-response","241","3667015","0.0-241.0","","img/set1/S1.jpg","74","1","structured_normal","83","structured_normal,random,structured_incentive,structured_load","2,3,2,1,3,4","4,1,2,3","false","","",""
"null","","html-keyboard-response","242","3667369","0.0-242.0","","<img src=""img/set1/S1.jpg"" width=""540"" height = ""360"">","null","","","","","","","","","",""
"null","","html-keyboard-response","243","3667571","0.0-243.0","","","null","","","","","","","","","",""
"155.5","","image-keyboard-response","244","3667730","0.0-244.0","","img/set1/S4.jpg","72","4","structured_normal","74","structured_normal,random,structured_incentive,structured_load","2,3,2,1,3,4","4,1,2,3","false","","",""
"null","","html-keyboard-response","245","3668084","0.0-245.0","","<img src=""img/set1/S4.jpg"" width=""540"" height = ""360"">","null","","","","","","","","","",""
"null","","html-keyboard-response","246","3668286","0.0-246.0","","","null","","","","","","","","","",""
"154","","image-keyboard-response","247","3668443","0.0-247.0","","img/set1/S2.jpg","72","2","structured_normal","68","structured_normal,random,structured_incentive,structured_load","2,3,2,1,3,4","4,1,2,3","false","","",""
"null","","html-keyboard-response","248","3668796","0.0-248.0","","<img src=""img/set1/S2.jpg"" width=""540"" height = ""360"">","null","","","","","","","","","",""
"null","","html-keyboard-response","249","3668998","0.0-249.0","","","null","","","","","","","","","",""
"100","","image-keyboard-response","250","3669101","0.0-250.0","","img/set1/S3.jpg","72","3","structured_normal","72","structured_normal,random,structured_incentive,structured_load","2,3,2,1,3,4","4,1,2,3","true","","",""
"null","","html-keyboard-response","251","3669453","0.0-251.0","","<img src=""img/set1/S3.jpg"" width=""540"" height = ""360"" style=""border:16px solid orange"">","null","","","","","","","","","",""
"null","","html-keyboard-response","252","3669655","0.0-252.0","","","null","","","","","","","","","",""
"90.89999999850988","","image-keyboard-response","253","3669748","0.0-253.0","","img/set1/S1.jpg","74","1","structured_normal","83","structured_normal,random,structured_incentive,structured_load","2,3,2,1,3,4","4,1,2,3","false","","",""
"null","","html-keyboard-response","254","3670100","0.0-254.0","","<img src=""img/set1/S1.jpg"" width=""540"" height = ""360"">","null","","","","","","","","","",""
"null","","html-keyboard-response","255","3670302","0.0-255.0","","","null","","","","","","","","","",""
"237.70000000298023","","image-keyboard-response","256","3670543","0.0-256.0","","img/set1/S2.jpg","83","2","structured_normal","68","structured_normal,random,structured_incentive,structured_load","2,3,2,1,3,4","4,1,2,3","false","","",""
"null","","html-keyboard-response","257","3670895","0.0-257.0","","<img src=""img/set1/S2.jpg"" width=""540"" height = ""360"">","null","","","","","","","","","",""
"null","","html-keyboard-response","258","3671097","0.0-258.0","","","null","","","","","","","","","",""
"99.30000000074506","","image-keyboard-response","259","3671198","0.0-259.0","","img/set1/S3.jpg","83","3","structured_normal","72","structured_normal,random,structured_incentive,structured_load","2,3,2,1,3,4","4,1,2,3","false","","",""
"null","","html-keyboard-response","260","3671551","0.0-260.0","","<img src=""img/set1/S3.jpg"" width=""540"" height = ""360"">","null","","","","","","","","","",""
"null","","html-keyboard-response","261","3671752","0.0-261.0","","","null","","","","","","","","","",""
"13.5","","image-keyboard-response","262","3671768","0.0-262.0","","img/set1/S1.jpg","83","1","structured_normal","83","structured_normal,random,structured_incentive,structured_load","2,3,2,1,3,4","4,1,2,3","true","","",""
"null","","html-keyboard-response","263","3672121","0.0-263.0","","<img src=""img/set1/S1.jpg"" width=""540"" height = ""360"" style=""border:16px solid orange"">","null","","","","","","","","","",""
"null","","html-keyboard-response","264","3672323","0.0-264.0","","","null","","","","","","","","","",""
"139.30000000074506","","image-keyboard-response","265","3672465","0.0-265.0","","img/set1/S2.jpg","68","2","structured_normal","68","structured_normal,random,structured_incentive,structured_load","2,3,2,1,3,4","4,1,2,3","true","","",""
"null","","html-keyboard-response","266","3672820","0.0-266.0","","<img src=""img/set1/S2.jpg"" width=""540"" height = ""360"" style=""border:16px solid orange"">","null","","","","","","","","","",""
"null","","html-keyboard-response","267","3673021","0.0-267.0","","","null","","","","","","","","","",""
"159.19999999925494","","image-keyboard-response","268","3673183","0.0-268.0","","img/set1/S3.jpg","72","3","structured_normal","72","structured_normal,random,structured_incentive,structured_load","2,3,2,1,3,4","4,1,2,3","true","","",""
"null","","html-keyboard-response","269","3673536","0.0-269.0","","<img src=""img/set1/S3.jpg"" width=""540"" height = ""360"" style=""border:16px solid orange"">","null","","","","","","","","","",""
"null","","html-keyboard-response","270","3673739","0.0-270.0","","","null","","","","","","","","","",""
"7.300000000745058","","image-keyboard-response","271","3673748","0.0-271.0","","img/set1/S2.jpg","74","2","structured_normal","68","structured_normal,random,structured_incentive,structured_load","2,3,2,1,3,4","4,1,2,3","false","","",""
"null","","html-keyboard-response","272","3674103","0.0-272.0","","<img src=""img/set1/S2.jpg"" width=""540"" height = ""360"">","null","","","","","","","","","",""
"null","","html-keyboard-response","273","3674304","0.0-273.0","","","null","","","","","","","","","",""
"157.60000000149012","","image-keyboard-response","274","3674464","0.0-274.0","","img/set1/S3.jpg","72","3","structured_normal","72","structured_normal,random,structured_incentive,structured_load","2,3,2,1,3,4","4,1,2,3","true","","",""
"null","","html-keyboard-response","275","3674818","0.0-275.0","","<img src=""img/set1/S3.jpg"" width=""540"" height = ""360"" style=""border:16px solid orange"">","null","","","","","","","","","",""
"null","","html-keyboard-response","276","3675021","0.0-276.0","","","null","","","","","","","","","",""
"128.60000000149012","","image-keyboard-response","277","3675151","0.0-277.0","","img/set1/S4.jpg","74","4","structured_normal","74","structured_normal,random,structured_incentive,structured_load","2,3,2,1,3,4","4,1,2,3","true","","",""
"null","","html-keyboard-response","278","3675504","0.0-278.0","","<img src=""img/set1/S4.jpg"" width=""540"" height = ""360"" style=""border:16px solid orange"">","null","","","","","","","","","",""
"null","","html-keyboard-response","279","3675706","0.0-279.0","","","null","","","","","","","","","",""
"9.399999998509884","","image-keyboard-response","280","3675717","0.0-280.0","","img/set1/S4.jpg","68","4","structured_normal","74","structured_normal,random,structured_incentive,structured_load","2,3,2,1,3,4","4,1,2,3","false","","",""
"null","","html-keyboard-response","281","3676072","0.0-281.0","","<img src=""img/set1/S4.jpg"" width=""540"" height = ""360"">","null","","","","","","","","","",""
"null","","html-keyboard-response","282","3676274","0.0-282.0","","","null","","","","","","","","","",""
"280.80000000074506","","image-keyboard-response","283","3676556","0.0-283.0","","img/set1/S1.jpg","74","1","structured_normal","83","structured_normal,random,structured_incentive,structured_load","2,3,2,1,3,4","4,1,2,3","false","","",""
"null","","html-keyboard-response","284","3676909","0.0-284.0","","<img src=""img/set1/S1.jpg"" width=""540"" height = ""360"">","null","","","","","","","","","",""
"null","","html-keyboard-response","285","3677111","0.0-285.0","","","null","","","","","","","","","",""
"186.40000000223517","","image-keyboard-response","286","3677299","0.0-286.0","","img/set1/S1.jpg","72","1","structured_normal","83","structured_normal,random,structured_incentive,structured_load","2,3,2,1,3,4","4,1,2,3","false","","",""
"null","","html-keyboard-response","287","3677653","0.0-287.0","","<img src=""img/set1/S1.jpg"" width=""540"" height = ""360"">","null","","","","","","","","","",""
"null","","html-keyboard-response","288","3677855","0.0-288.0","","","null","","","","","","","","","",""
"135.19999999925494","","image-keyboard-response","289","3677992","0.0-289.0","","img/set1/S1.jpg","74","1","structured_normal","83","structured_normal,random,structured_incentive,structured_load","2,3,2,1,3,4","4,1,2,3","false","","",""
"null","","html-keyboard-response","290","3678346","0.0-290.0","","<img src=""img/set1/S1.jpg"" width=""540"" height = ""360"">","null","","","","","","","","","",""
"null","","html-keyboard-response","291","3678548","0.0-291.0","","","null","","","","","","","","","",""
"95.29999999701977","","image-keyboard-response","292","3678645","0.0-292.0","","img/set1/S2.jpg","83","2","structured_normal","68","structured_normal,random,structured_incentive,structured_load","2,3,2,1,3,4","4,1,2,3","false","","",""
"null","","html-keyboard-response","293","3678999","0.0-293.0","","<img src=""img/set1/S2.jpg"" width=""540"" height = ""360"">","null","","","","","","","","","",""
"null","","html-keyboard-response","294","3679201","0.0-294.0","","","null","","","","","","","","","",""
"21.099999997764826","","image-keyboard-response","295","3679224","0.0-295.0","","img/set1/S3.jpg","74","3","structured_normal","72","structured_normal,random,structured_incentive,structured_load","2,3,2,1,3,4","4,1,2,3","false","","",""
"null","","html-keyboard-response","296","3679578","0.0-296.0","","<img src=""img/set1/S3.jpg"" width=""540"" height = ""360"">","null","","","","","","","","","",""
"null","","html-keyboard-response","297","3679780","0.0-297.0","","","null","","","","","","","","","",""
"19.599999997764826","","image-keyboard-response","298","3679803","0.0-298.0","","img/set1/S4.jpg","83","4","structured_normal","74","structured_normal,random,structured_incentive,structured_load","2,3,2,1,3,4","4,1,2,3","false","","",""
"null","","html-keyboard-response","299","3680155","0.0-299.0","","<img src=""img/set1/S4.jpg"" width=""540"" height = ""360"">","null","","","","","","","","","",""
"null","","html-keyboard-response","300","3680357","0.0-300.0","","","null","","","","","","","","","",""
"165.5","","image-keyboard-response","301","3680524","0.0-301.0","","img/set1/S1.jpg","83","1","structured_normal","83","structured_normal,random,structured_incentive,structured_load","2,3,2,1,3,4","4,1,2,3","true","","",""
"null","","html-keyboard-response","302","3680877","0.0-302.0","","<img src=""img/set1/S1.jpg"" width=""540"" height = ""360"" style=""border:16px solid orange"">","null","","","","","","","","","",""
"null","","html-keyboard-response","303","3681079","0.0-303.0","","","null","","","","","","","","","",""
"117.30000000074506","","image-keyboard-response","304","3681199","0.0-304.0","","img/set1/S1.jpg","83","1","structured_normal","83","structured_normal,random,structured_incentive,structured_load","2,3,2,1,3,4","4,1,2,3","true","","",""
"null","","html-keyboard-response","305","3681552","0.0-305.0","","<img src=""img/set1/S1.jpg"" width=""540"" height = ""360"" style=""border:16px solid orange"">","null","","","","","","","","","",""
"null","","html-keyboard-response","306","3681754","0.0-306.0","","","null","","","","","","","","","",""
"124.60000000149012","","image-keyboard-response","307","3681881","0.0-307.0","","img/set1/S1.jpg","83","1","structured_normal","83","structured_normal,random,structured_incentive,structured_load","2,3,2,1,3,4","4,1,2,3","true","","",""
"null","","html-keyboard-response","308","3682235","0.0-308.0","","<img src=""img/set1/S1.jpg"" width=""540"" height = ""360"" style=""border:16px solid orange"">","null","","","","","","","","","",""
"null","","html-keyboard-response","309","3682437","0.0-309.0","","","null","","","","","","","","","",""
"89.60000000149012","","image-keyboard-response","310","3682529","0.0-310.0","","img/set1/S1.jpg","83","1","structured_normal","83","structured_normal,random,structured_incentive,structured_load","2,3,2,1,3,4","4,1,2,3","true","","",""
"null","","html-keyboard-response","311","3682883","0.0-311.0","","<img src=""img/set1/S1.jpg"" width=""540"" height = ""360"" style=""border:16px solid orange"">","null","","","","","","","","","",""
"null","","html-keyboard-response","312","3683085","0.0-312.0","","","null","","","","","","","","","",""
"75.19999999925494","","image-keyboard-response","313","3683162","0.0-313.0","","img/set1/S4.jpg","83","4","structured_normal","74","structured_normal,random,structured_incentive,structured_load","2,3,2,1,3,4","4,1,2,3","false","","",""
"null","","html-keyboard-response","314","3683516","0.0-314.0","","<img src=""img/set1/S4.jpg"" width=""540"" height = ""360"">","null","","","","","","","","","",""
"null","","html-keyboard-response","315","3683718","0.0-315.0","","","null","","","","","","","","","",""
"51.099999997764826","","image-keyboard-response","316","3683771","0.0-316.0","","img/set1/S2.jpg","83","2","structured_normal","68","structured_normal,random,structured_incentive,structured_load","2,3,2,1,3,4","4,1,2,3","false","","",""
"null","","html-keyboard-response","317","3684124","0.0-317.0","","<img src=""img/set1/S2.jpg"" width=""540"" height = ""360"">","null","","","","","","","","","",""
"null","","html-keyboard-response","318","3684326","0.0-318.0","","","null","","","","","","","","","",""
"62.099999997764826","","image-keyboard-response","319","3684390","0.0-319.0","","img/set1/S3.jpg","83","3","structured_normal","72","structured_normal,random,structured_incentive,structured_load","2,3,2,1,3,4","4,1,2,3","false","","",""
"null","","html-keyboard-response","320","3684743","0.0-320.0","","<img src=""img/set1/S3.jpg"" width=""540"" height = ""360"">","null","","","","","","","","","",""
"null","","html-keyboard-response","321","3684945","0.0-321.0","","","null","","","","","","","","","",""
"145.19999999925494","","image-keyboard-response","322","3685093","0.0-322.0","","img/set1/S4.jpg","83","4","structured_normal","74","structured_normal,random,structured_incentive,structured_load","2,3,2,1,3,4","4,1,2,3","false","","",""
"null","","html-keyboard-response","323","3685446","0.0-323.0","","<img src=""img/set1/S4.jpg"" width=""540"" height = ""360"">","null","","","","","","","","","",""
"null","","html-keyboard-response","324","3685648","0.0-324.0","","","null","","","","","","","","","",""
"30.200000002980232","","image-keyboard-response","325","3685680","0.0-325.0","","img/set1/S1.jpg","83","1","structured_normal","83","structured_normal,random,structured_incentive,structured_load","2,3,2,1,3,4","4,1,2,3","true","","",""
"null","","html-keyboard-response","326","3686033","0.0-326.0","","<img src=""img/set1/S1.jpg"" width=""540"" height = ""360"" style=""border:16px solid orange"">","null","","","","","","","","","",""
"null","","html-keyboard-response","327","3686235","0.0-327.0","","","null","","","","","","","","","",""
"111.10000000149012","","image-keyboard-response","328","3686349","0.0-328.0","","img/set1/S4.jpg","83","4","structured_normal","74","structured_normal,random,structured_incentive,structured_load","2,3,2,1,3,4","4,1,2,3","false","","",""
"null","","html-keyboard-response","329","3686702","0.0-329.0","","<img src=""img/set1/S4.jpg"" width=""540"" height = ""360"">","null","","","","","","","","","",""
"null","","html-keyboard-response","330","3686904","0.0-330.0","","","null","","","","","","","","","",""
"84.69999999925494","","image-keyboard-response","331","3686991","0.0-331.0","","img/set1/S4.jpg","83","4","structured_normal","74","structured_normal,random,structured_incentive,structured_load","2,3,2,1,3,4","4,1,2,3","false","","",""
"null","","html-keyboard-response","332","3687344","0.0-332.0","","<img src=""img/set1/S4.jpg"" width=""540"" height = ""360"">","null","","","","","","","","","",""
"null","","html-keyboard-response","333","3687546","0.0-333.0","","","null","","","","","","","","","",""
"121.20000000298023","","image-keyboard-response","334","3687669","0.0-334.0","","img/set1/S1.jpg","83","1","structured_normal","83","structured_normal,random,structured_incentive,structured_load","2,3,2,1,3,4","4,1,2,3","true","","",""
"null","","html-keyboard-response","335","3688023","0.0-335.0","","<img src=""img/set1/S1.jpg"" width=""540"" height = ""360"" style=""border:16px solid orange"">","null","","","","","","","","","",""
"null","","html-keyboard-response","336","3688225","0.0-336.0","","","null","","","","","","","","","",""
"60.70000000298023","","image-keyboard-response","337","3688288","0.0-337.0","","img/set1/S1.jpg","68","1","structured_normal","83","structured_normal,random,structured_incentive,structured_load","2,3,2,1,3,4","4,1,2,3","false","","",""
"null","","html-keyboard-response","338","3688641","0.0-338.0","","<img src=""img/set1/S1.jpg"" width=""540"" height = ""360"">","null","","","","","","","","","",""
"null","","html-keyboard-response","339","3688843","0.0-339.0","","","null","","","","","","","","","",""
"522.6000000014901","","image-keyboard-response","340","3689368","0.0-340.0","","img/set1/S1.jpg","72","1","structured_normal","83","structured_normal,random,structured_incentive,structured_load","2,3,2,1,3,4","4,1,2,3","false","","",""
"null","","html-keyboard-response","341","3689721","0.0-341.0","","<img src=""img/set1/S1.jpg"" width=""540"" height = ""360"">","null","","","","","","","","","",""
"null","","html-keyboard-response","342","3689923","0.0-342.0","","","null","","","","","","","","","",""
"59.100000001490116","","image-keyboard-response","343","3689984","0.0-343.0","","img/set1/S4.jpg","74","4","structured_normal","74","structured_normal,random,structured_incentive,structured_load","2,3,2,1,3,4","4,1,2,3","true","","",""
"null","","html-keyboard-response","344","3690337","0.0-344.0","","<img src=""img/set1/S4.jpg"" width=""540"" height = ""360"" style=""border:16px solid orange"">","null","","","","","","","","","",""
"null","","html-keyboard-response","345","3690539","0.0-345.0","","","null","","","","","","","","","",""
"259.79999999701977","","image-keyboard-response","346","3690802","0.0-346.0","","img/set1/S4.jpg","74","4","structured_normal","74","structured_normal,random,structured_incentive,structured_load","2,3,2,1,3,4","4,1,2,3","true","","",""
"null","","html-keyboard-response","347","3691155","0.0-347.0","","<img src=""img/set1/S4.jpg"" width=""540"" height = ""360"" style=""border:16px solid orange"">","null","","","","","","","","","",""
"null","","html-keyboard-response","348","3691357","0.0-348.0","","","null","","","","","","","","","",""
"204","","image-keyboard-response","349","3691563","0.0-349.0","","img/set1/S2.jpg","74","2","structured_normal","68","structured_normal,random,structured_incentive,structured_load","2,3,2,1,3,4","4,1,2,3","false","","",""
"null","","html-keyboard-response","350","3691917","0.0-350.0","","<img src=""img/set1/S2.jpg"" width=""540"" height = ""360"">","null","","","","","","","","","",""
"null","","html-keyboard-response","351","3692119","0.0-351.0","","","null","","","","","","","","","",""
"89.09999999776483","","image-keyboard-response","352","3692210","0.0-352.0","","img/set1/S3.jpg","74","3","structured_normal","72","structured_normal,random,structured_incentive,structured_load","2,3,2,1,3,4","4,1,2,3","false","","",""
"null","","html-keyboard-response","353","3692562","0.0-353.0","","<img src=""img/set1/S3.jpg"" width=""540"" height = ""360"">","null","","","","","","","","","",""
"null","","html-keyboard-response","354","3692764","0.0-354.0","","","null","","","","","","","","","",""
"92.89999999850988","","image-keyboard-response","355","3692859","0.0-355.0","","img/set1/S4.jpg","72","4","structured_normal","74","structured_normal,random,structured_incentive,structured_load","2,3,2,1,3,4","4,1,2,3","false","","",""
"null","","html-keyboard-response","356","3693213","0.0-356.0","","<img src=""img/set1/S4.jpg"" width=""540"" height = ""360"">","null","","","","","","","","","",""
"null","","html-keyboard-response","357","3693415","0.0-357.0","","","null","","","","","","","","","",""
"94.10000000149012","","image-keyboard-response","358","3693511","0.0-358.0","","img/set1/S1.jpg","74","1","structured_normal","83","structured_normal,random,structured_incentive,structured_load","2,3,2,1,3,4","4,1,2,3","false","","",""
"null","","html-keyboard-response","359","3693864","0.0-359.0","","<img src=""img/set1/S1.jpg"" width=""540"" height = ""360"">","null","","","","","","","","","",""
"null","","html-keyboard-response","360","3694066","0.0-360.0","","","null","","","","","","","","","",""
"82.09999999776483","","image-keyboard-response","361","3694151","0.0-361.0","","img/set1/S1.jpg","72","1","structured_normal","83","structured_normal,random,structured_incentive,structured_load","2,3,2,1,3,4","4,1,2,3","false","","",""
"null","","html-keyboard-response","362","3694504","0.0-362.0","","<img src=""img/set1/S1.jpg"" width=""540"" height = ""360"">","null","","","","","","","","","",""
"null","","html-keyboard-response","363","3694706","0.0-363.0","","","null","","","","","","","","","",""
"124.59999999776483","","html-keyboard-response","364","3694833","0.0-364.0","","<p class=""center-content"">You have completed a block! </p><p class=""center-content"">Press any key on the keyboard to continue, </p><p class=""center-content"">or wait for the automatic progression to the next block after one minute.</p>","74","","","","","","","","","",""
"10132.199999999255","","instructions","365","3704968","0.0-365.0","[{""page_index"":0,""viewing_time"":10131.5}]","","","","","","","","","","","",""
"2629.60000000149","","instructions","366","3707600","0.0-366.0","[{""page_index"":0,""viewing_time"":2629.10000000149}]","","","","","","","","","","","",""
"841.1999999992549","","image-keyboard-response","367","3708444","0.0-367.0","","img/set2/S1.jpg","68","1","random","83","structured_normal,random,structured_incentive,structured_load","2,3,2,1,3,4","4,1,2,3","false","","",""
"null","","html-keyboard-response","368","3708797","0.0-368.0","","<img src=""img/set2/S1.jpg"" width=""540"" height = ""360"">","null","","","","","","","","","",""
"null","","html-keyboard-response","369","3708999","0.0-369.0","","","null","","","","","","","","","",""
"283.9000000022352","","image-keyboard-response","370","3709285","0.0-370.0","","img/set2/S2.jpg","83","2","random","68","structured_normal,random,structured_incentive,structured_load","2,3,2,1,3,4","4,1,2,3","false","","",""
"null","","html-keyboard-response","371","3709638","0.0-371.0","","<img src=""img/set2/S2.jpg"" width=""540"" height = ""360"">","null","","","","","","","","","",""
"null","","html-keyboard-response","372","3709840","0.0-372.0","","","null","","","","","","","","","",""
"337.30000000074506","","image-keyboard-response","373","3710180","0.0-373.0","","img/set2/S3.jpg","68","3","random","72","structured_normal,random,structured_incentive,structured_load","2,3,2,1,3,4","4,1,2,3","false","","",""
"null","","html-keyboard-response","374","3710533","0.0-374.0","","<img src=""img/set2/S3.jpg"" width=""540"" height = ""360"">","null","","","","","","","","","",""
"null","","html-keyboard-response","375","3710735","0.0-375.0","","","null","","","","","","","","","",""
"166.40000000223517","","image-keyboard-response","376","3710904","0.0-376.0","","img/set2/S3.jpg","68","3","random","72","structured_normal,random,structured_incentive,structured_load","2,3,2,1,3,4","4,1,2,3","false","","",""
"null","","html-keyboard-response","377","3711257","0.0-377.0","","<img src=""img/set2/S3.jpg"" width=""540"" height = ""360"">","null","","","","","","","","","",""
"null","","html-keyboard-response","378","3711459","0.0-378.0","","","null","","","","","","","","","",""
"157.5","","image-keyboard-response","379","3711619","0.0-379.0","","img/set2/S3.jpg","68","3","random","72","structured_normal,random,structured_incentive,structured_load","2,3,2,1,3,4","4,1,2,3","false","","",""
"null","","html-keyboard-response","380","3711973","0.0-380.0","","<img src=""img/set2/S3.jpg"" width=""540"" height = ""360"">","null","","","","","","","","","",""
"null","","html-keyboard-response","381","3712175","0.0-381.0","","","null","","","","","","","","","",""
"193.80000000074506","","image-keyboard-response","382","3712371","0.0-382.0","","img/set2/S2.jpg","74","2","random","68","structured_normal,random,structured_incentive,structured_load","2,3,2,1,3,4","4,1,2,3","false","","",""
"null","","html-keyboard-response","383","3712725","0.0-383.0","","<img src=""img/set2/S2.jpg"" width=""540"" height = ""360"">","null","","","","","","","","","",""
"null","","html-keyboard-response","384","3712927","0.0-384.0","","","null","","","","","","","","","",""
"null","","image-keyboard-response","385","3715431","0.0-385.0","","img/set2/S1.jpg","null","1","random","83","structured_normal,random,structured_incentive,structured_load","2,3,2,1,3,4","4,1,2,3","false","","",""
"null","","html-keyboard-response","386","3715785","0.0-386.0","","<img src=""img/set2/S1.jpg"" width=""540"" height = ""360"">","null","","","","","","","","","",""
"null","","html-keyboard-response","387","3715987","0.0-387.0","","","null","","","","","","","","","",""
"345.70000000298023","","image-keyboard-response","388","3716334","0.0-388.0","","img/set2/S2.jpg","72","2","random","68","structured_normal,random,structured_incentive,structured_load","2,3,2,1,3,4","4,1,2,3","false","","",""
"null","","html-keyboard-response","389","3716689","0.0-389.0","","<img src=""img/set2/S2.jpg"" width=""540"" height = ""360"">","null","","","","","","","","","",""
"null","","html-keyboard-response","390","3716890","0.0-390.0","","","null","","","","","","","","","",""
"328.6000000014901","","image-keyboard-response","391","3717222","0.0-391.0","","img/set2/S3.jpg","68","3","random","72","structured_normal,random,structured_incentive,structured_load","2,3,2,1,3,4","4,1,2,3","false","","",""
"null","","html-keyboard-response","392","3717575","0.0-392.0","","<img src=""img/set2/S3.jpg"" width=""540"" height = ""360"">","null","","","","","","","","","",""
"null","","html-keyboard-response","393","3717776","0.0-393.0","","","null","","","","","","","","","",""
"145.09999999776483","","image-keyboard-response","394","3717924","0.0-394.0","","img/set2/S1.jpg","83","1","random","83","structured_normal,random,structured_incentive,structured_load","2,3,2,1,3,4","4,1,2,3","true","","",""
"null","","html-keyboard-response","395","3718278","0.0-395.0","","<img src=""img/set2/S1.jpg"" width=""540"" height = ""360"" style=""border:16px solid orange"">","null","","","","","","","","","",""
"null","","html-keyboard-response","396","3718480","0.0-396.0","","","null","","","","","","","","","",""
"380.69999999925494","","image-keyboard-response","397","3718863","0.0-397.0","","img/set2/S1.jpg","83","1","random","83","structured_normal,random,structured_incentive,structured_load","2,3,2,1,3,4","4,1,2,3","true","","",""
"null","","html-keyboard-response","398","3719217","0.0-398.0","","<img src=""img/set2/S1.jpg"" width=""540"" height = ""360"" style=""border:16px solid orange"">","null","","","","","","","","","",""
"null","","html-keyboard-response","399","3719419","0.0-399.0","","","null","","","","","","","","","",""
"278","","image-keyboard-response","400","3719699","0.0-400.0","","img/set2/S3.jpg","83","3","random","72","structured_normal,random,structured_incentive,structured_load","2,3,2,1,3,4","4,1,2,3","false","","",""
"null","","html-keyboard-response","401","3720053","0.0-401.0","","<img src=""img/set2/S3.jpg"" width=""540"" height = ""360"">","null","","","","","","","","","",""
"null","","html-keyboard-response","402","3720255","0.0-402.0","","","null","","","","","","","","","",""
"530.3000000007451","","image-keyboard-response","403","3720787","0.0-403.0","","img/set2/S3.jpg","74","3","random","72","structured_normal,random,structured_incentive,structured_load","2,3,2,1,3,4","4,1,2,3","false","","",""
"null","","html-keyboard-response","404","3721141","0.0-404.0","","<img src=""img/set2/S3.jpg"" width=""540"" height = ""360"">","null","","","","","","","","","",""
"null","","html-keyboard-response","405","3721343","0.0-405.0","","","null","","","","","","","","","",""
"263.1000000014901","","image-keyboard-response","406","3721608","0.0-406.0","","img/set2/S3.jpg","72","3","random","72","structured_normal,random,structured_incentive,structured_load","2,3,2,1,3,4","4,1,2,3","true","","",""
"null","","html-keyboard-response","407","3721961","0.0-407.0","","<img src=""img/set2/S3.jpg"" width=""540"" height = ""360"" style=""border:16px solid orange"">","null","","","","","","","","","",""
"null","","html-keyboard-response","408","3722163","0.0-408.0","","","null","","","","","","","","","",""
"154.90000000223517","","image-keyboard-response","409","3722320","0.0-409.0","","img/set2/S4.jpg","74","4","random","74","structured_normal,random,structured_incentive,structured_load","2,3,2,1,3,4","4,1,2,3","true","","",""
"null","","html-keyboard-response","410","3722672","0.0-410.0","","<img src=""img/set2/S4.jpg"" width=""540"" height = ""360"" style=""border:16px solid orange"">","null","","","","","","","","","",""
"null","","html-keyboard-response","411","3722874","0.0-411.0","","","null","","","","","","","","","",""
"334.9000000022352","","image-keyboard-response","412","3723211","0.0-412.0","","img/set2/S4.jpg","74","4","random","74","structured_normal,random,structured_incentive,structured_load","2,3,2,1,3,4","4,1,2,3","true","","",""
"null","","html-keyboard-response","413","3723565","0.0-413.0","","<img src=""img/set2/S4.jpg"" width=""540"" height = ""360"" style=""border:16px solid orange"">","null","","","","","","","","","",""
"null","","html-keyboard-response","414","3723767","0.0-414.0","","","null","","","","","","","","","",""
"218.09999999776483","","image-keyboard-response","415","3723988","0.0-415.0","","img/set2/S4.jpg","74","4","random","74","structured_normal,random,structured_incentive,structured_load","2,3,2,1,3,4","4,1,2,3","true","","",""
"null","","html-keyboard-response","416","3724342","0.0-416.0","","<img src=""img/set2/S4.jpg"" width=""540"" height = ""360"" style=""border:16px solid orange"">","null","","","","","","","","","",""
"null","","html-keyboard-response","417","3724544","0.0-417.0","","","null","","","","","","","","","",""
"233.19999999925494","","image-keyboard-response","418","3724779","0.0-418.0","","img/set2/S4.jpg","74","4","random","74","structured_normal,random,structured_incentive,structured_load","2,3,2,1,3,4","4,1,2,3","true","","",""
"null","","html-keyboard-response","419","3725134","0.0-419.0","","<img src=""img/set2/S4.jpg"" width=""540"" height = ""360"" style=""border:16px solid orange"">","null","","","","","","","","","",""
"null","","html-keyboard-response","420","3725336","0.0-420.0","","","null","","","","","","","","","",""
"178.19999999925494","","image-keyboard-response","421","3725516","0.0-421.0","","img/set2/S2.jpg","74","2","random","68","structured_normal,random,structured_incentive,structured_load","2,3,2,1,3,4","4,1,2,3","false","","",""
"null","","html-keyboard-response","422","3725870","0.0-422.0","","<img src=""img/set2/S2.jpg"" width=""540"" height = ""360"">","null","","","","","","","","","",""
"null","","html-keyboard-response","423","3726072","0.0-423.0","","","null","","","","","","","","","",""
"21.899999998509884","","image-keyboard-response","424","3726096","0.0-424.0","","img/set2/S3.jpg","68","3","random","72","structured_normal,random,structured_incentive,structured_load","2,3,2,1,3,4","4,1,2,3","false","","",""
"null","","html-keyboard-response","425","3726449","0.0-425.0","","<img src=""img/set2/S3.jpg"" width=""540"" height = ""360"">","null","","","","","","","","","",""
"null","","html-keyboard-response","426","3726651","0.0-426.0","","","null","","","","","","","","","",""
"348.9000000022352","","image-keyboard-response","427","3727002","0.0-427.0","","img/set2/S1.jpg","74","1","random","83","structured_normal,random,structured_incentive,structured_load","2,3,2,1,3,4","4,1,2,3","false","","",""
"null","","html-keyboard-response","428","3727356","0.0-428.0","","<img src=""img/set2/S1.jpg"" width=""540"" height = ""360"">","null","","","","","","","","","",""
"null","","html-keyboard-response","429","3727558","0.0-429.0","","","null","","","","","","","","","",""
"162.30000000074506","","image-keyboard-response","430","3727723","0.0-430.0","","img/set2/S2.jpg","83","2","random","68","structured_normal,random,structured_incentive,structured_load","2,3,2,1,3,4","4,1,2,3","false","","",""
"null","","html-keyboard-response","431","3728076","0.0-431.0","","<img src=""img/set2/S2.jpg"" width=""540"" height = ""360"">","null","","","","","","","","","",""
"null","","html-keyboard-response","432","3728278","0.0-432.0","","","null","","","","","","","","","",""
"439.5","","image-keyboard-response","433","3728720","0.0-433.0","","img/set2/S1.jpg","83","1","random","83","structured_normal,random,structured_incentive,structured_load","2,3,2,1,3,4","4,1,2,3","true","","",""
"null","","html-keyboard-response","434","3729074","0.0-434.0","","<img src=""img/set2/S1.jpg"" width=""540"" height = ""360"" style=""border:16px solid orange"">","null","","","","","","","","","",""
"null","","html-keyboard-response","435","3729276","0.0-435.0","","","null","","","","","","","","","",""
"829.3000000007451","","image-keyboard-response","436","3730108","0.0-436.0","","img/set2/S2.jpg","83","2","random","68","structured_normal,random,structured_incentive,structured_load","2,3,2,1,3,4","4,1,2,3","false","","",""
"null","","html-keyboard-response","437","3730461","0.0-437.0","","<img src=""img/set2/S2.jpg"" width=""540"" height = ""360"">","null","","","","","","","","","",""
"null","","html-keyboard-response","438","3730663","0.0-438.0","","","null","","","","","","","","","",""
"708.8000000007451","","image-keyboard-response","439","3731374","0.0-439.0","","img/set2/S1.jpg","83","1","random","83","structured_normal,random,structured_incentive,structured_load","2,3,2,1,3,4","4,1,2,3","true","","",""
"null","","html-keyboard-response","440","3731728","0.0-440.0","","<img src=""img/set2/S1.jpg"" width=""540"" height = ""360"" style=""border:16px solid orange"">","null","","","","","","","","","",""
"null","","html-keyboard-response","441","3731930","0.0-441.0","","","null","","","","","","","","","",""
"579.8999999985099","","image-keyboard-response","442","3732512","0.0-442.0","","img/set2/S4.jpg","83","4","random","74","structured_normal,random,structured_incentive,structured_load","2,3,2,1,3,4","4,1,2,3","false","","",""
"null","","html-keyboard-response","443","3732866","0.0-443.0","","<img src=""img/set2/S4.jpg"" width=""540"" height = ""360"">","null","","","","","","","","","",""
"null","","html-keyboard-response","444","3733068","0.0-444.0","","","null","","","","","","","","","",""
"827","","image-keyboard-response","445","3733898","0.0-445.0","","img/set2/S1.jpg","83","1","random","83","structured_normal,random,structured_incentive,structured_load","2,3,2,1,3,4","4,1,2,3","true","","",""
"null","","html-keyboard-response","446","3734251","0.0-446.0","","<img src=""img/set2/S1.jpg"" width=""540"" height = ""360"" style=""border:16px solid orange"">","null","","","","","","","","","",""
"null","","html-keyboard-response","447","3734453","0.0-447.0","","","null","","","","","","","","","",""
"313.1000000014901","","image-keyboard-response","448","3734768","0.0-448.0","","img/set2/S4.jpg","74","4","random","74","structured_normal,random,structured_incentive,structured_load","2,3,2,1,3,4","4,1,2,3","true","","",""
"null","","html-keyboard-response","449","3735121","0.0-449.0","","<img src=""img/set2/S4.jpg"" width=""540"" height = ""360"" style=""border:16px solid orange"">","null","","","","","","","","","",""
"null","","html-keyboard-response","450","3735323","0.0-450.0","","","null","","","","","","","","","",""
"468.5","","image-keyboard-response","451","3735794","0.0-451.0","","img/set2/S1.jpg","83","1","random","83","structured_normal,random,structured_incentive,structured_load","2,3,2,1,3,4","4,1,2,3","true","","",""
"null","","html-keyboard-response","452","3736148","0.0-452.0","","<img src=""img/set2/S1.jpg"" width=""540"" height = ""360"" style=""border:16px solid orange"">","null","","","","","","","","","",""
"null","","html-keyboard-response","453","3736350","0.0-453.0","","","null","","","","","","","","","",""
"364.69999999925494","","image-keyboard-response","454","3736717","0.0-454.0","","img/set2/S2.jpg","74","2","random","68","structured_normal,random,structured_incentive,structured_load","2,3,2,1,3,4","4,1,2,3","false","","",""
"null","","html-keyboard-response","455","3737071","0.0-455.0","","<img src=""img/set2/S2.jpg"" width=""540"" height = ""360"">","null","","","","","","","","","",""
"null","","html-keyboard-response","456","3737273","0.0-456.0","","","null","","","","","","","","","",""
"500.30000000074506","","image-keyboard-response","457","3737776","0.0-457.0","","img/set2/S1.jpg","83","1","random","83","structured_normal,random,structured_incentive,structured_load","2,3,2,1,3,4","4,1,2,3","true","","",""
"null","","html-keyboard-response","458","3738129","0.0-458.0","","<img src=""img/set2/S1.jpg"" width=""540"" height = ""360"" style=""border:16px solid orange"">","null","","","","","","","","","",""
"null","","html-keyboard-response","459","3738331","0.0-459.0","","","null","","","","","","","","","",""
"12.900000002235174","","image-keyboard-response","460","3738347","0.0-460.0","","img/set2/S4.jpg","83","4","random","74","structured_normal,random,structured_incentive,structured_load","2,3,2,1,3,4","4,1,2,3","false","","",""
"null","","html-keyboard-response","461","3738702","0.0-461.0","","<img src=""img/set2/S4.jpg"" width=""540"" height = ""360"">","null","","","","","","","","","",""
"null","","html-keyboard-response","462","3738904","0.0-462.0","","","null","","","","","","","","","",""
"190.69999999925494","","image-keyboard-response","463","3739098","0.0-463.0","","img/set2/S4.jpg","74","4","random","74","structured_normal,random,structured_incentive,structured_load","2,3,2,1,3,4","4,1,2,3","true","","",""
"null","","html-keyboard-response","464","3739451","0.0-464.0","","<img src=""img/set2/S4.jpg"" width=""540"" height = ""360"" style=""border:16px solid orange"">","null","","","","","","","","","",""
"null","","html-keyboard-response","465","3739653","0.0-465.0","","","null","","","","","","","","","",""
"44.19999999925494","","image-keyboard-response","466","3739699","0.0-466.0","","img/set2/S4.jpg","83","4","random","74","structured_normal,random,structured_incentive,structured_load","2,3,2,1,3,4","4,1,2,3","false","","",""
"null","","html-keyboard-response","467","3740052","0.0-467.0","","<img src=""img/set2/S4.jpg"" width=""540"" height = ""360"">","null","","","","","","","","","",""
"null","","html-keyboard-response","468","3740254","0.0-468.0","","","null","","","","","","","","","",""
"296.30000000074506","","image-keyboard-response","469","3740553","0.0-469.0","","img/set2/S1.jpg","72","1","random","83","structured_normal,random,structured_incentive,structured_load","2,3,2,1,3,4","4,1,2,3","false","","",""
"null","","html-keyboard-response","470","3740906","0.0-470.0","","<img src=""img/set2/S1.jpg"" width=""540"" height = ""360"">","null","","","","","","","","","",""
"null","","html-keyboard-response","471","3741108","0.0-471.0","","","null","","","","","","","","","",""
"271.69999999925494","","image-keyboard-response","472","3741382","0.0-472.0","","img/set2/S1.jpg","83","1","random","83","structured_normal,random,structured_incentive,structured_load","2,3,2,1,3,4","4,1,2,3","true","","",""
"null","","html-keyboard-response","473","3741737","0.0-473.0","","<img src=""img/set2/S1.jpg"" width=""540"" height = ""360"" style=""border:16px solid orange"">","null","","","","","","","","","",""
"null","","html-keyboard-response","474","3741938","0.0-474.0","","","null","","","","","","","","","",""
"1638.199999999255","","image-keyboard-response","475","3743580","0.0-475.0","","img/set2/S4.jpg","74","4","random","74","structured_normal,random,structured_incentive,structured_load","2,3,2,1,3,4","4,1,2,3","true","","",""
"null","","html-keyboard-response","476","3743933","0.0-476.0","","<img src=""img/set2/S4.jpg"" width=""540"" height = ""360"" style=""border:16px solid orange"">","null","","","","","","","","","",""
"null","","html-keyboard-response","477","3744136","0.0-477.0","","","null","","","","","","","","","",""
"1617.7999999970198","","image-keyboard-response","478","3745756","0.0-478.0","","img/set2/S1.jpg","83","1","random","83","structured_normal,random,structured_incentive,structured_load","2,3,2,1,3,4","4,1,2,3","true","","",""
"null","","html-keyboard-response","479","3746110","0.0-479.0","","<img src=""img/set2/S1.jpg"" width=""540"" height = ""360"" style=""border:16px solid orange"">","null","","","","","","","","","",""
"null","","html-keyboard-response","480","3746311","0.0-480.0","","","null","","","","","","","","","",""
"505.5999999977648","","image-keyboard-response","481","3746820","0.0-481.0","","img/set2/S2.jpg","74","2","random","68","structured_normal,random,structured_incentive,structured_load","2,3,2,1,3,4","4,1,2,3","false","","",""
"null","","html-keyboard-response","482","3747174","0.0-482.0","","<img src=""img/set2/S2.jpg"" width=""540"" height = ""360"">","null","","","","","","","","","",""
"null","","html-keyboard-response","483","3747376","0.0-483.0","","","null","","","","","","","","","",""
"688.4000000022352","","image-keyboard-response","484","3748066","0.0-484.0","","img/set2/S4.jpg","68","4","random","74","structured_normal,random,structured_incentive,structured_load","2,3,2,1,3,4","4,1,2,3","false","","",""
"null","","html-keyboard-response","485","3748420","0.0-485.0","","<img src=""img/set2/S4.jpg"" width=""540"" height = ""360"">","null","","","","","","","","","",""
"null","","html-keyboard-response","486","3748622","0.0-486.0","","","null","","","","","","","","","",""
"700.8000000007451","","image-keyboard-response","487","3749325","0.0-487.0","","img/set2/S4.jpg","72","4","random","74","structured_normal,random,structured_incentive,structured_load","2,3,2,1,3,4","4,1,2,3","false","","",""
"null","","html-keyboard-response","488","3749679","0.0-488.0","","<img src=""img/set2/S4.jpg"" width=""540"" height = ""360"">","null","","","","","","","","","",""
"null","","html-keyboard-response","489","3749881","0.0-489.0","","","null","","","","","","","","","",""
"617.8000000007451","","image-keyboard-response","490","3750501","0.0-490.0","","img/set2/S4.jpg","74","4","random","74","structured_normal,random,structured_incentive,structured_load","2,3,2,1,3,4","4,1,2,3","true","","",""
"null","","html-keyboard-response","491","3750855","0.0-491.0","","<img src=""img/set2/S4.jpg"" width=""540"" height = ""360"" style=""border:16px solid orange"">","null","","","","","","","","","",""
"null","","html-keyboard-response","492","3751057","0.0-492.0","","","null","","","","","","","","","",""
"748.1000000014901","","image-keyboard-response","493","3751807","0.0-493.0","","img/set2/S1.jpg","83","1","random","83","structured_normal,random,structured_incentive,structured_load","2,3,2,1,3,4","4,1,2,3","true","","",""
"null","","html-keyboard-response","494","3752161","0.0-494.0","","<img src=""img/set2/S1.jpg"" width=""540"" height = ""360"" style=""border:16px solid orange"">","null","","","","","","","","","",""
"null","","html-keyboard-response","495","3752363","0.0-495.0","","","null","","","","","","","","","",""
"851.7999999970198","","image-keyboard-response","496","3753217","0.0-496.0","","img/set2/S3.jpg","72","3","random","72","structured_normal,random,structured_incentive,structured_load","2,3,2,1,3,4","4,1,2,3","true","","",""
"null","","html-keyboard-response","497","3753571","0.0-497.0","","<img src=""img/set2/S3.jpg"" width=""540"" height = ""360"" style=""border:16px solid orange"">","null","","","","","","","","","",""
"null","","html-keyboard-response","498","3753773","0.0-498.0","","","null","","","","","","","","","",""
"550.6999999992549","","image-keyboard-response","499","3754326","0.0-499.0","","img/set2/S2.jpg","68","2","random","68","structured_normal,random,structured_incentive,structured_load","2,3,2,1,3,4","4,1,2,3","true","","",""
"null","","html-keyboard-response","500","3754680","0.0-500.0","","<img src=""img/set2/S2.jpg"" width=""540"" height = ""360"" style=""border:16px solid orange"">","null","","","","","","","","","",""
"null","","html-keyboard-response","501","3754882","0.0-501.0","","","null","","","","","","","","","",""
"549.8000000007451","","image-keyboard-response","502","3755434","0.0-502.0","","img/set2/S1.jpg","83","1","random","83","structured_normal,random,structured_incentive,structured_load","2,3,2,1,3,4","4,1,2,3","true","","",""
"null","","html-keyboard-response","503","3755788","0.0-503.0","","<img src=""img/set2/S1.jpg"" width=""540"" height = ""360"" style=""border:16px solid orange"">","null","","","","","","","","","",""
"null","","html-keyboard-response","504","3755990","0.0-504.0","","","null","","","","","","","","","",""
"600.1000000014901","","image-keyboard-response","505","3756592","0.0-505.0","","img/set2/S1.jpg","83","1","random","83","structured_normal,random,structured_incentive,structured_load","2,3,2,1,3,4","4,1,2,3","true","","",""
"null","","html-keyboard-response","506","3756946","0.0-506.0","","<img src=""img/set2/S1.jpg"" width=""540"" height = ""360"" style=""border:16px solid orange"">","null","","","","","","","","","",""
"null","","html-keyboard-response","507","3757148","0.0-507.0","","","null","","","","","","","","","",""
"777.6999999992549","","image-keyboard-response","508","3757928","0.0-508.0","","img/set2/S2.jpg","72","2","random","68","structured_normal,random,structured_incentive,structured_load","2,3,2,1,3,4","4,1,2,3","false","","",""
"null","","html-keyboard-response","509","3758282","0.0-509.0","","<img src=""img/set2/S2.jpg"" width=""540"" height = ""360"">","null","","","","","","","","","",""
"null","","html-keyboard-response","510","3758484","0.0-510.0","","","null","","","","","","","","","",""
"594.6000000014901","","image-keyboard-response","511","3759081","0.0-511.0","","img/set2/S2.jpg","68","2","random","68","structured_normal,random,structured_incentive,structured_load","2,3,2,1,3,4","4,1,2,3","true","","",""
"null","","html-keyboard-response","512","3759435","0.0-512.0","","<img src=""img/set2/S2.jpg"" width=""540"" height = ""360"" style=""border:16px solid orange"">","null","","","","","","","","","",""
"null","","html-keyboard-response","513","3759637","0.0-513.0","","","null","","","","","","","","","",""
"614","","image-keyboard-response","514","3760254","0.0-514.0","","img/set2/S3.jpg","72","3","random","72","structured_normal,random,structured_incentive,structured_load","2,3,2,1,3,4","4,1,2,3","true","","",""
"null","","html-keyboard-response","515","3760607","0.0-515.0","","<img src=""img/set2/S3.jpg"" width=""540"" height = ""360"" style=""border:16px solid orange"">","null","","","","","","","","","",""
"null","","html-keyboard-response","516","3760809","0.0-516.0","","","null","","","","","","","","","",""
"609.6999999992549","","image-keyboard-response","517","3761421","0.0-517.0","","img/set2/S3.jpg","72","3","random","72","structured_normal,random,structured_incentive,structured_load","2,3,2,1,3,4","4,1,2,3","true","","",""
"null","","html-keyboard-response","518","3761776","0.0-518.0","","<img src=""img/set2/S3.jpg"" width=""540"" height = ""360"" style=""border:16px solid orange"">","null","","","","","","","","","",""
"null","","html-keyboard-response","519","3761978","0.0-519.0","","","null","","","","","","","","","",""
"496.30000000074506","","image-keyboard-response","520","3762477","0.0-520.0","","img/set2/S3.jpg","72","3","random","72","structured_normal,random,structured_incentive,structured_load","2,3,2,1,3,4","4,1,2,3","true","","",""
"null","","html-keyboard-response","521","3762830","0.0-521.0","","<img src=""img/set2/S3.jpg"" width=""540"" height = ""360"" style=""border:16px solid orange"">","null","","","","","","","","","",""
"null","","html-keyboard-response","522","3763032","0.0-522.0","","","null","","","","","","","","","",""
"508","","image-keyboard-response","523","3763544","0.0-523.0","","img/set2/S3.jpg","72","3","random","72","structured_normal,random,structured_incentive,structured_load","2,3,2,1,3,4","4,1,2,3","true","","",""
"null","","html-keyboard-response","524","3763897","0.0-524.0","","<img src=""img/set2/S3.jpg"" width=""540"" height = ""360"" style=""border:16px solid orange"">","null","","","","","","","","","",""
"null","","html-keyboard-response","525","3764099","0.0-525.0","","","null","","","","","","","","","",""
"698.5","","image-keyboard-response","526","3764802","0.0-526.0","","img/set2/S4.jpg","74","4","random","74","structured_normal,random,structured_incentive,structured_load","2,3,2,1,3,4","4,1,2,3","true","","",""
"null","","html-keyboard-response","527","3765156","0.0-527.0","","<img src=""img/set2/S4.jpg"" width=""540"" height = ""360"" style=""border:16px solid orange"">","null","","","","","","","","","",""
"null","","html-keyboard-response","528","3765358","0.0-528.0","","","null","","","","","","","","","",""
"659.3999999985099","","image-keyboard-response","529","3766019","0.0-529.0","","img/set2/S3.jpg","72","3","random","72","structured_normal,random,structured_incentive,structured_load","2,3,2,1,3,4","4,1,2,3","true","","",""
"null","","html-keyboard-response","530","3766373","0.0-530.0","","<img src=""img/set2/S3.jpg"" width=""540"" height = ""360"" style=""border:16px solid orange"">","null","","","","","","","","","",""
"null","","html-keyboard-response","531","3766575","0.0-531.0","","","null","","","","","","","","","",""
"778.5","","image-keyboard-response","532","3767356","0.0-532.0","","img/set2/S2.jpg","68","2","random","68","structured_normal,random,structured_incentive,structured_load","2,3,2,1,3,4","4,1,2,3","true","","",""
"null","","html-keyboard-response","533","3767710","0.0-533.0","","<img src=""img/set2/S2.jpg"" width=""540"" height = ""360"" style=""border:16px solid orange"">","null","","","","","","","","","",""
"null","","html-keyboard-response","534","3767912","0.0-534.0","","","null","","","","","","","","","",""
"569.4000000022352","","image-keyboard-response","535","3768483","0.0-535.0","","img/set2/S2.jpg","68","2","random","68","structured_normal,random,structured_incentive,structured_load","2,3,2,1,3,4","4,1,2,3","true","","",""
"null","","html-keyboard-response","536","3768837","0.0-536.0","","<img src=""img/set2/S2.jpg"" width=""540"" height = ""360"" style=""border:16px solid orange"">","null","","","","","","","","","",""
"null","","html-keyboard-response","537","3769039","0.0-537.0","","","null","","","","","","","","","",""
"619.7000000029802","","image-keyboard-response","538","3769661","0.0-538.0","","img/set2/S3.jpg","72","3","random","72","structured_normal,random,structured_incentive,structured_load","2,3,2,1,3,4","4,1,2,3","true","","",""
"null","","html-keyboard-response","539","3770015","0.0-539.0","","<img src=""img/set2/S3.jpg"" width=""540"" height = ""360"" style=""border:16px solid orange"">","null","","","","","","","","","",""
"null","","html-keyboard-response","540","3770217","0.0-540.0","","","null","","","","","","","","","",""
"560.6999999992549","","image-keyboard-response","541","3770779","0.0-541.0","","img/set2/S3.jpg","72","3","random","72","structured_normal,random,structured_incentive,structured_load","2,3,2,1,3,4","4,1,2,3","true","","",""
"null","","html-keyboard-response","542","3771133","0.0-542.0","","<img src=""img/set2/S3.jpg"" width=""540"" height = ""360"" style=""border:16px solid orange"">","null","","","","","","","","","",""
"null","","html-keyboard-response","543","3771335","0.0-543.0","","","null","","","","","","","","","",""
"723.5999999977648","","image-keyboard-response","544","3772061","0.0-544.0","","img/set2/S4.jpg","74","4","random","74","structured_normal,random,structured_incentive,structured_load","2,3,2,1,3,4","4,1,2,3","true","","",""
"null","","html-keyboard-response","545","3772415","0.0-545.0","","<img src=""img/set2/S4.jpg"" width=""540"" height = ""360"" style=""border:16px solid orange"">","null","","","","","","","","","",""
"null","","html-keyboard-response","546","3772617","0.0-546.0","","","null","","","","","","","","","",""
"544.6999999992549","","image-keyboard-response","547","3773165","0.0-547.0","","img/set2/S3.jpg","72","3","random","72","structured_normal,random,structured_incentive,structured_load","2,3,2,1,3,4","4,1,2,3","true","","",""
"null","","html-keyboard-response","548","3773519","0.0-548.0","","<img src=""img/set2/S3.jpg"" width=""540"" height = ""360"" style=""border:16px solid orange"">","null","","","","","","","","","",""
"null","","html-keyboard-response","549","3773721","0.0-549.0","","","null","","","","","","","","","",""
"802.8999999985099","","image-keyboard-response","550","3774527","0.0-550.0","","img/set2/S2.jpg","68","2","random","68","structured_normal,random,structured_incentive,structured_load","2,3,2,1,3,4","4,1,2,3","true","","",""
"null","","html-keyboard-response","551","3774880","0.0-551.0","","<img src=""img/set2/S2.jpg"" width=""540"" height = ""360"" style=""border:16px solid orange"">","null","","","","","","","","","",""
"null","","html-keyboard-response","552","3775082","0.0-552.0","","","null","","","","","","","","","",""
"667.4000000022352","","image-keyboard-response","553","3775752","0.0-553.0","","img/set2/S1.jpg","83","1","random","83","structured_normal,random,structured_incentive,structured_load","2,3,2,1,3,4","4,1,2,3","true","","",""
"null","","html-keyboard-response","554","3776105","0.0-554.0","","<img src=""img/set2/S1.jpg"" width=""540"" height = ""360"" style=""border:16px solid orange"">","null","","","","","","","","","",""
"null","","html-keyboard-response","555","3776307","0.0-555.0","","","null","","","","","","","","","",""
"555.5999999977648","","image-keyboard-response","556","3776865","0.0-556.0","","img/set2/S1.jpg","83","1","random","83","structured_normal,random,structured_incentive,structured_load","2,3,2,1,3,4","4,1,2,3","true","","",""
"null","","html-keyboard-response","557","3777219","0.0-557.0","","<img src=""img/set2/S1.jpg"" width=""540"" height = ""360"" style=""border:16px solid orange"">","null","","","","","","","","","",""
"null","","html-keyboard-response","558","3777421","0.0-558.0","","","null","","","","","","","","","",""
"787.7999999970198","","image-keyboard-response","559","3778212","0.0-559.0","","img/set2/S4.jpg","72","4","random","74","structured_normal,random,structured_incentive,structured_load","2,3,2,1,3,4","4,1,2,3","false","","",""
"null","","html-keyboard-response","560","3778565","0.0-560.0","","<img src=""img/set2/S4.jpg"" width=""540"" height = ""360"">","null","","","","","","","","","",""
"null","","html-keyboard-response","561","3778767","0.0-561.0","","","null","","","","","","","","","",""
"1480.2999999970198","","image-keyboard-response","562","3780250","0.0-562.0","","img/set2/S3.jpg","72","3","random","72","structured_normal,random,structured_incentive,structured_load","2,3,2,1,3,4","4,1,2,3","true","","",""
"null","","html-keyboard-response","563","3780604","0.0-563.0","","<img src=""img/set2/S3.jpg"" width=""540"" height = ""360"" style=""border:16px solid orange"">","null","","","","","","","","","",""
"null","","html-keyboard-response","564","3780807","0.0-564.0","","","null","","","","","","","","","",""
"647.8000000007451","","image-keyboard-response","565","3781457","0.0-565.0","","img/set2/S2.jpg","68","2","random","68","structured_normal,random,structured_incentive,structured_load","2,3,2,1,3,4","4,1,2,3","true","","",""
"null","","html-keyboard-response","566","3781811","0.0-566.0","","<img src=""img/set2/S2.jpg"" width=""540"" height = ""360"" style=""border:16px solid orange"">","null","","","","","","","","","",""
"null","","html-keyboard-response","567","3782013","0.0-567.0","","","null","","","","","","","","","",""
"1693","","image-keyboard-response","568","3783707","0.0-568.0","","img/set2/S1.jpg","83","1","random","83","structured_normal,random,structured_incentive,structured_load","2,3,2,1,3,4","4,1,2,3","true","","",""
"null","","html-keyboard-response","569","3784061","0.0-569.0","","<img src=""img/set2/S1.jpg"" width=""540"" height = ""360"" style=""border:16px solid orange"">","null","","","","","","","","","",""
"null","","html-keyboard-response","570","3784263","0.0-570.0","","","null","","","","","","","","","",""
"1061","","image-keyboard-response","571","3785326","0.0-571.0","","img/set2/S2.jpg","74","2","random","68","structured_normal,random,structured_incentive,structured_load","2,3,2,1,3,4","4,1,2,3","false","","",""
"null","","html-keyboard-response","572","3785680","0.0-572.0","","<img src=""img/set2/S2.jpg"" width=""540"" height = ""360"">","null","","","","","","","","","",""
"null","","html-keyboard-response","573","3785883","0.0-573.0","","","null","","","","","","","","","",""
"727.5","","image-keyboard-response","574","3786613","0.0-574.0","","img/set2/S3.jpg","83","3","random","72","structured_normal,random,structured_incentive,structured_load","2,3,2,1,3,4","4,1,2,3","false","","",""
