"rt","url","trial_type","trial_index","time_elapsed","internal_node_id","assignmentID","mturkID","hitID","view_history","stimulus","key_press","state","test_part","correct_response","order_block","order_chunk","order_freq","correct","responses","question_order","bonus"
"7150","consent.html","external-html","0","7213","0.0-0.0","3OONKJ5DKD5X1VC4YG3IZAHAI0QBOA","A1UCB0D27PY623","3GVPRXWRPHGYHD0HW29VLS36FVC7I4","","","","","","","","","","","","",""
"47191","","instructions","1","54405","0.0-1.0","3OONKJ5DKD5X1VC4YG3IZAHAI0QBOA","A1UCB0D27PY623","3GVPRXWRPHGYHD0HW29VLS36FVC7I4","[{""page_index"":0,""viewing_time"":2906.9000000059605},{""page_index"":1,""viewing_time"":7146.899999976158},{""page_index"":2,""viewing_time"":5758.600000023842},{""page_index"":3,""viewing_time"":15865.799999982119},{""page_index"":4,""viewing_time"":3506.4000000059605},{""page_index"":5,""viewing_time"":6797},{""page_index"":6,""viewing_time"":5208.800000011921}]","","","","","","","","","","","",""
"5855.100000023842","","instructions","2","60262","0.0-2.0","3OONKJ5DKD5X1VC4YG3IZAHAI0QBOA","A1UCB0D27PY623","3GVPRXWRPHGYHD0HW29VLS36FVC7I4","[{""page_index"":0,""viewing_time"":5854.800000011921}]","","","","","","","","","","","",""
"2925.2999999821186","","instructions","3","63188","0.0-3.0","3OONKJ5DKD5X1VC4YG3IZAHAI0QBOA","A1UCB0D27PY623","3GVPRXWRPHGYHD0HW29VLS36FVC7I4","[{""page_index"":0,""viewing_time"":2925}]","","","","","","","","","","","",""
"968.5","","image-keyboard-response","4","64158","0.0-4.0","3OONKJ5DKD5X1VC4YG3IZAHAI0QBOA","A1UCB0D27PY623","3GVPRXWRPHGYHD0HW29VLS36FVC7I4","","img/set1/S3.jpg","68","3","random","72","random,structured_normal,structured_incentive,structured_load","1,2,4,2,2,3","3,4,1,2","false","","",""
"null","","html-keyboard-response","5","64514","0.0-5.0","3OONKJ5DKD5X1VC4YG3IZAHAI0QBOA","A1UCB0D27PY623","3GVPRXWRPHGYHD0HW29VLS36FVC7I4","","<img src=""img/set1/S3.jpg"" width=""540"" height = ""360"">","null","","","","","","","","","",""
"null","","html-keyboard-response","6","64731","0.0-6.0","3OONKJ5DKD5X1VC4YG3IZAHAI0QBOA","A1UCB0D27PY623","3GVPRXWRPHGYHD0HW29VLS36FVC7I4","","","null","","","","","","","","","",""
"570.0999999940395","","image-keyboard-response","7","65302","0.0-7.0","3OONKJ5DKD5X1VC4YG3IZAHAI0QBOA","A1UCB0D27PY623","3GVPRXWRPHGYHD0HW29VLS36FVC7I4","","img/set1/S1.jpg","72","1","random","83","random,structured_normal,structured_incentive,structured_load","1,2,4,2,2,3","3,4,1,2","false","","",""
"null","","html-keyboard-response","8","65654","0.0-8.0","3OONKJ5DKD5X1VC4YG3IZAHAI0QBOA","A1UCB0D27PY623","3GVPRXWRPHGYHD0HW29VLS36FVC7I4","","<img src=""img/set1/S1.jpg"" width=""540"" height = ""360"">","null","","","","","","","","","",""
"null","","html-keyboard-response","9","65855","0.0-9.0","3OONKJ5DKD5X1VC4YG3IZAHAI0QBOA","A1UCB0D27PY623","3GVPRXWRPHGYHD0HW29VLS36FVC7I4","","","null","","","","","","","","","",""
"550.3000000119209","","image-keyboard-response","10","66406","0.0-10.0","3OONKJ5DKD5X1VC4YG3IZAHAI0QBOA","A1UCB0D27PY623","3GVPRXWRPHGYHD0HW29VLS36FVC7I4","","img/set1/S3.jpg","74","3","random","72","random,structured_normal,structured_incentive,structured_load","1,2,4,2,2,3","3,4,1,2","false","","",""
"null","","html-keyboard-response","11","66758","0.0-11.0","3OONKJ5DKD5X1VC4YG3IZAHAI0QBOA","A1UCB0D27PY623","3GVPRXWRPHGYHD0HW29VLS36FVC7I4","","<img src=""img/set1/S3.jpg"" width=""540"" height = ""360"">","null","","","","","","","","","",""
"null","","html-keyboard-response","12","66959","0.0-12.0","3OONKJ5DKD5X1VC4YG3IZAHAI0QBOA","A1UCB0D27PY623","3GVPRXWRPHGYHD0HW29VLS36FVC7I4","","","null","","","","","","","","","",""
"733.8000000119209","","image-keyboard-response","13","67694","0.0-13.0","3OONKJ5DKD5X1VC4YG3IZAHAI0QBOA","A1UCB0D27PY623","3GVPRXWRPHGYHD0HW29VLS36FVC7I4","","img/set1/S1.jpg","68","1","random","83","random,structured_normal,structured_incentive,structured_load","1,2,4,2,2,3","3,4,1,2","false","","",""
"null","","html-keyboard-response","14","68046","0.0-14.0","3OONKJ5DKD5X1VC4YG3IZAHAI0QBOA","A1UCB0D27PY623","3GVPRXWRPHGYHD0HW29VLS36FVC7I4","","<img src=""img/set1/S1.jpg"" width=""540"" height = ""360"">","null","","","","","","","","","",""
"null","","html-keyboard-response","15","68247","0.0-15.0","3OONKJ5DKD5X1VC4YG3IZAHAI0QBOA","A1UCB0D27PY623","3GVPRXWRPHGYHD0HW29VLS36FVC7I4","","","null","","","","","","","","","",""
"742","","image-keyboard-response","16","68990","0.0-16.0","3OONKJ5DKD5X1VC4YG3IZAHAI0QBOA","A1UCB0D27PY623","3GVPRXWRPHGYHD0HW29VLS36FVC7I4","","img/set1/S3.jpg","74","3","random","72","random,structured_normal,structured_incentive,structured_load","1,2,4,2,2,3","3,4,1,2","false","","",""
"null","","html-keyboard-response","17","69342","0.0-17.0","3OONKJ5DKD5X1VC4YG3IZAHAI0QBOA","A1UCB0D27PY623","3GVPRXWRPHGYHD0HW29VLS36FVC7I4","","<img src=""img/set1/S3.jpg"" width=""540"" height = ""360"">","null","","","","","","","","","",""
"null","","html-keyboard-response","18","69543","0.0-18.0","3OONKJ5DKD5X1VC4YG3IZAHAI0QBOA","A1UCB0D27PY623","3GVPRXWRPHGYHD0HW29VLS36FVC7I4","","","null","","","","","","","","","",""
"406.40000000596046","","image-keyboard-response","19","69950","0.0-19.0","3OONKJ5DKD5X1VC4YG3IZAHAI0QBOA","A1UCB0D27PY623","3GVPRXWRPHGYHD0HW29VLS36FVC7I4","","img/set1/S1.jpg","83","1","random","83","random,structured_normal,structured_incentive,structured_load","1,2,4,2,2,3","3,4,1,2","true","","",""
"null","","html-keyboard-response","20","70302","0.0-20.0","3OONKJ5DKD5X1VC4YG3IZAHAI0QBOA","A1UCB0D27PY623","3GVPRXWRPHGYHD0HW29VLS36FVC7I4","","<img src=""img/set1/S1.jpg"" width=""540"" height = ""360"" style=""border:16px solid orange"">","null","","","","","","","","","",""
"null","","html-keyboard-response","21","70503","0.0-21.0","3OONKJ5DKD5X1VC4YG3IZAHAI0QBOA","A1UCB0D27PY623","3GVPRXWRPHGYHD0HW29VLS36FVC7I4","","","null","","","","","","","","","",""
"839.3000000119209","","image-keyboard-response","22","71343","0.0-22.0","3OONKJ5DKD5X1VC4YG3IZAHAI0QBOA","A1UCB0D27PY623","3GVPRXWRPHGYHD0HW29VLS36FVC7I4","","img/set1/S4.jpg","83","4","random","74","random,structured_normal,structured_incentive,structured_load","1,2,4,2,2,3","3,4,1,2","false","","",""
"null","","html-keyboard-response","23","71695","0.0-23.0","3OONKJ5DKD5X1VC4YG3IZAHAI0QBOA","A1UCB0D27PY623","3GVPRXWRPHGYHD0HW29VLS36FVC7I4","","<img src=""img/set1/S4.jpg"" width=""540"" height = ""360"">","null","","","","","","","","","",""
"null","","html-keyboard-response","24","71897","0.0-24.0","3OONKJ5DKD5X1VC4YG3IZAHAI0QBOA","A1UCB0D27PY623","3GVPRXWRPHGYHD0HW29VLS36FVC7I4","","","null","","","","","","","","","",""
"596.7000000178814","","image-keyboard-response","25","72495","0.0-25.0","3OONKJ5DKD5X1VC4YG3IZAHAI0QBOA","A1UCB0D27PY623","3GVPRXWRPHGYHD0HW29VLS36FVC7I4","","img/set1/S1.jpg","83","1","random","83","random,structured_normal,structured_incentive,structured_load","1,2,4,2,2,3","3,4,1,2","true","","",""
"null","","html-keyboard-response","26","72846","0.0-26.0","3OONKJ5DKD5X1VC4YG3IZAHAI0QBOA","A1UCB0D27PY623","3GVPRXWRPHGYHD0HW29VLS36FVC7I4","","<img src=""img/set1/S1.jpg"" width=""540"" height = ""360"" style=""border:16px solid orange"">","null","","","","","","","","","",""
"null","","html-keyboard-response","27","73048","0.0-27.0","3OONKJ5DKD5X1VC4YG3IZAHAI0QBOA","A1UCB0D27PY623","3GVPRXWRPHGYHD0HW29VLS36FVC7I4","","","null","","","","","","","","","",""
"637.9000000059605","","image-keyboard-response","28","73687","0.0-28.0","3OONKJ5DKD5X1VC4YG3IZAHAI0QBOA","A1UCB0D27PY623","3GVPRXWRPHGYHD0HW29VLS36FVC7I4","","img/set1/S3.jpg","68","3","random","72","random,structured_normal,structured_incentive,structured_load","1,2,4,2,2,3","3,4,1,2","false","","",""
"null","","html-keyboard-response","29","74038","0.0-29.0","3OONKJ5DKD5X1VC4YG3IZAHAI0QBOA","A1UCB0D27PY623","3GVPRXWRPHGYHD0HW29VLS36FVC7I4","","<img src=""img/set1/S3.jpg"" width=""540"" height = ""360"">","null","","","","","","","","","",""
"null","","html-keyboard-response","30","74239","0.0-30.0","3OONKJ5DKD5X1VC4YG3IZAHAI0QBOA","A1UCB0D27PY623","3GVPRXWRPHGYHD0HW29VLS36FVC7I4","","","null","","","","","","","","","",""
"734.7999999821186","","image-keyboard-response","31","74975","0.0-31.0","3OONKJ5DKD5X1VC4YG3IZAHAI0QBOA","A1UCB0D27PY623","3GVPRXWRPHGYHD0HW29VLS36FVC7I4","","img/set1/S1.jpg","83","1","random","83","random,structured_normal,structured_incentive,structured_load","1,2,4,2,2,3","3,4,1,2","true","","",""
"null","","html-keyboard-response","32","75327","0.0-32.0","3OONKJ5DKD5X1VC4YG3IZAHAI0QBOA","A1UCB0D27PY623","3GVPRXWRPHGYHD0HW29VLS36FVC7I4","","<img src=""img/set1/S1.jpg"" width=""540"" height = ""360"" style=""border:16px solid orange"">","null","","","","","","","","","",""
"null","","html-keyboard-response","33","75528","0.0-33.0","3OONKJ5DKD5X1VC4YG3IZAHAI0QBOA","A1UCB0D27PY623","3GVPRXWRPHGYHD0HW29VLS36FVC7I4","","","null","","","","","","","","","",""
"510.60000002384186","","image-keyboard-response","34","76039","0.0-34.0","3OONKJ5DKD5X1VC4YG3IZAHAI0QBOA","A1UCB0D27PY623","3GVPRXWRPHGYHD0HW29VLS36FVC7I4","","img/set1/S2.jpg","72","2","random","68","random,structured_normal,structured_incentive,structured_load","1,2,4,2,2,3","3,4,1,2","false","","",""
"null","","html-keyboard-response","35","76391","0.0-35.0","3OONKJ5DKD5X1VC4YG3IZAHAI0QBOA","A1UCB0D27PY623","3GVPRXWRPHGYHD0HW29VLS36FVC7I4","","<img src=""img/set1/S2.jpg"" width=""540"" height = ""360"">","null","","","","","","","","","",""
"null","","html-keyboard-response","36","76592","0.0-36.0","3OONKJ5DKD5X1VC4YG3IZAHAI0QBOA","A1UCB0D27PY623","3GVPRXWRPHGYHD0HW29VLS36FVC7I4","","","null","","","","","","","","","",""
"590","","image-keyboard-response","37","77183","0.0-37.0","3OONKJ5DKD5X1VC4YG3IZAHAI0QBOA","A1UCB0D27PY623","3GVPRXWRPHGYHD0HW29VLS36FVC7I4","","img/set1/S3.jpg","74","3","random","72","random,structured_normal,structured_incentive,structured_load","1,2,4,2,2,3","3,4,1,2","false","","",""
"null","","html-keyboard-response","38","77535","0.0-38.0","3OONKJ5DKD5X1VC4YG3IZAHAI0QBOA","A1UCB0D27PY623","3GVPRXWRPHGYHD0HW29VLS36FVC7I4","","<img src=""img/set1/S3.jpg"" width=""540"" height = ""360"">","null","","","","","","","","","",""
"null","","html-keyboard-response","39","77736","0.0-39.0","3OONKJ5DKD5X1VC4YG3IZAHAI0QBOA","A1UCB0D27PY623","3GVPRXWRPHGYHD0HW29VLS36FVC7I4","","","null","","","","","","","","","",""
"1006.3999999761581","","image-keyboard-response","40","78743","0.0-40.0","3OONKJ5DKD5X1VC4YG3IZAHAI0QBOA","A1UCB0D27PY623","3GVPRXWRPHGYHD0HW29VLS36FVC7I4","","img/set1/S2.jpg","74","2","random","68","random,structured_normal,structured_incentive,structured_load","1,2,4,2,2,3","3,4,1,2","false","","",""
"null","","html-keyboard-response","41","79095","0.0-41.0","3OONKJ5DKD5X1VC4YG3IZAHAI0QBOA","A1UCB0D27PY623","3GVPRXWRPHGYHD0HW29VLS36FVC7I4","","<img src=""img/set1/S2.jpg"" width=""540"" height = ""360"">","null","","","","","","","","","",""
"null","","html-keyboard-response","42","79297","0.0-42.0","3OONKJ5DKD5X1VC4YG3IZAHAI0QBOA","A1UCB0D27PY623","3GVPRXWRPHGYHD0HW29VLS36FVC7I4","","","null","","","","","","","","","",""
"645.8000000119209","","image-keyboard-response","43","79943","0.0-43.0","3OONKJ5DKD5X1VC4YG3IZAHAI0QBOA","A1UCB0D27PY623","3GVPRXWRPHGYHD0HW29VLS36FVC7I4","","img/set1/S1.jpg","83","1","random","83","random,structured_normal,structured_incentive,structured_load","1,2,4,2,2,3","3,4,1,2","true","","",""
"null","","html-keyboard-response","44","80295","0.0-44.0","3OONKJ5DKD5X1VC4YG3IZAHAI0QBOA","A1UCB0D27PY623","3GVPRXWRPHGYHD0HW29VLS36FVC7I4","","<img src=""img/set1/S1.jpg"" width=""540"" height = ""360"" style=""border:16px solid orange"">","null","","","","","","","","","",""
"null","","html-keyboard-response","45","80497","0.0-45.0","3OONKJ5DKD5X1VC4YG3IZAHAI0QBOA","A1UCB0D27PY623","3GVPRXWRPHGYHD0HW29VLS36FVC7I4","","","null","","","","","","","","","",""
"717.9000000059605","","image-keyboard-response","46","81216","0.0-46.0","3OONKJ5DKD5X1VC4YG3IZAHAI0QBOA","A1UCB0D27PY623","3GVPRXWRPHGYHD0HW29VLS36FVC7I4","","img/set1/S3.jpg","68","3","random","72","random,structured_normal,structured_incentive,structured_load","1,2,4,2,2,3","3,4,1,2","false","","",""
"null","","html-keyboard-response","47","81568","0.0-47.0","3OONKJ5DKD5X1VC4YG3IZAHAI0QBOA","A1UCB0D27PY623","3GVPRXWRPHGYHD0HW29VLS36FVC7I4","","<img src=""img/set1/S3.jpg"" width=""540"" height = ""360"">","null","","","","","","","","","",""
"null","","html-keyboard-response","48","81770","0.0-48.0","3OONKJ5DKD5X1VC4YG3IZAHAI0QBOA","A1UCB0D27PY623","3GVPRXWRPHGYHD0HW29VLS36FVC7I4","","","null","","","","","","","","","",""
"925.9000000059605","","image-keyboard-response","49","82697","0.0-49.0","3OONKJ5DKD5X1VC4YG3IZAHAI0QBOA","A1UCB0D27PY623","3GVPRXWRPHGYHD0HW29VLS36FVC7I4","","img/set1/S3.jpg","83","3","random","72","random,structured_normal,structured_incentive,structured_load","1,2,4,2,2,3","3,4,1,2","false","","",""
"null","","html-keyboard-response","50","83048","0.0-50.0","3OONKJ5DKD5X1VC4YG3IZAHAI0QBOA","A1UCB0D27PY623","3GVPRXWRPHGYHD0HW29VLS36FVC7I4","","<img src=""img/set1/S3.jpg"" width=""540"" height = ""360"">","null","","","","","","","","","",""
"null","","html-keyboard-response","51","83250","0.0-51.0","3OONKJ5DKD5X1VC4YG3IZAHAI0QBOA","A1UCB0D27PY623","3GVPRXWRPHGYHD0HW29VLS36FVC7I4","","","null","","","","","","","","","",""
"605.1000000238419","","image-keyboard-response","52","83856","0.0-52.0","3OONKJ5DKD5X1VC4YG3IZAHAI0QBOA","A1UCB0D27PY623","3GVPRXWRPHGYHD0HW29VLS36FVC7I4","","img/set1/S3.jpg","72","3","random","72","random,structured_normal,structured_incentive,structured_load","1,2,4,2,2,3","3,4,1,2","true","","",""
"null","","html-keyboard-response","53","84207","0.0-53.0","3OONKJ5DKD5X1VC4YG3IZAHAI0QBOA","A1UCB0D27PY623","3GVPRXWRPHGYHD0HW29VLS36FVC7I4","","<img src=""img/set1/S3.jpg"" width=""540"" height = ""360"" style=""border:16px solid orange"">","null","","","","","","","","","",""
"null","","html-keyboard-response","54","84408","0.0-54.0","3OONKJ5DKD5X1VC4YG3IZAHAI0QBOA","A1UCB0D27PY623","3GVPRXWRPHGYHD0HW29VLS36FVC7I4","","","null","","","","","","","","","",""
"567.0999999940395","","image-keyboard-response","55","84976","0.0-55.0","3OONKJ5DKD5X1VC4YG3IZAHAI0QBOA","A1UCB0D27PY623","3GVPRXWRPHGYHD0HW29VLS36FVC7I4","","img/set1/S3.jpg","72","3","random","72","random,structured_normal,structured_incentive,structured_load","1,2,4,2,2,3","3,4,1,2","true","","",""
"null","","html-keyboard-response","56","85329","0.0-56.0","3OONKJ5DKD5X1VC4YG3IZAHAI0QBOA","A1UCB0D27PY623","3GVPRXWRPHGYHD0HW29VLS36FVC7I4","","<img src=""img/set1/S3.jpg"" width=""540"" height = ""360"" style=""border:16px solid orange"">","null","","","","","","","","","",""
"null","","html-keyboard-response","57","85530","0.0-57.0","3OONKJ5DKD5X1VC4YG3IZAHAI0QBOA","A1UCB0D27PY623","3GVPRXWRPHGYHD0HW29VLS36FVC7I4","","","null","","","","","","","","","",""
"677.5999999940395","","image-keyboard-response","58","86208","0.0-58.0","3OONKJ5DKD5X1VC4YG3IZAHAI0QBOA","A1UCB0D27PY623","3GVPRXWRPHGYHD0HW29VLS36FVC7I4","","img/set1/S4.jpg","74","4","random","74","random,structured_normal,structured_incentive,structured_load","1,2,4,2,2,3","3,4,1,2","true","","",""
"null","","html-keyboard-response","59","86560","0.0-59.0","3OONKJ5DKD5X1VC4YG3IZAHAI0QBOA","A1UCB0D27PY623","3GVPRXWRPHGYHD0HW29VLS36FVC7I4","","<img src=""img/set1/S4.jpg"" width=""540"" height = ""360"" style=""border:16px solid orange"">","null","","","","","","","","","",""
"null","","html-keyboard-response","60","86760","0.0-60.0","3OONKJ5DKD5X1VC4YG3IZAHAI0QBOA","A1UCB0D27PY623","3GVPRXWRPHGYHD0HW29VLS36FVC7I4","","","null","","","","","","","","","",""
"751.2000000178814","","image-keyboard-response","61","87513","0.0-61.0","3OONKJ5DKD5X1VC4YG3IZAHAI0QBOA","A1UCB0D27PY623","3GVPRXWRPHGYHD0HW29VLS36FVC7I4","","img/set1/S2.jpg","68","2","random","68","random,structured_normal,structured_incentive,structured_load","1,2,4,2,2,3","3,4,1,2","true","","",""
"null","","html-keyboard-response","62","87864","0.0-62.0","3OONKJ5DKD5X1VC4YG3IZAHAI0QBOA","A1UCB0D27PY623","3GVPRXWRPHGYHD0HW29VLS36FVC7I4","","<img src=""img/set1/S2.jpg"" width=""540"" height = ""360"" style=""border:16px solid orange"">","null","","","","","","","","","",""
"null","","html-keyboard-response","63","88065","0.0-63.0","3OONKJ5DKD5X1VC4YG3IZAHAI0QBOA","A1UCB0D27PY623","3GVPRXWRPHGYHD0HW29VLS36FVC7I4","","","null","","","","","","","","","",""
"647.3000000119209","","image-keyboard-response","64","88713","0.0-64.0","3OONKJ5DKD5X1VC4YG3IZAHAI0QBOA","A1UCB0D27PY623","3GVPRXWRPHGYHD0HW29VLS36FVC7I4","","img/set1/S1.jpg","83","1","random","83","random,structured_normal,structured_incentive,structured_load","1,2,4,2,2,3","3,4,1,2","true","","",""
"null","","html-keyboard-response","65","89064","0.0-65.0","3OONKJ5DKD5X1VC4YG3IZAHAI0QBOA","A1UCB0D27PY623","3GVPRXWRPHGYHD0HW29VLS36FVC7I4","","<img src=""img/set1/S1.jpg"" width=""540"" height = ""360"" style=""border:16px solid orange"">","null","","","","","","","","","",""
"null","","html-keyboard-response","66","89266","0.0-66.0","3OONKJ5DKD5X1VC4YG3IZAHAI0QBOA","A1UCB0D27PY623","3GVPRXWRPHGYHD0HW29VLS36FVC7I4","","","null","","","","","","","","","",""
"806.3000000119209","","image-keyboard-response","67","90073","0.0-67.0","3OONKJ5DKD5X1VC4YG3IZAHAI0QBOA","A1UCB0D27PY623","3GVPRXWRPHGYHD0HW29VLS36FVC7I4","","img/set1/S4.jpg","72","4","random","74","random,structured_normal,structured_incentive,structured_load","1,2,4,2,2,3","3,4,1,2","false","","",""
"null","","html-keyboard-response","68","90425","0.0-68.0","3OONKJ5DKD5X1VC4YG3IZAHAI0QBOA","A1UCB0D27PY623","3GVPRXWRPHGYHD0HW29VLS36FVC7I4","","<img src=""img/set1/S4.jpg"" width=""540"" height = ""360"">","null","","","","","","","","","",""
"null","","html-keyboard-response","69","90627","0.0-69.0","3OONKJ5DKD5X1VC4YG3IZAHAI0QBOA","A1UCB0D27PY623","3GVPRXWRPHGYHD0HW29VLS36FVC7I4","","","null","","","","","","","","","",""
"868.8000000119209","","image-keyboard-response","70","91497","0.0-70.0","3OONKJ5DKD5X1VC4YG3IZAHAI0QBOA","A1UCB0D27PY623","3GVPRXWRPHGYHD0HW29VLS36FVC7I4","","img/set1/S3.jpg","68","3","random","72","random,structured_normal,structured_incentive,structured_load","1,2,4,2,2,3","3,4,1,2","false","","",""
"null","","html-keyboard-response","71","91848","0.0-71.0","3OONKJ5DKD5X1VC4YG3IZAHAI0QBOA","A1UCB0D27PY623","3GVPRXWRPHGYHD0HW29VLS36FVC7I4","","<img src=""img/set1/S3.jpg"" width=""540"" height = ""360"">","null","","","","","","","","","",""
"null","","html-keyboard-response","72","92050","0.0-72.0","3OONKJ5DKD5X1VC4YG3IZAHAI0QBOA","A1UCB0D27PY623","3GVPRXWRPHGYHD0HW29VLS36FVC7I4","","","null","","","","","","","","","",""
"663.5","","image-keyboard-response","73","92714","0.0-73.0","3OONKJ5DKD5X1VC4YG3IZAHAI0QBOA","A1UCB0D27PY623","3GVPRXWRPHGYHD0HW29VLS36FVC7I4","","img/set1/S1.jpg","83","1","random","83","random,structured_normal,structured_incentive,structured_load","1,2,4,2,2,3","3,4,1,2","true","","",""
"null","","html-keyboard-response","74","93065","0.0-74.0","3OONKJ5DKD5X1VC4YG3IZAHAI0QBOA","A1UCB0D27PY623","3GVPRXWRPHGYHD0HW29VLS36FVC7I4","","<img src=""img/set1/S1.jpg"" width=""540"" height = ""360"" style=""border:16px solid orange"">","null","","","","","","","","","",""
"null","","html-keyboard-response","75","93266","0.0-75.0","3OONKJ5DKD5X1VC4YG3IZAHAI0QBOA","A1UCB0D27PY623","3GVPRXWRPHGYHD0HW29VLS36FVC7I4","","","null","","","","","","","","","",""
"493.2000000178814","","image-keyboard-response","76","93761","0.0-76.0","3OONKJ5DKD5X1VC4YG3IZAHAI0QBOA","A1UCB0D27PY623","3GVPRXWRPHGYHD0HW29VLS36FVC7I4","","img/set1/S1.jpg","83","1","random","83","random,structured_normal,structured_incentive,structured_load","1,2,4,2,2,3","3,4,1,2","true","","",""
"null","","html-keyboard-response","77","94113","0.0-77.0","3OONKJ5DKD5X1VC4YG3IZAHAI0QBOA","A1UCB0D27PY623","3GVPRXWRPHGYHD0HW29VLS36FVC7I4","","<img src=""img/set1/S1.jpg"" width=""540"" height = ""360"" style=""border:16px solid orange"">","null","","","","","","","","","",""
"null","","html-keyboard-response","78","94315","0.0-78.0","3OONKJ5DKD5X1VC4YG3IZAHAI0QBOA","A1UCB0D27PY623","3GVPRXWRPHGYHD0HW29VLS36FVC7I4","","","null","","","","","","","","","",""
"790","","image-keyboard-response","79","95105","0.0-79.0","3OONKJ5DKD5X1VC4YG3IZAHAI0QBOA","A1UCB0D27PY623","3GVPRXWRPHGYHD0HW29VLS36FVC7I4","","img/set1/S4.jpg","72","4","random","74","random,structured_normal,structured_incentive,structured_load","1,2,4,2,2,3","3,4,1,2","false","","",""
"null","","html-keyboard-response","80","95457","0.0-80.0","3OONKJ5DKD5X1VC4YG3IZAHAI0QBOA","A1UCB0D27PY623","3GVPRXWRPHGYHD0HW29VLS36FVC7I4","","<img src=""img/set1/S4.jpg"" width=""540"" height = ""360"">","null","","","","","","","","","",""
"null","","html-keyboard-response","81","95658","0.0-81.0","3OONKJ5DKD5X1VC4YG3IZAHAI0QBOA","A1UCB0D27PY623","3GVPRXWRPHGYHD0HW29VLS36FVC7I4","","","null","","","","","","","","","",""
"446.09999999403954","","image-keyboard-response","82","96105","0.0-82.0","3OONKJ5DKD5X1VC4YG3IZAHAI0QBOA","A1UCB0D27PY623","3GVPRXWRPHGYHD0HW29VLS36FVC7I4","","img/set1/S1.jpg","83","1","random","83","random,structured_normal,structured_incentive,structured_load","1,2,4,2,2,3","3,4,1,2","true","","",""
"null","","html-keyboard-response","83","96457","0.0-83.0","3OONKJ5DKD5X1VC4YG3IZAHAI0QBOA","A1UCB0D27PY623","3GVPRXWRPHGYHD0HW29VLS36FVC7I4","","<img src=""img/set1/S1.jpg"" width=""540"" height = ""360"" style=""border:16px solid orange"">","null","","","","","","","","","",""
"null","","html-keyboard-response","84","96658","0.0-84.0","3OONKJ5DKD5X1VC4YG3IZAHAI0QBOA","A1UCB0D27PY623","3GVPRXWRPHGYHD0HW29VLS36FVC7I4","","","null","","","","","","","","","",""
"646.4000000059605","","image-keyboard-response","85","97305","0.0-85.0","3OONKJ5DKD5X1VC4YG3IZAHAI0QBOA","A1UCB0D27PY623","3GVPRXWRPHGYHD0HW29VLS36FVC7I4","","img/set1/S2.jpg","74","2","random","68","random,structured_normal,structured_incentive,structured_load","1,2,4,2,2,3","3,4,1,2","false","","",""
"null","","html-keyboard-response","86","97657","0.0-86.0","3OONKJ5DKD5X1VC4YG3IZAHAI0QBOA","A1UCB0D27PY623","3GVPRXWRPHGYHD0HW29VLS36FVC7I4","","<img src=""img/set1/S2.jpg"" width=""540"" height = ""360"">","null","","","","","","","","","",""
"null","","html-keyboard-response","87","97858","0.0-87.0","3OONKJ5DKD5X1VC4YG3IZAHAI0QBOA","A1UCB0D27PY623","3GVPRXWRPHGYHD0HW29VLS36FVC7I4","","","null","","","","","","","","","",""
"527","","image-keyboard-response","88","98386","0.0-88.0","3OONKJ5DKD5X1VC4YG3IZAHAI0QBOA","A1UCB0D27PY623","3GVPRXWRPHGYHD0HW29VLS36FVC7I4","","img/set1/S2.jpg","68","2","random","68","random,structured_normal,structured_incentive,structured_load","1,2,4,2,2,3","3,4,1,2","true","","",""
"null","","html-keyboard-response","89","98738","0.0-89.0","3OONKJ5DKD5X1VC4YG3IZAHAI0QBOA","A1UCB0D27PY623","3GVPRXWRPHGYHD0HW29VLS36FVC7I4","","<img src=""img/set1/S2.jpg"" width=""540"" height = ""360"" style=""border:16px solid orange"">","null","","","","","","","","","",""
"null","","html-keyboard-response","90","98939","0.0-90.0","3OONKJ5DKD5X1VC4YG3IZAHAI0QBOA","A1UCB0D27PY623","3GVPRXWRPHGYHD0HW29VLS36FVC7I4","","","null","","","","","","","","","",""
"541.8999999761581","","image-keyboard-response","91","99482","0.0-91.0","3OONKJ5DKD5X1VC4YG3IZAHAI0QBOA","A1UCB0D27PY623","3GVPRXWRPHGYHD0HW29VLS36FVC7I4","","img/set1/S1.jpg","83","1","random","83","random,structured_normal,structured_incentive,structured_load","1,2,4,2,2,3","3,4,1,2","true","","",""
"null","","html-keyboard-response","92","99833","0.0-92.0","3OONKJ5DKD5X1VC4YG3IZAHAI0QBOA","A1UCB0D27PY623","3GVPRXWRPHGYHD0HW29VLS36FVC7I4","","<img src=""img/set1/S1.jpg"" width=""540"" height = ""360"" style=""border:16px solid orange"">","null","","","","","","","","","",""
"null","","html-keyboard-response","93","100035","0.0-93.0","3OONKJ5DKD5X1VC4YG3IZAHAI0QBOA","A1UCB0D27PY623","3GVPRXWRPHGYHD0HW29VLS36FVC7I4","","","null","","","","","","","","","",""
"718.7000000178814","","image-keyboard-response","94","100754","0.0-94.0","3OONKJ5DKD5X1VC4YG3IZAHAI0QBOA","A1UCB0D27PY623","3GVPRXWRPHGYHD0HW29VLS36FVC7I4","","img/set1/S4.jpg","72","4","random","74","random,structured_normal,structured_incentive,structured_load","1,2,4,2,2,3","3,4,1,2","false","","",""
"null","","html-keyboard-response","95","101105","0.0-95.0","3OONKJ5DKD5X1VC4YG3IZAHAI0QBOA","A1UCB0D27PY623","3GVPRXWRPHGYHD0HW29VLS36FVC7I4","","<img src=""img/set1/S4.jpg"" width=""540"" height = ""360"">","null","","","","","","","","","",""
"null","","html-keyboard-response","96","101306","0.0-96.0","3OONKJ5DKD5X1VC4YG3IZAHAI0QBOA","A1UCB0D27PY623","3GVPRXWRPHGYHD0HW29VLS36FVC7I4","","","null","","","","","","","","","",""
"503.2000000178814","","image-keyboard-response","97","101810","0.0-97.0","3OONKJ5DKD5X1VC4YG3IZAHAI0QBOA","A1UCB0D27PY623","3GVPRXWRPHGYHD0HW29VLS36FVC7I4","","img/set1/S2.jpg","68","2","random","68","random,structured_normal,structured_incentive,structured_load","1,2,4,2,2,3","3,4,1,2","true","","",""
"null","","html-keyboard-response","98","102161","0.0-98.0","3OONKJ5DKD5X1VC4YG3IZAHAI0QBOA","A1UCB0D27PY623","3GVPRXWRPHGYHD0HW29VLS36FVC7I4","","<img src=""img/set1/S2.jpg"" width=""540"" height = ""360"" style=""border:16px solid orange"">","null","","","","","","","","","",""
"null","","html-keyboard-response","99","102363","0.0-99.0","3OONKJ5DKD5X1VC4YG3IZAHAI0QBOA","A1UCB0D27PY623","3GVPRXWRPHGYHD0HW29VLS36FVC7I4","","","null","","","","","","","","","",""
"511.80000001192093","","image-keyboard-response","100","102875","0.0-100.0","3OONKJ5DKD5X1VC4YG3IZAHAI0QBOA","A1UCB0D27PY623","3GVPRXWRPHGYHD0HW29VLS36FVC7I4","","img/set1/S1.jpg","83","1","random","83","random,structured_normal,structured_incentive,structured_load","1,2,4,2,2,3","3,4,1,2","true","","",""
"null","","html-keyboard-response","101","103227","0.0-101.0","3OONKJ5DKD5X1VC4YG3IZAHAI0QBOA","A1UCB0D27PY623","3GVPRXWRPHGYHD0HW29VLS36FVC7I4","","<img src=""img/set1/S1.jpg"" width=""540"" height = ""360"" style=""border:16px solid orange"">","null","","","","","","","","","",""
"null","","html-keyboard-response","102","103427","0.0-102.0","3OONKJ5DKD5X1VC4YG3IZAHAI0QBOA","A1UCB0D27PY623","3GVPRXWRPHGYHD0HW29VLS36FVC7I4","","","null","","","","","","","","","",""
"566.3000000119209","","image-keyboard-response","103","103994","0.0-103.0","3OONKJ5DKD5X1VC4YG3IZAHAI0QBOA","A1UCB0D27PY623","3GVPRXWRPHGYHD0HW29VLS36FVC7I4","","img/set1/S2.jpg","68","2","random","68","random,structured_normal,structured_incentive,structured_load","1,2,4,2,2,3","3,4,1,2","true","","",""
"null","","html-keyboard-response","104","104346","0.0-104.0","3OONKJ5DKD5X1VC4YG3IZAHAI0QBOA","A1UCB0D27PY623","3GVPRXWRPHGYHD0HW29VLS36FVC7I4","","<img src=""img/set1/S2.jpg"" width=""540"" height = ""360"" style=""border:16px solid orange"">","null","","","","","","","","","",""
"null","","html-keyboard-response","105","104547","0.0-105.0","3OONKJ5DKD5X1VC4YG3IZAHAI0QBOA","A1UCB0D27PY623","3GVPRXWRPHGYHD0HW29VLS36FVC7I4","","","null","","","","","","","","","",""
"462.2999999821186","","image-keyboard-response","106","105010","0.0-106.0","3OONKJ5DKD5X1VC4YG3IZAHAI0QBOA","A1UCB0D27PY623","3GVPRXWRPHGYHD0HW29VLS36FVC7I4","","img/set1/S2.jpg","68","2","random","68","random,structured_normal,structured_incentive,structured_load","1,2,4,2,2,3","3,4,1,2","true","","",""
"null","","html-keyboard-response","107","105362","0.0-107.0","3OONKJ5DKD5X1VC4YG3IZAHAI0QBOA","A1UCB0D27PY623","3GVPRXWRPHGYHD0HW29VLS36FVC7I4","","<img src=""img/set1/S2.jpg"" width=""540"" height = ""360"" style=""border:16px solid orange"">","null","","","","","","","","","",""
"null","","html-keyboard-response","108","105563","0.0-108.0","3OONKJ5DKD5X1VC4YG3IZAHAI0QBOA","A1UCB0D27PY623","3GVPRXWRPHGYHD0HW29VLS36FVC7I4","","","null","","","","","","","","","",""
"359","","image-keyboard-response","109","105923","0.0-109.0","3OONKJ5DKD5X1VC4YG3IZAHAI0QBOA","A1UCB0D27PY623","3GVPRXWRPHGYHD0HW29VLS36FVC7I4","","img/set1/S2.jpg","68","2","random","68","random,structured_normal,structured_incentive,structured_load","1,2,4,2,2,3","3,4,1,2","true","","",""
"null","","html-keyboard-response","110","106274","0.0-110.0","3OONKJ5DKD5X1VC4YG3IZAHAI0QBOA","A1UCB0D27PY623","3GVPRXWRPHGYHD0HW29VLS36FVC7I4","","<img src=""img/set1/S2.jpg"" width=""540"" height = ""360"" style=""border:16px solid orange"">","null","","","","","","","","","",""
"null","","html-keyboard-response","111","106474","0.0-111.0","3OONKJ5DKD5X1VC4YG3IZAHAI0QBOA","A1UCB0D27PY623","3GVPRXWRPHGYHD0HW29VLS36FVC7I4","","","null","","","","","","","","","",""
"839.9000000059605","","image-keyboard-response","112","107315","0.0-112.0","3OONKJ5DKD5X1VC4YG3IZAHAI0QBOA","A1UCB0D27PY623","3GVPRXWRPHGYHD0HW29VLS36FVC7I4","","img/set1/S3.jpg","72","3","random","72","random,structured_normal,structured_incentive,structured_load","1,2,4,2,2,3","3,4,1,2","true","","",""
"null","","html-keyboard-response","113","107666","0.0-113.0","3OONKJ5DKD5X1VC4YG3IZAHAI0QBOA","A1UCB0D27PY623","3GVPRXWRPHGYHD0HW29VLS36FVC7I4","","<img src=""img/set1/S3.jpg"" width=""540"" height = ""360"" style=""border:16px solid orange"">","null","","","","","","","","","",""
"null","","html-keyboard-response","114","107868","0.0-114.0","3OONKJ5DKD5X1VC4YG3IZAHAI0QBOA","A1UCB0D27PY623","3GVPRXWRPHGYHD0HW29VLS36FVC7I4","","","null","","","","","","","","","",""
"541.6999999880791","","image-keyboard-response","115","108411","0.0-115.0","3OONKJ5DKD5X1VC4YG3IZAHAI0QBOA","A1UCB0D27PY623","3GVPRXWRPHGYHD0HW29VLS36FVC7I4","","img/set1/S2.jpg","68","2","random","68","random,structured_normal,structured_incentive,structured_load","1,2,4,2,2,3","3,4,1,2","true","","",""
"null","","html-keyboard-response","116","108762","0.0-116.0","3OONKJ5DKD5X1VC4YG3IZAHAI0QBOA","A1UCB0D27PY623","3GVPRXWRPHGYHD0HW29VLS36FVC7I4","","<img src=""img/set1/S2.jpg"" width=""540"" height = ""360"" style=""border:16px solid orange"">","null","","","","","","","","","",""
"null","","html-keyboard-response","117","108963","0.0-117.0","3OONKJ5DKD5X1VC4YG3IZAHAI0QBOA","A1UCB0D27PY623","3GVPRXWRPHGYHD0HW29VLS36FVC7I4","","","null","","","","","","","","","",""
"519.3000000119209","","image-keyboard-response","118","109483","0.0-118.0","3OONKJ5DKD5X1VC4YG3IZAHAI0QBOA","A1UCB0D27PY623","3GVPRXWRPHGYHD0HW29VLS36FVC7I4","","img/set1/S4.jpg","74","4","random","74","random,structured_normal,structured_incentive,structured_load","1,2,4,2,2,3","3,4,1,2","true","","",""
"null","","html-keyboard-response","119","109834","0.0-119.0","3OONKJ5DKD5X1VC4YG3IZAHAI0QBOA","A1UCB0D27PY623","3GVPRXWRPHGYHD0HW29VLS36FVC7I4","","<img src=""img/set1/S4.jpg"" width=""540"" height = ""360"" style=""border:16px solid orange"">","null","","","","","","","","","",""
"null","","html-keyboard-response","120","110036","0.0-120.0","3OONKJ5DKD5X1VC4YG3IZAHAI0QBOA","A1UCB0D27PY623","3GVPRXWRPHGYHD0HW29VLS36FVC7I4","","","null","","","","","","","","","",""
"653.9000000059605","","image-keyboard-response","121","110691","0.0-121.0","3OONKJ5DKD5X1VC4YG3IZAHAI0QBOA","A1UCB0D27PY623","3GVPRXWRPHGYHD0HW29VLS36FVC7I4","","img/set1/S1.jpg","83","1","random","83","random,structured_normal,structured_incentive,structured_load","1,2,4,2,2,3","3,4,1,2","true","","",""
"null","","html-keyboard-response","122","111042","0.0-122.0","3OONKJ5DKD5X1VC4YG3IZAHAI0QBOA","A1UCB0D27PY623","3GVPRXWRPHGYHD0HW29VLS36FVC7I4","","<img src=""img/set1/S1.jpg"" width=""540"" height = ""360"" style=""border:16px solid orange"">","null","","","","","","","","","",""
"null","","html-keyboard-response","123","111243","0.0-123.0","3OONKJ5DKD5X1VC4YG3IZAHAI0QBOA","A1UCB0D27PY623","3GVPRXWRPHGYHD0HW29VLS36FVC7I4","","","null","","","","","","","","","",""
"367.09999999403954","","image-keyboard-response","124","111611","0.0-124.0","3OONKJ5DKD5X1VC4YG3IZAHAI0QBOA","A1UCB0D27PY623","3GVPRXWRPHGYHD0HW29VLS36FVC7I4","","img/set1/S1.jpg","83","1","random","83","random,structured_normal,structured_incentive,structured_load","1,2,4,2,2,3","3,4,1,2","true","","",""
"null","","html-keyboard-response","125","111963","0.0-125.0","3OONKJ5DKD5X1VC4YG3IZAHAI0QBOA","A1UCB0D27PY623","3GVPRXWRPHGYHD0HW29VLS36FVC7I4","","<img src=""img/set1/S1.jpg"" width=""540"" height = ""360"" style=""border:16px solid orange"">","null","","","","","","","","","",""
"null","","html-keyboard-response","126","112164","0.0-126.0","3OONKJ5DKD5X1VC4YG3IZAHAI0QBOA","A1UCB0D27PY623","3GVPRXWRPHGYHD0HW29VLS36FVC7I4","","","null","","","","","","","","","",""
"670.0999999940395","","image-keyboard-response","127","112835","0.0-127.0","3OONKJ5DKD5X1VC4YG3IZAHAI0QBOA","A1UCB0D27PY623","3GVPRXWRPHGYHD0HW29VLS36FVC7I4","","img/set1/S4.jpg","72","4","random","74","random,structured_normal,structured_incentive,structured_load","1,2,4,2,2,3","3,4,1,2","false","","",""
"null","","html-keyboard-response","128","113187","0.0-128.0","3OONKJ5DKD5X1VC4YG3IZAHAI0QBOA","A1UCB0D27PY623","3GVPRXWRPHGYHD0HW29VLS36FVC7I4","","<img src=""img/set1/S4.jpg"" width=""540"" height = ""360"">","null","","","","","","","","","",""
"null","","html-keyboard-response","129","113388","0.0-129.0","3OONKJ5DKD5X1VC4YG3IZAHAI0QBOA","A1UCB0D27PY623","3GVPRXWRPHGYHD0HW29VLS36FVC7I4","","","null","","","","","","","","","",""
"607.1000000238419","","image-keyboard-response","130","113995","0.0-130.0","3OONKJ5DKD5X1VC4YG3IZAHAI0QBOA","A1UCB0D27PY623","3GVPRXWRPHGYHD0HW29VLS36FVC7I4","","img/set1/S1.jpg","68","1","random","83","random,structured_normal,structured_incentive,structured_load","1,2,4,2,2,3","3,4,1,2","false","","",""
"null","","html-keyboard-response","131","114347","0.0-131.0","3OONKJ5DKD5X1VC4YG3IZAHAI0QBOA","A1UCB0D27PY623","3GVPRXWRPHGYHD0HW29VLS36FVC7I4","","<img src=""img/set1/S1.jpg"" width=""540"" height = ""360"">","null","","","","","","","","","",""
"null","","html-keyboard-response","132","114548","0.0-132.0","3OONKJ5DKD5X1VC4YG3IZAHAI0QBOA","A1UCB0D27PY623","3GVPRXWRPHGYHD0HW29VLS36FVC7I4","","","null","","","","","","","","","",""
"838.5999999940395","","image-keyboard-response","133","115388","0.0-133.0","3OONKJ5DKD5X1VC4YG3IZAHAI0QBOA","A1UCB0D27PY623","3GVPRXWRPHGYHD0HW29VLS36FVC7I4","","img/set1/S3.jpg","72","3","random","72","random,structured_normal,structured_incentive,structured_load","1,2,4,2,2,3","3,4,1,2","true","","",""
"null","","html-keyboard-response","134","115739","0.0-134.0","3OONKJ5DKD5X1VC4YG3IZAHAI0QBOA","A1UCB0D27PY623","3GVPRXWRPHGYHD0HW29VLS36FVC7I4","","<img src=""img/set1/S3.jpg"" width=""540"" height = ""360"" style=""border:16px solid orange"">","null","","","","","","","","","",""
"null","","html-keyboard-response","135","115942","0.0-135.0","3OONKJ5DKD5X1VC4YG3IZAHAI0QBOA","A1UCB0D27PY623","3GVPRXWRPHGYHD0HW29VLS36FVC7I4","","","null","","","","","","","","","",""
"525.5","","image-keyboard-response","136","116468","0.0-136.0","3OONKJ5DKD5X1VC4YG3IZAHAI0QBOA","A1UCB0D27PY623","3GVPRXWRPHGYHD0HW29VLS36FVC7I4","","img/set1/S1.jpg","83","1","random","83","random,structured_normal,structured_incentive,structured_load","1,2,4,2,2,3","3,4,1,2","true","","",""
"null","","html-keyboard-response","137","116820","0.0-137.0","3OONKJ5DKD5X1VC4YG3IZAHAI0QBOA","A1UCB0D27PY623","3GVPRXWRPHGYHD0HW29VLS36FVC7I4","","<img src=""img/set1/S1.jpg"" width=""540"" height = ""360"" style=""border:16px solid orange"">","null","","","","","","","","","",""
"null","","html-keyboard-response","138","117021","0.0-138.0","3OONKJ5DKD5X1VC4YG3IZAHAI0QBOA","A1UCB0D27PY623","3GVPRXWRPHGYHD0HW29VLS36FVC7I4","","","null","","","","","","","","","",""
"670.6000000238419","","image-keyboard-response","139","117692","0.0-139.0","3OONKJ5DKD5X1VC4YG3IZAHAI0QBOA","A1UCB0D27PY623","3GVPRXWRPHGYHD0HW29VLS36FVC7I4","","img/set1/S2.jpg","68","2","random","68","random,structured_normal,structured_incentive,structured_load","1,2,4,2,2,3","3,4,1,2","true","","",""
"null","","html-keyboard-response","140","118043","0.0-140.0","3OONKJ5DKD5X1VC4YG3IZAHAI0QBOA","A1UCB0D27PY623","3GVPRXWRPHGYHD0HW29VLS36FVC7I4","","<img src=""img/set1/S2.jpg"" width=""540"" height = ""360"" style=""border:16px solid orange"">","null","","","","","","","","","",""
"null","","html-keyboard-response","141","118245","0.0-141.0","3OONKJ5DKD5X1VC4YG3IZAHAI0QBOA","A1UCB0D27PY623","3GVPRXWRPHGYHD0HW29VLS36FVC7I4","","","null","","","","","","","","","",""
"758.8000000119209","","image-keyboard-response","142","119004","0.0-142.0","3OONKJ5DKD5X1VC4YG3IZAHAI0QBOA","A1UCB0D27PY623","3GVPRXWRPHGYHD0HW29VLS36FVC7I4","","img/set1/S3.jpg","74","3","random","72","random,structured_normal,structured_incentive,structured_load","1,2,4,2,2,3","3,4,1,2","false","","",""
"null","","html-keyboard-response","143","119356","0.0-143.0","3OONKJ5DKD5X1VC4YG3IZAHAI0QBOA","A1UCB0D27PY623","3GVPRXWRPHGYHD0HW29VLS36FVC7I4","","<img src=""img/set1/S3.jpg"" width=""540"" height = ""360"">","null","","","","","","","","","",""
"null","","html-keyboard-response","144","119557","0.0-144.0","3OONKJ5DKD5X1VC4YG3IZAHAI0QBOA","A1UCB0D27PY623","3GVPRXWRPHGYHD0HW29VLS36FVC7I4","","","null","","","","","","","","","",""
"726.1999999880791","","image-keyboard-response","145","120284","0.0-145.0","3OONKJ5DKD5X1VC4YG3IZAHAI0QBOA","A1UCB0D27PY623","3GVPRXWRPHGYHD0HW29VLS36FVC7I4","","img/set1/S2.jpg","68","2","random","68","random,structured_normal,structured_incentive,structured_load","1,2,4,2,2,3","3,4,1,2","true","","",""
"null","","html-keyboard-response","146","120636","0.0-146.0","3OONKJ5DKD5X1VC4YG3IZAHAI0QBOA","A1UCB0D27PY623","3GVPRXWRPHGYHD0HW29VLS36FVC7I4","","<img src=""img/set1/S2.jpg"" width=""540"" height = ""360"" style=""border:16px solid orange"">","null","","","","","","","","","",""
"null","","html-keyboard-response","147","120837","0.0-147.0","3OONKJ5DKD5X1VC4YG3IZAHAI0QBOA","A1UCB0D27PY623","3GVPRXWRPHGYHD0HW29VLS36FVC7I4","","","null","","","","","","","","","",""
"534.5999999940395","","image-keyboard-response","148","121372","0.0-148.0","3OONKJ5DKD5X1VC4YG3IZAHAI0QBOA","A1UCB0D27PY623","3GVPRXWRPHGYHD0HW29VLS36FVC7I4","","img/set1/S1.jpg","83","1","random","83","random,structured_normal,structured_incentive,structured_load","1,2,4,2,2,3","3,4,1,2","true","","",""
"null","","html-keyboard-response","149","121725","0.0-149.0","3OONKJ5DKD5X1VC4YG3IZAHAI0QBOA","A1UCB0D27PY623","3GVPRXWRPHGYHD0HW29VLS36FVC7I4","","<img src=""img/set1/S1.jpg"" width=""540"" height = ""360"" style=""border:16px solid orange"">","null","","","","","","","","","",""
"null","","html-keyboard-response","150","121926","0.0-150.0","3OONKJ5DKD5X1VC4YG3IZAHAI0QBOA","A1UCB0D27PY623","3GVPRXWRPHGYHD0HW29VLS36FVC7I4","","","null","","","","","","","","","",""
"565.6000000238419","","image-keyboard-response","151","122493","0.0-151.0","3OONKJ5DKD5X1VC4YG3IZAHAI0QBOA","A1UCB0D27PY623","3GVPRXWRPHGYHD0HW29VLS36FVC7I4","","img/set1/S3.jpg","72","3","random","72","random,structured_normal,structured_incentive,structured_load","1,2,4,2,2,3","3,4,1,2","true","","",""
"null","","html-keyboard-response","152","122844","0.0-152.0","3OONKJ5DKD5X1VC4YG3IZAHAI0QBOA","A1UCB0D27PY623","3GVPRXWRPHGYHD0HW29VLS36FVC7I4","","<img src=""img/set1/S3.jpg"" width=""540"" height = ""360"" style=""border:16px solid orange"">","null","","","","","","","","","",""
"null","","html-keyboard-response","153","123046","0.0-153.0","3OONKJ5DKD5X1VC4YG3IZAHAI0QBOA","A1UCB0D27PY623","3GVPRXWRPHGYHD0HW29VLS36FVC7I4","","","null","","","","","","","","","",""
"614.9000000059605","","image-keyboard-response","154","123662","0.0-154.0","3OONKJ5DKD5X1VC4YG3IZAHAI0QBOA","A1UCB0D27PY623","3GVPRXWRPHGYHD0HW29VLS36FVC7I4","","img/set1/S2.jpg","68","2","random","68","random,structured_normal,structured_incentive,structured_load","1,2,4,2,2,3","3,4,1,2","true","","",""
"null","","html-keyboard-response","155","124015","0.0-155.0","3OONKJ5DKD5X1VC4YG3IZAHAI0QBOA","A1UCB0D27PY623","3GVPRXWRPHGYHD0HW29VLS36FVC7I4","","<img src=""img/set1/S2.jpg"" width=""540"" height = ""360"" style=""border:16px solid orange"">","null","","","","","","","","","",""
"null","","html-keyboard-response","156","124217","0.0-156.0","3OONKJ5DKD5X1VC4YG3IZAHAI0QBOA","A1UCB0D27PY623","3GVPRXWRPHGYHD0HW29VLS36FVC7I4","","","null","","","","","","","","","",""
"515","","image-keyboard-response","157","124733","0.0-157.0","3OONKJ5DKD5X1VC4YG3IZAHAI0QBOA","A1UCB0D27PY623","3GVPRXWRPHGYHD0HW29VLS36FVC7I4","","img/set1/S2.jpg","68","2","random","68","random,structured_normal,structured_incentive,structured_load","1,2,4,2,2,3","3,4,1,2","true","","",""
"null","","html-keyboard-response","158","125084","0.0-158.0","3OONKJ5DKD5X1VC4YG3IZAHAI0QBOA","A1UCB0D27PY623","3GVPRXWRPHGYHD0HW29VLS36FVC7I4","","<img src=""img/set1/S2.jpg"" width=""540"" height = ""360"" style=""border:16px solid orange"">","null","","","","","","","","","",""
"null","","html-keyboard-response","159","125285","0.0-159.0","3OONKJ5DKD5X1VC4YG3IZAHAI0QBOA","A1UCB0D27PY623","3GVPRXWRPHGYHD0HW29VLS36FVC7I4","","","null","","","","","","","","","",""
"591","","image-keyboard-response","160","125877","0.0-160.0","3OONKJ5DKD5X1VC4YG3IZAHAI0QBOA","A1UCB0D27PY623","3GVPRXWRPHGYHD0HW29VLS36FVC7I4","","img/set1/S3.jpg","72","3","random","72","random,structured_normal,structured_incentive,structured_load","1,2,4,2,2,3","3,4,1,2","true","","",""
"null","","html-keyboard-response","161","126228","0.0-161.0","3OONKJ5DKD5X1VC4YG3IZAHAI0QBOA","A1UCB0D27PY623","3GVPRXWRPHGYHD0HW29VLS36FVC7I4","","<img src=""img/set1/S3.jpg"" width=""540"" height = ""360"" style=""border:16px solid orange"">","null","","","","","","","","","",""
"null","","html-keyboard-response","162","126430","0.0-162.0","3OONKJ5DKD5X1VC4YG3IZAHAI0QBOA","A1UCB0D27PY623","3GVPRXWRPHGYHD0HW29VLS36FVC7I4","","","null","","","","","","","","","",""
"598.4000000059605","","image-keyboard-response","163","127029","0.0-163.0","3OONKJ5DKD5X1VC4YG3IZAHAI0QBOA","A1UCB0D27PY623","3GVPRXWRPHGYHD0HW29VLS36FVC7I4","","img/set1/S4.jpg","74","4","random","74","random,structured_normal,structured_incentive,structured_load","1,2,4,2,2,3","3,4,1,2","true","","",""
"null","","html-keyboard-response","164","127383","0.0-164.0","3OONKJ5DKD5X1VC4YG3IZAHAI0QBOA","A1UCB0D27PY623","3GVPRXWRPHGYHD0HW29VLS36FVC7I4","","<img src=""img/set1/S4.jpg"" width=""540"" height = ""360"" style=""border:16px solid orange"">","null","","","","","","","","","",""
"null","","html-keyboard-response","165","127585","0.0-165.0","3OONKJ5DKD5X1VC4YG3IZAHAI0QBOA","A1UCB0D27PY623","3GVPRXWRPHGYHD0HW29VLS36FVC7I4","","","null","","","","","","","","","",""
"395.69999998807907","","image-keyboard-response","166","127981","0.0-166.0","3OONKJ5DKD5X1VC4YG3IZAHAI0QBOA","A1UCB0D27PY623","3GVPRXWRPHGYHD0HW29VLS36FVC7I4","","img/set1/S4.jpg","74","4","random","74","random,structured_normal,structured_incentive,structured_load","1,2,4,2,2,3","3,4,1,2","true","","",""
"null","","html-keyboard-response","167","128333","0.0-167.0","3OONKJ5DKD5X1VC4YG3IZAHAI0QBOA","A1UCB0D27PY623","3GVPRXWRPHGYHD0HW29VLS36FVC7I4","","<img src=""img/set1/S4.jpg"" width=""540"" height = ""360"" style=""border:16px solid orange"">","null","","","","","","","","","",""
"null","","html-keyboard-response","168","128535","0.0-168.0","3OONKJ5DKD5X1VC4YG3IZAHAI0QBOA","A1UCB0D27PY623","3GVPRXWRPHGYHD0HW29VLS36FVC7I4","","","null","","","","","","","","","",""
"757.8000000119209","","image-keyboard-response","169","129293","0.0-169.0","3OONKJ5DKD5X1VC4YG3IZAHAI0QBOA","A1UCB0D27PY623","3GVPRXWRPHGYHD0HW29VLS36FVC7I4","","img/set1/S3.jpg","68","3","random","72","random,structured_normal,structured_incentive,structured_load","1,2,4,2,2,3","3,4,1,2","false","","",""
"null","","html-keyboard-response","170","129645","0.0-170.0","3OONKJ5DKD5X1VC4YG3IZAHAI0QBOA","A1UCB0D27PY623","3GVPRXWRPHGYHD0HW29VLS36FVC7I4","","<img src=""img/set1/S3.jpg"" width=""540"" height = ""360"">","null","","","","","","","","","",""
"null","","html-keyboard-response","171","129846","0.0-171.0","3OONKJ5DKD5X1VC4YG3IZAHAI0QBOA","A1UCB0D27PY623","3GVPRXWRPHGYHD0HW29VLS36FVC7I4","","","null","","","","","","","","","",""
"598.8999999761581","","image-keyboard-response","172","130445","0.0-172.0","3OONKJ5DKD5X1VC4YG3IZAHAI0QBOA","A1UCB0D27PY623","3GVPRXWRPHGYHD0HW29VLS36FVC7I4","","img/set1/S2.jpg","68","2","random","68","random,structured_normal,structured_incentive,structured_load","1,2,4,2,2,3","3,4,1,2","true","","",""
"null","","html-keyboard-response","173","130797","0.0-173.0","3OONKJ5DKD5X1VC4YG3IZAHAI0QBOA","A1UCB0D27PY623","3GVPRXWRPHGYHD0HW29VLS36FVC7I4","","<img src=""img/set1/S2.jpg"" width=""540"" height = ""360"" style=""border:16px solid orange"">","null","","","","","","","","","",""
"null","","html-keyboard-response","174","130998","0.0-174.0","3OONKJ5DKD5X1VC4YG3IZAHAI0QBOA","A1UCB0D27PY623","3GVPRXWRPHGYHD0HW29VLS36FVC7I4","","","null","","","","","","","","","",""
"438.90000000596046","","image-keyboard-response","175","131438","0.0-175.0","3OONKJ5DKD5X1VC4YG3IZAHAI0QBOA","A1UCB0D27PY623","3GVPRXWRPHGYHD0HW29VLS36FVC7I4","","img/set1/S2.jpg","68","2","random","68","random,structured_normal,structured_incentive,structured_load","1,2,4,2,2,3","3,4,1,2","true","","",""
"null","","html-keyboard-response","176","131789","0.0-176.0","3OONKJ5DKD5X1VC4YG3IZAHAI0QBOA","A1UCB0D27PY623","3GVPRXWRPHGYHD0HW29VLS36FVC7I4","","<img src=""img/set1/S2.jpg"" width=""540"" height = ""360"" style=""border:16px solid orange"">","null","","","","","","","","","",""
"null","","html-keyboard-response","177","131991","0.0-177.0","3OONKJ5DKD5X1VC4YG3IZAHAI0QBOA","A1UCB0D27PY623","3GVPRXWRPHGYHD0HW29VLS36FVC7I4","","","null","","","","","","","","","",""
"438","","image-keyboard-response","178","132430","0.0-178.0","3OONKJ5DKD5X1VC4YG3IZAHAI0QBOA","A1UCB0D27PY623","3GVPRXWRPHGYHD0HW29VLS36FVC7I4","","img/set1/S2.jpg","68","2","random","68","random,structured_normal,structured_incentive,structured_load","1,2,4,2,2,3","3,4,1,2","true","","",""
"null","","html-keyboard-response","179","132781","0.0-179.0","3OONKJ5DKD5X1VC4YG3IZAHAI0QBOA","A1UCB0D27PY623","3GVPRXWRPHGYHD0HW29VLS36FVC7I4","","<img src=""img/set1/S2.jpg"" width=""540"" height = ""360"" style=""border:16px solid orange"">","null","","","","","","","","","",""
"null","","html-keyboard-response","180","132982","0.0-180.0","3OONKJ5DKD5X1VC4YG3IZAHAI0QBOA","A1UCB0D27PY623","3GVPRXWRPHGYHD0HW29VLS36FVC7I4","","","null","","","","","","","","","",""
"591.2999999821186","","image-keyboard-response","181","133574","0.0-181.0","3OONKJ5DKD5X1VC4YG3IZAHAI0QBOA","A1UCB0D27PY623","3GVPRXWRPHGYHD0HW29VLS36FVC7I4","","img/set1/S1.jpg","83","1","random","83","random,structured_normal,structured_incentive,structured_load","1,2,4,2,2,3","3,4,1,2","true","","",""
"null","","html-keyboard-response","182","133925","0.0-182.0","3OONKJ5DKD5X1VC4YG3IZAHAI0QBOA","A1UCB0D27PY623","3GVPRXWRPHGYHD0HW29VLS36FVC7I4","","<img src=""img/set1/S1.jpg"" width=""540"" height = ""360"" style=""border:16px solid orange"">","null","","","","","","","","","",""
"null","","html-keyboard-response","183","134128","0.0-183.0","3OONKJ5DKD5X1VC4YG3IZAHAI0QBOA","A1UCB0D27PY623","3GVPRXWRPHGYHD0HW29VLS36FVC7I4","","","null","","","","","","","","","",""
"398.7000000178814","","image-keyboard-response","184","134527","0.0-184.0","3OONKJ5DKD5X1VC4YG3IZAHAI0QBOA","A1UCB0D27PY623","3GVPRXWRPHGYHD0HW29VLS36FVC7I4","","img/set1/S4.jpg","83","4","random","74","random,structured_normal,structured_incentive,structured_load","1,2,4,2,2,3","3,4,1,2","false","","",""
"null","","html-keyboard-response","185","134879","0.0-185.0","3OONKJ5DKD5X1VC4YG3IZAHAI0QBOA","A1UCB0D27PY623","3GVPRXWRPHGYHD0HW29VLS36FVC7I4","","<img src=""img/set1/S4.jpg"" width=""540"" height = ""360"">","null","","","","","","","","","",""
"null","","html-keyboard-response","186","135080","0.0-186.0","3OONKJ5DKD5X1VC4YG3IZAHAI0QBOA","A1UCB0D27PY623","3GVPRXWRPHGYHD0HW29VLS36FVC7I4","","","null","","","","","","","","","",""
"877.8000000119209","","image-keyboard-response","187","135959","0.0-187.0","3OONKJ5DKD5X1VC4YG3IZAHAI0QBOA","A1UCB0D27PY623","3GVPRXWRPHGYHD0HW29VLS36FVC7I4","","img/set1/S3.jpg","72","3","random","72","random,structured_normal,structured_incentive,structured_load","1,2,4,2,2,3","3,4,1,2","true","","",""
"null","","html-keyboard-response","188","136311","0.0-188.0","3OONKJ5DKD5X1VC4YG3IZAHAI0QBOA","A1UCB0D27PY623","3GVPRXWRPHGYHD0HW29VLS36FVC7I4","","<img src=""img/set1/S3.jpg"" width=""540"" height = ""360"" style=""border:16px solid orange"">","null","","","","","","","","","",""
"null","","html-keyboard-response","189","136526","0.0-189.0","3OONKJ5DKD5X1VC4YG3IZAHAI0QBOA","A1UCB0D27PY623","3GVPRXWRPHGYHD0HW29VLS36FVC7I4","","","null","","","","","","","","","",""
"407.59999999403954","","image-keyboard-response","190","136934","0.0-190.0","3OONKJ5DKD5X1VC4YG3IZAHAI0QBOA","A1UCB0D27PY623","3GVPRXWRPHGYHD0HW29VLS36FVC7I4","","img/set1/S4.jpg","74","4","random","74","random,structured_normal,structured_incentive,structured_load","1,2,4,2,2,3","3,4,1,2","true","","",""
"null","","html-keyboard-response","191","137286","0.0-191.0","3OONKJ5DKD5X1VC4YG3IZAHAI0QBOA","A1UCB0D27PY623","3GVPRXWRPHGYHD0HW29VLS36FVC7I4","","<img src=""img/set1/S4.jpg"" width=""540"" height = ""360"" style=""border:16px solid orange"">","null","","","","","","","","","",""
"null","","html-keyboard-response","192","137488","0.0-192.0","3OONKJ5DKD5X1VC4YG3IZAHAI0QBOA","A1UCB0D27PY623","3GVPRXWRPHGYHD0HW29VLS36FVC7I4","","","null","","","","","","","","","",""
"605.6000000238419","","image-keyboard-response","193","138095","0.0-193.0","3OONKJ5DKD5X1VC4YG3IZAHAI0QBOA","A1UCB0D27PY623","3GVPRXWRPHGYHD0HW29VLS36FVC7I4","","img/set1/S1.jpg","83","1","random","83","random,structured_normal,structured_incentive,structured_load","1,2,4,2,2,3","3,4,1,2","true","","",""
"null","","html-keyboard-response","194","138448","0.0-194.0","3OONKJ5DKD5X1VC4YG3IZAHAI0QBOA","A1UCB0D27PY623","3GVPRXWRPHGYHD0HW29VLS36FVC7I4","","<img src=""img/set1/S1.jpg"" width=""540"" height = ""360"" style=""border:16px solid orange"">","null","","","","","","","","","",""
"null","","html-keyboard-response","195","138649","0.0-195.0","3OONKJ5DKD5X1VC4YG3IZAHAI0QBOA","A1UCB0D27PY623","3GVPRXWRPHGYHD0HW29VLS36FVC7I4","","","null","","","","","","","","","",""
"581.4000000059605","","image-keyboard-response","196","139231","0.0-196.0","3OONKJ5DKD5X1VC4YG3IZAHAI0QBOA","A1UCB0D27PY623","3GVPRXWRPHGYHD0HW29VLS36FVC7I4","","img/set1/S4.jpg","74","4","random","74","random,structured_normal,structured_incentive,structured_load","1,2,4,2,2,3","3,4,1,2","true","","",""
"null","","html-keyboard-response","197","139582","0.0-197.0","3OONKJ5DKD5X1VC4YG3IZAHAI0QBOA","A1UCB0D27PY623","3GVPRXWRPHGYHD0HW29VLS36FVC7I4","","<img src=""img/set1/S4.jpg"" width=""540"" height = ""360"" style=""border:16px solid orange"">","null","","","","","","","","","",""
"null","","html-keyboard-response","198","139783","0.0-198.0","3OONKJ5DKD5X1VC4YG3IZAHAI0QBOA","A1UCB0D27PY623","3GVPRXWRPHGYHD0HW29VLS36FVC7I4","","","null","","","","","","","","","",""
"606.8999999761581","","image-keyboard-response","199","140391","0.0-199.0","3OONKJ5DKD5X1VC4YG3IZAHAI0QBOA","A1UCB0D27PY623","3GVPRXWRPHGYHD0HW29VLS36FVC7I4","","img/set1/S1.jpg","68","1","random","83","random,structured_normal,structured_incentive,structured_load","1,2,4,2,2,3","3,4,1,2","false","","",""
"null","","html-keyboard-response","200","140742","0.0-200.0","3OONKJ5DKD5X1VC4YG3IZAHAI0QBOA","A1UCB0D27PY623","3GVPRXWRPHGYHD0HW29VLS36FVC7I4","","<img src=""img/set1/S1.jpg"" width=""540"" height = ""360"">","null","","","","","","","","","",""
"null","","html-keyboard-response","201","140944","0.0-201.0","3OONKJ5DKD5X1VC4YG3IZAHAI0QBOA","A1UCB0D27PY623","3GVPRXWRPHGYHD0HW29VLS36FVC7I4","","","null","","","","","","","","","",""
"574.1000000238419","","image-keyboard-response","202","141519","0.0-202.0","3OONKJ5DKD5X1VC4YG3IZAHAI0QBOA","A1UCB0D27PY623","3GVPRXWRPHGYHD0HW29VLS36FVC7I4","","img/set1/S2.jpg","68","2","random","68","random,structured_normal,structured_incentive,structured_load","1,2,4,2,2,3","3,4,1,2","true","","",""
"null","","html-keyboard-response","203","141872","0.0-203.0","3OONKJ5DKD5X1VC4YG3IZAHAI0QBOA","A1UCB0D27PY623","3GVPRXWRPHGYHD0HW29VLS36FVC7I4","","<img src=""img/set1/S2.jpg"" width=""540"" height = ""360"" style=""border:16px solid orange"">","null","","","","","","","","","",""
"null","","html-keyboard-response","204","142073","0.0-204.0","3OONKJ5DKD5X1VC4YG3IZAHAI0QBOA","A1UCB0D27PY623","3GVPRXWRPHGYHD0HW29VLS36FVC7I4","","","null","","","","","","","","","",""
"549.0999999940395","","image-keyboard-response","205","142623","0.0-205.0","3OONKJ5DKD5X1VC4YG3IZAHAI0QBOA","A1UCB0D27PY623","3GVPRXWRPHGYHD0HW29VLS36FVC7I4","","img/set1/S1.jpg","83","1","random","83","random,structured_normal,structured_incentive,structured_load","1,2,4,2,2,3","3,4,1,2","true","","",""
"null","","html-keyboard-response","206","142974","0.0-206.0","3OONKJ5DKD5X1VC4YG3IZAHAI0QBOA","A1UCB0D27PY623","3GVPRXWRPHGYHD0HW29VLS36FVC7I4","","<img src=""img/set1/S1.jpg"" width=""540"" height = ""360"" style=""border:16px solid orange"">","null","","","","","","","","","",""
"null","","html-keyboard-response","207","143175","0.0-207.0","3OONKJ5DKD5X1VC4YG3IZAHAI0QBOA","A1UCB0D27PY623","3GVPRXWRPHGYHD0HW29VLS36FVC7I4","","","null","","","","","","","","","",""
"727.4000000059605","","image-keyboard-response","208","143903","0.0-208.0","3OONKJ5DKD5X1VC4YG3IZAHAI0QBOA","A1UCB0D27PY623","3GVPRXWRPHGYHD0HW29VLS36FVC7I4","","img/set1/S2.jpg","68","2","random","68","random,structured_normal,structured_incentive,structured_load","1,2,4,2,2,3","3,4,1,2","true","","",""
"null","","html-keyboard-response","209","144254","0.0-209.0","3OONKJ5DKD5X1VC4YG3IZAHAI0QBOA","A1UCB0D27PY623","3GVPRXWRPHGYHD0HW29VLS36FVC7I4","","<img src=""img/set1/S2.jpg"" width=""540"" height = ""360"" style=""border:16px solid orange"">","null","","","","","","","","","",""
"null","","html-keyboard-response","210","144456","0.0-210.0","3OONKJ5DKD5X1VC4YG3IZAHAI0QBOA","A1UCB0D27PY623","3GVPRXWRPHGYHD0HW29VLS36FVC7I4","","","null","","","","","","","","","",""
"447.80000001192093","","image-keyboard-response","211","144905","0.0-211.0","3OONKJ5DKD5X1VC4YG3IZAHAI0QBOA","A1UCB0D27PY623","3GVPRXWRPHGYHD0HW29VLS36FVC7I4","","img/set1/S2.jpg","68","2","random","68","random,structured_normal,structured_incentive,structured_load","1,2,4,2,2,3","3,4,1,2","true","","",""
"null","","html-keyboard-response","212","145257","0.0-212.0","3OONKJ5DKD5X1VC4YG3IZAHAI0QBOA","A1UCB0D27PY623","3GVPRXWRPHGYHD0HW29VLS36FVC7I4","","<img src=""img/set1/S2.jpg"" width=""540"" height = ""360"" style=""border:16px solid orange"">","null","","","","","","","","","",""
"null","","html-keyboard-response","213","145458","0.0-213.0","3OONKJ5DKD5X1VC4YG3IZAHAI0QBOA","A1UCB0D27PY623","3GVPRXWRPHGYHD0HW29VLS36FVC7I4","","","null","","","","","","","","","",""
"892.9000000059605","","image-keyboard-response","214","146351","0.0-214.0","3OONKJ5DKD5X1VC4YG3IZAHAI0QBOA","A1UCB0D27PY623","3GVPRXWRPHGYHD0HW29VLS36FVC7I4","","img/set1/S3.jpg","74","3","random","72","random,structured_normal,structured_incentive,structured_load","1,2,4,2,2,3","3,4,1,2","false","","",""
"null","","html-keyboard-response","215","146703","0.0-215.0","3OONKJ5DKD5X1VC4YG3IZAHAI0QBOA","A1UCB0D27PY623","3GVPRXWRPHGYHD0HW29VLS36FVC7I4","","<img src=""img/set1/S3.jpg"" width=""540"" height = ""360"">","null","","","","","","","","","",""
"null","","html-keyboard-response","216","146904","0.0-216.0","3OONKJ5DKD5X1VC4YG3IZAHAI0QBOA","A1UCB0D27PY623","3GVPRXWRPHGYHD0HW29VLS36FVC7I4","","","null","","","","","","","","","",""
"559.2000000178814","","image-keyboard-response","217","147464","0.0-217.0","3OONKJ5DKD5X1VC4YG3IZAHAI0QBOA","A1UCB0D27PY623","3GVPRXWRPHGYHD0HW29VLS36FVC7I4","","img/set1/S4.jpg","74","4","random","74","random,structured_normal,structured_incentive,structured_load","1,2,4,2,2,3","3,4,1,2","true","","",""
"null","","html-keyboard-response","218","147815","0.0-218.0","3OONKJ5DKD5X1VC4YG3IZAHAI0QBOA","A1UCB0D27PY623","3GVPRXWRPHGYHD0HW29VLS36FVC7I4","","<img src=""img/set1/S4.jpg"" width=""540"" height = ""360"" style=""border:16px solid orange"">","null","","","","","","","","","",""
"null","","html-keyboard-response","219","148016","0.0-219.0","3OONKJ5DKD5X1VC4YG3IZAHAI0QBOA","A1UCB0D27PY623","3GVPRXWRPHGYHD0HW29VLS36FVC7I4","","","null","","","","","","","","","",""
"519.0999999940395","","image-keyboard-response","220","148536","0.0-220.0","3OONKJ5DKD5X1VC4YG3IZAHAI0QBOA","A1UCB0D27PY623","3GVPRXWRPHGYHD0HW29VLS36FVC7I4","","img/set1/S1.jpg","83","1","random","83","random,structured_normal,structured_incentive,structured_load","1,2,4,2,2,3","3,4,1,2","true","","",""
"null","","html-keyboard-response","221","148888","0.0-221.0","3OONKJ5DKD5X1VC4YG3IZAHAI0QBOA","A1UCB0D27PY623","3GVPRXWRPHGYHD0HW29VLS36FVC7I4","","<img src=""img/set1/S1.jpg"" width=""540"" height = ""360"" style=""border:16px solid orange"">","null","","","","","","","","","",""
"null","","html-keyboard-response","222","149089","0.0-222.0","3OONKJ5DKD5X1VC4YG3IZAHAI0QBOA","A1UCB0D27PY623","3GVPRXWRPHGYHD0HW29VLS36FVC7I4","","","null","","","","","","","","","",""
"381.59999999403954","","image-keyboard-response","223","149472","0.0-223.0","3OONKJ5DKD5X1VC4YG3IZAHAI0QBOA","A1UCB0D27PY623","3GVPRXWRPHGYHD0HW29VLS36FVC7I4","","img/set1/S1.jpg","83","1","random","83","random,structured_normal,structured_incentive,structured_load","1,2,4,2,2,3","3,4,1,2","true","","",""
"null","","html-keyboard-response","224","149823","0.0-224.0","3OONKJ5DKD5X1VC4YG3IZAHAI0QBOA","A1UCB0D27PY623","3GVPRXWRPHGYHD0HW29VLS36FVC7I4","","<img src=""img/set1/S1.jpg"" width=""540"" height = ""360"" style=""border:16px solid orange"">","null","","","","","","","","","",""
"null","","html-keyboard-response","225","150025","0.0-225.0","3OONKJ5DKD5X1VC4YG3IZAHAI0QBOA","A1UCB0D27PY623","3GVPRXWRPHGYHD0HW29VLS36FVC7I4","","","null","","","","","","","","","",""
"390.80000001192093","","image-keyboard-response","226","150416","0.0-226.0","3OONKJ5DKD5X1VC4YG3IZAHAI0QBOA","A1UCB0D27PY623","3GVPRXWRPHGYHD0HW29VLS36FVC7I4","","img/set1/S1.jpg","83","1","random","83","random,structured_normal,structured_incentive,structured_load","1,2,4,2,2,3","3,4,1,2","true","","",""
"null","","html-keyboard-response","227","150768","0.0-227.0","3OONKJ5DKD5X1VC4YG3IZAHAI0QBOA","A1UCB0D27PY623","3GVPRXWRPHGYHD0HW29VLS36FVC7I4","","<img src=""img/set1/S1.jpg"" width=""540"" height = ""360"" style=""border:16px solid orange"">","null","","","","","","","","","",""
"null","","html-keyboard-response","228","150969","0.0-228.0","3OONKJ5DKD5X1VC4YG3IZAHAI0QBOA","A1UCB0D27PY623","3GVPRXWRPHGYHD0HW29VLS36FVC7I4","","","null","","","","","","","","","",""
"774.3000000119209","","image-keyboard-response","229","151744","0.0-229.0","3OONKJ5DKD5X1VC4YG3IZAHAI0QBOA","A1UCB0D27PY623","3GVPRXWRPHGYHD0HW29VLS36FVC7I4","","img/set1/S4.jpg","74","4","random","74","random,structured_normal,structured_incentive,structured_load","1,2,4,2,2,3","3,4,1,2","true","","",""
"null","","html-keyboard-response","230","152096","0.0-230.0","3OONKJ5DKD5X1VC4YG3IZAHAI0QBOA","A1UCB0D27PY623","3GVPRXWRPHGYHD0HW29VLS36FVC7I4","","<img src=""img/set1/S4.jpg"" width=""540"" height = ""360"" style=""border:16px solid orange"">","null","","","","","","","","","",""
"null","","html-keyboard-response","231","152296","0.0-231.0","3OONKJ5DKD5X1VC4YG3IZAHAI0QBOA","A1UCB0D27PY623","3GVPRXWRPHGYHD0HW29VLS36FVC7I4","","","null","","","","","","","","","",""
"631","","image-keyboard-response","232","152928","0.0-232.0","3OONKJ5DKD5X1VC4YG3IZAHAI0QBOA","A1UCB0D27PY623","3GVPRXWRPHGYHD0HW29VLS36FVC7I4","","img/set1/S2.jpg","68","2","random","68","random,structured_normal,structured_incentive,structured_load","1,2,4,2,2,3","3,4,1,2","true","","",""
"null","","html-keyboard-response","233","153280","0.0-233.0","3OONKJ5DKD5X1VC4YG3IZAHAI0QBOA","A1UCB0D27PY623","3GVPRXWRPHGYHD0HW29VLS36FVC7I4","","<img src=""img/set1/S2.jpg"" width=""540"" height = ""360"" style=""border:16px solid orange"">","null","","","","","","","","","",""
"null","","html-keyboard-response","234","153481","0.0-234.0","3OONKJ5DKD5X1VC4YG3IZAHAI0QBOA","A1UCB0D27PY623","3GVPRXWRPHGYHD0HW29VLS36FVC7I4","","","null","","","","","","","","","",""
"742.0999999940395","","image-keyboard-response","235","154224","0.0-235.0","3OONKJ5DKD5X1VC4YG3IZAHAI0QBOA","A1UCB0D27PY623","3GVPRXWRPHGYHD0HW29VLS36FVC7I4","","img/set1/S4.jpg","74","4","random","74","random,structured_normal,structured_incentive,structured_load","1,2,4,2,2,3","3,4,1,2","true","","",""
"null","","html-keyboard-response","236","154576","0.0-236.0","3OONKJ5DKD5X1VC4YG3IZAHAI0QBOA","A1UCB0D27PY623","3GVPRXWRPHGYHD0HW29VLS36FVC7I4","","<img src=""img/set1/S4.jpg"" width=""540"" height = ""360"" style=""border:16px solid orange"">","null","","","","","","","","","",""
"null","","html-keyboard-response","237","154776","0.0-237.0","3OONKJ5DKD5X1VC4YG3IZAHAI0QBOA","A1UCB0D27PY623","3GVPRXWRPHGYHD0HW29VLS36FVC7I4","","","null","","","","","","","","","",""
"576.7999999821186","","image-keyboard-response","238","155354","0.0-238.0","3OONKJ5DKD5X1VC4YG3IZAHAI0QBOA","A1UCB0D27PY623","3GVPRXWRPHGYHD0HW29VLS36FVC7I4","","img/set1/S2.jpg","68","2","random","68","random,structured_normal,structured_incentive,structured_load","1,2,4,2,2,3","3,4,1,2","true","","",""
"null","","html-keyboard-response","239","155706","0.0-239.0","3OONKJ5DKD5X1VC4YG3IZAHAI0QBOA","A1UCB0D27PY623","3GVPRXWRPHGYHD0HW29VLS36FVC7I4","","<img src=""img/set1/S2.jpg"" width=""540"" height = ""360"" style=""border:16px solid orange"">","null","","","","","","","","","",""
"null","","html-keyboard-response","240","155907","0.0-240.0","3OONKJ5DKD5X1VC4YG3IZAHAI0QBOA","A1UCB0D27PY623","3GVPRXWRPHGYHD0HW29VLS36FVC7I4","","","null","","","","","","","","","",""
"557","","image-keyboard-response","241","156465","0.0-241.0","3OONKJ5DKD5X1VC4YG3IZAHAI0QBOA","A1UCB0D27PY623","3GVPRXWRPHGYHD0HW29VLS36FVC7I4","","img/set1/S1.jpg","83","1","random","83","random,structured_normal,structured_incentive,structured_load","1,2,4,2,2,3","3,4,1,2","true","","",""
"null","","html-keyboard-response","242","156816","0.0-242.0","3OONKJ5DKD5X1VC4YG3IZAHAI0QBOA","A1UCB0D27PY623","3GVPRXWRPHGYHD0HW29VLS36FVC7I4","","<img src=""img/set1/S1.jpg"" width=""540"" height = ""360"" style=""border:16px solid orange"">","null","","","","","","","","","",""
"null","","html-keyboard-response","243","157018","0.0-243.0","3OONKJ5DKD5X1VC4YG3IZAHAI0QBOA","A1UCB0D27PY623","3GVPRXWRPHGYHD0HW29VLS36FVC7I4","","","null","","","","","","","","","",""
"734.9000000059605","","image-keyboard-response","244","157753","0.0-244.0","3OONKJ5DKD5X1VC4YG3IZAHAI0QBOA","A1UCB0D27PY623","3GVPRXWRPHGYHD0HW29VLS36FVC7I4","","img/set1/S2.jpg","68","2","random","68","random,structured_normal,structured_incentive,structured_load","1,2,4,2,2,3","3,4,1,2","true","","",""
"null","","html-keyboard-response","245","158104","0.0-245.0","3OONKJ5DKD5X1VC4YG3IZAHAI0QBOA","A1UCB0D27PY623","3GVPRXWRPHGYHD0HW29VLS36FVC7I4","","<img src=""img/set1/S2.jpg"" width=""540"" height = ""360"" style=""border:16px solid orange"">","null","","","","","","","","","",""
"null","","html-keyboard-response","246","158306","0.0-246.0","3OONKJ5DKD5X1VC4YG3IZAHAI0QBOA","A1UCB0D27PY623","3GVPRXWRPHGYHD0HW29VLS36FVC7I4","","","null","","","","","","","","","",""
"470.69999998807907","","image-keyboard-response","247","158777","0.0-247.0","3OONKJ5DKD5X1VC4YG3IZAHAI0QBOA","A1UCB0D27PY623","3GVPRXWRPHGYHD0HW29VLS36FVC7I4","","img/set1/S2.jpg","68","2","random","68","random,structured_normal,structured_incentive,structured_load","1,2,4,2,2,3","3,4,1,2","true","","",""
"null","","html-keyboard-response","248","159129","0.0-248.0","3OONKJ5DKD5X1VC4YG3IZAHAI0QBOA","A1UCB0D27PY623","3GVPRXWRPHGYHD0HW29VLS36FVC7I4","","<img src=""img/set1/S2.jpg"" width=""540"" height = ""360"" style=""border:16px solid orange"">","null","","","","","","","","","",""
"null","","html-keyboard-response","249","159329","0.0-249.0","3OONKJ5DKD5X1VC4YG3IZAHAI0QBOA","A1UCB0D27PY623","3GVPRXWRPHGYHD0HW29VLS36FVC7I4","","","null","","","","","","","","","",""
"655.0999999940395","","image-keyboard-response","250","159985","0.0-250.0","3OONKJ5DKD5X1VC4YG3IZAHAI0QBOA","A1UCB0D27PY623","3GVPRXWRPHGYHD0HW29VLS36FVC7I4","","img/set1/S1.jpg","83","1","random","83","random,structured_normal,structured_incentive,structured_load","1,2,4,2,2,3","3,4,1,2","true","","",""
"null","","html-keyboard-response","251","160338","0.0-251.0","3OONKJ5DKD5X1VC4YG3IZAHAI0QBOA","A1UCB0D27PY623","3GVPRXWRPHGYHD0HW29VLS36FVC7I4","","<img src=""img/set1/S1.jpg"" width=""540"" height = ""360"" style=""border:16px solid orange"">","null","","","","","","","","","",""
"null","","html-keyboard-response","252","160540","0.0-252.0","3OONKJ5DKD5X1VC4YG3IZAHAI0QBOA","A1UCB0D27PY623","3GVPRXWRPHGYHD0HW29VLS36FVC7I4","","","null","","","","","","","","","",""
"860.4000000059605","","image-keyboard-response","253","161401","0.0-253.0","3OONKJ5DKD5X1VC4YG3IZAHAI0QBOA","A1UCB0D27PY623","3GVPRXWRPHGYHD0HW29VLS36FVC7I4","","img/set1/S4.jpg","74","4","random","74","random,structured_normal,structured_incentive,structured_load","1,2,4,2,2,3","3,4,1,2","true","","",""
"null","","html-keyboard-response","254","161753","0.0-254.0","3OONKJ5DKD5X1VC4YG3IZAHAI0QBOA","A1UCB0D27PY623","3GVPRXWRPHGYHD0HW29VLS36FVC7I4","","<img src=""img/set1/S4.jpg"" width=""540"" height = ""360"" style=""border:16px solid orange"">","null","","","","","","","","","",""
"null","","html-keyboard-response","255","161955","0.0-255.0","3OONKJ5DKD5X1VC4YG3IZAHAI0QBOA","A1UCB0D27PY623","3GVPRXWRPHGYHD0HW29VLS36FVC7I4","","","null","","","","","","","","","",""
"677.9000000059605","","image-keyboard-response","256","162633","0.0-256.0","3OONKJ5DKD5X1VC4YG3IZAHAI0QBOA","A1UCB0D27PY623","3GVPRXWRPHGYHD0HW29VLS36FVC7I4","","img/set1/S2.jpg","68","2","random","68","random,structured_normal,structured_incentive,structured_load","1,2,4,2,2,3","3,4,1,2","true","","",""
"null","","html-keyboard-response","257","162985","0.0-257.0","3OONKJ5DKD5X1VC4YG3IZAHAI0QBOA","A1UCB0D27PY623","3GVPRXWRPHGYHD0HW29VLS36FVC7I4","","<img src=""img/set1/S2.jpg"" width=""540"" height = ""360"" style=""border:16px solid orange"">","null","","","","","","","","","",""
"null","","html-keyboard-response","258","163186","0.0-258.0","3OONKJ5DKD5X1VC4YG3IZAHAI0QBOA","A1UCB0D27PY623","3GVPRXWRPHGYHD0HW29VLS36FVC7I4","","","null","","","","","","","","","",""
"390.60000002384186","","image-keyboard-response","259","163578","0.0-259.0","3OONKJ5DKD5X1VC4YG3IZAHAI0QBOA","A1UCB0D27PY623","3GVPRXWRPHGYHD0HW29VLS36FVC7I4","","img/set1/S2.jpg","68","2","random","68","random,structured_normal,structured_incentive,structured_load","1,2,4,2,2,3","3,4,1,2","true","","",""
"null","","html-keyboard-response","260","163929","0.0-260.0","3OONKJ5DKD5X1VC4YG3IZAHAI0QBOA","A1UCB0D27PY623","3GVPRXWRPHGYHD0HW29VLS36FVC7I4","","<img src=""img/set1/S2.jpg"" width=""540"" height = ""360"" style=""border:16px solid orange"">","null","","","","","","","","","",""
"null","","html-keyboard-response","261","164130","0.0-261.0","3OONKJ5DKD5X1VC4YG3IZAHAI0QBOA","A1UCB0D27PY623","3GVPRXWRPHGYHD0HW29VLS36FVC7I4","","","null","","","","","","","","","",""
"622.5","","image-keyboard-response","262","164754","0.0-262.0","3OONKJ5DKD5X1VC4YG3IZAHAI0QBOA","A1UCB0D27PY623","3GVPRXWRPHGYHD0HW29VLS36FVC7I4","","img/set1/S4.jpg","74","4","random","74","random,structured_normal,structured_incentive,structured_load","1,2,4,2,2,3","3,4,1,2","true","","",""
"null","","html-keyboard-response","263","165105","0.0-263.0","3OONKJ5DKD5X1VC4YG3IZAHAI0QBOA","A1UCB0D27PY623","3GVPRXWRPHGYHD0HW29VLS36FVC7I4","","<img src=""img/set1/S4.jpg"" width=""540"" height = ""360"" style=""border:16px solid orange"">","null","","","","","","","","","",""
"null","","html-keyboard-response","264","165307","0.0-264.0","3OONKJ5DKD5X1VC4YG3IZAHAI0QBOA","A1UCB0D27PY623","3GVPRXWRPHGYHD0HW29VLS36FVC7I4","","","null","","","","","","","","","",""
"382.80000001192093","","image-keyboard-response","265","165691","0.0-265.0","3OONKJ5DKD5X1VC4YG3IZAHAI0QBOA","A1UCB0D27PY623","3GVPRXWRPHGYHD0HW29VLS36FVC7I4","","img/set1/S4.jpg","74","4","random","74","random,structured_normal,structured_incentive,structured_load","1,2,4,2,2,3","3,4,1,2","true","","",""
"null","","html-keyboard-response","266","166044","0.0-266.0","3OONKJ5DKD5X1VC4YG3IZAHAI0QBOA","A1UCB0D27PY623","3GVPRXWRPHGYHD0HW29VLS36FVC7I4","","<img src=""img/set1/S4.jpg"" width=""540"" height = ""360"" style=""border:16px solid orange"">","null","","","","","","","","","",""
"null","","html-keyboard-response","267","166246","0.0-267.0","3OONKJ5DKD5X1VC4YG3IZAHAI0QBOA","A1UCB0D27PY623","3GVPRXWRPHGYHD0HW29VLS36FVC7I4","","","null","","","","","","","","","",""
"579.3999999761581","","image-keyboard-response","268","166826","0.0-268.0","3OONKJ5DKD5X1VC4YG3IZAHAI0QBOA","A1UCB0D27PY623","3GVPRXWRPHGYHD0HW29VLS36FVC7I4","","img/set1/S1.jpg","83","1","random","83","random,structured_normal,structured_incentive,structured_load","1,2,4,2,2,3","3,4,1,2","true","","",""
"null","","html-keyboard-response","269","167177","0.0-269.0","3OONKJ5DKD5X1VC4YG3IZAHAI0QBOA","A1UCB0D27PY623","3GVPRXWRPHGYHD0HW29VLS36FVC7I4","","<img src=""img/set1/S1.jpg"" width=""540"" height = ""360"" style=""border:16px solid orange"">","null","","","","","","","","","",""
"null","","html-keyboard-response","270","167379","0.0-270.0","3OONKJ5DKD5X1VC4YG3IZAHAI0QBOA","A1UCB0D27PY623","3GVPRXWRPHGYHD0HW29VLS36FVC7I4","","","null","","","","","","","","","",""
"558.2000000178814","","image-keyboard-response","271","167938","0.0-271.0","3OONKJ5DKD5X1VC4YG3IZAHAI0QBOA","A1UCB0D27PY623","3GVPRXWRPHGYHD0HW29VLS36FVC7I4","","img/set1/S2.jpg","68","2","random","68","random,structured_normal,structured_incentive,structured_load","1,2,4,2,2,3","3,4,1,2","true","","",""
"null","","html-keyboard-response","272","168290","0.0-272.0","3OONKJ5DKD5X1VC4YG3IZAHAI0QBOA","A1UCB0D27PY623","3GVPRXWRPHGYHD0HW29VLS36FVC7I4","","<img src=""img/set1/S2.jpg"" width=""540"" height = ""360"" style=""border:16px solid orange"">","null","","","","","","","","","",""
"null","","html-keyboard-response","273","168510","0.0-273.0","3OONKJ5DKD5X1VC4YG3IZAHAI0QBOA","A1UCB0D27PY623","3GVPRXWRPHGYHD0HW29VLS36FVC7I4","","","null","","","","","","","","","",""
"364.09999999403954","","image-keyboard-response","274","168875","0.0-274.0","3OONKJ5DKD5X1VC4YG3IZAHAI0QBOA","A1UCB0D27PY623","3GVPRXWRPHGYHD0HW29VLS36FVC7I4","","img/set1/S2.jpg","68","2","random","68","random,structured_normal,structured_incentive,structured_load","1,2,4,2,2,3","3,4,1,2","true","","",""
"null","","html-keyboard-response","275","169226","0.0-275.0","3OONKJ5DKD5X1VC4YG3IZAHAI0QBOA","A1UCB0D27PY623","3GVPRXWRPHGYHD0HW29VLS36FVC7I4","","<img src=""img/set1/S2.jpg"" width=""540"" height = ""360"" style=""border:16px solid orange"">","null","","","","","","","","","",""
"null","","html-keyboard-response","276","169428","0.0-276.0","3OONKJ5DKD5X1VC4YG3IZAHAI0QBOA","A1UCB0D27PY623","3GVPRXWRPHGYHD0HW29VLS36FVC7I4","","","null","","","","","","","","","",""
"557.3000000119209","","image-keyboard-response","277","169986","0.0-277.0","3OONKJ5DKD5X1VC4YG3IZAHAI0QBOA","A1UCB0D27PY623","3GVPRXWRPHGYHD0HW29VLS36FVC7I4","","img/set1/S1.jpg","83","1","random","83","random,structured_normal,structured_incentive,structured_load","1,2,4,2,2,3","3,4,1,2","true","","",""
"null","","html-keyboard-response","278","170337","0.0-278.0","3OONKJ5DKD5X1VC4YG3IZAHAI0QBOA","A1UCB0D27PY623","3GVPRXWRPHGYHD0HW29VLS36FVC7I4","","<img src=""img/set1/S1.jpg"" width=""540"" height = ""360"" style=""border:16px solid orange"">","null","","","","","","","","","",""
"null","","html-keyboard-response","279","170538","0.0-279.0","3OONKJ5DKD5X1VC4YG3IZAHAI0QBOA","A1UCB0D27PY623","3GVPRXWRPHGYHD0HW29VLS36FVC7I4","","","null","","","","","","","","","",""
"383.19999998807907","","image-keyboard-response","280","170922","0.0-280.0","3OONKJ5DKD5X1VC4YG3IZAHAI0QBOA","A1UCB0D27PY623","3GVPRXWRPHGYHD0HW29VLS36FVC7I4","","img/set1/S1.jpg","83","1","random","83","random,structured_normal,structured_incentive,structured_load","1,2,4,2,2,3","3,4,1,2","true","","",""
"null","","html-keyboard-response","281","171273","0.0-281.0","3OONKJ5DKD5X1VC4YG3IZAHAI0QBOA","A1UCB0D27PY623","3GVPRXWRPHGYHD0HW29VLS36FVC7I4","","<img src=""img/set1/S1.jpg"" width=""540"" height = ""360"" style=""border:16px solid orange"">","null","","","","","","","","","",""
"null","","html-keyboard-response","282","171478","0.0-282.0","3OONKJ5DKD5X1VC4YG3IZAHAI0QBOA","A1UCB0D27PY623","3GVPRXWRPHGYHD0HW29VLS36FVC7I4","","","null","","","","","","","","","",""
"652.1000000238419","","image-keyboard-response","283","172131","0.0-283.0","3OONKJ5DKD5X1VC4YG3IZAHAI0QBOA","A1UCB0D27PY623","3GVPRXWRPHGYHD0HW29VLS36FVC7I4","","img/set1/S3.jpg","74","3","random","72","random,structured_normal,structured_incentive,structured_load","1,2,4,2,2,3","3,4,1,2","false","","",""
"null","","html-keyboard-response","284","172483","0.0-284.0","3OONKJ5DKD5X1VC4YG3IZAHAI0QBOA","A1UCB0D27PY623","3GVPRXWRPHGYHD0HW29VLS36FVC7I4","","<img src=""img/set1/S3.jpg"" width=""540"" height = ""360"">","null","","","","","","","","","",""
"null","","html-keyboard-response","285","172683","0.0-285.0","3OONKJ5DKD5X1VC4YG3IZAHAI0QBOA","A1UCB0D27PY623","3GVPRXWRPHGYHD0HW29VLS36FVC7I4","","","null","","","","","","","","","",""
"598.4000000059605","","image-keyboard-response","286","173283","0.0-286.0","3OONKJ5DKD5X1VC4YG3IZAHAI0QBOA","A1UCB0D27PY623","3GVPRXWRPHGYHD0HW29VLS36FVC7I4","","img/set1/S4.jpg","74","4","random","74","random,structured_normal,structured_incentive,structured_load","1,2,4,2,2,3","3,4,1,2","true","","",""
"null","","html-keyboard-response","287","173635","0.0-287.0","3OONKJ5DKD5X1VC4YG3IZAHAI0QBOA","A1UCB0D27PY623","3GVPRXWRPHGYHD0HW29VLS36FVC7I4","","<img src=""img/set1/S4.jpg"" width=""540"" height = ""360"" style=""border:16px solid orange"">","null","","","","","","","","","",""
"null","","html-keyboard-response","288","173836","0.0-288.0","3OONKJ5DKD5X1VC4YG3IZAHAI0QBOA","A1UCB0D27PY623","3GVPRXWRPHGYHD0HW29VLS36FVC7I4","","","null","","","","","","","","","",""
"534.0999999940395","","image-keyboard-response","289","174371","0.0-289.0","3OONKJ5DKD5X1VC4YG3IZAHAI0QBOA","A1UCB0D27PY623","3GVPRXWRPHGYHD0HW29VLS36FVC7I4","","img/set1/S2.jpg","68","2","random","68","random,structured_normal,structured_incentive,structured_load","1,2,4,2,2,3","3,4,1,2","true","","",""
"null","","html-keyboard-response","290","174722","0.0-290.0","3OONKJ5DKD5X1VC4YG3IZAHAI0QBOA","A1UCB0D27PY623","3GVPRXWRPHGYHD0HW29VLS36FVC7I4","","<img src=""img/set1/S2.jpg"" width=""540"" height = ""360"" style=""border:16px solid orange"">","null","","","","","","","","","",""
"null","","html-keyboard-response","291","174923","0.0-291.0","3OONKJ5DKD5X1VC4YG3IZAHAI0QBOA","A1UCB0D27PY623","3GVPRXWRPHGYHD0HW29VLS36FVC7I4","","","null","","","","","","","","","",""
"750.7999999821186","","image-keyboard-response","292","175675","0.0-292.0","3OONKJ5DKD5X1VC4YG3IZAHAI0QBOA","A1UCB0D27PY623","3GVPRXWRPHGYHD0HW29VLS36FVC7I4","","img/set1/S3.jpg","72","3","random","72","random,structured_normal,structured_incentive,structured_load","1,2,4,2,2,3","3,4,1,2","true","","",""
"null","","html-keyboard-response","293","176026","0.0-293.0","3OONKJ5DKD5X1VC4YG3IZAHAI0QBOA","A1UCB0D27PY623","3GVPRXWRPHGYHD0HW29VLS36FVC7I4","","<img src=""img/set1/S3.jpg"" width=""540"" height = ""360"" style=""border:16px solid orange"">","null","","","","","","","","","",""
"null","","html-keyboard-response","294","176227","0.0-294.0","3OONKJ5DKD5X1VC4YG3IZAHAI0QBOA","A1UCB0D27PY623","3GVPRXWRPHGYHD0HW29VLS36FVC7I4","","","null","","","","","","","","","",""
"512.0999999940395","","image-keyboard-response","295","176740","0.0-295.0","3OONKJ5DKD5X1VC4YG3IZAHAI0QBOA","A1UCB0D27PY623","3GVPRXWRPHGYHD0HW29VLS36FVC7I4","","img/set1/S2.jpg","68","2","random","68","random,structured_normal,structured_incentive,structured_load","1,2,4,2,2,3","3,4,1,2","true","","",""
"null","","html-keyboard-response","296","177092","0.0-296.0","3OONKJ5DKD5X1VC4YG3IZAHAI0QBOA","A1UCB0D27PY623","3GVPRXWRPHGYHD0HW29VLS36FVC7I4","","<img src=""img/set1/S2.jpg"" width=""540"" height = ""360"" style=""border:16px solid orange"">","null","","","","","","","","","",""
"null","","html-keyboard-response","297","177294","0.0-297.0","3OONKJ5DKD5X1VC4YG3IZAHAI0QBOA","A1UCB0D27PY623","3GVPRXWRPHGYHD0HW29VLS36FVC7I4","","","null","","","","","","","","","",""
"452.5","","image-keyboard-response","298","177747","0.0-298.0","3OONKJ5DKD5X1VC4YG3IZAHAI0QBOA","A1UCB0D27PY623","3GVPRXWRPHGYHD0HW29VLS36FVC7I4","","img/set1/S1.jpg","83","1","random","83","random,structured_normal,structured_incentive,structured_load","1,2,4,2,2,3","3,4,1,2","true","","",""
"null","","html-keyboard-response","299","178100","0.0-299.0","3OONKJ5DKD5X1VC4YG3IZAHAI0QBOA","A1UCB0D27PY623","3GVPRXWRPHGYHD0HW29VLS36FVC7I4","","<img src=""img/set1/S1.jpg"" width=""540"" height = ""360"" style=""border:16px solid orange"">","null","","","","","","","","","",""
"null","","html-keyboard-response","300","178302","0.0-300.0","3OONKJ5DKD5X1VC4YG3IZAHAI0QBOA","A1UCB0D27PY623","3GVPRXWRPHGYHD0HW29VLS36FVC7I4","","","null","","","","","","","","","",""
"621.2000000178814","","image-keyboard-response","301","178923","0.0-301.0","3OONKJ5DKD5X1VC4YG3IZAHAI0QBOA","A1UCB0D27PY623","3GVPRXWRPHGYHD0HW29VLS36FVC7I4","","img/set1/S2.jpg","68","2","random","68","random,structured_normal,structured_incentive,structured_load","1,2,4,2,2,3","3,4,1,2","true","","",""
"null","","html-keyboard-response","302","179276","0.0-302.0","3OONKJ5DKD5X1VC4YG3IZAHAI0QBOA","A1UCB0D27PY623","3GVPRXWRPHGYHD0HW29VLS36FVC7I4","","<img src=""img/set1/S2.jpg"" width=""540"" height = ""360"" style=""border:16px solid orange"">","null","","","","","","","","","",""
"null","","html-keyboard-response","303","179477","0.0-303.0","3OONKJ5DKD5X1VC4YG3IZAHAI0QBOA","A1UCB0D27PY623","3GVPRXWRPHGYHD0HW29VLS36FVC7I4","","","null","","","","","","","","","",""
"805.8000000119209","","image-keyboard-response","304","180283","0.0-304.0","3OONKJ5DKD5X1VC4YG3IZAHAI0QBOA","A1UCB0D27PY623","3GVPRXWRPHGYHD0HW29VLS36FVC7I4","","img/set1/S1.jpg","83","1","random","83","random,structured_normal,structured_incentive,structured_load","1,2,4,2,2,3","3,4,1,2","true","","",""
"null","","html-keyboard-response","305","180634","0.0-305.0","3OONKJ5DKD5X1VC4YG3IZAHAI0QBOA","A1UCB0D27PY623","3GVPRXWRPHGYHD0HW29VLS36FVC7I4","","<img src=""img/set1/S1.jpg"" width=""540"" height = ""360"" style=""border:16px solid orange"">","null","","","","","","","","","",""
"null","","html-keyboard-response","306","180836","0.0-306.0","3OONKJ5DKD5X1VC4YG3IZAHAI0QBOA","A1UCB0D27PY623","3GVPRXWRPHGYHD0HW29VLS36FVC7I4","","","null","","","","","","","","","",""
"807.0999999940395","","image-keyboard-response","307","181644","0.0-307.0","3OONKJ5DKD5X1VC4YG3IZAHAI0QBOA","A1UCB0D27PY623","3GVPRXWRPHGYHD0HW29VLS36FVC7I4","","img/set1/S3.jpg","72","3","random","72","random,structured_normal,structured_incentive,structured_load","1,2,4,2,2,3","3,4,1,2","true","","",""
"null","","html-keyboard-response","308","181995","0.0-308.0","3OONKJ5DKD5X1VC4YG3IZAHAI0QBOA","A1UCB0D27PY623","3GVPRXWRPHGYHD0HW29VLS36FVC7I4","","<img src=""img/set1/S3.jpg"" width=""540"" height = ""360"" style=""border:16px solid orange"">","null","","","","","","","","","",""
"null","","html-keyboard-response","309","182197","0.0-309.0","3OONKJ5DKD5X1VC4YG3IZAHAI0QBOA","A1UCB0D27PY623","3GVPRXWRPHGYHD0HW29VLS36FVC7I4","","","null","","","","","","","","","",""
"382.30000001192093","","image-keyboard-response","310","182580","0.0-310.0","3OONKJ5DKD5X1VC4YG3IZAHAI0QBOA","A1UCB0D27PY623","3GVPRXWRPHGYHD0HW29VLS36FVC7I4","","img/set1/S3.jpg","72","3","random","72","random,structured_normal,structured_incentive,structured_load","1,2,4,2,2,3","3,4,1,2","true","","",""
"null","","html-keyboard-response","311","182931","0.0-311.0","3OONKJ5DKD5X1VC4YG3IZAHAI0QBOA","A1UCB0D27PY623","3GVPRXWRPHGYHD0HW29VLS36FVC7I4","","<img src=""img/set1/S3.jpg"" width=""540"" height = ""360"" style=""border:16px solid orange"">","null","","","","","","","","","",""
"null","","html-keyboard-response","312","183132","0.0-312.0","3OONKJ5DKD5X1VC4YG3IZAHAI0QBOA","A1UCB0D27PY623","3GVPRXWRPHGYHD0HW29VLS36FVC7I4","","","null","","","","","","","","","",""
"511","","image-keyboard-response","313","183644","0.0-313.0","3OONKJ5DKD5X1VC4YG3IZAHAI0QBOA","A1UCB0D27PY623","3GVPRXWRPHGYHD0HW29VLS36FVC7I4","","img/set1/S1.jpg","83","1","random","83","random,structured_normal,structured_incentive,structured_load","1,2,4,2,2,3","3,4,1,2","true","","",""
"null","","html-keyboard-response","314","183995","0.0-314.0","3OONKJ5DKD5X1VC4YG3IZAHAI0QBOA","A1UCB0D27PY623","3GVPRXWRPHGYHD0HW29VLS36FVC7I4","","<img src=""img/set1/S1.jpg"" width=""540"" height = ""360"" style=""border:16px solid orange"">","null","","","","","","","","","",""
"null","","html-keyboard-response","315","184196","0.0-315.0","3OONKJ5DKD5X1VC4YG3IZAHAI0QBOA","A1UCB0D27PY623","3GVPRXWRPHGYHD0HW29VLS36FVC7I4","","","null","","","","","","","","","",""
"566.9000000059605","","image-keyboard-response","316","184764","0.0-316.0","3OONKJ5DKD5X1VC4YG3IZAHAI0QBOA","A1UCB0D27PY623","3GVPRXWRPHGYHD0HW29VLS36FVC7I4","","img/set1/S3.jpg","72","3","random","72","random,structured_normal,structured_incentive,structured_load","1,2,4,2,2,3","3,4,1,2","true","","",""
"null","","html-keyboard-response","317","185116","0.0-317.0","3OONKJ5DKD5X1VC4YG3IZAHAI0QBOA","A1UCB0D27PY623","3GVPRXWRPHGYHD0HW29VLS36FVC7I4","","<img src=""img/set1/S3.jpg"" width=""540"" height = ""360"" style=""border:16px solid orange"">","null","","","","","","","","","",""
"null","","html-keyboard-response","318","185316","0.0-318.0","3OONKJ5DKD5X1VC4YG3IZAHAI0QBOA","A1UCB0D27PY623","3GVPRXWRPHGYHD0HW29VLS36FVC7I4","","","null","","","","","","","","","",""
"575.0999999940395","","image-keyboard-response","319","185892","0.0-319.0","3OONKJ5DKD5X1VC4YG3IZAHAI0QBOA","A1UCB0D27PY623","3GVPRXWRPHGYHD0HW29VLS36FVC7I4","","img/set1/S1.jpg","83","1","random","83","random,structured_normal,structured_incentive,structured_load","1,2,4,2,2,3","3,4,1,2","true","","",""
"null","","html-keyboard-response","320","186244","0.0-320.0","3OONKJ5DKD5X1VC4YG3IZAHAI0QBOA","A1UCB0D27PY623","3GVPRXWRPHGYHD0HW29VLS36FVC7I4","","<img src=""img/set1/S1.jpg"" width=""540"" height = ""360"" style=""border:16px solid orange"">","null","","","","","","","","","",""
"null","","html-keyboard-response","321","186445","0.0-321.0","3OONKJ5DKD5X1VC4YG3IZAHAI0QBOA","A1UCB0D27PY623","3GVPRXWRPHGYHD0HW29VLS36FVC7I4","","","null","","","","","","","","","",""
"624","","image-keyboard-response","322","187070","0.0-322.0","3OONKJ5DKD5X1VC4YG3IZAHAI0QBOA","A1UCB0D27PY623","3GVPRXWRPHGYHD0HW29VLS36FVC7I4","","img/set1/S4.jpg","74","4","random","74","random,structured_normal,structured_incentive,structured_load","1,2,4,2,2,3","3,4,1,2","true","","",""
"null","","html-keyboard-response","323","187423","0.0-323.0","3OONKJ5DKD5X1VC4YG3IZAHAI0QBOA","A1UCB0D27PY623","3GVPRXWRPHGYHD0HW29VLS36FVC7I4","","<img src=""img/set1/S4.jpg"" width=""540"" height = ""360"" style=""border:16px solid orange"">","null","","","","","","","","","",""
"null","","html-keyboard-response","324","187636","0.0-324.0","3OONKJ5DKD5X1VC4YG3IZAHAI0QBOA","A1UCB0D27PY623","3GVPRXWRPHGYHD0HW29VLS36FVC7I4","","","null","","","","","","","","","",""
"567.1999999880791","","image-keyboard-response","325","188204","0.0-325.0","3OONKJ5DKD5X1VC4YG3IZAHAI0QBOA","A1UCB0D27PY623","3GVPRXWRPHGYHD0HW29VLS36FVC7I4","","img/set1/S3.jpg","72","3","random","72","random,structured_normal,structured_incentive,structured_load","1,2,4,2,2,3","3,4,1,2","true","","",""
"null","","html-keyboard-response","326","188556","0.0-326.0","3OONKJ5DKD5X1VC4YG3IZAHAI0QBOA","A1UCB0D27PY623","3GVPRXWRPHGYHD0HW29VLS36FVC7I4","","<img src=""img/set1/S3.jpg"" width=""540"" height = ""360"" style=""border:16px solid orange"">","null","","","","","","","","","",""
"null","","html-keyboard-response","327","188757","0.0-327.0","3OONKJ5DKD5X1VC4YG3IZAHAI0QBOA","A1UCB0D27PY623","3GVPRXWRPHGYHD0HW29VLS36FVC7I4","","","null","","","","","","","","","",""
"406.89999997615814","","image-keyboard-response","328","189164","0.0-328.0","3OONKJ5DKD5X1VC4YG3IZAHAI0QBOA","A1UCB0D27PY623","3GVPRXWRPHGYHD0HW29VLS36FVC7I4","","img/set1/S2.jpg","68","2","random","68","random,structured_normal,structured_incentive,structured_load","1,2,4,2,2,3","3,4,1,2","true","","",""
"null","","html-keyboard-response","329","189516","0.0-329.0","3OONKJ5DKD5X1VC4YG3IZAHAI0QBOA","A1UCB0D27PY623","3GVPRXWRPHGYHD0HW29VLS36FVC7I4","","<img src=""img/set1/S2.jpg"" width=""540"" height = ""360"" style=""border:16px solid orange"">","null","","","","","","","","","",""
"null","","html-keyboard-response","330","189717","0.0-330.0","3OONKJ5DKD5X1VC4YG3IZAHAI0QBOA","A1UCB0D27PY623","3GVPRXWRPHGYHD0HW29VLS36FVC7I4","","","null","","","","","","","","","",""
"574.9000000059605","","image-keyboard-response","331","190293","0.0-331.0","3OONKJ5DKD5X1VC4YG3IZAHAI0QBOA","A1UCB0D27PY623","3GVPRXWRPHGYHD0HW29VLS36FVC7I4","","img/set1/S1.jpg","83","1","random","83","random,structured_normal,structured_incentive,structured_load","1,2,4,2,2,3","3,4,1,2","true","","",""
"null","","html-keyboard-response","332","190645","0.0-332.0","3OONKJ5DKD5X1VC4YG3IZAHAI0QBOA","A1UCB0D27PY623","3GVPRXWRPHGYHD0HW29VLS36FVC7I4","","<img src=""img/set1/S1.jpg"" width=""540"" height = ""360"" style=""border:16px solid orange"">","null","","","","","","","","","",""
"null","","html-keyboard-response","333","190846","0.0-333.0","3OONKJ5DKD5X1VC4YG3IZAHAI0QBOA","A1UCB0D27PY623","3GVPRXWRPHGYHD0HW29VLS36FVC7I4","","","null","","","","","","","","","",""
"341.80000001192093","","image-keyboard-response","334","191189","0.0-334.0","3OONKJ5DKD5X1VC4YG3IZAHAI0QBOA","A1UCB0D27PY623","3GVPRXWRPHGYHD0HW29VLS36FVC7I4","","img/set1/S2.jpg","83","2","random","68","random,structured_normal,structured_incentive,structured_load","1,2,4,2,2,3","3,4,1,2","false","","",""
"null","","html-keyboard-response","335","191540","0.0-335.0","3OONKJ5DKD5X1VC4YG3IZAHAI0QBOA","A1UCB0D27PY623","3GVPRXWRPHGYHD0HW29VLS36FVC7I4","","<img src=""img/set1/S2.jpg"" width=""540"" height = ""360"">","null","","","","","","","","","",""
"null","","html-keyboard-response","336","191751","0.0-336.0","3OONKJ5DKD5X1VC4YG3IZAHAI0QBOA","A1UCB0D27PY623","3GVPRXWRPHGYHD0HW29VLS36FVC7I4","","","null","","","","","","","","","",""
"588.6999999880791","","image-keyboard-response","337","192341","0.0-337.0","3OONKJ5DKD5X1VC4YG3IZAHAI0QBOA","A1UCB0D27PY623","3GVPRXWRPHGYHD0HW29VLS36FVC7I4","","img/set1/S4.jpg","74","4","random","74","random,structured_normal,structured_incentive,structured_load","1,2,4,2,2,3","3,4,1,2","true","","",""
"null","","html-keyboard-response","338","192693","0.0-338.0","3OONKJ5DKD5X1VC4YG3IZAHAI0QBOA","A1UCB0D27PY623","3GVPRXWRPHGYHD0HW29VLS36FVC7I4","","<img src=""img/set1/S4.jpg"" width=""540"" height = ""360"" style=""border:16px solid orange"">","null","","","","","","","","","",""
"null","","html-keyboard-response","339","192895","0.0-339.0","3OONKJ5DKD5X1VC4YG3IZAHAI0QBOA","A1UCB0D27PY623","3GVPRXWRPHGYHD0HW29VLS36FVC7I4","","","null","","","","","","","","","",""
"517.5","","image-keyboard-response","340","193413","0.0-340.0","3OONKJ5DKD5X1VC4YG3IZAHAI0QBOA","A1UCB0D27PY623","3GVPRXWRPHGYHD0HW29VLS36FVC7I4","","img/set1/S2.jpg","68","2","random","68","random,structured_normal,structured_incentive,structured_load","1,2,4,2,2,3","3,4,1,2","true","","",""
"null","","html-keyboard-response","341","193764","0.0-341.0","3OONKJ5DKD5X1VC4YG3IZAHAI0QBOA","A1UCB0D27PY623","3GVPRXWRPHGYHD0HW29VLS36FVC7I4","","<img src=""img/set1/S2.jpg"" width=""540"" height = ""360"" style=""border:16px solid orange"">","null","","","","","","","","","",""
"null","","html-keyboard-response","342","193966","0.0-342.0","3OONKJ5DKD5X1VC4YG3IZAHAI0QBOA","A1UCB0D27PY623","3GVPRXWRPHGYHD0HW29VLS36FVC7I4","","","null","","","","","","","","","",""
"662.4000000059605","","image-keyboard-response","343","194629","0.0-343.0","3OONKJ5DKD5X1VC4YG3IZAHAI0QBOA","A1UCB0D27PY623","3GVPRXWRPHGYHD0HW29VLS36FVC7I4","","img/set1/S1.jpg","83","1","random","83","random,structured_normal,structured_incentive,structured_load","1,2,4,2,2,3","3,4,1,2","true","","",""
"null","","html-keyboard-response","344","194981","0.0-344.0","3OONKJ5DKD5X1VC4YG3IZAHAI0QBOA","A1UCB0D27PY623","3GVPRXWRPHGYHD0HW29VLS36FVC7I4","","<img src=""img/set1/S1.jpg"" width=""540"" height = ""360"" style=""border:16px solid orange"">","null","","","","","","","","","",""
"null","","html-keyboard-response","345","195184","0.0-345.0","3OONKJ5DKD5X1VC4YG3IZAHAI0QBOA","A1UCB0D27PY623","3GVPRXWRPHGYHD0HW29VLS36FVC7I4","","","null","","","","","","","","","",""
"644.9000000059605","","image-keyboard-response","346","195829","0.0-346.0","3OONKJ5DKD5X1VC4YG3IZAHAI0QBOA","A1UCB0D27PY623","3GVPRXWRPHGYHD0HW29VLS36FVC7I4","","img/set1/S2.jpg","68","2","random","68","random,structured_normal,structured_incentive,structured_load","1,2,4,2,2,3","3,4,1,2","true","","",""
"null","","html-keyboard-response","347","196181","0.0-347.0","3OONKJ5DKD5X1VC4YG3IZAHAI0QBOA","A1UCB0D27PY623","3GVPRXWRPHGYHD0HW29VLS36FVC7I4","","<img src=""img/set1/S2.jpg"" width=""540"" height = ""360"" style=""border:16px solid orange"">","null","","","","","","","","","",""
"null","","html-keyboard-response","348","196382","0.0-348.0","3OONKJ5DKD5X1VC4YG3IZAHAI0QBOA","A1UCB0D27PY623","3GVPRXWRPHGYHD0HW29VLS36FVC7I4","","","null","","","","","","","","","",""
"630.9000000059605","","image-keyboard-response","349","197013","0.0-349.0","3OONKJ5DKD5X1VC4YG3IZAHAI0QBOA","A1UCB0D27PY623","3GVPRXWRPHGYHD0HW29VLS36FVC7I4","","img/set1/S4.jpg","74","4","random","74","random,structured_normal,structured_incentive,structured_load","1,2,4,2,2,3","3,4,1,2","true","","",""
"null","","html-keyboard-response","350","197365","0.0-350.0","3OONKJ5DKD5X1VC4YG3IZAHAI0QBOA","A1UCB0D27PY623","3GVPRXWRPHGYHD0HW29VLS36FVC7I4","","<img src=""img/set1/S4.jpg"" width=""540"" height = ""360"" style=""border:16px solid orange"">","null","","","","","","","","","",""
"null","","html-keyboard-response","351","197567","0.0-351.0","3OONKJ5DKD5X1VC4YG3IZAHAI0QBOA","A1UCB0D27PY623","3GVPRXWRPHGYHD0HW29VLS36FVC7I4","","","null","","","","","","","","","",""
"398.89999997615814","","image-keyboard-response","352","197967","0.0-352.0","3OONKJ5DKD5X1VC4YG3IZAHAI0QBOA","A1UCB0D27PY623","3GVPRXWRPHGYHD0HW29VLS36FVC7I4","","img/set1/S4.jpg","74","4","random","74","random,structured_normal,structured_incentive,structured_load","1,2,4,2,2,3","3,4,1,2","true","","",""
"null","","html-keyboard-response","353","198318","0.0-353.0","3OONKJ5DKD5X1VC4YG3IZAHAI0QBOA","A1UCB0D27PY623","3GVPRXWRPHGYHD0HW29VLS36FVC7I4","","<img src=""img/set1/S4.jpg"" width=""540"" height = ""360"" style=""border:16px solid orange"">","null","","","","","","","","","",""
"null","","html-keyboard-response","354","198519","0.0-354.0","3OONKJ5DKD5X1VC4YG3IZAHAI0QBOA","A1UCB0D27PY623","3GVPRXWRPHGYHD0HW29VLS36FVC7I4","","","null","","","","","","","","","",""
"526","","image-keyboard-response","355","199046","0.0-355.0","3OONKJ5DKD5X1VC4YG3IZAHAI0QBOA","A1UCB0D27PY623","3GVPRXWRPHGYHD0HW29VLS36FVC7I4","","img/set1/S1.jpg","83","1","random","83","random,structured_normal,structured_incentive,structured_load","1,2,4,2,2,3","3,4,1,2","true","","",""
"null","","html-keyboard-response","356","199411","0.0-356.0","3OONKJ5DKD5X1VC4YG3IZAHAI0QBOA","A1UCB0D27PY623","3GVPRXWRPHGYHD0HW29VLS36FVC7I4","","<img src=""img/set1/S1.jpg"" width=""540"" height = ""360"" style=""border:16px solid orange"">","null","","","","","","","","","",""
"null","","html-keyboard-response","357","199613","0.0-357.0","3OONKJ5DKD5X1VC4YG3IZAHAI0QBOA","A1UCB0D27PY623","3GVPRXWRPHGYHD0HW29VLS36FVC7I4","","","null","","","","","","","","","",""
"872.3000000119209","","image-keyboard-response","358","200486","0.0-358.0","3OONKJ5DKD5X1VC4YG3IZAHAI0QBOA","A1UCB0D27PY623","3GVPRXWRPHGYHD0HW29VLS36FVC7I4","","img/set1/S4.jpg","74","4","random","74","random,structured_normal,structured_incentive,structured_load","1,2,4,2,2,3","3,4,1,2","true","","",""
"null","","html-keyboard-response","359","200837","0.0-359.0","3OONKJ5DKD5X1VC4YG3IZAHAI0QBOA","A1UCB0D27PY623","3GVPRXWRPHGYHD0HW29VLS36FVC7I4","","<img src=""img/set1/S4.jpg"" width=""540"" height = ""360"" style=""border:16px solid orange"">","null","","","","","","","","","",""
"null","","html-keyboard-response","360","201039","0.0-360.0","3OONKJ5DKD5X1VC4YG3IZAHAI0QBOA","A1UCB0D27PY623","3GVPRXWRPHGYHD0HW29VLS36FVC7I4","","","null","","","","","","","","","",""
"518.3999999761581","","image-keyboard-response","361","201558","0.0-361.0","3OONKJ5DKD5X1VC4YG3IZAHAI0QBOA","A1UCB0D27PY623","3GVPRXWRPHGYHD0HW29VLS36FVC7I4","","img/set1/S2.jpg","68","2","random","68","random,structured_normal,structured_incentive,structured_load","1,2,4,2,2,3","3,4,1,2","true","","",""
"null","","html-keyboard-response","362","201910","0.0-362.0","3OONKJ5DKD5X1VC4YG3IZAHAI0QBOA","A1UCB0D27PY623","3GVPRXWRPHGYHD0HW29VLS36FVC7I4","","<img src=""img/set1/S2.jpg"" width=""540"" height = ""360"" style=""border:16px solid orange"">","null","","","","","","","","","",""
"null","","html-keyboard-response","363","202111","0.0-363.0","3OONKJ5DKD5X1VC4YG3IZAHAI0QBOA","A1UCB0D27PY623","3GVPRXWRPHGYHD0HW29VLS36FVC7I4","","","null","","","","","","","","","",""
"558.6000000238419","","image-keyboard-response","364","202670","0.0-364.0","3OONKJ5DKD5X1VC4YG3IZAHAI0QBOA","A1UCB0D27PY623","3GVPRXWRPHGYHD0HW29VLS36FVC7I4","","img/set1/S4.jpg","74","4","random","74","random,structured_normal,structured_incentive,structured_load","1,2,4,2,2,3","3,4,1,2","true","","",""
"null","","html-keyboard-response","365","203022","0.0-365.0","3OONKJ5DKD5X1VC4YG3IZAHAI0QBOA","A1UCB0D27PY623","3GVPRXWRPHGYHD0HW29VLS36FVC7I4","","<img src=""img/set1/S4.jpg"" width=""540"" height = ""360"" style=""border:16px solid orange"">","null","","","","","","","","","",""
"null","","html-keyboard-response","366","203222","0.0-366.0","3OONKJ5DKD5X1VC4YG3IZAHAI0QBOA","A1UCB0D27PY623","3GVPRXWRPHGYHD0HW29VLS36FVC7I4","","","null","","","","","","","","","",""
"391.2999999821186","","image-keyboard-response","367","203614","0.0-367.0","3OONKJ5DKD5X1VC4YG3IZAHAI0QBOA","A1UCB0D27PY623","3GVPRXWRPHGYHD0HW29VLS36FVC7I4","","img/set1/S4.jpg","74","4","random","74","random,structured_normal,structured_incentive,structured_load","1,2,4,2,2,3","3,4,1,2","true","","",""
"null","","html-keyboard-response","368","203966","0.0-368.0","3OONKJ5DKD5X1VC4YG3IZAHAI0QBOA","A1UCB0D27PY623","3GVPRXWRPHGYHD0HW29VLS36FVC7I4","","<img src=""img/set1/S4.jpg"" width=""540"" height = ""360"" style=""border:16px solid orange"">","null","","","","","","","","","",""
"null","","html-keyboard-response","369","204168","0.0-369.0","3OONKJ5DKD5X1VC4YG3IZAHAI0QBOA","A1UCB0D27PY623","3GVPRXWRPHGYHD0HW29VLS36FVC7I4","","","null","","","","","","","","","",""
"542.5999999940395","","image-keyboard-response","370","204711","0.0-370.0","3OONKJ5DKD5X1VC4YG3IZAHAI0QBOA","A1UCB0D27PY623","3GVPRXWRPHGYHD0HW29VLS36FVC7I4","","img/set1/S2.jpg","68","2","random","68","random,structured_normal,structured_incentive,structured_load","1,2,4,2,2,3","3,4,1,2","true","","",""
"null","","html-keyboard-response","371","205063","0.0-371.0","3OONKJ5DKD5X1VC4YG3IZAHAI0QBOA","A1UCB0D27PY623","3GVPRXWRPHGYHD0HW29VLS36FVC7I4","","<img src=""img/set1/S2.jpg"" width=""540"" height = ""360"" style=""border:16px solid orange"">","null","","","","","","","","","",""
"null","","html-keyboard-response","372","205264","0.0-372.0","3OONKJ5DKD5X1VC4YG3IZAHAI0QBOA","A1UCB0D27PY623","3GVPRXWRPHGYHD0HW29VLS36FVC7I4","","","null","","","","","","","","","",""
"598.1999999880791","","image-keyboard-response","373","205863","0.0-373.0","3OONKJ5DKD5X1VC4YG3IZAHAI0QBOA","A1UCB0D27PY623","3GVPRXWRPHGYHD0HW29VLS36FVC7I4","","img/set1/S3.jpg","72","3","random","72","random,structured_normal,structured_incentive,structured_load","1,2,4,2,2,3","3,4,1,2","true","","",""
"null","","html-keyboard-response","374","206215","0.0-374.0","3OONKJ5DKD5X1VC4YG3IZAHAI0QBOA","A1UCB0D27PY623","3GVPRXWRPHGYHD0HW29VLS36FVC7I4","","<img src=""img/set1/S3.jpg"" width=""540"" height = ""360"" style=""border:16px solid orange"">","null","","","","","","","","","",""
"null","","html-keyboard-response","375","206416","0.0-375.0","3OONKJ5DKD5X1VC4YG3IZAHAI0QBOA","A1UCB0D27PY623","3GVPRXWRPHGYHD0HW29VLS36FVC7I4","","","null","","","","","","","","","",""
"525.8000000119209","","image-keyboard-response","376","206942","0.0-376.0","3OONKJ5DKD5X1VC4YG3IZAHAI0QBOA","A1UCB0D27PY623","3GVPRXWRPHGYHD0HW29VLS36FVC7I4","","img/set1/S4.jpg","68","4","random","74","random,structured_normal,structured_incentive,structured_load","1,2,4,2,2,3","3,4,1,2","false","","",""
"null","","html-keyboard-response","377","207295","0.0-377.0","3OONKJ5DKD5X1VC4YG3IZAHAI0QBOA","A1UCB0D27PY623","3GVPRXWRPHGYHD0HW29VLS36FVC7I4","","<img src=""img/set1/S4.jpg"" width=""540"" height = ""360"">","null","","","","","","","","","",""
"null","","html-keyboard-response","378","207496","0.0-378.0","3OONKJ5DKD5X1VC4YG3IZAHAI0QBOA","A1UCB0D27PY623","3GVPRXWRPHGYHD0HW29VLS36FVC7I4","","","null","","","","","","","","","",""
"453.5","","image-keyboard-response","379","207951","0.0-379.0","3OONKJ5DKD5X1VC4YG3IZAHAI0QBOA","A1UCB0D27PY623","3GVPRXWRPHGYHD0HW29VLS36FVC7I4","","img/set1/S2.jpg","68","2","random","68","random,structured_normal,structured_incentive,structured_load","1,2,4,2,2,3","3,4,1,2","true","","",""
"null","","html-keyboard-response","380","208303","0.0-380.0","3OONKJ5DKD5X1VC4YG3IZAHAI0QBOA","A1UCB0D27PY623","3GVPRXWRPHGYHD0HW29VLS36FVC7I4","","<img src=""img/set1/S2.jpg"" width=""540"" height = ""360"" style=""border:16px solid orange"">","null","","","","","","","","","",""
"null","","html-keyboard-response","381","208505","0.0-381.0","3OONKJ5DKD5X1VC4YG3IZAHAI0QBOA","A1UCB0D27PY623","3GVPRXWRPHGYHD0HW29VLS36FVC7I4","","","null","","","","","","","","","",""
"421.89999997615814","","image-keyboard-response","382","208928","0.0-382.0","3OONKJ5DKD5X1VC4YG3IZAHAI0QBOA","A1UCB0D27PY623","3GVPRXWRPHGYHD0HW29VLS36FVC7I4","","img/set1/S2.jpg","68","2","random","68","random,structured_normal,structured_incentive,structured_load","1,2,4,2,2,3","3,4,1,2","true","","",""
"null","","html-keyboard-response","383","209279","0.0-383.0","3OONKJ5DKD5X1VC4YG3IZAHAI0QBOA","A1UCB0D27PY623","3GVPRXWRPHGYHD0HW29VLS36FVC7I4","","<img src=""img/set1/S2.jpg"" width=""540"" height = ""360"" style=""border:16px solid orange"">","null","","","","","","","","","",""
"null","","html-keyboard-response","384","209481","0.0-384.0","3OONKJ5DKD5X1VC4YG3IZAHAI0QBOA","A1UCB0D27PY623","3GVPRXWRPHGYHD0HW29VLS36FVC7I4","","","null","","","","","","","","","",""
"477.5","","image-keyboard-response","385","209959","0.0-385.0","3OONKJ5DKD5X1VC4YG3IZAHAI0QBOA","A1UCB0D27PY623","3GVPRXWRPHGYHD0HW29VLS36FVC7I4","","img/set1/S1.jpg","83","1","random","83","random,structured_normal,structured_incentive,structured_load","1,2,4,2,2,3","3,4,1,2","true","","",""
"null","","html-keyboard-response","386","210310","0.0-386.0","3OONKJ5DKD5X1VC4YG3IZAHAI0QBOA","A1UCB0D27PY623","3GVPRXWRPHGYHD0HW29VLS36FVC7I4","","<img src=""img/set1/S1.jpg"" width=""540"" height = ""360"" style=""border:16px solid orange"">","null","","","","","","","","","",""
"null","","html-keyboard-response","387","210512","0.0-387.0","3OONKJ5DKD5X1VC4YG3IZAHAI0QBOA","A1UCB0D27PY623","3GVPRXWRPHGYHD0HW29VLS36FVC7I4","","","null","","","","","","","","","",""
