"rt","url","trial_type","trial_index","time_elapsed","internal_node_id","assignmentID","mturkID","hitID","view_history","stimulus","key_press","state","test_part","correct_response","order_block","order_chunk","order_freq","correct","responses","question_order","bonus"
"27124.40000000596","consent.html","external-html","0","27245","0.0-0.0","3TDXMTX3CCGHZXK64U954XZWSQG6IP","A1WJIRT360P5VB","3ZXV7Q5FJBAKJ3TNMBBLYHIS0EBCFB","","","","","","","","","","","","",""
"76849","","instructions","1","104101","0.0-1.0","3TDXMTX3CCGHZXK64U954XZWSQG6IP","A1WJIRT360P5VB","3ZXV7Q5FJBAKJ3TNMBBLYHIS0EBCFB","[{""page_index"":0,""viewing_time"":4768.79999999702},{""page_index"":1,""viewing_time"":8125.800000011921},{""page_index"":2,""viewing_time"":10241.5},{""page_index"":3,""viewing_time"":20913.89999999106},{""page_index"":4,""viewing_time"":10272.10000000894},{""page_index"":5,""viewing_time"":14165.39999999106},{""page_index"":6,""viewing_time"":8358.5}]","","","","","","","","","","","",""
"16776.5","","instructions","2","120881","0.0-2.0","3TDXMTX3CCGHZXK64U954XZWSQG6IP","A1WJIRT360P5VB","3ZXV7Q5FJBAKJ3TNMBBLYHIS0EBCFB","[{""page_index"":0,""viewing_time"":16775}]","","","","","","","","","","","",""
"6511.899999991059","","instructions","3","127396","0.0-3.0","3TDXMTX3CCGHZXK64U954XZWSQG6IP","A1WJIRT360P5VB","3ZXV7Q5FJBAKJ3TNMBBLYHIS0EBCFB","[{""page_index"":0,""viewing_time"":6510.29999999702}]","","","","","","","","","","","",""
"null","","image-keyboard-response","4","129906","0.0-4.0","3TDXMTX3CCGHZXK64U954XZWSQG6IP","A1WJIRT360P5VB","3ZXV7Q5FJBAKJ3TNMBBLYHIS0EBCFB","","img/set1/S4.jpg","null","4","random","74","random,structured_incentive,structured_normal,structured_load","4,2,2,3,1,2","1,2,3,4","false","","",""
"null","","html-keyboard-response","5","130266","0.0-5.0","3TDXMTX3CCGHZXK64U954XZWSQG6IP","A1WJIRT360P5VB","3ZXV7Q5FJBAKJ3TNMBBLYHIS0EBCFB","","<img src=""img/set1/S4.jpg"" width=""540"" height = ""360"">","null","","","","","","","","","",""
"null","","html-keyboard-response","6","130473","0.0-6.0","3TDXMTX3CCGHZXK64U954XZWSQG6IP","A1WJIRT360P5VB","3ZXV7Q5FJBAKJ3TNMBBLYHIS0EBCFB","","","null","","","","","","","","","",""
"2391","","image-keyboard-response","7","132871","0.0-7.0","3TDXMTX3CCGHZXK64U954XZWSQG6IP","A1WJIRT360P5VB","3ZXV7Q5FJBAKJ3TNMBBLYHIS0EBCFB","","img/set1/S3.jpg","68","3","random","72","random,structured_incentive,structured_normal,structured_load","4,2,2,3,1,2","1,2,3,4","false","","",""
"null","","html-keyboard-response","8","133226","0.0-8.0","3TDXMTX3CCGHZXK64U954XZWSQG6IP","A1WJIRT360P5VB","3ZXV7Q5FJBAKJ3TNMBBLYHIS0EBCFB","","<img src=""img/set1/S3.jpg"" width=""540"" height = ""360"">","null","","","","","","","","","",""
"null","","html-keyboard-response","9","133430","0.0-9.0","3TDXMTX3CCGHZXK64U954XZWSQG6IP","A1WJIRT360P5VB","3ZXV7Q5FJBAKJ3TNMBBLYHIS0EBCFB","","","null","","","","","","","","","",""
"1951.0999999940395","","image-keyboard-response","10","135386","0.0-10.0","3TDXMTX3CCGHZXK64U954XZWSQG6IP","A1WJIRT360P5VB","3ZXV7Q5FJBAKJ3TNMBBLYHIS0EBCFB","","img/set1/S4.jpg","74","4","random","74","random,structured_incentive,structured_normal,structured_load","4,2,2,3,1,2","1,2,3,4","true","","",""
"null","","html-keyboard-response","11","135744","0.0-11.0","3TDXMTX3CCGHZXK64U954XZWSQG6IP","A1WJIRT360P5VB","3ZXV7Q5FJBAKJ3TNMBBLYHIS0EBCFB","","<img src=""img/set1/S4.jpg"" width=""540"" height = ""360"" style=""border:16px solid orange"">","null","","","","","","","","","",""
"null","","html-keyboard-response","12","135949","0.0-12.0","3TDXMTX3CCGHZXK64U954XZWSQG6IP","A1WJIRT360P5VB","3ZXV7Q5FJBAKJ3TNMBBLYHIS0EBCFB","","","null","","","","","","","","","",""
"1352.2000000029802","","image-keyboard-response","13","137306","0.0-13.0","3TDXMTX3CCGHZXK64U954XZWSQG6IP","A1WJIRT360P5VB","3ZXV7Q5FJBAKJ3TNMBBLYHIS0EBCFB","","img/set1/S3.jpg","83","3","random","72","random,structured_incentive,structured_normal,structured_load","4,2,2,3,1,2","1,2,3,4","false","","",""
"null","","html-keyboard-response","14","137662","0.0-14.0","3TDXMTX3CCGHZXK64U954XZWSQG6IP","A1WJIRT360P5VB","3ZXV7Q5FJBAKJ3TNMBBLYHIS0EBCFB","","<img src=""img/set1/S3.jpg"" width=""540"" height = ""360"">","null","","","","","","","","","",""
"null","","html-keyboard-response","15","137877","0.0-15.0","3TDXMTX3CCGHZXK64U954XZWSQG6IP","A1WJIRT360P5VB","3ZXV7Q5FJBAKJ3TNMBBLYHIS0EBCFB","","","null","","","","","","","","","",""
"1062.300000011921","","image-keyboard-response","16","138943","0.0-16.0","3TDXMTX3CCGHZXK64U954XZWSQG6IP","A1WJIRT360P5VB","3ZXV7Q5FJBAKJ3TNMBBLYHIS0EBCFB","","img/set1/S2.jpg","72","2","random","68","random,structured_incentive,structured_normal,structured_load","4,2,2,3,1,2","1,2,3,4","false","","",""
"null","","html-keyboard-response","17","139298","0.0-17.0","3TDXMTX3CCGHZXK64U954XZWSQG6IP","A1WJIRT360P5VB","3ZXV7Q5FJBAKJ3TNMBBLYHIS0EBCFB","","<img src=""img/set1/S2.jpg"" width=""540"" height = ""360"">","null","","","","","","","","","",""
"null","","html-keyboard-response","18","139503","0.0-18.0","3TDXMTX3CCGHZXK64U954XZWSQG6IP","A1WJIRT360P5VB","3ZXV7Q5FJBAKJ3TNMBBLYHIS0EBCFB","","","null","","","","","","","","","",""
"772.5","","image-keyboard-response","19","140279","0.0-19.0","3TDXMTX3CCGHZXK64U954XZWSQG6IP","A1WJIRT360P5VB","3ZXV7Q5FJBAKJ3TNMBBLYHIS0EBCFB","","img/set1/S2.jpg","68","2","random","68","random,structured_incentive,structured_normal,structured_load","4,2,2,3,1,2","1,2,3,4","true","","",""
"null","","html-keyboard-response","20","140635","0.0-20.0","3TDXMTX3CCGHZXK64U954XZWSQG6IP","A1WJIRT360P5VB","3ZXV7Q5FJBAKJ3TNMBBLYHIS0EBCFB","","<img src=""img/set1/S2.jpg"" width=""540"" height = ""360"" style=""border:16px solid orange"">","null","","","","","","","","","",""
"null","","html-keyboard-response","21","140838","0.0-21.0","3TDXMTX3CCGHZXK64U954XZWSQG6IP","A1WJIRT360P5VB","3ZXV7Q5FJBAKJ3TNMBBLYHIS0EBCFB","","","null","","","","","","","","","",""
"null","","image-keyboard-response","22","143343","0.0-22.0","3TDXMTX3CCGHZXK64U954XZWSQG6IP","A1WJIRT360P5VB","3ZXV7Q5FJBAKJ3TNMBBLYHIS0EBCFB","","img/set1/S1.jpg","null","1","random","83","random,structured_incentive,structured_normal,structured_load","4,2,2,3,1,2","1,2,3,4","false","","",""
"null","","html-keyboard-response","23","143700","0.0-23.0","3TDXMTX3CCGHZXK64U954XZWSQG6IP","A1WJIRT360P5VB","3ZXV7Q5FJBAKJ3TNMBBLYHIS0EBCFB","","<img src=""img/set1/S1.jpg"" width=""540"" height = ""360"">","null","","","","","","","","","",""
"null","","html-keyboard-response","24","143905","0.0-24.0","3TDXMTX3CCGHZXK64U954XZWSQG6IP","A1WJIRT360P5VB","3ZXV7Q5FJBAKJ3TNMBBLYHIS0EBCFB","","","null","","","","","","","","","",""
"1158.8999999910593","","image-keyboard-response","25","145068","0.0-25.0","3TDXMTX3CCGHZXK64U954XZWSQG6IP","A1WJIRT360P5VB","3ZXV7Q5FJBAKJ3TNMBBLYHIS0EBCFB","","img/set1/S1.jpg","72","1","random","83","random,structured_incentive,structured_normal,structured_load","4,2,2,3,1,2","1,2,3,4","false","","",""
"null","","html-keyboard-response","26","145424","0.0-26.0","3TDXMTX3CCGHZXK64U954XZWSQG6IP","A1WJIRT360P5VB","3ZXV7Q5FJBAKJ3TNMBBLYHIS0EBCFB","","<img src=""img/set1/S1.jpg"" width=""540"" height = ""360"">","null","","","","","","","","","",""
"null","","html-keyboard-response","27","145628","0.0-27.0","3TDXMTX3CCGHZXK64U954XZWSQG6IP","A1WJIRT360P5VB","3ZXV7Q5FJBAKJ3TNMBBLYHIS0EBCFB","","","null","","","","","","","","","",""
"951.4000000059605","","image-keyboard-response","28","146584","0.0-28.0","3TDXMTX3CCGHZXK64U954XZWSQG6IP","A1WJIRT360P5VB","3ZXV7Q5FJBAKJ3TNMBBLYHIS0EBCFB","","img/set1/S2.jpg","68","2","random","68","random,structured_incentive,structured_normal,structured_load","4,2,2,3,1,2","1,2,3,4","true","","",""
"null","","html-keyboard-response","29","146940","0.0-29.0","3TDXMTX3CCGHZXK64U954XZWSQG6IP","A1WJIRT360P5VB","3ZXV7Q5FJBAKJ3TNMBBLYHIS0EBCFB","","<img src=""img/set1/S2.jpg"" width=""540"" height = ""360"" style=""border:16px solid orange"">","null","","","","","","","","","",""
"null","","html-keyboard-response","30","147144","0.0-30.0","3TDXMTX3CCGHZXK64U954XZWSQG6IP","A1WJIRT360P5VB","3ZXV7Q5FJBAKJ3TNMBBLYHIS0EBCFB","","","null","","","","","","","","","",""
"1134.699999988079","","image-keyboard-response","31","148282","0.0-31.0","3TDXMTX3CCGHZXK64U954XZWSQG6IP","A1WJIRT360P5VB","3ZXV7Q5FJBAKJ3TNMBBLYHIS0EBCFB","","img/set1/S1.jpg","74","1","random","83","random,structured_incentive,structured_normal,structured_load","4,2,2,3,1,2","1,2,3,4","false","","",""
"null","","html-keyboard-response","32","148639","0.0-32.0","3TDXMTX3CCGHZXK64U954XZWSQG6IP","A1WJIRT360P5VB","3ZXV7Q5FJBAKJ3TNMBBLYHIS0EBCFB","","<img src=""img/set1/S1.jpg"" width=""540"" height = ""360"">","null","","","","","","","","","",""
"null","","html-keyboard-response","33","148844","0.0-33.0","3TDXMTX3CCGHZXK64U954XZWSQG6IP","A1WJIRT360P5VB","3ZXV7Q5FJBAKJ3TNMBBLYHIS0EBCFB","","","null","","","","","","","","","",""
"637.2000000029802","","image-keyboard-response","34","149486","0.0-34.0","3TDXMTX3CCGHZXK64U954XZWSQG6IP","A1WJIRT360P5VB","3ZXV7Q5FJBAKJ3TNMBBLYHIS0EBCFB","","img/set1/S1.jpg","83","1","random","83","random,structured_incentive,structured_normal,structured_load","4,2,2,3,1,2","1,2,3,4","true","","",""
"null","","html-keyboard-response","35","149842","0.0-35.0","3TDXMTX3CCGHZXK64U954XZWSQG6IP","A1WJIRT360P5VB","3ZXV7Q5FJBAKJ3TNMBBLYHIS0EBCFB","","<img src=""img/set1/S1.jpg"" width=""540"" height = ""360"" style=""border:16px solid orange"">","null","","","","","","","","","",""
"null","","html-keyboard-response","36","150046","0.0-36.0","3TDXMTX3CCGHZXK64U954XZWSQG6IP","A1WJIRT360P5VB","3ZXV7Q5FJBAKJ3TNMBBLYHIS0EBCFB","","","null","","","","","","","","","",""
"1037.4000000059605","","image-keyboard-response","37","151088","0.0-37.0","3TDXMTX3CCGHZXK64U954XZWSQG6IP","A1WJIRT360P5VB","3ZXV7Q5FJBAKJ3TNMBBLYHIS0EBCFB","","img/set1/S2.jpg","68","2","random","68","random,structured_incentive,structured_normal,structured_load","4,2,2,3,1,2","1,2,3,4","true","","",""
"null","","html-keyboard-response","38","151443","0.0-38.0","3TDXMTX3CCGHZXK64U954XZWSQG6IP","A1WJIRT360P5VB","3ZXV7Q5FJBAKJ3TNMBBLYHIS0EBCFB","","<img src=""img/set1/S2.jpg"" width=""540"" height = ""360"" style=""border:16px solid orange"">","null","","","","","","","","","",""
"null","","html-keyboard-response","39","151646","0.0-39.0","3TDXMTX3CCGHZXK64U954XZWSQG6IP","A1WJIRT360P5VB","3ZXV7Q5FJBAKJ3TNMBBLYHIS0EBCFB","","","null","","","","","","","","","",""
"839.2999999970198","","image-keyboard-response","40","152489","0.0-40.0","3TDXMTX3CCGHZXK64U954XZWSQG6IP","A1WJIRT360P5VB","3ZXV7Q5FJBAKJ3TNMBBLYHIS0EBCFB","","img/set1/S4.jpg","72","4","random","74","random,structured_incentive,structured_normal,structured_load","4,2,2,3,1,2","1,2,3,4","false","","",""
"null","","html-keyboard-response","41","152846","0.0-41.0","3TDXMTX3CCGHZXK64U954XZWSQG6IP","A1WJIRT360P5VB","3ZXV7Q5FJBAKJ3TNMBBLYHIS0EBCFB","","<img src=""img/set1/S4.jpg"" width=""540"" height = ""360"">","null","","","","","","","","","",""
"null","","html-keyboard-response","42","153050","0.0-42.0","3TDXMTX3CCGHZXK64U954XZWSQG6IP","A1WJIRT360P5VB","3ZXV7Q5FJBAKJ3TNMBBLYHIS0EBCFB","","","null","","","","","","","","","",""
"570.7000000029802","","image-keyboard-response","43","153625","0.0-43.0","3TDXMTX3CCGHZXK64U954XZWSQG6IP","A1WJIRT360P5VB","3ZXV7Q5FJBAKJ3TNMBBLYHIS0EBCFB","","img/set1/S4.jpg","74","4","random","74","random,structured_incentive,structured_normal,structured_load","4,2,2,3,1,2","1,2,3,4","true","","",""
"null","","html-keyboard-response","44","153980","0.0-44.0","3TDXMTX3CCGHZXK64U954XZWSQG6IP","A1WJIRT360P5VB","3ZXV7Q5FJBAKJ3TNMBBLYHIS0EBCFB","","<img src=""img/set1/S4.jpg"" width=""540"" height = ""360"" style=""border:16px solid orange"">","null","","","","","","","","","",""
"null","","html-keyboard-response","45","154184","0.0-45.0","3TDXMTX3CCGHZXK64U954XZWSQG6IP","A1WJIRT360P5VB","3ZXV7Q5FJBAKJ3TNMBBLYHIS0EBCFB","","","null","","","","","","","","","",""
"836","","image-keyboard-response","46","155024","0.0-46.0","3TDXMTX3CCGHZXK64U954XZWSQG6IP","A1WJIRT360P5VB","3ZXV7Q5FJBAKJ3TNMBBLYHIS0EBCFB","","img/set1/S3.jpg","72","3","random","72","random,structured_incentive,structured_normal,structured_load","4,2,2,3,1,2","1,2,3,4","true","","",""
"null","","html-keyboard-response","47","155380","0.0-47.0","3TDXMTX3CCGHZXK64U954XZWSQG6IP","A1WJIRT360P5VB","3ZXV7Q5FJBAKJ3TNMBBLYHIS0EBCFB","","<img src=""img/set1/S3.jpg"" width=""540"" height = ""360"" style=""border:16px solid orange"">","null","","","","","","","","","",""
"null","","html-keyboard-response","48","155586","0.0-48.0","3TDXMTX3CCGHZXK64U954XZWSQG6IP","A1WJIRT360P5VB","3ZXV7Q5FJBAKJ3TNMBBLYHIS0EBCFB","","","null","","","","","","","","","",""
"623.6999999880791","","image-keyboard-response","49","156214","0.0-49.0","3TDXMTX3CCGHZXK64U954XZWSQG6IP","A1WJIRT360P5VB","3ZXV7Q5FJBAKJ3TNMBBLYHIS0EBCFB","","img/set1/S4.jpg","74","4","random","74","random,structured_incentive,structured_normal,structured_load","4,2,2,3,1,2","1,2,3,4","true","","",""
"null","","html-keyboard-response","50","156571","0.0-50.0","3TDXMTX3CCGHZXK64U954XZWSQG6IP","A1WJIRT360P5VB","3ZXV7Q5FJBAKJ3TNMBBLYHIS0EBCFB","","<img src=""img/set1/S4.jpg"" width=""540"" height = ""360"" style=""border:16px solid orange"">","null","","","","","","","","","",""
"null","","html-keyboard-response","51","156776","0.0-51.0","3TDXMTX3CCGHZXK64U954XZWSQG6IP","A1WJIRT360P5VB","3ZXV7Q5FJBAKJ3TNMBBLYHIS0EBCFB","","","null","","","","","","","","","",""
"1141.300000011921","","image-keyboard-response","52","157921","0.0-52.0","3TDXMTX3CCGHZXK64U954XZWSQG6IP","A1WJIRT360P5VB","3ZXV7Q5FJBAKJ3TNMBBLYHIS0EBCFB","","img/set1/S1.jpg","68","1","random","83","random,structured_incentive,structured_normal,structured_load","4,2,2,3,1,2","1,2,3,4","false","","",""
"null","","html-keyboard-response","53","158277","0.0-53.0","3TDXMTX3CCGHZXK64U954XZWSQG6IP","A1WJIRT360P5VB","3ZXV7Q5FJBAKJ3TNMBBLYHIS0EBCFB","","<img src=""img/set1/S1.jpg"" width=""540"" height = ""360"">","null","","","","","","","","","",""
"null","","html-keyboard-response","54","158482","0.0-54.0","3TDXMTX3CCGHZXK64U954XZWSQG6IP","A1WJIRT360P5VB","3ZXV7Q5FJBAKJ3TNMBBLYHIS0EBCFB","","","null","","","","","","","","","",""
"1252.5","","image-keyboard-response","55","159739","0.0-55.0","3TDXMTX3CCGHZXK64U954XZWSQG6IP","A1WJIRT360P5VB","3ZXV7Q5FJBAKJ3TNMBBLYHIS0EBCFB","","img/set1/S2.jpg","68","2","random","68","random,structured_incentive,structured_normal,structured_load","4,2,2,3,1,2","1,2,3,4","true","","",""
"null","","html-keyboard-response","56","160094","0.0-56.0","3TDXMTX3CCGHZXK64U954XZWSQG6IP","A1WJIRT360P5VB","3ZXV7Q5FJBAKJ3TNMBBLYHIS0EBCFB","","<img src=""img/set1/S2.jpg"" width=""540"" height = ""360"" style=""border:16px solid orange"">","null","","","","","","","","","",""
"null","","html-keyboard-response","57","160298","0.0-57.0","3TDXMTX3CCGHZXK64U954XZWSQG6IP","A1WJIRT360P5VB","3ZXV7Q5FJBAKJ3TNMBBLYHIS0EBCFB","","","null","","","","","","","","","",""
"833.9000000059605","","image-keyboard-response","58","161137","0.0-58.0","3TDXMTX3CCGHZXK64U954XZWSQG6IP","A1WJIRT360P5VB","3ZXV7Q5FJBAKJ3TNMBBLYHIS0EBCFB","","img/set1/S3.jpg","72","3","random","72","random,structured_incentive,structured_normal,structured_load","4,2,2,3,1,2","1,2,3,4","true","","",""
"null","","html-keyboard-response","59","161503","0.0-59.0","3TDXMTX3CCGHZXK64U954XZWSQG6IP","A1WJIRT360P5VB","3ZXV7Q5FJBAKJ3TNMBBLYHIS0EBCFB","","<img src=""img/set1/S3.jpg"" width=""540"" height = ""360"" style=""border:16px solid orange"">","null","","","","","","","","","",""
"null","","html-keyboard-response","60","161707","0.0-60.0","3TDXMTX3CCGHZXK64U954XZWSQG6IP","A1WJIRT360P5VB","3ZXV7Q5FJBAKJ3TNMBBLYHIS0EBCFB","","","null","","","","","","","","","",""
"767","","image-keyboard-response","61","162479","0.0-61.0","3TDXMTX3CCGHZXK64U954XZWSQG6IP","A1WJIRT360P5VB","3ZXV7Q5FJBAKJ3TNMBBLYHIS0EBCFB","","img/set1/S4.jpg","74","4","random","74","random,structured_incentive,structured_normal,structured_load","4,2,2,3,1,2","1,2,3,4","true","","",""
"null","","html-keyboard-response","62","162835","0.0-62.0","3TDXMTX3CCGHZXK64U954XZWSQG6IP","A1WJIRT360P5VB","3ZXV7Q5FJBAKJ3TNMBBLYHIS0EBCFB","","<img src=""img/set1/S4.jpg"" width=""540"" height = ""360"" style=""border:16px solid orange"">","null","","","","","","","","","",""
"null","","html-keyboard-response","63","163040","0.0-63.0","3TDXMTX3CCGHZXK64U954XZWSQG6IP","A1WJIRT360P5VB","3ZXV7Q5FJBAKJ3TNMBBLYHIS0EBCFB","","","null","","","","","","","","","",""
"745.7999999970198","","image-keyboard-response","64","163791","0.0-64.0","3TDXMTX3CCGHZXK64U954XZWSQG6IP","A1WJIRT360P5VB","3ZXV7Q5FJBAKJ3TNMBBLYHIS0EBCFB","","img/set1/S1.jpg","83","1","random","83","random,structured_incentive,structured_normal,structured_load","4,2,2,3,1,2","1,2,3,4","true","","",""
"null","","html-keyboard-response","65","164147","0.0-65.0","3TDXMTX3CCGHZXK64U954XZWSQG6IP","A1WJIRT360P5VB","3ZXV7Q5FJBAKJ3TNMBBLYHIS0EBCFB","","<img src=""img/set1/S1.jpg"" width=""540"" height = ""360"" style=""border:16px solid orange"">","null","","","","","","","","","",""
"null","","html-keyboard-response","66","164351","0.0-66.0","3TDXMTX3CCGHZXK64U954XZWSQG6IP","A1WJIRT360P5VB","3ZXV7Q5FJBAKJ3TNMBBLYHIS0EBCFB","","","null","","","","","","","","","",""
"933.0999999940395","","image-keyboard-response","67","165289","0.0-67.0","3TDXMTX3CCGHZXK64U954XZWSQG6IP","A1WJIRT360P5VB","3ZXV7Q5FJBAKJ3TNMBBLYHIS0EBCFB","","img/set1/S2.jpg","68","2","random","68","random,structured_incentive,structured_normal,structured_load","4,2,2,3,1,2","1,2,3,4","true","","",""
"null","","html-keyboard-response","68","165645","0.0-68.0","3TDXMTX3CCGHZXK64U954XZWSQG6IP","A1WJIRT360P5VB","3ZXV7Q5FJBAKJ3TNMBBLYHIS0EBCFB","","<img src=""img/set1/S2.jpg"" width=""540"" height = ""360"" style=""border:16px solid orange"">","null","","","","","","","","","",""
"null","","html-keyboard-response","69","165850","0.0-69.0","3TDXMTX3CCGHZXK64U954XZWSQG6IP","A1WJIRT360P5VB","3ZXV7Q5FJBAKJ3TNMBBLYHIS0EBCFB","","","null","","","","","","","","","",""
"741.7999999970198","","image-keyboard-response","70","166601","0.0-70.0","3TDXMTX3CCGHZXK64U954XZWSQG6IP","A1WJIRT360P5VB","3ZXV7Q5FJBAKJ3TNMBBLYHIS0EBCFB","","img/set1/S3.jpg","72","3","random","72","random,structured_incentive,structured_normal,structured_load","4,2,2,3,1,2","1,2,3,4","true","","",""
"null","","html-keyboard-response","71","166957","0.0-71.0","3TDXMTX3CCGHZXK64U954XZWSQG6IP","A1WJIRT360P5VB","3ZXV7Q5FJBAKJ3TNMBBLYHIS0EBCFB","","<img src=""img/set1/S3.jpg"" width=""540"" height = ""360"" style=""border:16px solid orange"">","null","","","","","","","","","",""
"null","","html-keyboard-response","72","167162","0.0-72.0","3TDXMTX3CCGHZXK64U954XZWSQG6IP","A1WJIRT360P5VB","3ZXV7Q5FJBAKJ3TNMBBLYHIS0EBCFB","","","null","","","","","","","","","",""
"695.9000000059605","","image-keyboard-response","73","167863","0.0-73.0","3TDXMTX3CCGHZXK64U954XZWSQG6IP","A1WJIRT360P5VB","3ZXV7Q5FJBAKJ3TNMBBLYHIS0EBCFB","","img/set1/S4.jpg","74","4","random","74","random,structured_incentive,structured_normal,structured_load","4,2,2,3,1,2","1,2,3,4","true","","",""
"null","","html-keyboard-response","74","168219","0.0-74.0","3TDXMTX3CCGHZXK64U954XZWSQG6IP","A1WJIRT360P5VB","3ZXV7Q5FJBAKJ3TNMBBLYHIS0EBCFB","","<img src=""img/set1/S4.jpg"" width=""540"" height = ""360"" style=""border:16px solid orange"">","null","","","","","","","","","",""
"null","","html-keyboard-response","75","168423","0.0-75.0","3TDXMTX3CCGHZXK64U954XZWSQG6IP","A1WJIRT360P5VB","3ZXV7Q5FJBAKJ3TNMBBLYHIS0EBCFB","","","null","","","","","","","","","",""
"970","","image-keyboard-response","76","169397","0.0-76.0","3TDXMTX3CCGHZXK64U954XZWSQG6IP","A1WJIRT360P5VB","3ZXV7Q5FJBAKJ3TNMBBLYHIS0EBCFB","","img/set1/S2.jpg","68","2","random","68","random,structured_incentive,structured_normal,structured_load","4,2,2,3,1,2","1,2,3,4","true","","",""
"null","","html-keyboard-response","77","169753","0.0-77.0","3TDXMTX3CCGHZXK64U954XZWSQG6IP","A1WJIRT360P5VB","3ZXV7Q5FJBAKJ3TNMBBLYHIS0EBCFB","","<img src=""img/set1/S2.jpg"" width=""540"" height = ""360"" style=""border:16px solid orange"">","null","","","","","","","","","",""
"null","","html-keyboard-response","78","169957","0.0-78.0","3TDXMTX3CCGHZXK64U954XZWSQG6IP","A1WJIRT360P5VB","3ZXV7Q5FJBAKJ3TNMBBLYHIS0EBCFB","","","null","","","","","","","","","",""
"868.4000000059605","","image-keyboard-response","79","170831","0.0-79.0","3TDXMTX3CCGHZXK64U954XZWSQG6IP","A1WJIRT360P5VB","3ZXV7Q5FJBAKJ3TNMBBLYHIS0EBCFB","","img/set1/S4.jpg","74","4","random","74","random,structured_incentive,structured_normal,structured_load","4,2,2,3,1,2","1,2,3,4","true","","",""
"null","","html-keyboard-response","80","171186","0.0-80.0","3TDXMTX3CCGHZXK64U954XZWSQG6IP","A1WJIRT360P5VB","3ZXV7Q5FJBAKJ3TNMBBLYHIS0EBCFB","","<img src=""img/set1/S4.jpg"" width=""540"" height = ""360"" style=""border:16px solid orange"">","null","","","","","","","","","",""
"null","","html-keyboard-response","81","171392","0.0-81.0","3TDXMTX3CCGHZXK64U954XZWSQG6IP","A1WJIRT360P5VB","3ZXV7Q5FJBAKJ3TNMBBLYHIS0EBCFB","","","null","","","","","","","","","",""
"805","","image-keyboard-response","82","172202","0.0-82.0","3TDXMTX3CCGHZXK64U954XZWSQG6IP","A1WJIRT360P5VB","3ZXV7Q5FJBAKJ3TNMBBLYHIS0EBCFB","","img/set1/S2.jpg","68","2","random","68","random,structured_incentive,structured_normal,structured_load","4,2,2,3,1,2","1,2,3,4","true","","",""
"null","","html-keyboard-response","83","172560","0.0-83.0","3TDXMTX3CCGHZXK64U954XZWSQG6IP","A1WJIRT360P5VB","3ZXV7Q5FJBAKJ3TNMBBLYHIS0EBCFB","","<img src=""img/set1/S2.jpg"" width=""540"" height = ""360"" style=""border:16px solid orange"">","null","","","","","","","","","",""
"null","","html-keyboard-response","84","172764","0.0-84.0","3TDXMTX3CCGHZXK64U954XZWSQG6IP","A1WJIRT360P5VB","3ZXV7Q5FJBAKJ3TNMBBLYHIS0EBCFB","","","null","","","","","","","","","",""
"740.2000000029802","","image-keyboard-response","85","173508","0.0-85.0","3TDXMTX3CCGHZXK64U954XZWSQG6IP","A1WJIRT360P5VB","3ZXV7Q5FJBAKJ3TNMBBLYHIS0EBCFB","","img/set1/S3.jpg","72","3","random","72","random,structured_incentive,structured_normal,structured_load","4,2,2,3,1,2","1,2,3,4","true","","",""
"null","","html-keyboard-response","86","173863","0.0-86.0","3TDXMTX3CCGHZXK64U954XZWSQG6IP","A1WJIRT360P5VB","3ZXV7Q5FJBAKJ3TNMBBLYHIS0EBCFB","","<img src=""img/set1/S3.jpg"" width=""540"" height = ""360"" style=""border:16px solid orange"">","null","","","","","","","","","",""
"null","","html-keyboard-response","87","174068","0.0-87.0","3TDXMTX3CCGHZXK64U954XZWSQG6IP","A1WJIRT360P5VB","3ZXV7Q5FJBAKJ3TNMBBLYHIS0EBCFB","","","null","","","","","","","","","",""
"910.4000000059605","","image-keyboard-response","88","174983","0.0-88.0","3TDXMTX3CCGHZXK64U954XZWSQG6IP","A1WJIRT360P5VB","3ZXV7Q5FJBAKJ3TNMBBLYHIS0EBCFB","","img/set1/S1.jpg","83","1","random","83","random,structured_incentive,structured_normal,structured_load","4,2,2,3,1,2","1,2,3,4","true","","",""
"null","","html-keyboard-response","89","175340","0.0-89.0","3TDXMTX3CCGHZXK64U954XZWSQG6IP","A1WJIRT360P5VB","3ZXV7Q5FJBAKJ3TNMBBLYHIS0EBCFB","","<img src=""img/set1/S1.jpg"" width=""540"" height = ""360"" style=""border:16px solid orange"">","null","","","","","","","","","",""
"null","","html-keyboard-response","90","175544","0.0-90.0","3TDXMTX3CCGHZXK64U954XZWSQG6IP","A1WJIRT360P5VB","3ZXV7Q5FJBAKJ3TNMBBLYHIS0EBCFB","","","null","","","","","","","","","",""
"562.7999999970198","","image-keyboard-response","91","176111","0.0-91.0","3TDXMTX3CCGHZXK64U954XZWSQG6IP","A1WJIRT360P5VB","3ZXV7Q5FJBAKJ3TNMBBLYHIS0EBCFB","","img/set1/S1.jpg","83","1","random","83","random,structured_incentive,structured_normal,structured_load","4,2,2,3,1,2","1,2,3,4","true","","",""
"null","","html-keyboard-response","92","176467","0.0-92.0","3TDXMTX3CCGHZXK64U954XZWSQG6IP","A1WJIRT360P5VB","3ZXV7Q5FJBAKJ3TNMBBLYHIS0EBCFB","","<img src=""img/set1/S1.jpg"" width=""540"" height = ""360"" style=""border:16px solid orange"">","null","","","","","","","","","",""
"null","","html-keyboard-response","93","176671","0.0-93.0","3TDXMTX3CCGHZXK64U954XZWSQG6IP","A1WJIRT360P5VB","3ZXV7Q5FJBAKJ3TNMBBLYHIS0EBCFB","","","null","","","","","","","","","",""
"800.7000000029802","","image-keyboard-response","94","177476","0.0-94.0","3TDXMTX3CCGHZXK64U954XZWSQG6IP","A1WJIRT360P5VB","3ZXV7Q5FJBAKJ3TNMBBLYHIS0EBCFB","","img/set1/S4.jpg","74","4","random","74","random,structured_incentive,structured_normal,structured_load","4,2,2,3,1,2","1,2,3,4","true","","",""
"null","","html-keyboard-response","95","177831","0.0-95.0","3TDXMTX3CCGHZXK64U954XZWSQG6IP","A1WJIRT360P5VB","3ZXV7Q5FJBAKJ3TNMBBLYHIS0EBCFB","","<img src=""img/set1/S4.jpg"" width=""540"" height = ""360"" style=""border:16px solid orange"">","null","","","","","","","","","",""
"null","","html-keyboard-response","96","178036","0.0-96.0","3TDXMTX3CCGHZXK64U954XZWSQG6IP","A1WJIRT360P5VB","3ZXV7Q5FJBAKJ3TNMBBLYHIS0EBCFB","","","null","","","","","","","","","",""
"872.5","","image-keyboard-response","97","178913","0.0-97.0","3TDXMTX3CCGHZXK64U954XZWSQG6IP","A1WJIRT360P5VB","3ZXV7Q5FJBAKJ3TNMBBLYHIS0EBCFB","","img/set1/S1.jpg","83","1","random","83","random,structured_incentive,structured_normal,structured_load","4,2,2,3,1,2","1,2,3,4","true","","",""
"null","","html-keyboard-response","98","179268","0.0-98.0","3TDXMTX3CCGHZXK64U954XZWSQG6IP","A1WJIRT360P5VB","3ZXV7Q5FJBAKJ3TNMBBLYHIS0EBCFB","","<img src=""img/set1/S1.jpg"" width=""540"" height = ""360"" style=""border:16px solid orange"">","null","","","","","","","","","",""
"null","","html-keyboard-response","99","179472","0.0-99.0","3TDXMTX3CCGHZXK64U954XZWSQG6IP","A1WJIRT360P5VB","3ZXV7Q5FJBAKJ3TNMBBLYHIS0EBCFB","","","null","","","","","","","","","",""
"706.7000000029802","","image-keyboard-response","100","180183","0.0-100.0","3TDXMTX3CCGHZXK64U954XZWSQG6IP","A1WJIRT360P5VB","3ZXV7Q5FJBAKJ3TNMBBLYHIS0EBCFB","","img/set1/S4.jpg","74","4","random","74","random,structured_incentive,structured_normal,structured_load","4,2,2,3,1,2","1,2,3,4","true","","",""
"null","","html-keyboard-response","101","180539","0.0-101.0","3TDXMTX3CCGHZXK64U954XZWSQG6IP","A1WJIRT360P5VB","3ZXV7Q5FJBAKJ3TNMBBLYHIS0EBCFB","","<img src=""img/set1/S4.jpg"" width=""540"" height = ""360"" style=""border:16px solid orange"">","null","","","","","","","","","",""
"null","","html-keyboard-response","102","180744","0.0-102.0","3TDXMTX3CCGHZXK64U954XZWSQG6IP","A1WJIRT360P5VB","3ZXV7Q5FJBAKJ3TNMBBLYHIS0EBCFB","","","null","","","","","","","","","",""
"562.5","","image-keyboard-response","103","181311","0.0-103.0","3TDXMTX3CCGHZXK64U954XZWSQG6IP","A1WJIRT360P5VB","3ZXV7Q5FJBAKJ3TNMBBLYHIS0EBCFB","","img/set1/S4.jpg","74","4","random","74","random,structured_incentive,structured_normal,structured_load","4,2,2,3,1,2","1,2,3,4","true","","",""
"null","","html-keyboard-response","104","181668","0.0-104.0","3TDXMTX3CCGHZXK64U954XZWSQG6IP","A1WJIRT360P5VB","3ZXV7Q5FJBAKJ3TNMBBLYHIS0EBCFB","","<img src=""img/set1/S4.jpg"" width=""540"" height = ""360"" style=""border:16px solid orange"">","null","","","","","","","","","",""
"null","","html-keyboard-response","105","181872","0.0-105.0","3TDXMTX3CCGHZXK64U954XZWSQG6IP","A1WJIRT360P5VB","3ZXV7Q5FJBAKJ3TNMBBLYHIS0EBCFB","","","null","","","","","","","","","",""
"1146.4000000059605","","image-keyboard-response","106","183022","0.0-106.0","3TDXMTX3CCGHZXK64U954XZWSQG6IP","A1WJIRT360P5VB","3ZXV7Q5FJBAKJ3TNMBBLYHIS0EBCFB","","img/set1/S3.jpg","72","3","random","72","random,structured_incentive,structured_normal,structured_load","4,2,2,3,1,2","1,2,3,4","true","","",""
"null","","html-keyboard-response","107","183378","0.0-107.0","3TDXMTX3CCGHZXK64U954XZWSQG6IP","A1WJIRT360P5VB","3ZXV7Q5FJBAKJ3TNMBBLYHIS0EBCFB","","<img src=""img/set1/S3.jpg"" width=""540"" height = ""360"" style=""border:16px solid orange"">","null","","","","","","","","","",""
"null","","html-keyboard-response","108","183583","0.0-108.0","3TDXMTX3CCGHZXK64U954XZWSQG6IP","A1WJIRT360P5VB","3ZXV7Q5FJBAKJ3TNMBBLYHIS0EBCFB","","","null","","","","","","","","","",""
"771.5","","image-keyboard-response","109","184359","0.0-109.0","3TDXMTX3CCGHZXK64U954XZWSQG6IP","A1WJIRT360P5VB","3ZXV7Q5FJBAKJ3TNMBBLYHIS0EBCFB","","img/set1/S2.jpg","68","2","random","68","random,structured_incentive,structured_normal,structured_load","4,2,2,3,1,2","1,2,3,4","true","","",""
"null","","html-keyboard-response","110","184715","0.0-110.0","3TDXMTX3CCGHZXK64U954XZWSQG6IP","A1WJIRT360P5VB","3ZXV7Q5FJBAKJ3TNMBBLYHIS0EBCFB","","<img src=""img/set1/S2.jpg"" width=""540"" height = ""360"" style=""border:16px solid orange"">","null","","","","","","","","","",""
"null","","html-keyboard-response","111","184920","0.0-111.0","3TDXMTX3CCGHZXK64U954XZWSQG6IP","A1WJIRT360P5VB","3ZXV7Q5FJBAKJ3TNMBBLYHIS0EBCFB","","","null","","","","","","","","","",""
"800.0999999940395","","image-keyboard-response","112","185724","0.0-112.0","3TDXMTX3CCGHZXK64U954XZWSQG6IP","A1WJIRT360P5VB","3ZXV7Q5FJBAKJ3TNMBBLYHIS0EBCFB","","img/set1/S1.jpg","83","1","random","83","random,structured_incentive,structured_normal,structured_load","4,2,2,3,1,2","1,2,3,4","true","","",""
"null","","html-keyboard-response","113","186080","0.0-113.0","3TDXMTX3CCGHZXK64U954XZWSQG6IP","A1WJIRT360P5VB","3ZXV7Q5FJBAKJ3TNMBBLYHIS0EBCFB","","<img src=""img/set1/S1.jpg"" width=""540"" height = ""360"" style=""border:16px solid orange"">","null","","","","","","","","","",""
"null","","html-keyboard-response","114","186285","0.0-114.0","3TDXMTX3CCGHZXK64U954XZWSQG6IP","A1WJIRT360P5VB","3ZXV7Q5FJBAKJ3TNMBBLYHIS0EBCFB","","","null","","","","","","","","","",""
"870.3999999910593","","image-keyboard-response","115","187160","0.0-115.0","3TDXMTX3CCGHZXK64U954XZWSQG6IP","A1WJIRT360P5VB","3ZXV7Q5FJBAKJ3TNMBBLYHIS0EBCFB","","img/set1/S3.jpg","72","3","random","72","random,structured_incentive,structured_normal,structured_load","4,2,2,3,1,2","1,2,3,4","true","","",""
"null","","html-keyboard-response","116","187517","0.0-116.0","3TDXMTX3CCGHZXK64U954XZWSQG6IP","A1WJIRT360P5VB","3ZXV7Q5FJBAKJ3TNMBBLYHIS0EBCFB","","<img src=""img/set1/S3.jpg"" width=""540"" height = ""360"" style=""border:16px solid orange"">","null","","","","","","","","","",""
"null","","html-keyboard-response","117","187721","0.0-117.0","3TDXMTX3CCGHZXK64U954XZWSQG6IP","A1WJIRT360P5VB","3ZXV7Q5FJBAKJ3TNMBBLYHIS0EBCFB","","","null","","","","","","","","","",""
"518.6000000089407","","image-keyboard-response","118","188244","0.0-118.0","3TDXMTX3CCGHZXK64U954XZWSQG6IP","A1WJIRT360P5VB","3ZXV7Q5FJBAKJ3TNMBBLYHIS0EBCFB","","img/set1/S3.jpg","72","3","random","72","random,structured_incentive,structured_normal,structured_load","4,2,2,3,1,2","1,2,3,4","true","","",""
"null","","html-keyboard-response","119","188601","0.0-119.0","3TDXMTX3CCGHZXK64U954XZWSQG6IP","A1WJIRT360P5VB","3ZXV7Q5FJBAKJ3TNMBBLYHIS0EBCFB","","<img src=""img/set1/S3.jpg"" width=""540"" height = ""360"" style=""border:16px solid orange"">","null","","","","","","","","","",""
"null","","html-keyboard-response","120","188805","0.0-120.0","3TDXMTX3CCGHZXK64U954XZWSQG6IP","A1WJIRT360P5VB","3ZXV7Q5FJBAKJ3TNMBBLYHIS0EBCFB","","","null","","","","","","","","","",""
"803.5","","image-keyboard-response","121","189613","0.0-121.0","3TDXMTX3CCGHZXK64U954XZWSQG6IP","A1WJIRT360P5VB","3ZXV7Q5FJBAKJ3TNMBBLYHIS0EBCFB","","img/set1/S2.jpg","68","2","random","68","random,structured_incentive,structured_normal,structured_load","4,2,2,3,1,2","1,2,3,4","true","","",""
"null","","html-keyboard-response","122","189968","0.0-122.0","3TDXMTX3CCGHZXK64U954XZWSQG6IP","A1WJIRT360P5VB","3ZXV7Q5FJBAKJ3TNMBBLYHIS0EBCFB","","<img src=""img/set1/S2.jpg"" width=""540"" height = ""360"" style=""border:16px solid orange"">","null","","","","","","","","","",""
"null","","html-keyboard-response","123","190172","0.0-123.0","3TDXMTX3CCGHZXK64U954XZWSQG6IP","A1WJIRT360P5VB","3ZXV7Q5FJBAKJ3TNMBBLYHIS0EBCFB","","","null","","","","","","","","","",""
"658.0999999940395","","image-keyboard-response","124","190835","0.0-124.0","3TDXMTX3CCGHZXK64U954XZWSQG6IP","A1WJIRT360P5VB","3ZXV7Q5FJBAKJ3TNMBBLYHIS0EBCFB","","img/set1/S4.jpg","74","4","random","74","random,structured_incentive,structured_normal,structured_load","4,2,2,3,1,2","1,2,3,4","true","","",""
"null","","html-keyboard-response","125","191190","0.0-125.0","3TDXMTX3CCGHZXK64U954XZWSQG6IP","A1WJIRT360P5VB","3ZXV7Q5FJBAKJ3TNMBBLYHIS0EBCFB","","<img src=""img/set1/S4.jpg"" width=""540"" height = ""360"" style=""border:16px solid orange"">","null","","","","","","","","","",""
"null","","html-keyboard-response","126","191394","0.0-126.0","3TDXMTX3CCGHZXK64U954XZWSQG6IP","A1WJIRT360P5VB","3ZXV7Q5FJBAKJ3TNMBBLYHIS0EBCFB","","","null","","","","","","","","","",""
"940.0999999940395","","image-keyboard-response","127","192339","0.0-127.0","3TDXMTX3CCGHZXK64U954XZWSQG6IP","A1WJIRT360P5VB","3ZXV7Q5FJBAKJ3TNMBBLYHIS0EBCFB","","img/set1/S3.jpg","72","3","random","72","random,structured_incentive,structured_normal,structured_load","4,2,2,3,1,2","1,2,3,4","true","","",""
"null","","html-keyboard-response","128","192695","0.0-128.0","3TDXMTX3CCGHZXK64U954XZWSQG6IP","A1WJIRT360P5VB","3ZXV7Q5FJBAKJ3TNMBBLYHIS0EBCFB","","<img src=""img/set1/S3.jpg"" width=""540"" height = ""360"" style=""border:16px solid orange"">","null","","","","","","","","","",""
"null","","html-keyboard-response","129","192900","0.0-129.0","3TDXMTX3CCGHZXK64U954XZWSQG6IP","A1WJIRT360P5VB","3ZXV7Q5FJBAKJ3TNMBBLYHIS0EBCFB","","","null","","","","","","","","","",""
"800.8000000119209","","image-keyboard-response","130","193705","0.0-130.0","3TDXMTX3CCGHZXK64U954XZWSQG6IP","A1WJIRT360P5VB","3ZXV7Q5FJBAKJ3TNMBBLYHIS0EBCFB","","img/set1/S2.jpg","68","2","random","68","random,structured_incentive,structured_normal,structured_load","4,2,2,3,1,2","1,2,3,4","true","","",""
"null","","html-keyboard-response","131","194062","0.0-131.0","3TDXMTX3CCGHZXK64U954XZWSQG6IP","A1WJIRT360P5VB","3ZXV7Q5FJBAKJ3TNMBBLYHIS0EBCFB","","<img src=""img/set1/S2.jpg"" width=""540"" height = ""360"" style=""border:16px solid orange"">","null","","","","","","","","","",""
"null","","html-keyboard-response","132","194267","0.0-132.0","3TDXMTX3CCGHZXK64U954XZWSQG6IP","A1WJIRT360P5VB","3ZXV7Q5FJBAKJ3TNMBBLYHIS0EBCFB","","","null","","","","","","","","","",""
"751.7999999970198","","image-keyboard-response","133","195023","0.0-133.0","3TDXMTX3CCGHZXK64U954XZWSQG6IP","A1WJIRT360P5VB","3ZXV7Q5FJBAKJ3TNMBBLYHIS0EBCFB","","img/set1/S1.jpg","83","1","random","83","random,structured_incentive,structured_normal,structured_load","4,2,2,3,1,2","1,2,3,4","true","","",""
"null","","html-keyboard-response","134","195379","0.0-134.0","3TDXMTX3CCGHZXK64U954XZWSQG6IP","A1WJIRT360P5VB","3ZXV7Q5FJBAKJ3TNMBBLYHIS0EBCFB","","<img src=""img/set1/S1.jpg"" width=""540"" height = ""360"" style=""border:16px solid orange"">","null","","","","","","","","","",""
"null","","html-keyboard-response","135","195583","0.0-135.0","3TDXMTX3CCGHZXK64U954XZWSQG6IP","A1WJIRT360P5VB","3ZXV7Q5FJBAKJ3TNMBBLYHIS0EBCFB","","","null","","","","","","","","","",""
"542.2999999970198","","image-keyboard-response","136","196130","0.0-136.0","3TDXMTX3CCGHZXK64U954XZWSQG6IP","A1WJIRT360P5VB","3ZXV7Q5FJBAKJ3TNMBBLYHIS0EBCFB","","img/set1/S1.jpg","83","1","random","83","random,structured_incentive,structured_normal,structured_load","4,2,2,3,1,2","1,2,3,4","true","","",""
"null","","html-keyboard-response","137","196486","0.0-137.0","3TDXMTX3CCGHZXK64U954XZWSQG6IP","A1WJIRT360P5VB","3ZXV7Q5FJBAKJ3TNMBBLYHIS0EBCFB","","<img src=""img/set1/S1.jpg"" width=""540"" height = ""360"" style=""border:16px solid orange"">","null","","","","","","","","","",""
"null","","html-keyboard-response","138","196691","0.0-138.0","3TDXMTX3CCGHZXK64U954XZWSQG6IP","A1WJIRT360P5VB","3ZXV7Q5FJBAKJ3TNMBBLYHIS0EBCFB","","","null","","","","","","","","","",""
"694.2999999970198","","image-keyboard-response","139","197389","0.0-139.0","3TDXMTX3CCGHZXK64U954XZWSQG6IP","A1WJIRT360P5VB","3ZXV7Q5FJBAKJ3TNMBBLYHIS0EBCFB","","img/set1/S4.jpg","74","4","random","74","random,structured_incentive,structured_normal,structured_load","4,2,2,3,1,2","1,2,3,4","true","","",""
"null","","html-keyboard-response","140","197745","0.0-140.0","3TDXMTX3CCGHZXK64U954XZWSQG6IP","A1WJIRT360P5VB","3ZXV7Q5FJBAKJ3TNMBBLYHIS0EBCFB","","<img src=""img/set1/S4.jpg"" width=""540"" height = ""360"" style=""border:16px solid orange"">","null","","","","","","","","","",""
"null","","html-keyboard-response","141","197950","0.0-141.0","3TDXMTX3CCGHZXK64U954XZWSQG6IP","A1WJIRT360P5VB","3ZXV7Q5FJBAKJ3TNMBBLYHIS0EBCFB","","","null","","","","","","","","","",""
"467.20000000298023","","image-keyboard-response","142","198421","0.0-142.0","3TDXMTX3CCGHZXK64U954XZWSQG6IP","A1WJIRT360P5VB","3ZXV7Q5FJBAKJ3TNMBBLYHIS0EBCFB","","img/set1/S4.jpg","74","4","random","74","random,structured_incentive,structured_normal,structured_load","4,2,2,3,1,2","1,2,3,4","true","","",""
"null","","html-keyboard-response","143","198786","0.0-143.0","3TDXMTX3CCGHZXK64U954XZWSQG6IP","A1WJIRT360P5VB","3ZXV7Q5FJBAKJ3TNMBBLYHIS0EBCFB","","<img src=""img/set1/S4.jpg"" width=""540"" height = ""360"" style=""border:16px solid orange"">","null","","","","","","","","","",""
"null","","html-keyboard-response","144","198991","0.0-144.0","3TDXMTX3CCGHZXK64U954XZWSQG6IP","A1WJIRT360P5VB","3ZXV7Q5FJBAKJ3TNMBBLYHIS0EBCFB","","","null","","","","","","","","","",""
"449.5","","image-keyboard-response","145","199445","0.0-145.0","3TDXMTX3CCGHZXK64U954XZWSQG6IP","A1WJIRT360P5VB","3ZXV7Q5FJBAKJ3TNMBBLYHIS0EBCFB","","img/set1/S4.jpg","74","4","random","74","random,structured_incentive,structured_normal,structured_load","4,2,2,3,1,2","1,2,3,4","true","","",""
"null","","html-keyboard-response","146","199801","0.0-146.0","3TDXMTX3CCGHZXK64U954XZWSQG6IP","A1WJIRT360P5VB","3ZXV7Q5FJBAKJ3TNMBBLYHIS0EBCFB","","<img src=""img/set1/S4.jpg"" width=""540"" height = ""360"" style=""border:16px solid orange"">","null","","","","","","","","","",""
"null","","html-keyboard-response","147","200006","0.0-147.0","3TDXMTX3CCGHZXK64U954XZWSQG6IP","A1WJIRT360P5VB","3ZXV7Q5FJBAKJ3TNMBBLYHIS0EBCFB","","","null","","","","","","","","","",""
"456.59999999403954","","image-keyboard-response","148","200467","0.0-148.0","3TDXMTX3CCGHZXK64U954XZWSQG6IP","A1WJIRT360P5VB","3ZXV7Q5FJBAKJ3TNMBBLYHIS0EBCFB","","img/set1/S4.jpg","74","4","random","74","random,structured_incentive,structured_normal,structured_load","4,2,2,3,1,2","1,2,3,4","true","","",""
"null","","html-keyboard-response","149","200822","0.0-149.0","3TDXMTX3CCGHZXK64U954XZWSQG6IP","A1WJIRT360P5VB","3ZXV7Q5FJBAKJ3TNMBBLYHIS0EBCFB","","<img src=""img/set1/S4.jpg"" width=""540"" height = ""360"" style=""border:16px solid orange"">","null","","","","","","","","","",""
"null","","html-keyboard-response","150","201041","0.0-150.0","3TDXMTX3CCGHZXK64U954XZWSQG6IP","A1WJIRT360P5VB","3ZXV7Q5FJBAKJ3TNMBBLYHIS0EBCFB","","","null","","","","","","","","","",""
"767.2999999970198","","image-keyboard-response","151","201813","0.0-151.0","3TDXMTX3CCGHZXK64U954XZWSQG6IP","A1WJIRT360P5VB","3ZXV7Q5FJBAKJ3TNMBBLYHIS0EBCFB","","img/set1/S1.jpg","83","1","random","83","random,structured_incentive,structured_normal,structured_load","4,2,2,3,1,2","1,2,3,4","true","","",""
"null","","html-keyboard-response","152","202168","0.0-152.0","3TDXMTX3CCGHZXK64U954XZWSQG6IP","A1WJIRT360P5VB","3ZXV7Q5FJBAKJ3TNMBBLYHIS0EBCFB","","<img src=""img/set1/S1.jpg"" width=""540"" height = ""360"" style=""border:16px solid orange"">","null","","","","","","","","","",""
"null","","html-keyboard-response","153","202373","0.0-153.0","3TDXMTX3CCGHZXK64U954XZWSQG6IP","A1WJIRT360P5VB","3ZXV7Q5FJBAKJ3TNMBBLYHIS0EBCFB","","","null","","","","","","","","","",""
"753.7000000029802","","image-keyboard-response","154","203133","0.0-154.0","3TDXMTX3CCGHZXK64U954XZWSQG6IP","A1WJIRT360P5VB","3ZXV7Q5FJBAKJ3TNMBBLYHIS0EBCFB","","img/set1/S4.jpg","74","4","random","74","random,structured_incentive,structured_normal,structured_load","4,2,2,3,1,2","1,2,3,4","true","","",""
"null","","html-keyboard-response","155","203492","0.0-155.0","3TDXMTX3CCGHZXK64U954XZWSQG6IP","A1WJIRT360P5VB","3ZXV7Q5FJBAKJ3TNMBBLYHIS0EBCFB","","<img src=""img/set1/S4.jpg"" width=""540"" height = ""360"" style=""border:16px solid orange"">","null","","","","","","","","","",""
"null","","html-keyboard-response","156","203696","0.0-156.0","3TDXMTX3CCGHZXK64U954XZWSQG6IP","A1WJIRT360P5VB","3ZXV7Q5FJBAKJ3TNMBBLYHIS0EBCFB","","","null","","","","","","","","","",""
"593.7000000029802","","image-keyboard-response","157","204293","0.0-157.0","3TDXMTX3CCGHZXK64U954XZWSQG6IP","A1WJIRT360P5VB","3ZXV7Q5FJBAKJ3TNMBBLYHIS0EBCFB","","img/set1/S3.jpg","72","3","random","72","random,structured_incentive,structured_normal,structured_load","4,2,2,3,1,2","1,2,3,4","true","","",""
"null","","html-keyboard-response","158","204649","0.0-158.0","3TDXMTX3CCGHZXK64U954XZWSQG6IP","A1WJIRT360P5VB","3ZXV7Q5FJBAKJ3TNMBBLYHIS0EBCFB","","<img src=""img/set1/S3.jpg"" width=""540"" height = ""360"" style=""border:16px solid orange"">","null","","","","","","","","","",""
"null","","html-keyboard-response","159","204854","0.0-159.0","3TDXMTX3CCGHZXK64U954XZWSQG6IP","A1WJIRT360P5VB","3ZXV7Q5FJBAKJ3TNMBBLYHIS0EBCFB","","","null","","","","","","","","","",""
"755.3999999910593","","image-keyboard-response","160","205615","0.0-160.0","3TDXMTX3CCGHZXK64U954XZWSQG6IP","A1WJIRT360P5VB","3ZXV7Q5FJBAKJ3TNMBBLYHIS0EBCFB","","img/set1/S4.jpg","74","4","random","74","random,structured_incentive,structured_normal,structured_load","4,2,2,3,1,2","1,2,3,4","true","","",""
"null","","html-keyboard-response","161","205971","0.0-161.0","3TDXMTX3CCGHZXK64U954XZWSQG6IP","A1WJIRT360P5VB","3ZXV7Q5FJBAKJ3TNMBBLYHIS0EBCFB","","<img src=""img/set1/S4.jpg"" width=""540"" height = ""360"" style=""border:16px solid orange"">","null","","","","","","","","","",""
"null","","html-keyboard-response","162","206176","0.0-162.0","3TDXMTX3CCGHZXK64U954XZWSQG6IP","A1WJIRT360P5VB","3ZXV7Q5FJBAKJ3TNMBBLYHIS0EBCFB","","","null","","","","","","","","","",""
"704.2999999970198","","image-keyboard-response","163","206885","0.0-163.0","3TDXMTX3CCGHZXK64U954XZWSQG6IP","A1WJIRT360P5VB","3ZXV7Q5FJBAKJ3TNMBBLYHIS0EBCFB","","img/set1/S1.jpg","83","1","random","83","random,structured_incentive,structured_normal,structured_load","4,2,2,3,1,2","1,2,3,4","true","","",""
"null","","html-keyboard-response","164","207240","0.0-164.0","3TDXMTX3CCGHZXK64U954XZWSQG6IP","A1WJIRT360P5VB","3ZXV7Q5FJBAKJ3TNMBBLYHIS0EBCFB","","<img src=""img/set1/S1.jpg"" width=""540"" height = ""360"" style=""border:16px solid orange"">","null","","","","","","","","","",""
"null","","html-keyboard-response","165","207444","0.0-165.0","3TDXMTX3CCGHZXK64U954XZWSQG6IP","A1WJIRT360P5VB","3ZXV7Q5FJBAKJ3TNMBBLYHIS0EBCFB","","","null","","","","","","","","","",""
"486.20000000298023","","image-keyboard-response","166","207935","0.0-166.0","3TDXMTX3CCGHZXK64U954XZWSQG6IP","A1WJIRT360P5VB","3ZXV7Q5FJBAKJ3TNMBBLYHIS0EBCFB","","img/set1/S1.jpg","83","1","random","83","random,structured_incentive,structured_normal,structured_load","4,2,2,3,1,2","1,2,3,4","true","","",""
"null","","html-keyboard-response","167","208290","0.0-167.0","3TDXMTX3CCGHZXK64U954XZWSQG6IP","A1WJIRT360P5VB","3ZXV7Q5FJBAKJ3TNMBBLYHIS0EBCFB","","<img src=""img/set1/S1.jpg"" width=""540"" height = ""360"" style=""border:16px solid orange"">","null","","","","","","","","","",""
"null","","html-keyboard-response","168","208494","0.0-168.0","3TDXMTX3CCGHZXK64U954XZWSQG6IP","A1WJIRT360P5VB","3ZXV7Q5FJBAKJ3TNMBBLYHIS0EBCFB","","","null","","","","","","","","","",""
"751.3999999910593","","image-keyboard-response","169","209250","0.0-169.0","3TDXMTX3CCGHZXK64U954XZWSQG6IP","A1WJIRT360P5VB","3ZXV7Q5FJBAKJ3TNMBBLYHIS0EBCFB","","img/set1/S3.jpg","72","3","random","72","random,structured_incentive,structured_normal,structured_load","4,2,2,3,1,2","1,2,3,4","true","","",""
"null","","html-keyboard-response","170","209606","0.0-170.0","3TDXMTX3CCGHZXK64U954XZWSQG6IP","A1WJIRT360P5VB","3ZXV7Q5FJBAKJ3TNMBBLYHIS0EBCFB","","<img src=""img/set1/S3.jpg"" width=""540"" height = ""360"" style=""border:16px solid orange"">","null","","","","","","","","","",""
"null","","html-keyboard-response","171","209811","0.0-171.0","3TDXMTX3CCGHZXK64U954XZWSQG6IP","A1WJIRT360P5VB","3ZXV7Q5FJBAKJ3TNMBBLYHIS0EBCFB","","","null","","","","","","","","","",""
"708.0999999940395","","image-keyboard-response","172","210523","0.0-172.0","3TDXMTX3CCGHZXK64U954XZWSQG6IP","A1WJIRT360P5VB","3ZXV7Q5FJBAKJ3TNMBBLYHIS0EBCFB","","img/set1/S1.jpg","83","1","random","83","random,structured_incentive,structured_normal,structured_load","4,2,2,3,1,2","1,2,3,4","true","","",""
"null","","html-keyboard-response","173","210879","0.0-173.0","3TDXMTX3CCGHZXK64U954XZWSQG6IP","A1WJIRT360P5VB","3ZXV7Q5FJBAKJ3TNMBBLYHIS0EBCFB","","<img src=""img/set1/S1.jpg"" width=""540"" height = ""360"" style=""border:16px solid orange"">","null","","","","","","","","","",""
"null","","html-keyboard-response","174","211084","0.0-174.0","3TDXMTX3CCGHZXK64U954XZWSQG6IP","A1WJIRT360P5VB","3ZXV7Q5FJBAKJ3TNMBBLYHIS0EBCFB","","","null","","","","","","","","","",""
"901.3000000119209","","image-keyboard-response","175","211990","0.0-175.0","3TDXMTX3CCGHZXK64U954XZWSQG6IP","A1WJIRT360P5VB","3ZXV7Q5FJBAKJ3TNMBBLYHIS0EBCFB","","img/set1/S3.jpg","72","3","random","72","random,structured_incentive,structured_normal,structured_load","4,2,2,3,1,2","1,2,3,4","true","","",""
"null","","html-keyboard-response","176","212344","0.0-176.0","3TDXMTX3CCGHZXK64U954XZWSQG6IP","A1WJIRT360P5VB","3ZXV7Q5FJBAKJ3TNMBBLYHIS0EBCFB","","<img src=""img/set1/S3.jpg"" width=""540"" height = ""360"" style=""border:16px solid orange"">","null","","","","","","","","","",""
"null","","html-keyboard-response","177","212549","0.0-177.0","3TDXMTX3CCGHZXK64U954XZWSQG6IP","A1WJIRT360P5VB","3ZXV7Q5FJBAKJ3TNMBBLYHIS0EBCFB","","","null","","","","","","","","","",""
"828.3999999910593","","image-keyboard-response","178","213382","0.0-178.0","3TDXMTX3CCGHZXK64U954XZWSQG6IP","A1WJIRT360P5VB","3ZXV7Q5FJBAKJ3TNMBBLYHIS0EBCFB","","img/set1/S2.jpg","68","2","random","68","random,structured_incentive,structured_normal,structured_load","4,2,2,3,1,2","1,2,3,4","true","","",""
"null","","html-keyboard-response","179","213737","0.0-179.0","3TDXMTX3CCGHZXK64U954XZWSQG6IP","A1WJIRT360P5VB","3ZXV7Q5FJBAKJ3TNMBBLYHIS0EBCFB","","<img src=""img/set1/S2.jpg"" width=""540"" height = ""360"" style=""border:16px solid orange"">","null","","","","","","","","","",""
"null","","html-keyboard-response","180","213943","0.0-180.0","3TDXMTX3CCGHZXK64U954XZWSQG6IP","A1WJIRT360P5VB","3ZXV7Q5FJBAKJ3TNMBBLYHIS0EBCFB","","","null","","","","","","","","","",""
"460.90000000596046","","image-keyboard-response","181","214408","0.0-181.0","3TDXMTX3CCGHZXK64U954XZWSQG6IP","A1WJIRT360P5VB","3ZXV7Q5FJBAKJ3TNMBBLYHIS0EBCFB","","img/set1/S2.jpg","68","2","random","68","random,structured_incentive,structured_normal,structured_load","4,2,2,3,1,2","1,2,3,4","true","","",""
"null","","html-keyboard-response","182","214764","0.0-182.0","3TDXMTX3CCGHZXK64U954XZWSQG6IP","A1WJIRT360P5VB","3ZXV7Q5FJBAKJ3TNMBBLYHIS0EBCFB","","<img src=""img/set1/S2.jpg"" width=""540"" height = ""360"" style=""border:16px solid orange"">","null","","","","","","","","","",""
"null","","html-keyboard-response","183","214969","0.0-183.0","3TDXMTX3CCGHZXK64U954XZWSQG6IP","A1WJIRT360P5VB","3ZXV7Q5FJBAKJ3TNMBBLYHIS0EBCFB","","","null","","","","","","","","","",""
"442.70000000298023","","image-keyboard-response","184","215416","0.0-184.0","3TDXMTX3CCGHZXK64U954XZWSQG6IP","A1WJIRT360P5VB","3ZXV7Q5FJBAKJ3TNMBBLYHIS0EBCFB","","img/set1/S2.jpg","68","2","random","68","random,structured_incentive,structured_normal,structured_load","4,2,2,3,1,2","1,2,3,4","true","","",""
"null","","html-keyboard-response","185","215772","0.0-185.0","3TDXMTX3CCGHZXK64U954XZWSQG6IP","A1WJIRT360P5VB","3ZXV7Q5FJBAKJ3TNMBBLYHIS0EBCFB","","<img src=""img/set1/S2.jpg"" width=""540"" height = ""360"" style=""border:16px solid orange"">","null","","","","","","","","","",""
"null","","html-keyboard-response","186","215976","0.0-186.0","3TDXMTX3CCGHZXK64U954XZWSQG6IP","A1WJIRT360P5VB","3ZXV7Q5FJBAKJ3TNMBBLYHIS0EBCFB","","","null","","","","","","","","","",""
"751.3999999910593","","image-keyboard-response","187","216731","0.0-187.0","3TDXMTX3CCGHZXK64U954XZWSQG6IP","A1WJIRT360P5VB","3ZXV7Q5FJBAKJ3TNMBBLYHIS0EBCFB","","img/set1/S3.jpg","72","3","random","72","random,structured_incentive,structured_normal,structured_load","4,2,2,3,1,2","1,2,3,4","true","","",""
"null","","html-keyboard-response","188","217087","0.0-188.0","3TDXMTX3CCGHZXK64U954XZWSQG6IP","A1WJIRT360P5VB","3ZXV7Q5FJBAKJ3TNMBBLYHIS0EBCFB","","<img src=""img/set1/S3.jpg"" width=""540"" height = ""360"" style=""border:16px solid orange"">","null","","","","","","","","","",""
"null","","html-keyboard-response","189","217291","0.0-189.0","3TDXMTX3CCGHZXK64U954XZWSQG6IP","A1WJIRT360P5VB","3ZXV7Q5FJBAKJ3TNMBBLYHIS0EBCFB","","","null","","","","","","","","","",""
"914","","image-keyboard-response","190","218210","0.0-190.0","3TDXMTX3CCGHZXK64U954XZWSQG6IP","A1WJIRT360P5VB","3ZXV7Q5FJBAKJ3TNMBBLYHIS0EBCFB","","img/set1/S1.jpg","83","1","random","83","random,structured_incentive,structured_normal,structured_load","4,2,2,3,1,2","1,2,3,4","true","","",""
"null","","html-keyboard-response","191","218566","0.0-191.0","3TDXMTX3CCGHZXK64U954XZWSQG6IP","A1WJIRT360P5VB","3ZXV7Q5FJBAKJ3TNMBBLYHIS0EBCFB","","<img src=""img/set1/S1.jpg"" width=""540"" height = ""360"" style=""border:16px solid orange"">","null","","","","","","","","","",""
"null","","html-keyboard-response","192","218770","0.0-192.0","3TDXMTX3CCGHZXK64U954XZWSQG6IP","A1WJIRT360P5VB","3ZXV7Q5FJBAKJ3TNMBBLYHIS0EBCFB","","","null","","","","","","","","","",""
"849.9000000059605","","image-keyboard-response","193","219625","0.0-193.0","3TDXMTX3CCGHZXK64U954XZWSQG6IP","A1WJIRT360P5VB","3ZXV7Q5FJBAKJ3TNMBBLYHIS0EBCFB","","img/set1/S3.jpg","68","3","random","72","random,structured_incentive,structured_normal,structured_load","4,2,2,3,1,2","1,2,3,4","false","","",""
"null","","html-keyboard-response","194","219980","0.0-194.0","3TDXMTX3CCGHZXK64U954XZWSQG6IP","A1WJIRT360P5VB","3ZXV7Q5FJBAKJ3TNMBBLYHIS0EBCFB","","<img src=""img/set1/S3.jpg"" width=""540"" height = ""360"">","null","","","","","","","","","",""
"null","","html-keyboard-response","195","220186","0.0-195.0","3TDXMTX3CCGHZXK64U954XZWSQG6IP","A1WJIRT360P5VB","3ZXV7Q5FJBAKJ3TNMBBLYHIS0EBCFB","","","null","","","","","","","","","",""
"769.2999999970198","","image-keyboard-response","196","220959","0.0-196.0","3TDXMTX3CCGHZXK64U954XZWSQG6IP","A1WJIRT360P5VB","3ZXV7Q5FJBAKJ3TNMBBLYHIS0EBCFB","","img/set1/S4.jpg","74","4","random","74","random,structured_incentive,structured_normal,structured_load","4,2,2,3,1,2","1,2,3,4","true","","",""
"null","","html-keyboard-response","197","221316","0.0-197.0","3TDXMTX3CCGHZXK64U954XZWSQG6IP","A1WJIRT360P5VB","3ZXV7Q5FJBAKJ3TNMBBLYHIS0EBCFB","","<img src=""img/set1/S4.jpg"" width=""540"" height = ""360"" style=""border:16px solid orange"">","null","","","","","","","","","",""
"null","","html-keyboard-response","198","221520","0.0-198.0","3TDXMTX3CCGHZXK64U954XZWSQG6IP","A1WJIRT360P5VB","3ZXV7Q5FJBAKJ3TNMBBLYHIS0EBCFB","","","null","","","","","","","","","",""
"850.9000000059605","","image-keyboard-response","199","222375","0.0-199.0","3TDXMTX3CCGHZXK64U954XZWSQG6IP","A1WJIRT360P5VB","3ZXV7Q5FJBAKJ3TNMBBLYHIS0EBCFB","","img/set1/S2.jpg","68","2","random","68","random,structured_incentive,structured_normal,structured_load","4,2,2,3,1,2","1,2,3,4","true","","",""
"null","","html-keyboard-response","200","222731","0.0-200.0","3TDXMTX3CCGHZXK64U954XZWSQG6IP","A1WJIRT360P5VB","3ZXV7Q5FJBAKJ3TNMBBLYHIS0EBCFB","","<img src=""img/set1/S2.jpg"" width=""540"" height = ""360"" style=""border:16px solid orange"">","null","","","","","","","","","",""
"null","","html-keyboard-response","201","222936","0.0-201.0","3TDXMTX3CCGHZXK64U954XZWSQG6IP","A1WJIRT360P5VB","3ZXV7Q5FJBAKJ3TNMBBLYHIS0EBCFB","","","null","","","","","","","","","",""
"605.9000000059605","","image-keyboard-response","202","223546","0.0-202.0","3TDXMTX3CCGHZXK64U954XZWSQG6IP","A1WJIRT360P5VB","3ZXV7Q5FJBAKJ3TNMBBLYHIS0EBCFB","","img/set1/S3.jpg","72","3","random","72","random,structured_incentive,structured_normal,structured_load","4,2,2,3,1,2","1,2,3,4","true","","",""
"null","","html-keyboard-response","203","223903","0.0-203.0","3TDXMTX3CCGHZXK64U954XZWSQG6IP","A1WJIRT360P5VB","3ZXV7Q5FJBAKJ3TNMBBLYHIS0EBCFB","","<img src=""img/set1/S3.jpg"" width=""540"" height = ""360"" style=""border:16px solid orange"">","null","","","","","","","","","",""
"null","","html-keyboard-response","204","224108","0.0-204.0","3TDXMTX3CCGHZXK64U954XZWSQG6IP","A1WJIRT360P5VB","3ZXV7Q5FJBAKJ3TNMBBLYHIS0EBCFB","","","null","","","","","","","","","",""
"939.0999999940395","","image-keyboard-response","205","225052","0.0-205.0","3TDXMTX3CCGHZXK64U954XZWSQG6IP","A1WJIRT360P5VB","3ZXV7Q5FJBAKJ3TNMBBLYHIS0EBCFB","","img/set1/S2.jpg","68","2","random","68","random,structured_incentive,structured_normal,structured_load","4,2,2,3,1,2","1,2,3,4","true","","",""
"null","","html-keyboard-response","206","225406","0.0-206.0","3TDXMTX3CCGHZXK64U954XZWSQG6IP","A1WJIRT360P5VB","3ZXV7Q5FJBAKJ3TNMBBLYHIS0EBCFB","","<img src=""img/set1/S2.jpg"" width=""540"" height = ""360"" style=""border:16px solid orange"">","null","","","","","","","","","",""
"null","","html-keyboard-response","207","225610","0.0-207.0","3TDXMTX3CCGHZXK64U954XZWSQG6IP","A1WJIRT360P5VB","3ZXV7Q5FJBAKJ3TNMBBLYHIS0EBCFB","","","null","","","","","","","","","",""
"594.7000000029802","","image-keyboard-response","208","226210","0.0-208.0","3TDXMTX3CCGHZXK64U954XZWSQG6IP","A1WJIRT360P5VB","3ZXV7Q5FJBAKJ3TNMBBLYHIS0EBCFB","","img/set1/S2.jpg","68","2","random","68","random,structured_incentive,structured_normal,structured_load","4,2,2,3,1,2","1,2,3,4","true","","",""
"null","","html-keyboard-response","209","226565","0.0-209.0","3TDXMTX3CCGHZXK64U954XZWSQG6IP","A1WJIRT360P5VB","3ZXV7Q5FJBAKJ3TNMBBLYHIS0EBCFB","","<img src=""img/set1/S2.jpg"" width=""540"" height = ""360"" style=""border:16px solid orange"">","null","","","","","","","","","",""
"null","","html-keyboard-response","210","226770","0.0-210.0","3TDXMTX3CCGHZXK64U954XZWSQG6IP","A1WJIRT360P5VB","3ZXV7Q5FJBAKJ3TNMBBLYHIS0EBCFB","","","null","","","","","","","","","",""
"738.7999999970198","","image-keyboard-response","211","227514","0.0-211.0","3TDXMTX3CCGHZXK64U954XZWSQG6IP","A1WJIRT360P5VB","3ZXV7Q5FJBAKJ3TNMBBLYHIS0EBCFB","","img/set1/S4.jpg","74","4","random","74","random,structured_incentive,structured_normal,structured_load","4,2,2,3,1,2","1,2,3,4","true","","",""
"null","","html-keyboard-response","212","227873","0.0-212.0","3TDXMTX3CCGHZXK64U954XZWSQG6IP","A1WJIRT360P5VB","3ZXV7Q5FJBAKJ3TNMBBLYHIS0EBCFB","","<img src=""img/set1/S4.jpg"" width=""540"" height = ""360"" style=""border:16px solid orange"">","null","","","","","","","","","",""
"null","","html-keyboard-response","213","228078","0.0-213.0","3TDXMTX3CCGHZXK64U954XZWSQG6IP","A1WJIRT360P5VB","3ZXV7Q5FJBAKJ3TNMBBLYHIS0EBCFB","","","null","","","","","","","","","",""
"705.9000000059605","","image-keyboard-response","214","228788","0.0-214.0","3TDXMTX3CCGHZXK64U954XZWSQG6IP","A1WJIRT360P5VB","3ZXV7Q5FJBAKJ3TNMBBLYHIS0EBCFB","","img/set1/S3.jpg","72","3","random","72","random,structured_incentive,structured_normal,structured_load","4,2,2,3,1,2","1,2,3,4","true","","",""
"null","","html-keyboard-response","215","229144","0.0-215.0","3TDXMTX3CCGHZXK64U954XZWSQG6IP","A1WJIRT360P5VB","3ZXV7Q5FJBAKJ3TNMBBLYHIS0EBCFB","","<img src=""img/set1/S3.jpg"" width=""540"" height = ""360"" style=""border:16px solid orange"">","null","","","","","","","","","",""
"null","","html-keyboard-response","216","229348","0.0-216.0","3TDXMTX3CCGHZXK64U954XZWSQG6IP","A1WJIRT360P5VB","3ZXV7Q5FJBAKJ3TNMBBLYHIS0EBCFB","","","null","","","","","","","","","",""
"678.7999999970198","","image-keyboard-response","217","230031","0.0-217.0","3TDXMTX3CCGHZXK64U954XZWSQG6IP","A1WJIRT360P5VB","3ZXV7Q5FJBAKJ3TNMBBLYHIS0EBCFB","","img/set1/S2.jpg","68","2","random","68","random,structured_incentive,structured_normal,structured_load","4,2,2,3,1,2","1,2,3,4","true","","",""
"null","","html-keyboard-response","218","230388","0.0-218.0","3TDXMTX3CCGHZXK64U954XZWSQG6IP","A1WJIRT360P5VB","3ZXV7Q5FJBAKJ3TNMBBLYHIS0EBCFB","","<img src=""img/set1/S2.jpg"" width=""540"" height = ""360"" style=""border:16px solid orange"">","null","","","","","","","","","",""
"null","","html-keyboard-response","219","230593","0.0-219.0","3TDXMTX3CCGHZXK64U954XZWSQG6IP","A1WJIRT360P5VB","3ZXV7Q5FJBAKJ3TNMBBLYHIS0EBCFB","","","null","","","","","","","","","",""
"757.8999999910593","","image-keyboard-response","220","231356","0.0-220.0","3TDXMTX3CCGHZXK64U954XZWSQG6IP","A1WJIRT360P5VB","3ZXV7Q5FJBAKJ3TNMBBLYHIS0EBCFB","","img/set1/S1.jpg","83","1","random","83","random,structured_incentive,structured_normal,structured_load","4,2,2,3,1,2","1,2,3,4","true","","",""
"null","","html-keyboard-response","221","231712","0.0-221.0","3TDXMTX3CCGHZXK64U954XZWSQG6IP","A1WJIRT360P5VB","3ZXV7Q5FJBAKJ3TNMBBLYHIS0EBCFB","","<img src=""img/set1/S1.jpg"" width=""540"" height = ""360"" style=""border:16px solid orange"">","null","","","","","","","","","",""
"null","","html-keyboard-response","222","231924","0.0-222.0","3TDXMTX3CCGHZXK64U954XZWSQG6IP","A1WJIRT360P5VB","3ZXV7Q5FJBAKJ3TNMBBLYHIS0EBCFB","","","null","","","","","","","","","",""
"691.0999999940395","","image-keyboard-response","223","232620","0.0-223.0","3TDXMTX3CCGHZXK64U954XZWSQG6IP","A1WJIRT360P5VB","3ZXV7Q5FJBAKJ3TNMBBLYHIS0EBCFB","","img/set1/S3.jpg","72","3","random","72","random,structured_incentive,structured_normal,structured_load","4,2,2,3,1,2","1,2,3,4","true","","",""
"null","","html-keyboard-response","224","232975","0.0-224.0","3TDXMTX3CCGHZXK64U954XZWSQG6IP","A1WJIRT360P5VB","3ZXV7Q5FJBAKJ3TNMBBLYHIS0EBCFB","","<img src=""img/set1/S3.jpg"" width=""540"" height = ""360"" style=""border:16px solid orange"">","null","","","","","","","","","",""
"null","","html-keyboard-response","225","233180","0.0-225.0","3TDXMTX3CCGHZXK64U954XZWSQG6IP","A1WJIRT360P5VB","3ZXV7Q5FJBAKJ3TNMBBLYHIS0EBCFB","","","null","","","","","","","","","",""
"686","","image-keyboard-response","226","233871","0.0-226.0","3TDXMTX3CCGHZXK64U954XZWSQG6IP","A1WJIRT360P5VB","3ZXV7Q5FJBAKJ3TNMBBLYHIS0EBCFB","","img/set1/S2.jpg","68","2","random","68","random,structured_incentive,structured_normal,structured_load","4,2,2,3,1,2","1,2,3,4","true","","",""
"null","","html-keyboard-response","227","234227","0.0-227.0","3TDXMTX3CCGHZXK64U954XZWSQG6IP","A1WJIRT360P5VB","3ZXV7Q5FJBAKJ3TNMBBLYHIS0EBCFB","","<img src=""img/set1/S2.jpg"" width=""540"" height = ""360"" style=""border:16px solid orange"">","null","","","","","","","","","",""
"null","","html-keyboard-response","228","234432","0.0-228.0","3TDXMTX3CCGHZXK64U954XZWSQG6IP","A1WJIRT360P5VB","3ZXV7Q5FJBAKJ3TNMBBLYHIS0EBCFB","","","null","","","","","","","","","",""
"651","","image-keyboard-response","229","235088","0.0-229.0","3TDXMTX3CCGHZXK64U954XZWSQG6IP","A1WJIRT360P5VB","3ZXV7Q5FJBAKJ3TNMBBLYHIS0EBCFB","","img/set1/S4.jpg","74","4","random","74","random,structured_incentive,structured_normal,structured_load","4,2,2,3,1,2","1,2,3,4","true","","",""
"null","","html-keyboard-response","230","235444","0.0-230.0","3TDXMTX3CCGHZXK64U954XZWSQG6IP","A1WJIRT360P5VB","3ZXV7Q5FJBAKJ3TNMBBLYHIS0EBCFB","","<img src=""img/set1/S4.jpg"" width=""540"" height = ""360"" style=""border:16px solid orange"">","null","","","","","","","","","",""
"null","","html-keyboard-response","231","235649","0.0-231.0","3TDXMTX3CCGHZXK64U954XZWSQG6IP","A1WJIRT360P5VB","3ZXV7Q5FJBAKJ3TNMBBLYHIS0EBCFB","","","null","","","","","","","","","",""
"641.5999999940395","","image-keyboard-response","232","236294","0.0-232.0","3TDXMTX3CCGHZXK64U954XZWSQG6IP","A1WJIRT360P5VB","3ZXV7Q5FJBAKJ3TNMBBLYHIS0EBCFB","","img/set1/S2.jpg","68","2","random","68","random,structured_incentive,structured_normal,structured_load","4,2,2,3,1,2","1,2,3,4","true","","",""
"null","","html-keyboard-response","233","236650","0.0-233.0","3TDXMTX3CCGHZXK64U954XZWSQG6IP","A1WJIRT360P5VB","3ZXV7Q5FJBAKJ3TNMBBLYHIS0EBCFB","","<img src=""img/set1/S2.jpg"" width=""540"" height = ""360"" style=""border:16px solid orange"">","null","","","","","","","","","",""
"null","","html-keyboard-response","234","236855","0.0-234.0","3TDXMTX3CCGHZXK64U954XZWSQG6IP","A1WJIRT360P5VB","3ZXV7Q5FJBAKJ3TNMBBLYHIS0EBCFB","","","null","","","","","","","","","",""
"783.8999999910593","","image-keyboard-response","235","237643","0.0-235.0","3TDXMTX3CCGHZXK64U954XZWSQG6IP","A1WJIRT360P5VB","3ZXV7Q5FJBAKJ3TNMBBLYHIS0EBCFB","","img/set1/S4.jpg","74","4","random","74","random,structured_incentive,structured_normal,structured_load","4,2,2,3,1,2","1,2,3,4","true","","",""
"null","","html-keyboard-response","236","237998","0.0-236.0","3TDXMTX3CCGHZXK64U954XZWSQG6IP","A1WJIRT360P5VB","3ZXV7Q5FJBAKJ3TNMBBLYHIS0EBCFB","","<img src=""img/set1/S4.jpg"" width=""540"" height = ""360"" style=""border:16px solid orange"">","null","","","","","","","","","",""
"null","","html-keyboard-response","237","238204","0.0-237.0","3TDXMTX3CCGHZXK64U954XZWSQG6IP","A1WJIRT360P5VB","3ZXV7Q5FJBAKJ3TNMBBLYHIS0EBCFB","","","null","","","","","","","","","",""
"1200.4000000059605","","image-keyboard-response","238","239409","0.0-238.0","3TDXMTX3CCGHZXK64U954XZWSQG6IP","A1WJIRT360P5VB","3ZXV7Q5FJBAKJ3TNMBBLYHIS0EBCFB","","img/set1/S2.jpg","72","2","random","68","random,structured_incentive,structured_normal,structured_load","4,2,2,3,1,2","1,2,3,4","false","","",""
"null","","html-keyboard-response","239","239765","0.0-239.0","3TDXMTX3CCGHZXK64U954XZWSQG6IP","A1WJIRT360P5VB","3ZXV7Q5FJBAKJ3TNMBBLYHIS0EBCFB","","<img src=""img/set1/S2.jpg"" width=""540"" height = ""360"">","null","","","","","","","","","",""
"null","","html-keyboard-response","240","239972","0.0-240.0","3TDXMTX3CCGHZXK64U954XZWSQG6IP","A1WJIRT360P5VB","3ZXV7Q5FJBAKJ3TNMBBLYHIS0EBCFB","","","null","","","","","","","","","",""
"915.2999999970198","","image-keyboard-response","241","240892","0.0-241.0","3TDXMTX3CCGHZXK64U954XZWSQG6IP","A1WJIRT360P5VB","3ZXV7Q5FJBAKJ3TNMBBLYHIS0EBCFB","","img/set1/S3.jpg","72","3","random","72","random,structured_incentive,structured_normal,structured_load","4,2,2,3,1,2","1,2,3,4","true","","",""
"null","","html-keyboard-response","242","241248","0.0-242.0","3TDXMTX3CCGHZXK64U954XZWSQG6IP","A1WJIRT360P5VB","3ZXV7Q5FJBAKJ3TNMBBLYHIS0EBCFB","","<img src=""img/set1/S3.jpg"" width=""540"" height = ""360"" style=""border:16px solid orange"">","null","","","","","","","","","",""
"null","","html-keyboard-response","243","241452","0.0-243.0","3TDXMTX3CCGHZXK64U954XZWSQG6IP","A1WJIRT360P5VB","3ZXV7Q5FJBAKJ3TNMBBLYHIS0EBCFB","","","null","","","","","","","","","",""
"617.9000000059605","","image-keyboard-response","244","242075","0.0-244.0","3TDXMTX3CCGHZXK64U954XZWSQG6IP","A1WJIRT360P5VB","3ZXV7Q5FJBAKJ3TNMBBLYHIS0EBCFB","","img/set1/S3.jpg","72","3","random","72","random,structured_incentive,structured_normal,structured_load","4,2,2,3,1,2","1,2,3,4","true","","",""
"null","","html-keyboard-response","245","242431","0.0-245.0","3TDXMTX3CCGHZXK64U954XZWSQG6IP","A1WJIRT360P5VB","3ZXV7Q5FJBAKJ3TNMBBLYHIS0EBCFB","","<img src=""img/set1/S3.jpg"" width=""540"" height = ""360"" style=""border:16px solid orange"">","null","","","","","","","","","",""
"null","","html-keyboard-response","246","242635","0.0-246.0","3TDXMTX3CCGHZXK64U954XZWSQG6IP","A1WJIRT360P5VB","3ZXV7Q5FJBAKJ3TNMBBLYHIS0EBCFB","","","null","","","","","","","","","",""
"603.3999999910593","","image-keyboard-response","247","243242","0.0-247.0","3TDXMTX3CCGHZXK64U954XZWSQG6IP","A1WJIRT360P5VB","3ZXV7Q5FJBAKJ3TNMBBLYHIS0EBCFB","","img/set1/S2.jpg","68","2","random","68","random,structured_incentive,structured_normal,structured_load","4,2,2,3,1,2","1,2,3,4","true","","",""
"null","","html-keyboard-response","248","243598","0.0-248.0","3TDXMTX3CCGHZXK64U954XZWSQG6IP","A1WJIRT360P5VB","3ZXV7Q5FJBAKJ3TNMBBLYHIS0EBCFB","","<img src=""img/set1/S2.jpg"" width=""540"" height = ""360"" style=""border:16px solid orange"">","null","","","","","","","","","",""
"null","","html-keyboard-response","249","243802","0.0-249.0","3TDXMTX3CCGHZXK64U954XZWSQG6IP","A1WJIRT360P5VB","3ZXV7Q5FJBAKJ3TNMBBLYHIS0EBCFB","","","null","","","","","","","","","",""
"436.5","","image-keyboard-response","250","244244","0.0-250.0","3TDXMTX3CCGHZXK64U954XZWSQG6IP","A1WJIRT360P5VB","3ZXV7Q5FJBAKJ3TNMBBLYHIS0EBCFB","","img/set1/S2.jpg","68","2","random","68","random,structured_incentive,structured_normal,structured_load","4,2,2,3,1,2","1,2,3,4","true","","",""
"null","","html-keyboard-response","251","244600","0.0-251.0","3TDXMTX3CCGHZXK64U954XZWSQG6IP","A1WJIRT360P5VB","3ZXV7Q5FJBAKJ3TNMBBLYHIS0EBCFB","","<img src=""img/set1/S2.jpg"" width=""540"" height = ""360"" style=""border:16px solid orange"">","null","","","","","","","","","",""
"null","","html-keyboard-response","252","244805","0.0-252.0","3TDXMTX3CCGHZXK64U954XZWSQG6IP","A1WJIRT360P5VB","3ZXV7Q5FJBAKJ3TNMBBLYHIS0EBCFB","","","null","","","","","","","","","",""
"758","","image-keyboard-response","253","245567","0.0-253.0","3TDXMTX3CCGHZXK64U954XZWSQG6IP","A1WJIRT360P5VB","3ZXV7Q5FJBAKJ3TNMBBLYHIS0EBCFB","","img/set1/S3.jpg","72","3","random","72","random,structured_incentive,structured_normal,structured_load","4,2,2,3,1,2","1,2,3,4","true","","",""
"null","","html-keyboard-response","254","245922","0.0-254.0","3TDXMTX3CCGHZXK64U954XZWSQG6IP","A1WJIRT360P5VB","3ZXV7Q5FJBAKJ3TNMBBLYHIS0EBCFB","","<img src=""img/set1/S3.jpg"" width=""540"" height = ""360"" style=""border:16px solid orange"">","null","","","","","","","","","",""
"null","","html-keyboard-response","255","246127","0.0-255.0","3TDXMTX3CCGHZXK64U954XZWSQG6IP","A1WJIRT360P5VB","3ZXV7Q5FJBAKJ3TNMBBLYHIS0EBCFB","","","null","","","","","","","","","",""
"440.59999999403954","","image-keyboard-response","256","246572","0.0-256.0","3TDXMTX3CCGHZXK64U954XZWSQG6IP","A1WJIRT360P5VB","3ZXV7Q5FJBAKJ3TNMBBLYHIS0EBCFB","","img/set1/S3.jpg","72","3","random","72","random,structured_incentive,structured_normal,structured_load","4,2,2,3,1,2","1,2,3,4","true","","",""
"null","","html-keyboard-response","257","246928","0.0-257.0","3TDXMTX3CCGHZXK64U954XZWSQG6IP","A1WJIRT360P5VB","3ZXV7Q5FJBAKJ3TNMBBLYHIS0EBCFB","","<img src=""img/set1/S3.jpg"" width=""540"" height = ""360"" style=""border:16px solid orange"">","null","","","","","","","","","",""
"null","","html-keyboard-response","258","247133","0.0-258.0","3TDXMTX3CCGHZXK64U954XZWSQG6IP","A1WJIRT360P5VB","3ZXV7Q5FJBAKJ3TNMBBLYHIS0EBCFB","","","null","","","","","","","","","",""
"723.4000000059605","","image-keyboard-response","259","247861","0.0-259.0","3TDXMTX3CCGHZXK64U954XZWSQG6IP","A1WJIRT360P5VB","3ZXV7Q5FJBAKJ3TNMBBLYHIS0EBCFB","","img/set1/S2.jpg","68","2","random","68","random,structured_incentive,structured_normal,structured_load","4,2,2,3,1,2","1,2,3,4","true","","",""
"null","","html-keyboard-response","260","248217","0.0-260.0","3TDXMTX3CCGHZXK64U954XZWSQG6IP","A1WJIRT360P5VB","3ZXV7Q5FJBAKJ3TNMBBLYHIS0EBCFB","","<img src=""img/set1/S2.jpg"" width=""540"" height = ""360"" style=""border:16px solid orange"">","null","","","","","","","","","",""
"null","","html-keyboard-response","261","248421","0.0-261.0","3TDXMTX3CCGHZXK64U954XZWSQG6IP","A1WJIRT360P5VB","3ZXV7Q5FJBAKJ3TNMBBLYHIS0EBCFB","","","null","","","","","","","","","",""
"408.40000000596046","","image-keyboard-response","262","248834","0.0-262.0","3TDXMTX3CCGHZXK64U954XZWSQG6IP","A1WJIRT360P5VB","3ZXV7Q5FJBAKJ3TNMBBLYHIS0EBCFB","","img/set1/S2.jpg","68","2","random","68","random,structured_incentive,structured_normal,structured_load","4,2,2,3,1,2","1,2,3,4","true","","",""
"null","","html-keyboard-response","263","249190","0.0-263.0","3TDXMTX3CCGHZXK64U954XZWSQG6IP","A1WJIRT360P5VB","3ZXV7Q5FJBAKJ3TNMBBLYHIS0EBCFB","","<img src=""img/set1/S2.jpg"" width=""540"" height = ""360"" style=""border:16px solid orange"">","null","","","","","","","","","",""
"null","","html-keyboard-response","264","249395","0.0-264.0","3TDXMTX3CCGHZXK64U954XZWSQG6IP","A1WJIRT360P5VB","3ZXV7Q5FJBAKJ3TNMBBLYHIS0EBCFB","","","null","","","","","","","","","",""
"720.2000000029802","","image-keyboard-response","265","250119","0.0-265.0","3TDXMTX3CCGHZXK64U954XZWSQG6IP","A1WJIRT360P5VB","3ZXV7Q5FJBAKJ3TNMBBLYHIS0EBCFB","","img/set1/S3.jpg","72","3","random","72","random,structured_incentive,structured_normal,structured_load","4,2,2,3,1,2","1,2,3,4","true","","",""
"null","","html-keyboard-response","266","250475","0.0-266.0","3TDXMTX3CCGHZXK64U954XZWSQG6IP","A1WJIRT360P5VB","3ZXV7Q5FJBAKJ3TNMBBLYHIS0EBCFB","","<img src=""img/set1/S3.jpg"" width=""540"" height = ""360"" style=""border:16px solid orange"">","null","","","","","","","","","",""
"null","","html-keyboard-response","267","250679","0.0-267.0","3TDXMTX3CCGHZXK64U954XZWSQG6IP","A1WJIRT360P5VB","3ZXV7Q5FJBAKJ3TNMBBLYHIS0EBCFB","","","null","","","","","","","","","",""
"747.5999999940395","","image-keyboard-response","268","251431","0.0-268.0","3TDXMTX3CCGHZXK64U954XZWSQG6IP","A1WJIRT360P5VB","3ZXV7Q5FJBAKJ3TNMBBLYHIS0EBCFB","","img/set1/S4.jpg","74","4","random","74","random,structured_incentive,structured_normal,structured_load","4,2,2,3,1,2","1,2,3,4","true","","",""
"null","","html-keyboard-response","269","251787","0.0-269.0","3TDXMTX3CCGHZXK64U954XZWSQG6IP","A1WJIRT360P5VB","3ZXV7Q5FJBAKJ3TNMBBLYHIS0EBCFB","","<img src=""img/set1/S4.jpg"" width=""540"" height = ""360"" style=""border:16px solid orange"">","null","","","","","","","","","",""
"null","","html-keyboard-response","270","251991","0.0-270.0","3TDXMTX3CCGHZXK64U954XZWSQG6IP","A1WJIRT360P5VB","3ZXV7Q5FJBAKJ3TNMBBLYHIS0EBCFB","","","null","","","","","","","","","",""
"802.7000000029802","","image-keyboard-response","271","252799","0.0-271.0","3TDXMTX3CCGHZXK64U954XZWSQG6IP","A1WJIRT360P5VB","3ZXV7Q5FJBAKJ3TNMBBLYHIS0EBCFB","","img/set1/S1.jpg","83","1","random","83","random,structured_incentive,structured_normal,structured_load","4,2,2,3,1,2","1,2,3,4","true","","",""
"null","","html-keyboard-response","272","253155","0.0-272.0","3TDXMTX3CCGHZXK64U954XZWSQG6IP","A1WJIRT360P5VB","3ZXV7Q5FJBAKJ3TNMBBLYHIS0EBCFB","","<img src=""img/set1/S1.jpg"" width=""540"" height = ""360"" style=""border:16px solid orange"">","null","","","","","","","","","",""
"null","","html-keyboard-response","273","253359","0.0-273.0","3TDXMTX3CCGHZXK64U954XZWSQG6IP","A1WJIRT360P5VB","3ZXV7Q5FJBAKJ3TNMBBLYHIS0EBCFB","","","null","","","","","","","","","",""
"799.3000000119209","","image-keyboard-response","274","254163","0.0-274.0","3TDXMTX3CCGHZXK64U954XZWSQG6IP","A1WJIRT360P5VB","3ZXV7Q5FJBAKJ3TNMBBLYHIS0EBCFB","","img/set1/S3.jpg","72","3","random","72","random,structured_incentive,structured_normal,structured_load","4,2,2,3,1,2","1,2,3,4","true","","",""
"null","","html-keyboard-response","275","254519","0.0-275.0","3TDXMTX3CCGHZXK64U954XZWSQG6IP","A1WJIRT360P5VB","3ZXV7Q5FJBAKJ3TNMBBLYHIS0EBCFB","","<img src=""img/set1/S3.jpg"" width=""540"" height = ""360"" style=""border:16px solid orange"">","null","","","","","","","","","",""
"null","","html-keyboard-response","276","254724","0.0-276.0","3TDXMTX3CCGHZXK64U954XZWSQG6IP","A1WJIRT360P5VB","3ZXV7Q5FJBAKJ3TNMBBLYHIS0EBCFB","","","null","","","","","","","","","",""
"650.7000000029802","","image-keyboard-response","277","255379","0.0-277.0","3TDXMTX3CCGHZXK64U954XZWSQG6IP","A1WJIRT360P5VB","3ZXV7Q5FJBAKJ3TNMBBLYHIS0EBCFB","","img/set1/S2.jpg","68","2","random","68","random,structured_incentive,structured_normal,structured_load","4,2,2,3,1,2","1,2,3,4","true","","",""
"null","","html-keyboard-response","278","255735","0.0-278.0","3TDXMTX3CCGHZXK64U954XZWSQG6IP","A1WJIRT360P5VB","3ZXV7Q5FJBAKJ3TNMBBLYHIS0EBCFB","","<img src=""img/set1/S2.jpg"" width=""540"" height = ""360"" style=""border:16px solid orange"">","null","","","","","","","","","",""
"null","","html-keyboard-response","279","255939","0.0-279.0","3TDXMTX3CCGHZXK64U954XZWSQG6IP","A1WJIRT360P5VB","3ZXV7Q5FJBAKJ3TNMBBLYHIS0EBCFB","","","null","","","","","","","","","",""
"446","","image-keyboard-response","280","256389","0.0-280.0","3TDXMTX3CCGHZXK64U954XZWSQG6IP","A1WJIRT360P5VB","3ZXV7Q5FJBAKJ3TNMBBLYHIS0EBCFB","","img/set1/S2.jpg","68","2","random","68","random,structured_incentive,structured_normal,structured_load","4,2,2,3,1,2","1,2,3,4","true","","",""
"null","","html-keyboard-response","281","256745","0.0-281.0","3TDXMTX3CCGHZXK64U954XZWSQG6IP","A1WJIRT360P5VB","3ZXV7Q5FJBAKJ3TNMBBLYHIS0EBCFB","","<img src=""img/set1/S2.jpg"" width=""540"" height = ""360"" style=""border:16px solid orange"">","null","","","","","","","","","",""
"null","","html-keyboard-response","282","256949","0.0-282.0","3TDXMTX3CCGHZXK64U954XZWSQG6IP","A1WJIRT360P5VB","3ZXV7Q5FJBAKJ3TNMBBLYHIS0EBCFB","","","null","","","","","","","","","",""
"682.6000000089407","","image-keyboard-response","283","257637","0.0-283.0","3TDXMTX3CCGHZXK64U954XZWSQG6IP","A1WJIRT360P5VB","3ZXV7Q5FJBAKJ3TNMBBLYHIS0EBCFB","","img/set1/S4.jpg","74","4","random","74","random,structured_incentive,structured_normal,structured_load","4,2,2,3,1,2","1,2,3,4","true","","",""
"null","","html-keyboard-response","284","258005","0.0-284.0","3TDXMTX3CCGHZXK64U954XZWSQG6IP","A1WJIRT360P5VB","3ZXV7Q5FJBAKJ3TNMBBLYHIS0EBCFB","","<img src=""img/set1/S4.jpg"" width=""540"" height = ""360"" style=""border:16px solid orange"">","null","","","","","","","","","",""
"null","","html-keyboard-response","285","258217","0.0-285.0","3TDXMTX3CCGHZXK64U954XZWSQG6IP","A1WJIRT360P5VB","3ZXV7Q5FJBAKJ3TNMBBLYHIS0EBCFB","","","null","","","","","","","","","",""
"925.7000000029802","","image-keyboard-response","286","259147","0.0-286.0","3TDXMTX3CCGHZXK64U954XZWSQG6IP","A1WJIRT360P5VB","3ZXV7Q5FJBAKJ3TNMBBLYHIS0EBCFB","","img/set1/S2.jpg","68","2","random","68","random,structured_incentive,structured_normal,structured_load","4,2,2,3,1,2","1,2,3,4","true","","",""
"null","","html-keyboard-response","287","259503","0.0-287.0","3TDXMTX3CCGHZXK64U954XZWSQG6IP","A1WJIRT360P5VB","3ZXV7Q5FJBAKJ3TNMBBLYHIS0EBCFB","","<img src=""img/set1/S2.jpg"" width=""540"" height = ""360"" style=""border:16px solid orange"">","null","","","","","","","","","",""
"null","","html-keyboard-response","288","259708","0.0-288.0","3TDXMTX3CCGHZXK64U954XZWSQG6IP","A1WJIRT360P5VB","3ZXV7Q5FJBAKJ3TNMBBLYHIS0EBCFB","","","null","","","","","","","","","",""
"692.8999999910593","","image-keyboard-response","289","260405","0.0-289.0","3TDXMTX3CCGHZXK64U954XZWSQG6IP","A1WJIRT360P5VB","3ZXV7Q5FJBAKJ3TNMBBLYHIS0EBCFB","","img/set1/S1.jpg","83","1","random","83","random,structured_incentive,structured_normal,structured_load","4,2,2,3,1,2","1,2,3,4","true","","",""
"null","","html-keyboard-response","290","260761","0.0-290.0","3TDXMTX3CCGHZXK64U954XZWSQG6IP","A1WJIRT360P5VB","3ZXV7Q5FJBAKJ3TNMBBLYHIS0EBCFB","","<img src=""img/set1/S1.jpg"" width=""540"" height = ""360"" style=""border:16px solid orange"">","null","","","","","","","","","",""
"null","","html-keyboard-response","291","260965","0.0-291.0","3TDXMTX3CCGHZXK64U954XZWSQG6IP","A1WJIRT360P5VB","3ZXV7Q5FJBAKJ3TNMBBLYHIS0EBCFB","","","null","","","","","","","","","",""
"752.1000000089407","","image-keyboard-response","292","261721","0.0-292.0","3TDXMTX3CCGHZXK64U954XZWSQG6IP","A1WJIRT360P5VB","3ZXV7Q5FJBAKJ3TNMBBLYHIS0EBCFB","","img/set1/S4.jpg","74","4","random","74","random,structured_incentive,structured_normal,structured_load","4,2,2,3,1,2","1,2,3,4","true","","",""
"null","","html-keyboard-response","293","262077","0.0-293.0","3TDXMTX3CCGHZXK64U954XZWSQG6IP","A1WJIRT360P5VB","3ZXV7Q5FJBAKJ3TNMBBLYHIS0EBCFB","","<img src=""img/set1/S4.jpg"" width=""540"" height = ""360"" style=""border:16px solid orange"">","null","","","","","","","","","",""
"null","","html-keyboard-response","294","262282","0.0-294.0","3TDXMTX3CCGHZXK64U954XZWSQG6IP","A1WJIRT360P5VB","3ZXV7Q5FJBAKJ3TNMBBLYHIS0EBCFB","","","null","","","","","","","","","",""
"475.70000000298023","","image-keyboard-response","295","262763","0.0-295.0","3TDXMTX3CCGHZXK64U954XZWSQG6IP","A1WJIRT360P5VB","3ZXV7Q5FJBAKJ3TNMBBLYHIS0EBCFB","","img/set1/S4.jpg","74","4","random","74","random,structured_incentive,structured_normal,structured_load","4,2,2,3,1,2","1,2,3,4","true","","",""
"null","","html-keyboard-response","296","263119","0.0-296.0","3TDXMTX3CCGHZXK64U954XZWSQG6IP","A1WJIRT360P5VB","3ZXV7Q5FJBAKJ3TNMBBLYHIS0EBCFB","","<img src=""img/set1/S4.jpg"" width=""540"" height = ""360"" style=""border:16px solid orange"">","null","","","","","","","","","",""
"null","","html-keyboard-response","297","263323","0.0-297.0","3TDXMTX3CCGHZXK64U954XZWSQG6IP","A1WJIRT360P5VB","3ZXV7Q5FJBAKJ3TNMBBLYHIS0EBCFB","","","null","","","","","","","","","",""
"735.6000000089407","","image-keyboard-response","298","264065","0.0-298.0","3TDXMTX3CCGHZXK64U954XZWSQG6IP","A1WJIRT360P5VB","3ZXV7Q5FJBAKJ3TNMBBLYHIS0EBCFB","","img/set1/S2.jpg","68","2","random","68","random,structured_incentive,structured_normal,structured_load","4,2,2,3,1,2","1,2,3,4","true","","",""
"null","","html-keyboard-response","299","264422","0.0-299.0","3TDXMTX3CCGHZXK64U954XZWSQG6IP","A1WJIRT360P5VB","3ZXV7Q5FJBAKJ3TNMBBLYHIS0EBCFB","","<img src=""img/set1/S2.jpg"" width=""540"" height = ""360"" style=""border:16px solid orange"">","null","","","","","","","","","",""
"null","","html-keyboard-response","300","264625","0.0-300.0","3TDXMTX3CCGHZXK64U954XZWSQG6IP","A1WJIRT360P5VB","3ZXV7Q5FJBAKJ3TNMBBLYHIS0EBCFB","","","null","","","","","","","","","",""
"754.7999999970198","","image-keyboard-response","301","265384","0.0-301.0","3TDXMTX3CCGHZXK64U954XZWSQG6IP","A1WJIRT360P5VB","3ZXV7Q5FJBAKJ3TNMBBLYHIS0EBCFB","","img/set1/S4.jpg","74","4","random","74","random,structured_incentive,structured_normal,structured_load","4,2,2,3,1,2","1,2,3,4","true","","",""
"null","","html-keyboard-response","302","265742","0.0-302.0","3TDXMTX3CCGHZXK64U954XZWSQG6IP","A1WJIRT360P5VB","3ZXV7Q5FJBAKJ3TNMBBLYHIS0EBCFB","","<img src=""img/set1/S4.jpg"" width=""540"" height = ""360"" style=""border:16px solid orange"">","null","","","","","","","","","",""
"null","","html-keyboard-response","303","265946","0.0-303.0","3TDXMTX3CCGHZXK64U954XZWSQG6IP","A1WJIRT360P5VB","3ZXV7Q5FJBAKJ3TNMBBLYHIS0EBCFB","","","null","","","","","","","","","",""
"543.1000000089407","","image-keyboard-response","304","266493","0.0-304.0","3TDXMTX3CCGHZXK64U954XZWSQG6IP","A1WJIRT360P5VB","3ZXV7Q5FJBAKJ3TNMBBLYHIS0EBCFB","","img/set1/S3.jpg","72","3","random","72","random,structured_incentive,structured_normal,structured_load","4,2,2,3,1,2","1,2,3,4","true","","",""
"null","","html-keyboard-response","305","266848","0.0-305.0","3TDXMTX3CCGHZXK64U954XZWSQG6IP","A1WJIRT360P5VB","3ZXV7Q5FJBAKJ3TNMBBLYHIS0EBCFB","","<img src=""img/set1/S3.jpg"" width=""540"" height = ""360"" style=""border:16px solid orange"">","null","","","","","","","","","",""
"null","","html-keyboard-response","306","267053","0.0-306.0","3TDXMTX3CCGHZXK64U954XZWSQG6IP","A1WJIRT360P5VB","3ZXV7Q5FJBAKJ3TNMBBLYHIS0EBCFB","","","null","","","","","","","","","",""
"660","","image-keyboard-response","307","267717","0.0-307.0","3TDXMTX3CCGHZXK64U954XZWSQG6IP","A1WJIRT360P5VB","3ZXV7Q5FJBAKJ3TNMBBLYHIS0EBCFB","","img/set1/S2.jpg","68","2","random","68","random,structured_incentive,structured_normal,structured_load","4,2,2,3,1,2","1,2,3,4","true","","",""
"null","","html-keyboard-response","308","268073","0.0-308.0","3TDXMTX3CCGHZXK64U954XZWSQG6IP","A1WJIRT360P5VB","3ZXV7Q5FJBAKJ3TNMBBLYHIS0EBCFB","","<img src=""img/set1/S2.jpg"" width=""540"" height = ""360"" style=""border:16px solid orange"">","null","","","","","","","","","",""
"null","","html-keyboard-response","309","268288","0.0-309.0","3TDXMTX3CCGHZXK64U954XZWSQG6IP","A1WJIRT360P5VB","3ZXV7Q5FJBAKJ3TNMBBLYHIS0EBCFB","","","null","","","","","","","","","",""
"667.4000000059605","","image-keyboard-response","310","268961","0.0-310.0","3TDXMTX3CCGHZXK64U954XZWSQG6IP","A1WJIRT360P5VB","3ZXV7Q5FJBAKJ3TNMBBLYHIS0EBCFB","","img/set1/S4.jpg","74","4","random","74","random,structured_incentive,structured_normal,structured_load","4,2,2,3,1,2","1,2,3,4","true","","",""
"null","","html-keyboard-response","311","269317","0.0-311.0","3TDXMTX3CCGHZXK64U954XZWSQG6IP","A1WJIRT360P5VB","3ZXV7Q5FJBAKJ3TNMBBLYHIS0EBCFB","","<img src=""img/set1/S4.jpg"" width=""540"" height = ""360"" style=""border:16px solid orange"">","null","","","","","","","","","",""
"null","","html-keyboard-response","312","269521","0.0-312.0","3TDXMTX3CCGHZXK64U954XZWSQG6IP","A1WJIRT360P5VB","3ZXV7Q5FJBAKJ3TNMBBLYHIS0EBCFB","","","null","","","","","","","","","",""
"795.9000000059605","","image-keyboard-response","313","270322","0.0-313.0","3TDXMTX3CCGHZXK64U954XZWSQG6IP","A1WJIRT360P5VB","3ZXV7Q5FJBAKJ3TNMBBLYHIS0EBCFB","","img/set1/S1.jpg","83","1","random","83","random,structured_incentive,structured_normal,structured_load","4,2,2,3,1,2","1,2,3,4","true","","",""
"null","","html-keyboard-response","314","270678","0.0-314.0","3TDXMTX3CCGHZXK64U954XZWSQG6IP","A1WJIRT360P5VB","3ZXV7Q5FJBAKJ3TNMBBLYHIS0EBCFB","","<img src=""img/set1/S1.jpg"" width=""540"" height = ""360"" style=""border:16px solid orange"">","null","","","","","","","","","",""
"null","","html-keyboard-response","315","270883","0.0-315.0","3TDXMTX3CCGHZXK64U954XZWSQG6IP","A1WJIRT360P5VB","3ZXV7Q5FJBAKJ3TNMBBLYHIS0EBCFB","","","null","","","","","","","","","",""
"620.5","","image-keyboard-response","316","271508","0.0-316.0","3TDXMTX3CCGHZXK64U954XZWSQG6IP","A1WJIRT360P5VB","3ZXV7Q5FJBAKJ3TNMBBLYHIS0EBCFB","","img/set1/S1.jpg","83","1","random","83","random,structured_incentive,structured_normal,structured_load","4,2,2,3,1,2","1,2,3,4","true","","",""
"null","","html-keyboard-response","317","271864","0.0-317.0","3TDXMTX3CCGHZXK64U954XZWSQG6IP","A1WJIRT360P5VB","3ZXV7Q5FJBAKJ3TNMBBLYHIS0EBCFB","","<img src=""img/set1/S1.jpg"" width=""540"" height = ""360"" style=""border:16px solid orange"">","null","","","","","","","","","",""
"null","","html-keyboard-response","318","272069","0.0-318.0","3TDXMTX3CCGHZXK64U954XZWSQG6IP","A1WJIRT360P5VB","3ZXV7Q5FJBAKJ3TNMBBLYHIS0EBCFB","","","null","","","","","","","","","",""
"1440.5","","image-keyboard-response","319","273513","0.0-319.0","3TDXMTX3CCGHZXK64U954XZWSQG6IP","A1WJIRT360P5VB","3ZXV7Q5FJBAKJ3TNMBBLYHIS0EBCFB","","img/set1/S3.jpg","68","3","random","72","random,structured_incentive,structured_normal,structured_load","4,2,2,3,1,2","1,2,3,4","false","","",""
"null","","html-keyboard-response","320","273868","0.0-320.0","3TDXMTX3CCGHZXK64U954XZWSQG6IP","A1WJIRT360P5VB","3ZXV7Q5FJBAKJ3TNMBBLYHIS0EBCFB","","<img src=""img/set1/S3.jpg"" width=""540"" height = ""360"">","null","","","","","","","","","",""
"null","","html-keyboard-response","321","274073","0.0-321.0","3TDXMTX3CCGHZXK64U954XZWSQG6IP","A1WJIRT360P5VB","3ZXV7Q5FJBAKJ3TNMBBLYHIS0EBCFB","","","null","","","","","","","","","",""
"719.7999999970198","","image-keyboard-response","322","274798","0.0-322.0","3TDXMTX3CCGHZXK64U954XZWSQG6IP","A1WJIRT360P5VB","3ZXV7Q5FJBAKJ3TNMBBLYHIS0EBCFB","","img/set1/S1.jpg","83","1","random","83","random,structured_incentive,structured_normal,structured_load","4,2,2,3,1,2","1,2,3,4","true","","",""
"null","","html-keyboard-response","323","275154","0.0-323.0","3TDXMTX3CCGHZXK64U954XZWSQG6IP","A1WJIRT360P5VB","3ZXV7Q5FJBAKJ3TNMBBLYHIS0EBCFB","","<img src=""img/set1/S1.jpg"" width=""540"" height = ""360"" style=""border:16px solid orange"">","null","","","","","","","","","",""
"null","","html-keyboard-response","324","275359","0.0-324.0","3TDXMTX3CCGHZXK64U954XZWSQG6IP","A1WJIRT360P5VB","3ZXV7Q5FJBAKJ3TNMBBLYHIS0EBCFB","","","null","","","","","","","","","",""
"658.2999999970198","","image-keyboard-response","325","276022","0.0-325.0","3TDXMTX3CCGHZXK64U954XZWSQG6IP","A1WJIRT360P5VB","3ZXV7Q5FJBAKJ3TNMBBLYHIS0EBCFB","","img/set1/S3.jpg","72","3","random","72","random,structured_incentive,structured_normal,structured_load","4,2,2,3,1,2","1,2,3,4","true","","",""
"null","","html-keyboard-response","326","276379","0.0-326.0","3TDXMTX3CCGHZXK64U954XZWSQG6IP","A1WJIRT360P5VB","3ZXV7Q5FJBAKJ3TNMBBLYHIS0EBCFB","","<img src=""img/set1/S3.jpg"" width=""540"" height = ""360"" style=""border:16px solid orange"">","null","","","","","","","","","",""
"null","","html-keyboard-response","327","276584","0.0-327.0","3TDXMTX3CCGHZXK64U954XZWSQG6IP","A1WJIRT360P5VB","3ZXV7Q5FJBAKJ3TNMBBLYHIS0EBCFB","","","null","","","","","","","","","",""
"757.4000000059605","","image-keyboard-response","328","277346","0.0-328.0","3TDXMTX3CCGHZXK64U954XZWSQG6IP","A1WJIRT360P5VB","3ZXV7Q5FJBAKJ3TNMBBLYHIS0EBCFB","","img/set1/S4.jpg","74","4","random","74","random,structured_incentive,structured_normal,structured_load","4,2,2,3,1,2","1,2,3,4","true","","",""
"null","","html-keyboard-response","329","277702","0.0-329.0","3TDXMTX3CCGHZXK64U954XZWSQG6IP","A1WJIRT360P5VB","3ZXV7Q5FJBAKJ3TNMBBLYHIS0EBCFB","","<img src=""img/set1/S4.jpg"" width=""540"" height = ""360"" style=""border:16px solid orange"">","null","","","","","","","","","",""
"null","","html-keyboard-response","330","277906","0.0-330.0","3TDXMTX3CCGHZXK64U954XZWSQG6IP","A1WJIRT360P5VB","3ZXV7Q5FJBAKJ3TNMBBLYHIS0EBCFB","","","null","","","","","","","","","",""
"818.1000000089407","","image-keyboard-response","331","278728","0.0-331.0","3TDXMTX3CCGHZXK64U954XZWSQG6IP","A1WJIRT360P5VB","3ZXV7Q5FJBAKJ3TNMBBLYHIS0EBCFB","","img/set1/S2.jpg","68","2","random","68","random,structured_incentive,structured_normal,structured_load","4,2,2,3,1,2","1,2,3,4","true","","",""
"null","","html-keyboard-response","332","279084","0.0-332.0","3TDXMTX3CCGHZXK64U954XZWSQG6IP","A1WJIRT360P5VB","3ZXV7Q5FJBAKJ3TNMBBLYHIS0EBCFB","","<img src=""img/set1/S2.jpg"" width=""540"" height = ""360"" style=""border:16px solid orange"">","null","","","","","","","","","",""
"null","","html-keyboard-response","333","279289","0.0-333.0","3TDXMTX3CCGHZXK64U954XZWSQG6IP","A1WJIRT360P5VB","3ZXV7Q5FJBAKJ3TNMBBLYHIS0EBCFB","","","null","","","","","","","","","",""
"833.2999999970198","","image-keyboard-response","334","280127","0.0-334.0","3TDXMTX3CCGHZXK64U954XZWSQG6IP","A1WJIRT360P5VB","3ZXV7Q5FJBAKJ3TNMBBLYHIS0EBCFB","","img/set1/S3.jpg","72","3","random","72","random,structured_incentive,structured_normal,structured_load","4,2,2,3,1,2","1,2,3,4","true","","",""
"null","","html-keyboard-response","335","280483","0.0-335.0","3TDXMTX3CCGHZXK64U954XZWSQG6IP","A1WJIRT360P5VB","3ZXV7Q5FJBAKJ3TNMBBLYHIS0EBCFB","","<img src=""img/set1/S3.jpg"" width=""540"" height = ""360"" style=""border:16px solid orange"">","null","","","","","","","","","",""
"null","","html-keyboard-response","336","280687","0.0-336.0","3TDXMTX3CCGHZXK64U954XZWSQG6IP","A1WJIRT360P5VB","3ZXV7Q5FJBAKJ3TNMBBLYHIS0EBCFB","","","null","","","","","","","","","",""
"819","","image-keyboard-response","337","281510","0.0-337.0","3TDXMTX3CCGHZXK64U954XZWSQG6IP","A1WJIRT360P5VB","3ZXV7Q5FJBAKJ3TNMBBLYHIS0EBCFB","","img/set1/S2.jpg","68","2","random","68","random,structured_incentive,structured_normal,structured_load","4,2,2,3,1,2","1,2,3,4","true","","",""
"null","","html-keyboard-response","338","281866","0.0-338.0","3TDXMTX3CCGHZXK64U954XZWSQG6IP","A1WJIRT360P5VB","3ZXV7Q5FJBAKJ3TNMBBLYHIS0EBCFB","","<img src=""img/set1/S2.jpg"" width=""540"" height = ""360"" style=""border:16px solid orange"">","null","","","","","","","","","",""
"null","","html-keyboard-response","339","282071","0.0-339.0","3TDXMTX3CCGHZXK64U954XZWSQG6IP","A1WJIRT360P5VB","3ZXV7Q5FJBAKJ3TNMBBLYHIS0EBCFB","","","null","","","","","","","","","",""
"626.7999999970198","","image-keyboard-response","340","282702","0.0-340.0","3TDXMTX3CCGHZXK64U954XZWSQG6IP","A1WJIRT360P5VB","3ZXV7Q5FJBAKJ3TNMBBLYHIS0EBCFB","","img/set1/S1.jpg","83","1","random","83","random,structured_incentive,structured_normal,structured_load","4,2,2,3,1,2","1,2,3,4","true","","",""
"null","","html-keyboard-response","341","283059","0.0-341.0","3TDXMTX3CCGHZXK64U954XZWSQG6IP","A1WJIRT360P5VB","3ZXV7Q5FJBAKJ3TNMBBLYHIS0EBCFB","","<img src=""img/set1/S1.jpg"" width=""540"" height = ""360"" style=""border:16px solid orange"">","null","","","","","","","","","",""
"null","","html-keyboard-response","342","283264","0.0-342.0","3TDXMTX3CCGHZXK64U954XZWSQG6IP","A1WJIRT360P5VB","3ZXV7Q5FJBAKJ3TNMBBLYHIS0EBCFB","","","null","","","","","","","","","",""
"453.5","","image-keyboard-response","343","283722","0.0-343.0","3TDXMTX3CCGHZXK64U954XZWSQG6IP","A1WJIRT360P5VB","3ZXV7Q5FJBAKJ3TNMBBLYHIS0EBCFB","","img/set1/S1.jpg","83","1","random","83","random,structured_incentive,structured_normal,structured_load","4,2,2,3,1,2","1,2,3,4","true","","",""
"null","","html-keyboard-response","344","284078","0.0-344.0","3TDXMTX3CCGHZXK64U954XZWSQG6IP","A1WJIRT360P5VB","3ZXV7Q5FJBAKJ3TNMBBLYHIS0EBCFB","","<img src=""img/set1/S1.jpg"" width=""540"" height = ""360"" style=""border:16px solid orange"">","null","","","","","","","","","",""
"null","","html-keyboard-response","345","284283","0.0-345.0","3TDXMTX3CCGHZXK64U954XZWSQG6IP","A1WJIRT360P5VB","3ZXV7Q5FJBAKJ3TNMBBLYHIS0EBCFB","","","null","","","","","","","","","",""
"873.5999999940395","","image-keyboard-response","346","285161","0.0-346.0","3TDXMTX3CCGHZXK64U954XZWSQG6IP","A1WJIRT360P5VB","3ZXV7Q5FJBAKJ3TNMBBLYHIS0EBCFB","","img/set1/S2.jpg","68","2","random","68","random,structured_incentive,structured_normal,structured_load","4,2,2,3,1,2","1,2,3,4","true","","",""
"null","","html-keyboard-response","347","285519","0.0-347.0","3TDXMTX3CCGHZXK64U954XZWSQG6IP","A1WJIRT360P5VB","3ZXV7Q5FJBAKJ3TNMBBLYHIS0EBCFB","","<img src=""img/set1/S2.jpg"" width=""540"" height = ""360"" style=""border:16px solid orange"">","null","","","","","","","","","",""
"null","","html-keyboard-response","348","285723","0.0-348.0","3TDXMTX3CCGHZXK64U954XZWSQG6IP","A1WJIRT360P5VB","3ZXV7Q5FJBAKJ3TNMBBLYHIS0EBCFB","","","null","","","","","","","","","",""
"796.2999999970198","","image-keyboard-response","349","286523","0.0-349.0","3TDXMTX3CCGHZXK64U954XZWSQG6IP","A1WJIRT360P5VB","3ZXV7Q5FJBAKJ3TNMBBLYHIS0EBCFB","","img/set1/S1.jpg","83","1","random","83","random,structured_incentive,structured_normal,structured_load","4,2,2,3,1,2","1,2,3,4","true","","",""
"null","","html-keyboard-response","350","286879","0.0-350.0","3TDXMTX3CCGHZXK64U954XZWSQG6IP","A1WJIRT360P5VB","3ZXV7Q5FJBAKJ3TNMBBLYHIS0EBCFB","","<img src=""img/set1/S1.jpg"" width=""540"" height = ""360"" style=""border:16px solid orange"">","null","","","","","","","","","",""
"null","","html-keyboard-response","351","287084","0.0-351.0","3TDXMTX3CCGHZXK64U954XZWSQG6IP","A1WJIRT360P5VB","3ZXV7Q5FJBAKJ3TNMBBLYHIS0EBCFB","","","null","","","","","","","","","",""
"672.1000000089407","","image-keyboard-response","352","287760","0.0-352.0","3TDXMTX3CCGHZXK64U954XZWSQG6IP","A1WJIRT360P5VB","3ZXV7Q5FJBAKJ3TNMBBLYHIS0EBCFB","","img/set1/S3.jpg","72","3","random","72","random,structured_incentive,structured_normal,structured_load","4,2,2,3,1,2","1,2,3,4","true","","",""
"null","","html-keyboard-response","353","288115","0.0-353.0","3TDXMTX3CCGHZXK64U954XZWSQG6IP","A1WJIRT360P5VB","3ZXV7Q5FJBAKJ3TNMBBLYHIS0EBCFB","","<img src=""img/set1/S3.jpg"" width=""540"" height = ""360"" style=""border:16px solid orange"">","null","","","","","","","","","",""
"null","","html-keyboard-response","354","288319","0.0-354.0","3TDXMTX3CCGHZXK64U954XZWSQG6IP","A1WJIRT360P5VB","3ZXV7Q5FJBAKJ3TNMBBLYHIS0EBCFB","","","null","","","","","","","","","",""
"454.19999998807907","","image-keyboard-response","355","288777","0.0-355.0","3TDXMTX3CCGHZXK64U954XZWSQG6IP","A1WJIRT360P5VB","3ZXV7Q5FJBAKJ3TNMBBLYHIS0EBCFB","","img/set1/S3.jpg","72","3","random","72","random,structured_incentive,structured_normal,structured_load","4,2,2,3,1,2","1,2,3,4","true","","",""
"null","","html-keyboard-response","356","289132","0.0-356.0","3TDXMTX3CCGHZXK64U954XZWSQG6IP","A1WJIRT360P5VB","3ZXV7Q5FJBAKJ3TNMBBLYHIS0EBCFB","","<img src=""img/set1/S3.jpg"" width=""540"" height = ""360"" style=""border:16px solid orange"">","null","","","","","","","","","",""
"null","","html-keyboard-response","357","289338","0.0-357.0","3TDXMTX3CCGHZXK64U954XZWSQG6IP","A1WJIRT360P5VB","3ZXV7Q5FJBAKJ3TNMBBLYHIS0EBCFB","","","null","","","","","","","","","",""
"677.9000000059605","","image-keyboard-response","358","290020","0.0-358.0","3TDXMTX3CCGHZXK64U954XZWSQG6IP","A1WJIRT360P5VB","3ZXV7Q5FJBAKJ3TNMBBLYHIS0EBCFB","","img/set1/S1.jpg","83","1","random","83","random,structured_incentive,structured_normal,structured_load","4,2,2,3,1,2","1,2,3,4","true","","",""
"null","","html-keyboard-response","359","290376","0.0-359.0","3TDXMTX3CCGHZXK64U954XZWSQG6IP","A1WJIRT360P5VB","3ZXV7Q5FJBAKJ3TNMBBLYHIS0EBCFB","","<img src=""img/set1/S1.jpg"" width=""540"" height = ""360"" style=""border:16px solid orange"">","null","","","","","","","","","",""
"null","","html-keyboard-response","360","290579","0.0-360.0","3TDXMTX3CCGHZXK64U954XZWSQG6IP","A1WJIRT360P5VB","3ZXV7Q5FJBAKJ3TNMBBLYHIS0EBCFB","","","null","","","","","","","","","",""
"419.3999999910593","","image-keyboard-response","361","291003","0.0-361.0","3TDXMTX3CCGHZXK64U954XZWSQG6IP","A1WJIRT360P5VB","3ZXV7Q5FJBAKJ3TNMBBLYHIS0EBCFB","","img/set1/S1.jpg","83","1","random","83","random,structured_incentive,structured_normal,structured_load","4,2,2,3,1,2","1,2,3,4","true","","",""
"null","","html-keyboard-response","362","291358","0.0-362.0","3TDXMTX3CCGHZXK64U954XZWSQG6IP","A1WJIRT360P5VB","3ZXV7Q5FJBAKJ3TNMBBLYHIS0EBCFB","","<img src=""img/set1/S1.jpg"" width=""540"" height = ""360"" style=""border:16px solid orange"">","null","","","","","","","","","",""
"null","","html-keyboard-response","363","291562","0.0-363.0","3TDXMTX3CCGHZXK64U954XZWSQG6IP","A1WJIRT360P5VB","3ZXV7Q5FJBAKJ3TNMBBLYHIS0EBCFB","","","null","","","","","","","","","",""
"686.5999999940395","","image-keyboard-response","364","292254","0.0-364.0","3TDXMTX3CCGHZXK64U954XZWSQG6IP","A1WJIRT360P5VB","3ZXV7Q5FJBAKJ3TNMBBLYHIS0EBCFB","","img/set1/S2.jpg","68","2","random","68","random,structured_incentive,structured_normal,structured_load","4,2,2,3,1,2","1,2,3,4","true","","",""
"null","","html-keyboard-response","365","292609","0.0-365.0","3TDXMTX3CCGHZXK64U954XZWSQG6IP","A1WJIRT360P5VB","3ZXV7Q5FJBAKJ3TNMBBLYHIS0EBCFB","","<img src=""img/set1/S2.jpg"" width=""540"" height = ""360"" style=""border:16px solid orange"">","null","","","","","","","","","",""
"null","","html-keyboard-response","366","292812","0.0-366.0","3TDXMTX3CCGHZXK64U954XZWSQG6IP","A1WJIRT360P5VB","3ZXV7Q5FJBAKJ3TNMBBLYHIS0EBCFB","","","null","","","","","","","","","",""
"424","","image-keyboard-response","367","293240","0.0-367.0","3TDXMTX3CCGHZXK64U954XZWSQG6IP","A1WJIRT360P5VB","3ZXV7Q5FJBAKJ3TNMBBLYHIS0EBCFB","","img/set1/S2.jpg","68","2","random","68","random,structured_incentive,structured_normal,structured_load","4,2,2,3,1,2","1,2,3,4","true","","",""
"null","","html-keyboard-response","368","293594","0.0-368.0","3TDXMTX3CCGHZXK64U954XZWSQG6IP","A1WJIRT360P5VB","3ZXV7Q5FJBAKJ3TNMBBLYHIS0EBCFB","","<img src=""img/set1/S2.jpg"" width=""540"" height = ""360"" style=""border:16px solid orange"">","null","","","","","","","","","",""
"null","","html-keyboard-response","369","293799","0.0-369.0","3TDXMTX3CCGHZXK64U954XZWSQG6IP","A1WJIRT360P5VB","3ZXV7Q5FJBAKJ3TNMBBLYHIS0EBCFB","","","null","","","","","","","","","",""
"717.5999999940395","","image-keyboard-response","370","294520","0.0-370.0","3TDXMTX3CCGHZXK64U954XZWSQG6IP","A1WJIRT360P5VB","3ZXV7Q5FJBAKJ3TNMBBLYHIS0EBCFB","","img/set1/S4.jpg","74","4","random","74","random,structured_incentive,structured_normal,structured_load","4,2,2,3,1,2","1,2,3,4","true","","",""
"null","","html-keyboard-response","371","294876","0.0-371.0","3TDXMTX3CCGHZXK64U954XZWSQG6IP","A1WJIRT360P5VB","3ZXV7Q5FJBAKJ3TNMBBLYHIS0EBCFB","","<img src=""img/set1/S4.jpg"" width=""540"" height = ""360"" style=""border:16px solid orange"">","null","","","","","","","","","",""
"null","","html-keyboard-response","372","295080","0.0-372.0","3TDXMTX3CCGHZXK64U954XZWSQG6IP","A1WJIRT360P5VB","3ZXV7Q5FJBAKJ3TNMBBLYHIS0EBCFB","","","null","","","","","","","","","",""
"715.7999999970198","","image-keyboard-response","373","295799","0.0-373.0","3TDXMTX3CCGHZXK64U954XZWSQG6IP","A1WJIRT360P5VB","3ZXV7Q5FJBAKJ3TNMBBLYHIS0EBCFB","","img/set1/S1.jpg","83","1","random","83","random,structured_incentive,structured_normal,structured_load","4,2,2,3,1,2","1,2,3,4","true","","",""
"null","","html-keyboard-response","374","296154","0.0-374.0","3TDXMTX3CCGHZXK64U954XZWSQG6IP","A1WJIRT360P5VB","3ZXV7Q5FJBAKJ3TNMBBLYHIS0EBCFB","","<img src=""img/set1/S1.jpg"" width=""540"" height = ""360"" style=""border:16px solid orange"">","null","","","","","","","","","",""
"null","","html-keyboard-response","375","296358","0.0-375.0","3TDXMTX3CCGHZXK64U954XZWSQG6IP","A1WJIRT360P5VB","3ZXV7Q5FJBAKJ3TNMBBLYHIS0EBCFB","","","null","","","","","","","","","",""
"650.1999999880791","","image-keyboard-response","376","297011","0.0-376.0","3TDXMTX3CCGHZXK64U954XZWSQG6IP","A1WJIRT360P5VB","3ZXV7Q5FJBAKJ3TNMBBLYHIS0EBCFB","","img/set1/S2.jpg","68","2","random","68","random,structured_incentive,structured_normal,structured_load","4,2,2,3,1,2","1,2,3,4","true","","",""
"null","","html-keyboard-response","377","297366","0.0-377.0","3TDXMTX3CCGHZXK64U954XZWSQG6IP","A1WJIRT360P5VB","3ZXV7Q5FJBAKJ3TNMBBLYHIS0EBCFB","","<img src=""img/set1/S2.jpg"" width=""540"" height = ""360"" style=""border:16px solid orange"">","null","","","","","","","","","",""
"null","","html-keyboard-response","378","297570","0.0-378.0","3TDXMTX3CCGHZXK64U954XZWSQG6IP","A1WJIRT360P5VB","3ZXV7Q5FJBAKJ3TNMBBLYHIS0EBCFB","","","null","","","","","","","","","",""
"762.2000000029802","","image-keyboard-response","379","298337","0.0-379.0","3TDXMTX3CCGHZXK64U954XZWSQG6IP","A1WJIRT360P5VB","3ZXV7Q5FJBAKJ3TNMBBLYHIS0EBCFB","","img/set1/S4.jpg","74","4","random","74","random,structured_incentive,structured_normal,structured_load","4,2,2,3,1,2","1,2,3,4","true","","",""
"null","","html-keyboard-response","380","298708","0.0-380.0","3TDXMTX3CCGHZXK64U954XZWSQG6IP","A1WJIRT360P5VB","3ZXV7Q5FJBAKJ3TNMBBLYHIS0EBCFB","","<img src=""img/set1/S4.jpg"" width=""540"" height = ""360"" style=""border:16px solid orange"">","null","","","","","","","","","",""
"null","","html-keyboard-response","381","298912","0.0-381.0","3TDXMTX3CCGHZXK64U954XZWSQG6IP","A1WJIRT360P5VB","3ZXV7Q5FJBAKJ3TNMBBLYHIS0EBCFB","","","null","","","","","","","","","",""
"644.5999999940395","","image-keyboard-response","382","299560","0.0-382.0","3TDXMTX3CCGHZXK64U954XZWSQG6IP","A1WJIRT360P5VB","3ZXV7Q5FJBAKJ3TNMBBLYHIS0EBCFB","","img/set1/S1.jpg","83","1","random","83","random,structured_incentive,structured_normal,structured_load","4,2,2,3,1,2","1,2,3,4","true","","",""
"null","","html-keyboard-response","383","299914","0.0-383.0","3TDXMTX3CCGHZXK64U954XZWSQG6IP","A1WJIRT360P5VB","3ZXV7Q5FJBAKJ3TNMBBLYHIS0EBCFB","","<img src=""img/set1/S1.jpg"" width=""540"" height = ""360"" style=""border:16px solid orange"">","null","","","","","","","","","",""
"null","","html-keyboard-response","384","300118","0.0-384.0","3TDXMTX3CCGHZXK64U954XZWSQG6IP","A1WJIRT360P5VB","3ZXV7Q5FJBAKJ3TNMBBLYHIS0EBCFB","","","null","","","","","","","","","",""
