"rt","url","trial_type","trial_index","time_elapsed","internal_node_id","view_history","stimulus","key_press","state","test_part","correct_response","order_block","order_chunk","correct","responses","bonus"
"2633.7000000476837","consent.html","external-html","0","2664","0.0-0.0","","","","","","","","","","",""
"10714","","instructions","1","13381","0.0-1.0","[{""page_index"":0,""viewing_time"":1244.7999999523163},{""page_index"":1,""viewing_time"":1060.7999999523163},{""page_index"":2,""viewing_time"":845},{""page_index"":3,""viewing_time"":2745},{""page_index"":4,""viewing_time"":2484},{""page_index"":5,""viewing_time"":1256.7000000476837},{""page_index"":6,""viewing_time"":1076.5}]","","","","","","","","","",""
"3400.0999999046326","","instructions","2","16783","0.0-2.0","[{""page_index"":0,""viewing_time"":3399.5}]","","","","","","","","","",""
"988","","instructions","3","17772","0.0-3.0","[{""page_index"":0,""viewing_time"":987.7000000476837}]","","","","","","","","","",""
"1519.2000000476837","","image-keyboard-response","4","19293","0.0-4.0","","img/set1/S1.jpg","83","1","random","83","random,structured_normal,structured_load,structured_incentive","2,1,2,3,3,4","true","",""
"null","","html-keyboard-response","5","19649","0.0-5.0","","<img src=""img/set1/S1.jpg"" width=""540"" height = ""360"" style=""border:16px solid orange"">","null","","","","","","","",""
"null","","html-keyboard-response","6","19865","0.0-6.0","","","null","","","","","","","",""
"1014","","image-keyboard-response","7","20880","0.0-7.0","","img/set1/S3.jpg","72","3","random","72","random,structured_normal,structured_load,structured_incentive","2,1,2,3,3,4","true","",""
"null","","html-keyboard-response","8","21234","0.0-8.0","","<img src=""img/set1/S3.jpg"" width=""540"" height = ""360"" style=""border:16px solid orange"">","null","","","","","","","",""
"null","","html-keyboard-response","9","21450","0.0-9.0","","","null","","","","","","","",""
"584.2000000476837","","image-keyboard-response","10","22035","0.0-10.0","","img/set1/S2.jpg","68","2","random","68","random,structured_normal,structured_load,structured_incentive","2,1,2,3,3,4","true","",""
"null","","html-keyboard-response","11","22390","0.0-11.0","","<img src=""img/set1/S2.jpg"" width=""540"" height = ""360"" style=""border:16px solid orange"">","null","","","","","","","",""
"null","","html-keyboard-response","12","22605","0.0-12.0","","","null","","","","","","","",""
"670","","image-keyboard-response","13","23276","0.0-13.0","","img/set1/S1.jpg","83","1","random","83","random,structured_normal,structured_load,structured_incentive","2,1,2,3,3,4","true","",""
"null","","html-keyboard-response","14","23637","0.0-14.0","","<img src=""img/set1/S1.jpg"" width=""540"" height = ""360"" style=""border:16px solid orange"">","null","","","","","","","",""
"null","","html-keyboard-response","15","23852","0.0-15.0","","","null","","","","","","","",""
"629.2000000476837","","image-keyboard-response","16","24482","0.0-16.0","","img/set1/S3.jpg","72","3","random","72","random,structured_normal,structured_load,structured_incentive","2,1,2,3,3,4","true","",""
"null","","html-keyboard-response","17","24837","0.0-17.0","","<img src=""img/set1/S3.jpg"" width=""540"" height = ""360"" style=""border:16px solid orange"">","null","","","","","","","",""
"null","","html-keyboard-response","18","25054","0.0-18.0","","","null","","","","","","","",""
"512","","image-keyboard-response","19","25568","0.0-19.0","","img/set1/S3.jpg","72","3","random","72","random,structured_normal,structured_load,structured_incentive","2,1,2,3,3,4","true","",""
"null","","html-keyboard-response","20","25931","0.0-20.0","","<img src=""img/set1/S3.jpg"" width=""540"" height = ""360"" style=""border:16px solid orange"">","null","","","","","","","",""
"null","","html-keyboard-response","21","26146","0.0-21.0","","","null","","","","","","","",""
"536.0999999046326","","image-keyboard-response","22","26684","0.0-22.0","","img/set1/S4.jpg","74","4","random","74","random,structured_normal,structured_load,structured_incentive","2,1,2,3,3,4","true","",""
"null","","html-keyboard-response","23","27039","0.0-23.0","","<img src=""img/set1/S4.jpg"" width=""540"" height = ""360"" style=""border:16px solid orange"">","null","","","","","","","",""
"null","","html-keyboard-response","24","27255","0.0-24.0","","","null","","","","","","","",""
"469.19999980926514","","image-keyboard-response","25","27725","0.0-25.0","","img/set1/S3.jpg","72","3","random","72","random,structured_normal,structured_load,structured_incentive","2,1,2,3,3,4","true","",""
"null","","html-keyboard-response","26","28088","0.0-26.0","","<img src=""img/set1/S3.jpg"" width=""540"" height = ""360"" style=""border:16px solid orange"">","null","","","","","","","",""
"null","","html-keyboard-response","27","28304","0.0-27.0","","","null","","","","","","","",""
"367.40000009536743","","image-keyboard-response","28","28672","0.0-28.0","","img/set1/S3.jpg","72","3","random","72","random,structured_normal,structured_load,structured_incentive","2,1,2,3,3,4","true","",""
"null","","html-keyboard-response","29","29029","0.0-29.0","","<img src=""img/set1/S3.jpg"" width=""540"" height = ""360"" style=""border:16px solid orange"">","null","","","","","","","",""
"null","","html-keyboard-response","30","29244","0.0-30.0","","","null","","","","","","","",""
"529.3999998569489","","image-keyboard-response","31","29774","0.0-31.0","","img/set1/S2.jpg","68","2","random","68","random,structured_normal,structured_load,structured_incentive","2,1,2,3,3,4","true","",""
"null","","html-keyboard-response","32","30126","0.0-32.0","","<img src=""img/set1/S2.jpg"" width=""540"" height = ""360"" style=""border:16px solid orange"">","null","","","","","","","",""
"null","","html-keyboard-response","33","30328","0.0-33.0","","","null","","","","","","","",""
"538.7999999523163","","image-keyboard-response","34","30868","0.0-34.0","","img/set1/S2.jpg","68","2","random","68","random,structured_normal,structured_load,structured_incentive","2,1,2,3,3,4","true","",""
"null","","html-keyboard-response","35","31221","0.0-35.0","","<img src=""img/set1/S2.jpg"" width=""540"" height = ""360"" style=""border:16px solid orange"">","null","","","","","","","",""
"null","","html-keyboard-response","36","31422","0.0-36.0","","","null","","","","","","","",""
"731.5","","image-keyboard-response","37","32157","0.0-37.0","","img/set1/S1.jpg","83","1","random","83","random,structured_normal,structured_load,structured_incentive","2,1,2,3,3,4","true","",""
"null","","html-keyboard-response","38","32511","0.0-38.0","","<img src=""img/set1/S1.jpg"" width=""540"" height = ""360"" style=""border:16px solid orange"">","null","","","","","","","",""
"null","","html-keyboard-response","39","32712","0.0-39.0","","","null","","","","","","","",""
"606.2000000476837","","image-keyboard-response","40","33321","0.0-40.0","","img/set1/S3.jpg","72","3","random","72","random,structured_normal,structured_load,structured_incentive","2,1,2,3,3,4","true","",""
"null","","html-keyboard-response","41","33673","0.0-41.0","","<img src=""img/set1/S3.jpg"" width=""540"" height = ""360"" style=""border:16px solid orange"">","null","","","","","","","",""
"null","","html-keyboard-response","42","33875","0.0-42.0","","","null","","","","","","","",""
"614.9000000953674","","image-keyboard-response","43","34491","0.0-43.0","","img/set1/S1.jpg","83","1","random","83","random,structured_normal,structured_load,structured_incentive","2,1,2,3,3,4","true","",""
"null","","html-keyboard-response","44","34848","0.0-44.0","","<img src=""img/set1/S1.jpg"" width=""540"" height = ""360"" style=""border:16px solid orange"">","null","","","","","","","",""
"null","","html-keyboard-response","45","35050","0.0-45.0","","","null","","","","","","","",""
"568.2000000476837","","image-keyboard-response","46","35619","0.0-46.0","","img/set1/S4.jpg","74","4","random","74","random,structured_normal,structured_load,structured_incentive","2,1,2,3,3,4","true","",""
"null","","html-keyboard-response","47","35972","0.0-47.0","","<img src=""img/set1/S4.jpg"" width=""540"" height = ""360"" style=""border:16px solid orange"">","null","","","","","","","",""
"null","","html-keyboard-response","48","36173","0.0-48.0","","","null","","","","","","","",""
"474.69999980926514","","image-keyboard-response","49","36649","0.0-49.0","","img/set1/S4.jpg","74","4","random","74","random,structured_normal,structured_load,structured_incentive","2,1,2,3,3,4","true","",""
"null","","html-keyboard-response","50","37001","0.0-50.0","","<img src=""img/set1/S4.jpg"" width=""540"" height = ""360"" style=""border:16px solid orange"">","null","","","","","","","",""
"null","","html-keyboard-response","51","37202","0.0-51.0","","","null","","","","","","","",""
"927.3999998569489","","image-keyboard-response","52","38132","0.0-52.0","","img/set1/S3.jpg","72","3","random","72","random,structured_normal,structured_load,structured_incentive","2,1,2,3,3,4","true","",""
"null","","html-keyboard-response","53","38484","0.0-53.0","","<img src=""img/set1/S3.jpg"" width=""540"" height = ""360"" style=""border:16px solid orange"">","null","","","","","","","",""
"null","","html-keyboard-response","54","38686","0.0-54.0","","","null","","","","","","","",""
"521.5","","image-keyboard-response","55","39208","0.0-55.0","","img/set1/S2.jpg","68","2","random","68","random,structured_normal,structured_load,structured_incentive","2,1,2,3,3,4","true","",""
"null","","html-keyboard-response","56","39561","0.0-56.0","","<img src=""img/set1/S2.jpg"" width=""540"" height = ""360"" style=""border:16px solid orange"">","null","","","","","","","",""
"null","","html-keyboard-response","57","39762","0.0-57.0","","","null","","","","","","","",""
"722.4000000953674","","image-keyboard-response","58","40487","0.0-58.0","","img/set1/S3.jpg","72","3","random","72","random,structured_normal,structured_load,structured_incentive","2,1,2,3,3,4","true","",""
"null","","html-keyboard-response","59","40839","0.0-59.0","","<img src=""img/set1/S3.jpg"" width=""540"" height = ""360"" style=""border:16px solid orange"">","null","","","","","","","",""
"null","","html-keyboard-response","60","41040","0.0-60.0","","","null","","","","","","","",""
"665.1000001430511","","image-keyboard-response","61","41706","0.0-61.0","","img/set1/S2.jpg","68","2","random","68","random,structured_normal,structured_load,structured_incentive","2,1,2,3,3,4","true","",""
"null","","html-keyboard-response","62","42059","0.0-62.0","","<img src=""img/set1/S2.jpg"" width=""540"" height = ""360"" style=""border:16px solid orange"">","null","","","","","","","",""
"null","","html-keyboard-response","63","42261","0.0-63.0","","","null","","","","","","","",""
"603.5","","image-keyboard-response","64","42865","0.0-64.0","","img/set1/S1.jpg","83","1","random","83","random,structured_normal,structured_load,structured_incentive","2,1,2,3,3,4","true","",""
"null","","html-keyboard-response","65","43217","0.0-65.0","","<img src=""img/set1/S1.jpg"" width=""540"" height = ""360"" style=""border:16px solid orange"">","null","","","","","","","",""
"null","","html-keyboard-response","66","43418","0.0-66.0","","","null","","","","","","","",""
"775.2000000476837","","image-keyboard-response","67","44196","0.0-67.0","","img/set1/S1.jpg","72","1","random","83","random,structured_normal,structured_load,structured_incentive","2,1,2,3,3,4","false","",""
"null","","html-keyboard-response","68","44548","0.0-68.0","","<img src=""img/set1/S1.jpg"" width=""540"" height = ""360"">","null","","","","","","","",""
"null","","html-keyboard-response","69","44750","0.0-69.0","","","null","","","","","","","",""
"533.6000001430511","","image-keyboard-response","70","45286","0.0-70.0","","img/set1/S2.jpg","68","2","random","68","random,structured_normal,structured_load,structured_incentive","2,1,2,3,3,4","true","",""
"null","","html-keyboard-response","71","45638","0.0-71.0","","<img src=""img/set1/S2.jpg"" width=""540"" height = ""360"" style=""border:16px solid orange"">","null","","","","","","","",""
"null","","html-keyboard-response","72","45840","0.0-72.0","","","null","","","","","","","",""
"588","","image-keyboard-response","73","46430","0.0-73.0","","img/set1/S4.jpg","74","4","random","74","random,structured_normal,structured_load,structured_incentive","2,1,2,3,3,4","true","",""
"null","","html-keyboard-response","74","46782","0.0-74.0","","<img src=""img/set1/S4.jpg"" width=""540"" height = ""360"" style=""border:16px solid orange"">","null","","","","","","","",""
"null","","html-keyboard-response","75","46984","0.0-75.0","","","null","","","","","","","",""
"595.5","","image-keyboard-response","76","47581","0.0-76.0","","img/set1/S1.jpg","83","1","random","83","random,structured_normal,structured_load,structured_incentive","2,1,2,3,3,4","true","",""
"null","","html-keyboard-response","77","47933","0.0-77.0","","<img src=""img/set1/S1.jpg"" width=""540"" height = ""360"" style=""border:16px solid orange"">","null","","","","","","","",""
"null","","html-keyboard-response","78","48135","0.0-78.0","","","null","","","","","","","",""
"518.6999998092651","","image-keyboard-response","79","48654","0.0-79.0","","img/set1/S4.jpg","74","4","random","74","random,structured_normal,structured_load,structured_incentive","2,1,2,3,3,4","true","",""
"null","","html-keyboard-response","80","49006","0.0-80.0","","<img src=""img/set1/S4.jpg"" width=""540"" height = ""360"" style=""border:16px solid orange"">","null","","","","","","","",""
"null","","html-keyboard-response","81","49208","0.0-81.0","","","null","","","","","","","",""
"470.7000000476837","","image-keyboard-response","82","49680","0.0-82.0","","img/set1/S4.jpg","74","4","random","74","random,structured_normal,structured_load,structured_incentive","2,1,2,3,3,4","true","",""
"null","","html-keyboard-response","83","50045","0.0-83.0","","<img src=""img/set1/S4.jpg"" width=""540"" height = ""360"" style=""border:16px solid orange"">","null","","","","","","","",""
"null","","html-keyboard-response","84","50246","0.0-84.0","","","null","","","","","","","",""
"514.6999998092651","","image-keyboard-response","85","50764","0.0-85.0","","img/set1/S2.jpg","68","2","random","68","random,structured_normal,structured_load,structured_incentive","2,1,2,3,3,4","true","",""
"null","","html-keyboard-response","86","51116","0.0-86.0","","<img src=""img/set1/S2.jpg"" width=""540"" height = ""360"" style=""border:16px solid orange"">","null","","","","","","","",""
"null","","html-keyboard-response","87","51317","0.0-87.0","","","null","","","","","","","",""
"482.90000009536743","","image-keyboard-response","88","51801","0.0-88.0","","img/set1/S4.jpg","74","4","random","74","random,structured_normal,structured_load,structured_incentive","2,1,2,3,3,4","true","",""
"null","","html-keyboard-response","89","52154","0.0-89.0","","<img src=""img/set1/S4.jpg"" width=""540"" height = ""360"" style=""border:16px solid orange"">","null","","","","","","","",""
"null","","html-keyboard-response","90","52356","0.0-90.0","","","null","","","","","","","",""
"692","","image-keyboard-response","91","53049","0.0-91.0","","img/set1/S2.jpg","68","2","random","68","random,structured_normal,structured_load,structured_incentive","2,1,2,3,3,4","true","",""
"null","","html-keyboard-response","92","53402","0.0-92.0","","<img src=""img/set1/S2.jpg"" width=""540"" height = ""360"" style=""border:16px solid orange"">","null","","","","","","","",""
"null","","html-keyboard-response","93","53603","0.0-93.0","","","null","","","","","","","",""
"591.8999998569489","","image-keyboard-response","94","54197","0.0-94.0","","img/set1/S1.jpg","83","1","random","83","random,structured_normal,structured_load,structured_incentive","2,1,2,3,3,4","true","",""
"null","","html-keyboard-response","95","54549","0.0-95.0","","<img src=""img/set1/S1.jpg"" width=""540"" height = ""360"" style=""border:16px solid orange"">","null","","","","","","","",""
"null","","html-keyboard-response","96","54750","0.0-96.0","","","null","","","","","","","",""
"521.7999999523163","","image-keyboard-response","97","55274","0.0-97.0","","img/set1/S1.jpg","83","1","random","83","random,structured_normal,structured_load,structured_incentive","2,1,2,3,3,4","true","",""
"null","","html-keyboard-response","98","55626","0.0-98.0","","<img src=""img/set1/S1.jpg"" width=""540"" height = ""360"" style=""border:16px solid orange"">","null","","","","","","","",""
"null","","html-keyboard-response","99","55828","0.0-99.0","","","null","","","","","","","",""
"898","","image-keyboard-response","100","56727","0.0-100.0","","img/set1/S3.jpg","72","3","random","72","random,structured_normal,structured_load,structured_incentive","2,1,2,3,3,4","true","",""
"null","","html-keyboard-response","101","57080","0.0-101.0","","<img src=""img/set1/S3.jpg"" width=""540"" height = ""360"" style=""border:16px solid orange"">","null","","","","","","","",""
"null","","html-keyboard-response","102","57281","0.0-102.0","","","null","","","","","","","",""
"457","","image-keyboard-response","103","57739","0.0-103.0","","img/set1/S3.jpg","72","3","random","72","random,structured_normal,structured_load,structured_incentive","2,1,2,3,3,4","true","",""
"null","","html-keyboard-response","104","58092","0.0-104.0","","<img src=""img/set1/S3.jpg"" width=""540"" height = ""360"" style=""border:16px solid orange"">","null","","","","","","","",""
"null","","html-keyboard-response","105","58294","0.0-105.0","","","null","","","","","","","",""
"524.2999999523163","","image-keyboard-response","106","58820","0.0-106.0","","img/set1/S4.jpg","74","4","random","74","random,structured_normal,structured_load,structured_incentive","2,1,2,3,3,4","true","",""
"null","","html-keyboard-response","107","59172","0.0-107.0","","<img src=""img/set1/S4.jpg"" width=""540"" height = ""360"" style=""border:16px solid orange"">","null","","","","","","","",""
"null","","html-keyboard-response","108","59374","0.0-108.0","","","null","","","","","","","",""
"514","","image-keyboard-response","109","59889","0.0-109.0","","img/set1/S2.jpg","68","2","random","68","random,structured_normal,structured_load,structured_incentive","2,1,2,3,3,4","true","",""
"null","","html-keyboard-response","110","60242","0.0-110.0","","<img src=""img/set1/S2.jpg"" width=""540"" height = ""360"" style=""border:16px solid orange"">","null","","","","","","","",""
"null","","html-keyboard-response","111","60443","0.0-111.0","","","null","","","","","","","",""
"788.2000000476837","","image-keyboard-response","112","61232","0.0-112.0","","img/set1/S2.jpg","68","2","random","68","random,structured_normal,structured_load,structured_incentive","2,1,2,3,3,4","true","",""
"null","","html-keyboard-response","113","61585","0.0-113.0","","<img src=""img/set1/S2.jpg"" width=""540"" height = ""360"" style=""border:16px solid orange"">","null","","","","","","","",""
"null","","html-keyboard-response","114","61787","0.0-114.0","","","null","","","","","","","",""
"644.5999999046326","","image-keyboard-response","115","62433","0.0-115.0","","img/set1/S3.jpg","72","3","random","72","random,structured_normal,structured_load,structured_incentive","2,1,2,3,3,4","true","",""
"null","","html-keyboard-response","116","62785","0.0-116.0","","<img src=""img/set1/S3.jpg"" width=""540"" height = ""360"" style=""border:16px solid orange"">","null","","","","","","","",""
"null","","html-keyboard-response","117","62987","0.0-117.0","","","null","","","","","","","",""
"551.9000000953674","","image-keyboard-response","118","63540","0.0-118.0","","img/set1/S4.jpg","74","4","random","74","random,structured_normal,structured_load,structured_incentive","2,1,2,3,3,4","true","",""
"null","","html-keyboard-response","119","63892","0.0-119.0","","<img src=""img/set1/S4.jpg"" width=""540"" height = ""360"" style=""border:16px solid orange"">","null","","","","","","","",""
"null","","html-keyboard-response","120","64094","0.0-120.0","","","null","","","","","","","",""
"579.5999999046326","","image-keyboard-response","121","64674","0.0-121.0","","img/set1/S1.jpg","83","1","random","83","random,structured_normal,structured_load,structured_incentive","2,1,2,3,3,4","true","",""
"null","","html-keyboard-response","122","65027","0.0-122.0","","<img src=""img/set1/S1.jpg"" width=""540"" height = ""360"" style=""border:16px solid orange"">","null","","","","","","","",""
"null","","html-keyboard-response","123","65229","0.0-123.0","","","null","","","","","","","",""
"518.5999999046326","","image-keyboard-response","124","65749","0.0-124.0","","img/set1/S4.jpg","74","4","random","74","random,structured_normal,structured_load,structured_incentive","2,1,2,3,3,4","true","",""
"null","","html-keyboard-response","125","66101","0.0-125.0","","<img src=""img/set1/S4.jpg"" width=""540"" height = ""360"" style=""border:16px solid orange"">","null","","","","","","","",""
"null","","html-keyboard-response","126","66302","0.0-126.0","","","null","","","","","","","",""
"445","","image-keyboard-response","127","66749","0.0-127.0","","img/set1/S2.jpg","74","2","random","68","random,structured_normal,structured_load,structured_incentive","2,1,2,3,3,4","false","",""
"null","","html-keyboard-response","128","67105","0.0-128.0","","<img src=""img/set1/S2.jpg"" width=""540"" height = ""360"">","null","","","","","","","",""
"null","","html-keyboard-response","129","67306","0.0-129.0","","","null","","","","","","","",""
"627.5","","image-keyboard-response","130","67935","0.0-130.0","","img/set1/S1.jpg","83","1","random","83","random,structured_normal,structured_load,structured_incentive","2,1,2,3,3,4","true","",""
"null","","html-keyboard-response","131","68288","0.0-131.0","","<img src=""img/set1/S1.jpg"" width=""540"" height = ""360"" style=""border:16px solid orange"">","null","","","","","","","",""
"null","","html-keyboard-response","132","68489","0.0-132.0","","","null","","","","","","","",""
"531.9000000953674","","image-keyboard-response","133","69022","0.0-133.0","","img/set1/S2.jpg","72","2","random","68","random,structured_normal,structured_load,structured_incentive","2,1,2,3,3,4","false","",""
"null","","html-keyboard-response","134","69375","0.0-134.0","","<img src=""img/set1/S2.jpg"" width=""540"" height = ""360"">","null","","","","","","","",""
"null","","html-keyboard-response","135","69576","0.0-135.0","","","null","","","","","","","",""
"587.4000000953674","","image-keyboard-response","136","70165","0.0-136.0","","img/set1/S1.jpg","83","1","random","83","random,structured_normal,structured_load,structured_incentive","2,1,2,3,3,4","true","",""
"null","","html-keyboard-response","137","70517","0.0-137.0","","<img src=""img/set1/S1.jpg"" width=""540"" height = ""360"" style=""border:16px solid orange"">","null","","","","","","","",""
"null","","html-keyboard-response","138","70723","0.0-138.0","","","null","","","","","","","",""
"544.2000000476837","","image-keyboard-response","139","71269","0.0-139.0","","img/set1/S3.jpg","72","3","random","72","random,structured_normal,structured_load,structured_incentive","2,1,2,3,3,4","true","",""
"null","","html-keyboard-response","140","71621","0.0-140.0","","<img src=""img/set1/S3.jpg"" width=""540"" height = ""360"" style=""border:16px solid orange"">","null","","","","","","","",""
"null","","html-keyboard-response","141","71824","0.0-141.0","","","null","","","","","","","",""
"547.3000001907349","","image-keyboard-response","142","72373","0.0-142.0","","img/set1/S4.jpg","74","4","random","74","random,structured_normal,structured_load,structured_incentive","2,1,2,3,3,4","true","",""
"null","","html-keyboard-response","143","72725","0.0-143.0","","<img src=""img/set1/S4.jpg"" width=""540"" height = ""360"" style=""border:16px solid orange"">","null","","","","","","","",""
"null","","html-keyboard-response","144","72927","0.0-144.0","","","null","","","","","","","",""
"539.4000000953674","","image-keyboard-response","145","73468","0.0-145.0","","img/set1/S1.jpg","68","1","random","83","random,structured_normal,structured_load,structured_incentive","2,1,2,3,3,4","false","",""
"null","","html-keyboard-response","146","73821","0.0-146.0","","<img src=""img/set1/S1.jpg"" width=""540"" height = ""360"">","null","","","","","","","",""
"null","","html-keyboard-response","147","74023","0.0-147.0","","","null","","","","","","","",""
"566.7999999523163","","image-keyboard-response","148","74591","0.0-148.0","","img/set1/S2.jpg","68","2","random","68","random,structured_normal,structured_load,structured_incentive","2,1,2,3,3,4","true","",""
"null","","html-keyboard-response","149","74943","0.0-149.0","","<img src=""img/set1/S2.jpg"" width=""540"" height = ""360"" style=""border:16px solid orange"">","null","","","","","","","",""
"null","","html-keyboard-response","150","75144","0.0-150.0","","","null","","","","","","","",""
"614","","image-keyboard-response","151","75760","0.0-151.0","","img/set1/S1.jpg","83","1","random","83","random,structured_normal,structured_load,structured_incentive","2,1,2,3,3,4","true","",""
"null","","html-keyboard-response","152","76112","0.0-152.0","","<img src=""img/set1/S1.jpg"" width=""540"" height = ""360"" style=""border:16px solid orange"">","null","","","","","","","",""
"null","","html-keyboard-response","153","76313","0.0-153.0","","","null","","","","","","","",""
"613.7000000476837","","image-keyboard-response","154","76929","0.0-154.0","","img/set1/S1.jpg","83","1","random","83","random,structured_normal,structured_load,structured_incentive","2,1,2,3,3,4","true","",""
"null","","html-keyboard-response","155","77282","0.0-155.0","","<img src=""img/set1/S1.jpg"" width=""540"" height = ""360"" style=""border:16px solid orange"">","null","","","","","","","",""
"null","","html-keyboard-response","156","77483","0.0-156.0","","","null","","","","","","","",""
"917.7000000476837","","image-keyboard-response","157","78402","0.0-157.0","","img/set1/S3.jpg","72","3","random","72","random,structured_normal,structured_load,structured_incentive","2,1,2,3,3,4","true","",""
"null","","html-keyboard-response","158","78754","0.0-158.0","","<img src=""img/set1/S3.jpg"" width=""540"" height = ""360"" style=""border:16px solid orange"">","null","","","","","","","",""
"null","","html-keyboard-response","159","78956","0.0-159.0","","","null","","","","","","","",""
"636.8999998569489","","image-keyboard-response","160","79594","0.0-160.0","","img/set1/S1.jpg","83","1","random","83","random,structured_normal,structured_load,structured_incentive","2,1,2,3,3,4","true","",""
"null","","html-keyboard-response","161","79946","0.0-161.0","","<img src=""img/set1/S1.jpg"" width=""540"" height = ""360"" style=""border:16px solid orange"">","null","","","","","","","",""
"null","","html-keyboard-response","162","80148","0.0-162.0","","","null","","","","","","","",""
"634.7999999523163","","image-keyboard-response","163","80784","0.0-163.0","","img/set1/S3.jpg","72","3","random","72","random,structured_normal,structured_load,structured_incentive","2,1,2,3,3,4","true","",""
"null","","html-keyboard-response","164","81138","0.0-164.0","","<img src=""img/set1/S3.jpg"" width=""540"" height = ""360"" style=""border:16px solid orange"">","null","","","","","","","",""
"null","","html-keyboard-response","165","81340","0.0-165.0","","","null","","","","","","","",""
"609.0999999046326","","image-keyboard-response","166","81950","0.0-166.0","","img/set1/S1.jpg","83","1","random","83","random,structured_normal,structured_load,structured_incentive","2,1,2,3,3,4","true","",""
"null","","html-keyboard-response","167","82301","0.0-167.0","","<img src=""img/set1/S1.jpg"" width=""540"" height = ""360"" style=""border:16px solid orange"">","null","","","","","","","",""
"null","","html-keyboard-response","168","82503","0.0-168.0","","","null","","","","","","","",""
"541.5","","image-keyboard-response","169","83046","0.0-169.0","","img/set1/S3.jpg","72","3","random","72","random,structured_normal,structured_load,structured_incentive","2,1,2,3,3,4","true","",""
"null","","html-keyboard-response","170","83398","0.0-170.0","","<img src=""img/set1/S3.jpg"" width=""540"" height = ""360"" style=""border:16px solid orange"">","null","","","","","","","",""
"null","","html-keyboard-response","171","83600","0.0-171.0","","","null","","","","","","","",""
"732.3999998569489","","image-keyboard-response","172","84333","0.0-172.0","","img/set1/S1.jpg","83","1","random","83","random,structured_normal,structured_load,structured_incentive","2,1,2,3,3,4","true","",""
"null","","html-keyboard-response","173","84686","0.0-173.0","","<img src=""img/set1/S1.jpg"" width=""540"" height = ""360"" style=""border:16px solid orange"">","null","","","","","","","",""
"null","","html-keyboard-response","174","84888","0.0-174.0","","","null","","","","","","","",""
"539.0999999046326","","image-keyboard-response","175","85429","0.0-175.0","","img/set1/S4.jpg","74","4","random","74","random,structured_normal,structured_load,structured_incentive","2,1,2,3,3,4","true","",""
"null","","html-keyboard-response","176","85781","0.0-176.0","","<img src=""img/set1/S4.jpg"" width=""540"" height = ""360"" style=""border:16px solid orange"">","null","","","","","","","",""
"null","","html-keyboard-response","177","85983","0.0-177.0","","","null","","","","","","","",""
"586.8999998569489","","image-keyboard-response","178","86571","0.0-178.0","","img/set1/S2.jpg","68","2","random","68","random,structured_normal,structured_load,structured_incentive","2,1,2,3,3,4","true","",""
"null","","html-keyboard-response","179","86924","0.0-179.0","","<img src=""img/set1/S2.jpg"" width=""540"" height = ""360"" style=""border:16px solid orange"">","null","","","","","","","",""
"null","","html-keyboard-response","180","87125","0.0-180.0","","","null","","","","","","","",""
"682.0999999046326","","image-keyboard-response","181","87808","0.0-181.0","","img/set1/S2.jpg","68","2","random","68","random,structured_normal,structured_load,structured_incentive","2,1,2,3,3,4","true","",""
"null","","html-keyboard-response","182","88160","0.0-182.0","","<img src=""img/set1/S2.jpg"" width=""540"" height = ""360"" style=""border:16px solid orange"">","null","","","","","","","",""
"null","","html-keyboard-response","183","88361","0.0-183.0","","","null","","","","","","","",""
"697.3999998569489","","image-keyboard-response","184","89060","0.0-184.0","","img/set1/S3.jpg","72","3","random","72","random,structured_normal,structured_load,structured_incentive","2,1,2,3,3,4","true","",""
"null","","html-keyboard-response","185","89412","0.0-185.0","","<img src=""img/set1/S3.jpg"" width=""540"" height = ""360"" style=""border:16px solid orange"">","null","","","","","","","",""
"null","","html-keyboard-response","186","89613","0.0-186.0","","","null","","","","","","","",""
"552.6000001430511","","image-keyboard-response","187","90167","0.0-187.0","","img/set1/S4.jpg","74","4","random","74","random,structured_normal,structured_load,structured_incentive","2,1,2,3,3,4","true","",""
"null","","html-keyboard-response","188","90519","0.0-188.0","","<img src=""img/set1/S4.jpg"" width=""540"" height = ""360"" style=""border:16px solid orange"">","null","","","","","","","",""
"null","","html-keyboard-response","189","90720","0.0-189.0","","","null","","","","","","","",""
"582.9000000953674","","image-keyboard-response","190","91304","0.0-190.0","","img/set1/S3.jpg","68","3","random","72","random,structured_normal,structured_load,structured_incentive","2,1,2,3,3,4","false","",""
"null","","html-keyboard-response","191","91657","0.0-191.0","","<img src=""img/set1/S3.jpg"" width=""540"" height = ""360"">","null","","","","","","","",""
"null","","html-keyboard-response","192","91858","0.0-192.0","","","null","","","","","","","",""
"603.1000001430511","","image-keyboard-response","193","92462","0.0-193.0","","img/set1/S1.jpg","83","1","random","83","random,structured_normal,structured_load,structured_incentive","2,1,2,3,3,4","true","",""
"null","","html-keyboard-response","194","92815","0.0-194.0","","<img src=""img/set1/S1.jpg"" width=""540"" height = ""360"" style=""border:16px solid orange"">","null","","","","","","","",""
"null","","html-keyboard-response","195","93016","0.0-195.0","","","null","","","","","","","",""
"535.5999999046326","","image-keyboard-response","196","93553","0.0-196.0","","img/set1/S4.jpg","74","4","random","74","random,structured_normal,structured_load,structured_incentive","2,1,2,3,3,4","true","",""
"null","","html-keyboard-response","197","93906","0.0-197.0","","<img src=""img/set1/S4.jpg"" width=""540"" height = ""360"" style=""border:16px solid orange"">","null","","","","","","","",""
"null","","html-keyboard-response","198","94107","0.0-198.0","","","null","","","","","","","",""
"641.0999999046326","","image-keyboard-response","199","94750","0.0-199.0","","img/set1/S1.jpg","83","1","random","83","random,structured_normal,structured_load,structured_incentive","2,1,2,3,3,4","true","",""
"null","","html-keyboard-response","200","95101","0.0-200.0","","<img src=""img/set1/S1.jpg"" width=""540"" height = ""360"" style=""border:16px solid orange"">","null","","","","","","","",""
"null","","html-keyboard-response","201","95303","0.0-201.0","","","null","","","","","","","",""
"613.7999999523163","","image-keyboard-response","202","95918","0.0-202.0","","img/set1/S2.jpg","68","2","random","68","random,structured_normal,structured_load,structured_incentive","2,1,2,3,3,4","true","",""
"null","","html-keyboard-response","203","96271","0.0-203.0","","<img src=""img/set1/S2.jpg"" width=""540"" height = ""360"" style=""border:16px solid orange"">","null","","","","","","","",""
"null","","html-keyboard-response","204","96472","0.0-204.0","","","null","","","","","","","",""
"559","","image-keyboard-response","205","97032","0.0-205.0","","img/set1/S4.jpg","74","4","random","74","random,structured_normal,structured_load,structured_incentive","2,1,2,3,3,4","true","",""
"null","","html-keyboard-response","206","97389","0.0-206.0","","<img src=""img/set1/S4.jpg"" width=""540"" height = ""360"" style=""border:16px solid orange"">","null","","","","","","","",""
"null","","html-keyboard-response","207","97590","0.0-207.0","","","null","","","","","","","",""
"547.8000001907349","","image-keyboard-response","208","98140","0.0-208.0","","img/set1/S2.jpg","72","2","random","68","random,structured_normal,structured_load,structured_incentive","2,1,2,3,3,4","false","",""
"null","","html-keyboard-response","209","98496","0.0-209.0","","<img src=""img/set1/S2.jpg"" width=""540"" height = ""360"">","null","","","","","","","",""
"null","","html-keyboard-response","210","98697","0.0-210.0","","","null","","","","","","","",""
"566.2999999523163","","image-keyboard-response","211","99264","0.0-211.0","","img/set1/S1.jpg","83","1","random","83","random,structured_normal,structured_load,structured_incentive","2,1,2,3,3,4","true","",""
"null","","html-keyboard-response","212","99618","0.0-212.0","","<img src=""img/set1/S1.jpg"" width=""540"" height = ""360"" style=""border:16px solid orange"">","null","","","","","","","",""
"null","","html-keyboard-response","213","99820","0.0-213.0","","","null","","","","","","","",""
"723.5","","image-keyboard-response","214","100545","0.0-214.0","","img/set1/S2.jpg","72","2","random","68","random,structured_normal,structured_load,structured_incentive","2,1,2,3,3,4","false","",""
"null","","html-keyboard-response","215","100897","0.0-215.0","","<img src=""img/set1/S2.jpg"" width=""540"" height = ""360"">","null","","","","","","","",""
"null","","html-keyboard-response","216","101099","0.0-216.0","","","null","","","","","","","",""
"540.7999999523163","","image-keyboard-response","217","101641","0.0-217.0","","img/set1/S4.jpg","74","4","random","74","random,structured_normal,structured_load,structured_incentive","2,1,2,3,3,4","true","",""
"null","","html-keyboard-response","218","101993","0.0-218.0","","<img src=""img/set1/S4.jpg"" width=""540"" height = ""360"" style=""border:16px solid orange"">","null","","","","","","","",""
"null","","html-keyboard-response","219","102194","0.0-219.0","","","null","","","","","","","",""
"847.9000000953674","","image-keyboard-response","220","103043","0.0-220.0","","img/set1/S3.jpg","72","3","random","72","random,structured_normal,structured_load,structured_incentive","2,1,2,3,3,4","true","",""
"null","","html-keyboard-response","221","103395","0.0-221.0","","<img src=""img/set1/S3.jpg"" width=""540"" height = ""360"" style=""border:16px solid orange"">","null","","","","","","","",""
"null","","html-keyboard-response","222","103596","0.0-222.0","","","null","","","","","","","",""
"601.1999998092651","","image-keyboard-response","223","104199","0.0-223.0","","img/set1/S1.jpg","83","1","random","83","random,structured_normal,structured_load,structured_incentive","2,1,2,3,3,4","true","",""
"null","","html-keyboard-response","224","104551","0.0-224.0","","<img src=""img/set1/S1.jpg"" width=""540"" height = ""360"" style=""border:16px solid orange"">","null","","","","","","","",""
"null","","html-keyboard-response","225","104752","0.0-225.0","","","null","","","","","","","",""
"596.2999999523163","","image-keyboard-response","226","105350","0.0-226.0","","img/set1/S4.jpg","74","4","random","74","random,structured_normal,structured_load,structured_incentive","2,1,2,3,3,4","true","",""
"null","","html-keyboard-response","227","105702","0.0-227.0","","<img src=""img/set1/S4.jpg"" width=""540"" height = ""360"" style=""border:16px solid orange"">","null","","","","","","","",""
"null","","html-keyboard-response","228","105904","0.0-228.0","","","null","","","","","","","",""
"717.7000000476837","","image-keyboard-response","229","106625","0.0-229.0","","img/set1/S3.jpg","72","3","random","72","random,structured_normal,structured_load,structured_incentive","2,1,2,3,3,4","true","",""
"null","","html-keyboard-response","230","106978","0.0-230.0","","<img src=""img/set1/S3.jpg"" width=""540"" height = ""360"" style=""border:16px solid orange"">","null","","","","","","","",""
"null","","html-keyboard-response","231","107179","0.0-231.0","","","null","","","","","","","",""
"647.9000000953674","","image-keyboard-response","232","107828","0.0-232.0","","img/set1/S2.jpg","68","2","random","68","random,structured_normal,structured_load,structured_incentive","2,1,2,3,3,4","true","",""
"null","","html-keyboard-response","233","108180","0.0-233.0","","<img src=""img/set1/S2.jpg"" width=""540"" height = ""360"" style=""border:16px solid orange"">","null","","","","","","","",""
"null","","html-keyboard-response","234","108383","0.0-234.0","","","null","","","","","","","",""
"540","","image-keyboard-response","235","108924","0.0-235.0","","img/set1/S4.jpg","74","4","random","74","random,structured_normal,structured_load,structured_incentive","2,1,2,3,3,4","true","",""
"null","","html-keyboard-response","236","109277","0.0-236.0","","<img src=""img/set1/S4.jpg"" width=""540"" height = ""360"" style=""border:16px solid orange"">","null","","","","","","","",""
"null","","html-keyboard-response","237","109480","0.0-237.0","","","null","","","","","","","",""
"1099.7000000476837","","image-keyboard-response","238","110581","0.0-238.0","","img/set1/S3.jpg","72","3","random","72","random,structured_normal,structured_load,structured_incentive","2,1,2,3,3,4","true","",""
"null","","html-keyboard-response","239","110934","0.0-239.0","","<img src=""img/set1/S3.jpg"" width=""540"" height = ""360"" style=""border:16px solid orange"">","null","","","","","","","",""
"null","","html-keyboard-response","240","111136","0.0-240.0","","","null","","","","","","","",""
"620.5999999046326","","image-keyboard-response","241","111758","0.0-241.0","","img/set1/S2.jpg","68","2","random","68","random,structured_normal,structured_load,structured_incentive","2,1,2,3,3,4","true","",""
"null","","html-keyboard-response","242","112111","0.0-242.0","","<img src=""img/set1/S2.jpg"" width=""540"" height = ""360"" style=""border:16px solid orange"">","null","","","","","","","",""
"null","","html-keyboard-response","243","112312","0.0-243.0","","","null","","","","","","","",""
"720.5","","image-keyboard-response","244","113034","0.0-244.0","","img/set1/S4.jpg","74","4","random","74","random,structured_normal,structured_load,structured_incentive","2,1,2,3,3,4","true","",""
"null","","html-keyboard-response","245","113387","0.0-245.0","","<img src=""img/set1/S4.jpg"" width=""540"" height = ""360"" style=""border:16px solid orange"">","null","","","","","","","",""
"null","","html-keyboard-response","246","113589","0.0-246.0","","","null","","","","","","","",""
"647.7999999523163","","image-keyboard-response","247","114238","0.0-247.0","","img/set1/S3.jpg","68","3","random","72","random,structured_normal,structured_load,structured_incentive","2,1,2,3,3,4","false","",""
"null","","html-keyboard-response","248","114591","0.0-248.0","","<img src=""img/set1/S3.jpg"" width=""540"" height = ""360"">","null","","","","","","","",""
"null","","html-keyboard-response","249","114793","0.0-249.0","","","null","","","","","","","",""
"601.2000000476837","","image-keyboard-response","250","115396","0.0-250.0","","img/set1/S4.jpg","74","4","random","74","random,structured_normal,structured_load,structured_incentive","2,1,2,3,3,4","true","",""
"null","","html-keyboard-response","251","115748","0.0-251.0","","<img src=""img/set1/S4.jpg"" width=""540"" height = ""360"" style=""border:16px solid orange"">","null","","","","","","","",""
"null","","html-keyboard-response","252","115949","0.0-252.0","","","null","","","","","","","",""
"486.10000014305115","","image-keyboard-response","253","116437","0.0-253.0","","img/set1/S4.jpg","74","4","random","74","random,structured_normal,structured_load,structured_incentive","2,1,2,3,3,4","true","",""
"null","","html-keyboard-response","254","116789","0.0-254.0","","<img src=""img/set1/S4.jpg"" width=""540"" height = ""360"" style=""border:16px solid orange"">","null","","","","","","","",""
"null","","html-keyboard-response","255","116991","0.0-255.0","","","null","","","","","","","",""
"615.7999999523163","","image-keyboard-response","256","117608","0.0-256.0","","img/set1/S2.jpg","68","2","random","68","random,structured_normal,structured_load,structured_incentive","2,1,2,3,3,4","true","",""
"null","","html-keyboard-response","257","117972","0.0-257.0","","<img src=""img/set1/S2.jpg"" width=""540"" height = ""360"" style=""border:16px solid orange"">","null","","","","","","","",""
"null","","html-keyboard-response","258","118189","0.0-258.0","","","null","","","","","","","",""
"515.5","","image-keyboard-response","259","118707","0.0-259.0","","img/set1/S3.jpg","72","3","random","72","random,structured_normal,structured_load,structured_incentive","2,1,2,3,3,4","true","",""
"null","","html-keyboard-response","260","119060","0.0-260.0","","<img src=""img/set1/S3.jpg"" width=""540"" height = ""360"" style=""border:16px solid orange"">","null","","","","","","","",""
"null","","html-keyboard-response","261","119261","0.0-261.0","","","null","","","","","","","",""
"675.5","","image-keyboard-response","262","119938","0.0-262.0","","img/set1/S1.jpg","83","1","random","83","random,structured_normal,structured_load,structured_incentive","2,1,2,3,3,4","true","",""
"null","","html-keyboard-response","263","120290","0.0-263.0","","<img src=""img/set1/S1.jpg"" width=""540"" height = ""360"" style=""border:16px solid orange"">","null","","","","","","","",""
"null","","html-keyboard-response","264","120492","0.0-264.0","","","null","","","","","","","",""
"555.5","","image-keyboard-response","265","121049","0.0-265.0","","img/set1/S1.jpg","83","1","random","83","random,structured_normal,structured_load,structured_incentive","2,1,2,3,3,4","true","",""
"null","","html-keyboard-response","266","121401","0.0-266.0","","<img src=""img/set1/S1.jpg"" width=""540"" height = ""360"" style=""border:16px solid orange"">","null","","","","","","","",""
"null","","html-keyboard-response","267","121602","0.0-267.0","","","null","","","","","","","",""
"657.2999999523163","","image-keyboard-response","268","122260","0.0-268.0","","img/set1/S3.jpg","72","3","random","72","random,structured_normal,structured_load,structured_incentive","2,1,2,3,3,4","true","",""
"null","","html-keyboard-response","269","122614","0.0-269.0","","<img src=""img/set1/S3.jpg"" width=""540"" height = ""360"" style=""border:16px solid orange"">","null","","","","","","","",""
"null","","html-keyboard-response","270","122815","0.0-270.0","","","null","","","","","","","",""
"465.7999999523163","","image-keyboard-response","271","123282","0.0-271.0","","img/set1/S3.jpg","72","3","random","72","random,structured_normal,structured_load,structured_incentive","2,1,2,3,3,4","true","",""
"null","","html-keyboard-response","272","123634","0.0-272.0","","<img src=""img/set1/S3.jpg"" width=""540"" height = ""360"" style=""border:16px solid orange"">","null","","","","","","","",""
"null","","html-keyboard-response","273","123835","0.0-273.0","","","null","","","","","","","",""
"607.2999999523163","","image-keyboard-response","274","124443","0.0-274.0","","img/set1/S2.jpg","68","2","random","68","random,structured_normal,structured_load,structured_incentive","2,1,2,3,3,4","true","",""
"null","","html-keyboard-response","275","124795","0.0-275.0","","<img src=""img/set1/S2.jpg"" width=""540"" height = ""360"" style=""border:16px solid orange"">","null","","","","","","","",""
"null","","html-keyboard-response","276","124997","0.0-276.0","","","null","","","","","","","",""
"495.2000000476837","","image-keyboard-response","277","125493","0.0-277.0","","img/set1/S4.jpg","74","4","random","74","random,structured_normal,structured_load,structured_incentive","2,1,2,3,3,4","true","",""
"null","","html-keyboard-response","278","125845","0.0-278.0","","<img src=""img/set1/S4.jpg"" width=""540"" height = ""360"" style=""border:16px solid orange"">","null","","","","","","","",""
"null","","html-keyboard-response","279","126047","0.0-279.0","","","null","","","","","","","",""
"729.1000001430511","","image-keyboard-response","280","126777","0.0-280.0","","img/set1/S1.jpg","83","1","random","83","random,structured_normal,structured_load,structured_incentive","2,1,2,3,3,4","true","",""
"null","","html-keyboard-response","281","127142","0.0-281.0","","<img src=""img/set1/S1.jpg"" width=""540"" height = ""360"" style=""border:16px solid orange"">","null","","","","","","","",""
"null","","html-keyboard-response","282","127344","0.0-282.0","","","null","","","","","","","",""
"580.0999999046326","","image-keyboard-response","283","127925","0.0-283.0","","img/set1/S4.jpg","74","4","random","74","random,structured_normal,structured_load,structured_incentive","2,1,2,3,3,4","true","",""
"null","","html-keyboard-response","284","128278","0.0-284.0","","<img src=""img/set1/S4.jpg"" width=""540"" height = ""360"" style=""border:16px solid orange"">","null","","","","","","","",""
"null","","html-keyboard-response","285","128479","0.0-285.0","","","null","","","","","","","",""
"637.8999998569489","","image-keyboard-response","286","129119","0.0-286.0","","img/set1/S1.jpg","83","1","random","83","random,structured_normal,structured_load,structured_incentive","2,1,2,3,3,4","true","",""
"null","","html-keyboard-response","287","129473","0.0-287.0","","<img src=""img/set1/S1.jpg"" width=""540"" height = ""360"" style=""border:16px solid orange"">","null","","","","","","","",""
"null","","html-keyboard-response","288","129675","0.0-288.0","","","null","","","","","","","",""
"659.4000000953674","","image-keyboard-response","289","130337","0.0-289.0","","img/set1/S4.jpg","74","4","random","74","random,structured_normal,structured_load,structured_incentive","2,1,2,3,3,4","true","",""
"null","","html-keyboard-response","290","130691","0.0-290.0","","<img src=""img/set1/S4.jpg"" width=""540"" height = ""360"" style=""border:16px solid orange"">","null","","","","","","","",""
"null","","html-keyboard-response","291","130894","0.0-291.0","","","null","","","","","","","",""
"714.4000000953674","","image-keyboard-response","292","131610","0.0-292.0","","img/set1/S1.jpg","83","1","random","83","random,structured_normal,structured_load,structured_incentive","2,1,2,3,3,4","true","",""
"null","","html-keyboard-response","293","131963","0.0-293.0","","<img src=""img/set1/S1.jpg"" width=""540"" height = ""360"" style=""border:16px solid orange"">","null","","","","","","","",""
"null","","html-keyboard-response","294","132165","0.0-294.0","","","null","","","","","","","",""
"558","","image-keyboard-response","295","132724","0.0-295.0","","img/set1/S4.jpg","74","4","random","74","random,structured_normal,structured_load,structured_incentive","2,1,2,3,3,4","true","",""
"null","","html-keyboard-response","296","133077","0.0-296.0","","<img src=""img/set1/S4.jpg"" width=""540"" height = ""360"" style=""border:16px solid orange"">","null","","","","","","","",""
"null","","html-keyboard-response","297","133279","0.0-297.0","","","null","","","","","","","",""
"600.5","","image-keyboard-response","298","133881","0.0-298.0","","img/set1/S3.jpg","72","3","random","72","random,structured_normal,structured_load,structured_incentive","2,1,2,3,3,4","true","",""
"null","","html-keyboard-response","299","134239","0.0-299.0","","<img src=""img/set1/S3.jpg"" width=""540"" height = ""360"" style=""border:16px solid orange"">","null","","","","","","","",""
"null","","html-keyboard-response","300","134440","0.0-300.0","","","null","","","","","","","",""
"592","","image-keyboard-response","301","135033","0.0-301.0","","img/set1/S2.jpg","68","2","random","68","random,structured_normal,structured_load,structured_incentive","2,1,2,3,3,4","true","",""
"null","","html-keyboard-response","302","135386","0.0-302.0","","<img src=""img/set1/S2.jpg"" width=""540"" height = ""360"" style=""border:16px solid orange"">","null","","","","","","","",""
"null","","html-keyboard-response","303","135587","0.0-303.0","","","null","","","","","","","",""
"518.5","","image-keyboard-response","304","136108","0.0-304.0","","img/set1/S2.jpg","68","2","random","68","random,structured_normal,structured_load,structured_incentive","2,1,2,3,3,4","true","",""
"null","","html-keyboard-response","305","136460","0.0-305.0","","<img src=""img/set1/S2.jpg"" width=""540"" height = ""360"" style=""border:16px solid orange"">","null","","","","","","","",""
"null","","html-keyboard-response","306","136661","0.0-306.0","","","null","","","","","","","",""
"665.1000001430511","","image-keyboard-response","307","137328","0.0-307.0","","img/set1/S3.jpg","72","3","random","72","random,structured_normal,structured_load,structured_incentive","2,1,2,3,3,4","true","",""
"null","","html-keyboard-response","308","137681","0.0-308.0","","<img src=""img/set1/S3.jpg"" width=""540"" height = ""360"" style=""border:16px solid orange"">","null","","","","","","","",""
"null","","html-keyboard-response","309","137882","0.0-309.0","","","null","","","","","","","",""
"673.7000000476837","","image-keyboard-response","310","138557","0.0-310.0","","img/set1/S1.jpg","83","1","random","83","random,structured_normal,structured_load,structured_incentive","2,1,2,3,3,4","true","",""
"null","","html-keyboard-response","311","138909","0.0-311.0","","<img src=""img/set1/S1.jpg"" width=""540"" height = ""360"" style=""border:16px solid orange"">","null","","","","","","","",""
"null","","html-keyboard-response","312","139111","0.0-312.0","","","null","","","","","","","",""
"865","","image-keyboard-response","313","139978","0.0-313.0","","img/set1/S4.jpg","74","4","random","74","random,structured_normal,structured_load,structured_incentive","2,1,2,3,3,4","true","",""
"null","","html-keyboard-response","314","140330","0.0-314.0","","<img src=""img/set1/S4.jpg"" width=""540"" height = ""360"" style=""border:16px solid orange"">","null","","","","","","","",""
"null","","html-keyboard-response","315","140532","0.0-315.0","","","null","","","","","","","",""
"559.6999998092651","","image-keyboard-response","316","141094","0.0-316.0","","img/set1/S2.jpg","68","2","random","68","random,structured_normal,structured_load,structured_incentive","2,1,2,3,3,4","true","",""
"null","","html-keyboard-response","317","141446","0.0-317.0","","<img src=""img/set1/S2.jpg"" width=""540"" height = ""360"" style=""border:16px solid orange"">","null","","","","","","","",""
"null","","html-keyboard-response","318","141648","0.0-318.0","","","null","","","","","","","",""
"687.5999999046326","","image-keyboard-response","319","142337","0.0-319.0","","img/set1/S2.jpg","68","2","random","68","random,structured_normal,structured_load,structured_incentive","2,1,2,3,3,4","true","",""
"null","","html-keyboard-response","320","142690","0.0-320.0","","<img src=""img/set1/S2.jpg"" width=""540"" height = ""360"" style=""border:16px solid orange"">","null","","","","","","","",""
"null","","html-keyboard-response","321","142892","0.0-321.0","","","null","","","","","","","",""
"613.7999999523163","","image-keyboard-response","322","143507","0.0-322.0","","img/set1/S1.jpg","83","1","random","83","random,structured_normal,structured_load,structured_incentive","2,1,2,3,3,4","true","",""
"null","","html-keyboard-response","323","143859","0.0-323.0","","<img src=""img/set1/S1.jpg"" width=""540"" height = ""360"" style=""border:16px solid orange"">","null","","","","","","","",""
"null","","html-keyboard-response","324","144061","0.0-324.0","","","null","","","","","","","",""
"717.2999999523163","","image-keyboard-response","325","144779","0.0-325.0","","img/set1/S2.jpg","68","2","random","68","random,structured_normal,structured_load,structured_incentive","2,1,2,3,3,4","true","",""
"null","","html-keyboard-response","326","145132","0.0-326.0","","<img src=""img/set1/S2.jpg"" width=""540"" height = ""360"" style=""border:16px solid orange"">","null","","","","","","","",""
"null","","html-keyboard-response","327","145333","0.0-327.0","","","null","","","","","","","",""
"613","","image-keyboard-response","328","145947","0.0-328.0","","img/set1/S3.jpg","72","3","random","72","random,structured_normal,structured_load,structured_incentive","2,1,2,3,3,4","true","",""
"null","","html-keyboard-response","329","146300","0.0-329.0","","<img src=""img/set1/S3.jpg"" width=""540"" height = ""360"" style=""border:16px solid orange"">","null","","","","","","","",""
"null","","html-keyboard-response","330","146502","0.0-330.0","","","null","","","","","","","",""
"598.2999999523163","","image-keyboard-response","331","147102","0.0-331.0","","img/set1/S2.jpg","68","2","random","68","random,structured_normal,structured_load,structured_incentive","2,1,2,3,3,4","true","",""
"null","","html-keyboard-response","332","147454","0.0-332.0","","<img src=""img/set1/S2.jpg"" width=""540"" height = ""360"" style=""border:16px solid orange"">","null","","","","","","","",""
"null","","html-keyboard-response","333","147657","0.0-333.0","","","null","","","","","","","",""
"541.7000000476837","","image-keyboard-response","334","148200","0.0-334.0","","img/set1/S4.jpg","74","4","random","74","random,structured_normal,structured_load,structured_incentive","2,1,2,3,3,4","true","",""
"null","","html-keyboard-response","335","148552","0.0-335.0","","<img src=""img/set1/S4.jpg"" width=""540"" height = ""360"" style=""border:16px solid orange"">","null","","","","","","","",""
"null","","html-keyboard-response","336","148754","0.0-336.0","","","null","","","","","","","",""
"680.7000000476837","","image-keyboard-response","337","149437","0.0-337.0","","img/set1/S4.jpg","74","4","random","74","random,structured_normal,structured_load,structured_incentive","2,1,2,3,3,4","true","",""
"null","","html-keyboard-response","338","149789","0.0-338.0","","<img src=""img/set1/S4.jpg"" width=""540"" height = ""360"" style=""border:16px solid orange"">","null","","","","","","","",""
"null","","html-keyboard-response","339","149990","0.0-339.0","","","null","","","","","","","",""
"687.5","","image-keyboard-response","340","150679","0.0-340.0","","img/set1/S3.jpg","72","3","random","72","random,structured_normal,structured_load,structured_incentive","2,1,2,3,3,4","true","",""
"null","","html-keyboard-response","341","151031","0.0-341.0","","<img src=""img/set1/S3.jpg"" width=""540"" height = ""360"" style=""border:16px solid orange"">","null","","","","","","","",""
"null","","html-keyboard-response","342","151232","0.0-342.0","","","null","","","","","","","",""
"569.7999999523163","","image-keyboard-response","343","151803","0.0-343.0","","img/set1/S3.jpg","72","3","random","72","random,structured_normal,structured_load,structured_incentive","2,1,2,3,3,4","true","",""
"null","","html-keyboard-response","344","152156","0.0-344.0","","<img src=""img/set1/S3.jpg"" width=""540"" height = ""360"" style=""border:16px solid orange"">","null","","","","","","","",""
"null","","html-keyboard-response","345","152357","0.0-345.0","","","null","","","","","","","",""
"1223.8999998569489","","image-keyboard-response","346","153582","0.0-346.0","","img/set1/S2.jpg","68","2","random","68","random,structured_normal,structured_load,structured_incentive","2,1,2,3,3,4","true","",""
"null","","html-keyboard-response","347","153934","0.0-347.0","","<img src=""img/set1/S2.jpg"" width=""540"" height = ""360"" style=""border:16px solid orange"">","null","","","","","","","",""
"null","","html-keyboard-response","348","154135","0.0-348.0","","","null","","","","","","","",""
"619.7999999523163","","image-keyboard-response","349","154756","0.0-349.0","","img/set1/S3.jpg","72","3","random","72","random,structured_normal,structured_load,structured_incentive","2,1,2,3,3,4","true","",""
"null","","html-keyboard-response","350","155108","0.0-350.0","","<img src=""img/set1/S3.jpg"" width=""540"" height = ""360"" style=""border:16px solid orange"">","null","","","","","","","",""
"null","","html-keyboard-response","351","155310","0.0-351.0","","","null","","","","","","","",""
"547.3999998569489","","image-keyboard-response","352","155858","0.0-352.0","","img/set1/S2.jpg","68","2","random","68","random,structured_normal,structured_load,structured_incentive","2,1,2,3,3,4","true","",""
"null","","html-keyboard-response","353","156210","0.0-353.0","","<img src=""img/set1/S2.jpg"" width=""540"" height = ""360"" style=""border:16px solid orange"">","null","","","","","","","",""
"null","","html-keyboard-response","354","156412","0.0-354.0","","","null","","","","","","","",""
"529.7000000476837","","image-keyboard-response","355","156944","0.0-355.0","","img/set1/S4.jpg","74","4","random","74","random,structured_normal,structured_load,structured_incentive","2,1,2,3,3,4","true","",""
"null","","html-keyboard-response","356","157297","0.0-356.0","","<img src=""img/set1/S4.jpg"" width=""540"" height = ""360"" style=""border:16px solid orange"">","null","","","","","","","",""
"null","","html-keyboard-response","357","157499","0.0-357.0","","","null","","","","","","","",""
"674.7000000476837","","image-keyboard-response","358","158176","0.0-358.0","","img/set1/S1.jpg","83","1","random","83","random,structured_normal,structured_load,structured_incentive","2,1,2,3,3,4","true","",""
"null","","html-keyboard-response","359","158529","0.0-359.0","","<img src=""img/set1/S1.jpg"" width=""540"" height = ""360"" style=""border:16px solid orange"">","null","","","","","","","",""
"null","","html-keyboard-response","360","158730","0.0-360.0","","","null","","","","","","","",""
"600.7999999523163","","image-keyboard-response","361","159332","0.0-361.0","","img/set1/S4.jpg","74","4","random","74","random,structured_normal,structured_load,structured_incentive","2,1,2,3,3,4","true","",""
"null","","html-keyboard-response","362","159685","0.0-362.0","","<img src=""img/set1/S4.jpg"" width=""540"" height = ""360"" style=""border:16px solid orange"">","null","","","","","","","",""
"null","","html-keyboard-response","363","159886","0.0-363.0","","","null","","","","","","","",""
"2141.7999999523163","","html-keyboard-response","364","162030","0.0-364.0","","<p class=""center-content"">You have completed a block! </p><p class=""center-content"">Press any key on the keyboard to continue, </p><p class=""center-content"">or wait for the automatic progression to the next block after one minute.</p>","32","","","","","","","",""
"6922.400000095367","","instructions","365","168953","0.0-365.0","[{""page_index"":0,""viewing_time"":6921.5}]","","","","","","","","","",""
"2487.899999856949","","instructions","366","171442","0.0-366.0","[{""page_index"":0,""viewing_time"":2487.2000000476837}]","","","","","","","","","",""
"701","","image-keyboard-response","367","172145","0.0-367.0","","img/set2/S3.jpg","68","3","structured_normal","72","random,structured_normal,structured_load,structured_incentive","2,1,2,3,3,4","false","",""
"null","","html-keyboard-response","368","172498","0.0-368.0","","<img src=""img/set2/S3.jpg"" width=""540"" height = ""360"">","null","","","","","","","",""
"null","","html-keyboard-response","369","172700","0.0-369.0","","","null","","","","","","","",""
"496.39999985694885","","image-keyboard-response","370","173198","0.0-370.0","","img/set2/S4.jpg","83","4","structured_normal","74","random,structured_normal,structured_load,structured_incentive","2,1,2,3,3,4","false","",""
"null","","html-keyboard-response","371","173550","0.0-371.0","","<img src=""img/set2/S4.jpg"" width=""540"" height = ""360"">","null","","","","","","","",""
"null","","html-keyboard-response","372","173752","0.0-372.0","","","null","","","","","","","",""
"562","","image-keyboard-response","373","174316","0.0-373.0","","img/set2/S3.jpg","83","3","structured_normal","72","random,structured_normal,structured_load,structured_incentive","2,1,2,3,3,4","false","",""
"null","","html-keyboard-response","374","174668","0.0-374.0","","<img src=""img/set2/S3.jpg"" width=""540"" height = ""360"">","null","","","","","","","",""
"null","","html-keyboard-response","375","174871","0.0-375.0","","","null","","","","","","","",""
"520.7000000476837","","image-keyboard-response","376","175395","0.0-376.0","","img/set2/S3.jpg","72","3","structured_normal","72","random,structured_normal,structured_load,structured_incentive","2,1,2,3,3,4","true","",""
"null","","html-keyboard-response","377","175748","0.0-377.0","","<img src=""img/set2/S3.jpg"" width=""540"" height = ""360"" style=""border:16px solid orange"">","null","","","","","","","",""
"null","","html-keyboard-response","378","175950","0.0-378.0","","","null","","","","","","","",""
"443.5","","image-keyboard-response","379","176394","0.0-379.0","","img/set2/S3.jpg","72","3","structured_normal","72","random,structured_normal,structured_load,structured_incentive","2,1,2,3,3,4","true","",""
"null","","html-keyboard-response","380","176752","0.0-380.0","","<img src=""img/set2/S3.jpg"" width=""540"" height = ""360"" style=""border:16px solid orange"">","null","","","","","","","",""
"null","","html-keyboard-response","381","176954","0.0-381.0","","","null","","","","","","","",""
"479.10000014305115","","image-keyboard-response","382","177437","0.0-382.0","","img/set2/S3.jpg","72","3","structured_normal","72","random,structured_normal,structured_load,structured_incentive","2,1,2,3,3,4","true","",""
"null","","html-keyboard-response","383","177801","0.0-383.0","","<img src=""img/set2/S3.jpg"" width=""540"" height = ""360"" style=""border:16px solid orange"">","null","","","","","","","",""
"null","","html-keyboard-response","384","178004","0.0-384.0","","","null","","","","","","","",""
"466.2000000476837","","image-keyboard-response","385","178471","0.0-385.0","","img/set2/S3.jpg","72","3","structured_normal","72","random,structured_normal,structured_load,structured_incentive","2,1,2,3,3,4","true","",""
"null","","html-keyboard-response","386","178823","0.0-386.0","","<img src=""img/set2/S3.jpg"" width=""540"" height = ""360"" style=""border:16px solid orange"">","null","","","","","","","",""
"null","","html-keyboard-response","387","179025","0.0-387.0","","","null","","","","","","","",""
"428.59999990463257","","image-keyboard-response","388","179455","0.0-388.0","","img/set2/S3.jpg","72","3","structured_normal","72","random,structured_normal,structured_load,structured_incentive","2,1,2,3,3,4","true","",""
"null","","html-keyboard-response","389","179808","0.0-389.0","","<img src=""img/set2/S3.jpg"" width=""540"" height = ""360"" style=""border:16px solid orange"">","null","","","","","","","",""
"null","","html-keyboard-response","390","180009","0.0-390.0","","","null","","","","","","","",""
"390.7000000476837","","image-keyboard-response","391","180401","0.0-391.0","","img/set2/S3.jpg","72","3","structured_normal","72","random,structured_normal,structured_load,structured_incentive","2,1,2,3,3,4","true","",""
"null","","html-keyboard-response","392","180753","0.0-392.0","","<img src=""img/set2/S3.jpg"" width=""540"" height = ""360"" style=""border:16px solid orange"">","null","","","","","","","",""
"null","","html-keyboard-response","393","180955","0.0-393.0","","","null","","","","","","","",""
"622.2999999523163","","image-keyboard-response","394","181579","0.0-394.0","","img/set2/S2.jpg","72","2","structured_normal","68","random,structured_normal,structured_load,structured_incentive","2,1,2,3,3,4","false","",""
"null","","html-keyboard-response","395","181931","0.0-395.0","","<img src=""img/set2/S2.jpg"" width=""540"" height = ""360"">","null","","","","","","","",""
"null","","html-keyboard-response","396","182132","0.0-396.0","","","null","","","","","","","",""
"700.9000000953674","","image-keyboard-response","397","182835","0.0-397.0","","img/set2/S1.jpg","72","1","structured_normal","83","random,structured_normal,structured_load,structured_incentive","2,1,2,3,3,4","false","",""
"null","","html-keyboard-response","398","183186","0.0-398.0","","<img src=""img/set2/S1.jpg"" width=""540"" height = ""360"">","null","","","","","","","",""
"null","","html-keyboard-response","399","183388","0.0-399.0","","","null","","","","","","","",""
"718.9000000953674","","image-keyboard-response","400","184108","0.0-400.0","","img/set2/S2.jpg","74","2","structured_normal","68","random,structured_normal,structured_load,structured_incentive","2,1,2,3,3,4","false","",""
"null","","html-keyboard-response","401","184461","0.0-401.0","","<img src=""img/set2/S2.jpg"" width=""540"" height = ""360"">","null","","","","","","","",""
"null","","html-keyboard-response","402","184663","0.0-402.0","","","null","","","","","","","",""
"647.8000001907349","","image-keyboard-response","403","185312","0.0-403.0","","img/set2/S1.jpg","68","1","structured_normal","83","random,structured_normal,structured_load,structured_incentive","2,1,2,3,3,4","false","",""
"null","","html-keyboard-response","404","185665","0.0-404.0","","<img src=""img/set2/S1.jpg"" width=""540"" height = ""360"">","null","","","","","","","",""
"null","","html-keyboard-response","405","185868","0.0-405.0","","","null","","","","","","","",""
"571.5","","image-keyboard-response","406","186441","0.0-406.0","","img/set2/S3.jpg","72","3","structured_normal","72","random,structured_normal,structured_load,structured_incentive","2,1,2,3,3,4","true","",""
"null","","html-keyboard-response","407","186794","0.0-407.0","","<img src=""img/set2/S3.jpg"" width=""540"" height = ""360"" style=""border:16px solid orange"">","null","","","","","","","",""
"null","","html-keyboard-response","408","186996","0.0-408.0","","","null","","","","","","","",""
"509.40000009536743","","image-keyboard-response","409","187507","0.0-409.0","","img/set2/S2.jpg","83","2","structured_normal","68","random,structured_normal,structured_load,structured_incentive","2,1,2,3,3,4","false","",""
"null","","html-keyboard-response","410","187858","0.0-410.0","","<img src=""img/set2/S2.jpg"" width=""540"" height = ""360"">","null","","","","","","","",""
"null","","html-keyboard-response","411","188059","0.0-411.0","","","null","","","","","","","",""
"519.3999998569489","","image-keyboard-response","412","188580","0.0-412.0","","img/set2/S1.jpg","83","1","structured_normal","83","random,structured_normal,structured_load,structured_incentive","2,1,2,3,3,4","true","",""
"null","","html-keyboard-response","413","188933","0.0-413.0","","<img src=""img/set2/S1.jpg"" width=""540"" height = ""360"" style=""border:16px solid orange"">","null","","","","","","","",""
"null","","html-keyboard-response","414","189137","0.0-414.0","","","null","","","","","","","",""
"532.2999999523163","","image-keyboard-response","415","189670","0.0-415.0","","img/set2/S2.jpg","68","2","structured_normal","68","random,structured_normal,structured_load,structured_incentive","2,1,2,3,3,4","true","",""
"null","","html-keyboard-response","416","190022","0.0-416.0","","<img src=""img/set2/S2.jpg"" width=""540"" height = ""360"" style=""border:16px solid orange"">","null","","","","","","","",""
"null","","html-keyboard-response","417","190223","0.0-417.0","","","null","","","","","","","",""
"452.89999985694885","","image-keyboard-response","418","190677","0.0-418.0","","img/set2/S1.jpg","83","1","structured_normal","83","random,structured_normal,structured_load,structured_incentive","2,1,2,3,3,4","true","",""
"null","","html-keyboard-response","419","191029","0.0-419.0","","<img src=""img/set2/S1.jpg"" width=""540"" height = ""360"" style=""border:16px solid orange"">","null","","","","","","","",""
"null","","html-keyboard-response","420","191231","0.0-420.0","","","null","","","","","","","",""
"570.2000000476837","","image-keyboard-response","421","191803","0.0-421.0","","img/set2/S3.jpg","72","3","structured_normal","72","random,structured_normal,structured_load,structured_incentive","2,1,2,3,3,4","true","",""
"null","","html-keyboard-response","422","192155","0.0-422.0","","<img src=""img/set2/S3.jpg"" width=""540"" height = ""360"" style=""border:16px solid orange"">","null","","","","","","","",""
"null","","html-keyboard-response","423","192358","0.0-423.0","","","null","","","","","","","",""
"827.2000000476837","","image-keyboard-response","424","193186","0.0-424.0","","img/set2/S2.jpg","83","2","structured_normal","68","random,structured_normal,structured_load,structured_incentive","2,1,2,3,3,4","false","",""
"null","","html-keyboard-response","425","193538","0.0-425.0","","<img src=""img/set2/S2.jpg"" width=""540"" height = ""360"">","null","","","","","","","",""
"null","","html-keyboard-response","426","193740","0.0-426.0","","","null","","","","","","","",""
"388.2000000476837","","image-keyboard-response","427","194129","0.0-427.0","","img/set2/S1.jpg","83","1","structured_normal","83","random,structured_normal,structured_load,structured_incentive","2,1,2,3,3,4","true","",""
"null","","html-keyboard-response","428","194481","0.0-428.0","","<img src=""img/set2/S1.jpg"" width=""540"" height = ""360"" style=""border:16px solid orange"">","null","","","","","","","",""
"null","","html-keyboard-response","429","194683","0.0-429.0","","","null","","","","","","","",""
"490.59999990463257","","image-keyboard-response","430","195175","0.0-430.0","","img/set2/S3.jpg","83","3","structured_normal","72","random,structured_normal,structured_load,structured_incentive","2,1,2,3,3,4","false","",""
"null","","html-keyboard-response","431","195527","0.0-431.0","","<img src=""img/set2/S3.jpg"" width=""540"" height = ""360"">","null","","","","","","","",""
"null","","html-keyboard-response","432","195729","0.0-432.0","","","null","","","","","","","",""
"727.6999998092651","","image-keyboard-response","433","196458","0.0-433.0","","img/set2/S4.jpg","72","4","structured_normal","74","random,structured_normal,structured_load,structured_incentive","2,1,2,3,3,4","false","",""
"null","","html-keyboard-response","434","196811","0.0-434.0","","<img src=""img/set2/S4.jpg"" width=""540"" height = ""360"">","null","","","","","","","",""
"null","","html-keyboard-response","435","197013","0.0-435.0","","","null","","","","","","","",""
"525.6000001430511","","image-keyboard-response","436","197540","0.0-436.0","","img/set2/S2.jpg","83","2","structured_normal","68","random,structured_normal,structured_load,structured_incentive","2,1,2,3,3,4","false","",""
"null","","html-keyboard-response","437","197892","0.0-437.0","","<img src=""img/set2/S2.jpg"" width=""540"" height = ""360"">","null","","","","","","","",""
"null","","html-keyboard-response","438","198093","0.0-438.0","","","null","","","","","","","",""
"608.2000000476837","","image-keyboard-response","439","198702","0.0-439.0","","img/set2/S1.jpg","83","1","structured_normal","83","random,structured_normal,structured_load,structured_incentive","2,1,2,3,3,4","true","",""
"null","","html-keyboard-response","440","199056","0.0-440.0","","<img src=""img/set2/S1.jpg"" width=""540"" height = ""360"" style=""border:16px solid orange"">","null","","","","","","","",""
"null","","html-keyboard-response","441","199258","0.0-441.0","","","null","","","","","","","",""
"472.2999999523163","","image-keyboard-response","442","199732","0.0-442.0","","img/set2/S4.jpg","83","4","structured_normal","74","random,structured_normal,structured_load,structured_incentive","2,1,2,3,3,4","false","",""
"null","","html-keyboard-response","443","200084","0.0-443.0","","<img src=""img/set2/S4.jpg"" width=""540"" height = ""360"">","null","","","","","","","",""
"null","","html-keyboard-response","444","200287","0.0-444.0","","","null","","","","","","","",""
"652.2000000476837","","image-keyboard-response","445","200940","0.0-445.0","","img/set2/S4.jpg","74","4","structured_normal","74","random,structured_normal,structured_load,structured_incentive","2,1,2,3,3,4","true","",""
"null","","html-keyboard-response","446","201293","0.0-446.0","","<img src=""img/set2/S4.jpg"" width=""540"" height = ""360"" style=""border:16px solid orange"">","null","","","","","","","",""
"null","","html-keyboard-response","447","201506","0.0-447.0","","","null","","","","","","","",""
"738.2999999523163","","image-keyboard-response","448","202245","0.0-448.0","","img/set2/S2.jpg","68","2","structured_normal","68","random,structured_normal,structured_load,structured_incentive","2,1,2,3,3,4","true","",""
"null","","html-keyboard-response","449","202597","0.0-449.0","","<img src=""img/set2/S2.jpg"" width=""540"" height = ""360"" style=""border:16px solid orange"">","null","","","","","","","",""
"null","","html-keyboard-response","450","202799","0.0-450.0","","","null","","","","","","","",""
"641.2999999523163","","image-keyboard-response","451","203441","0.0-451.0","","img/set2/S1.jpg","83","1","structured_normal","83","random,structured_normal,structured_load,structured_incentive","2,1,2,3,3,4","true","",""
"null","","html-keyboard-response","452","203793","0.0-452.0","","<img src=""img/set2/S1.jpg"" width=""540"" height = ""360"" style=""border:16px solid orange"">","null","","","","","","","",""
"null","","html-keyboard-response","453","203995","0.0-453.0","","","null","","","","","","","",""
"1255.7999999523163","","image-keyboard-response","454","205252","0.0-454.0","","img/set2/S4.jpg","74","4","structured_normal","74","random,structured_normal,structured_load,structured_incentive","2,1,2,3,3,4","true","",""
"null","","html-keyboard-response","455","205604","0.0-455.0","","<img src=""img/set2/S4.jpg"" width=""540"" height = ""360"" style=""border:16px solid orange"">","null","","","","","","","",""
"null","","html-keyboard-response","456","205806","0.0-456.0","","","null","","","","","","","",""
"1174","","image-keyboard-response","457","206981","0.0-457.0","","img/set2/S2.jpg","68","2","structured_normal","68","random,structured_normal,structured_load,structured_incentive","2,1,2,3,3,4","true","",""
"null","","html-keyboard-response","458","207335","0.0-458.0","","<img src=""img/set2/S2.jpg"" width=""540"" height = ""360"" style=""border:16px solid orange"">","null","","","","","","","",""
"null","","html-keyboard-response","459","207537","0.0-459.0","","","null","","","","","","","",""
"561.3999998569489","","image-keyboard-response","460","208100","0.0-460.0","","img/set2/S1.jpg","83","1","structured_normal","83","random,structured_normal,structured_load,structured_incentive","2,1,2,3,3,4","true","",""
"null","","html-keyboard-response","461","208452","0.0-461.0","","<img src=""img/set2/S1.jpg"" width=""540"" height = ""360"" style=""border:16px solid orange"">","null","","","","","","","",""
"null","","html-keyboard-response","462","208654","0.0-462.0","","","null","","","","","","","",""
"415.19999980926514","","image-keyboard-response","463","209071","0.0-463.0","","img/set2/S2.jpg","68","2","structured_normal","68","random,structured_normal,structured_load,structured_incentive","2,1,2,3,3,4","true","",""
"null","","html-keyboard-response","464","209424","0.0-464.0","","<img src=""img/set2/S2.jpg"" width=""540"" height = ""360"" style=""border:16px solid orange"">","null","","","","","","","",""
"null","","html-keyboard-response","465","209625","0.0-465.0","","","null","","","","","","","",""
"646.5","","image-keyboard-response","466","210273","0.0-466.0","","img/set2/S1.jpg","83","1","structured_normal","83","random,structured_normal,structured_load,structured_incentive","2,1,2,3,3,4","true","",""
"null","","html-keyboard-response","467","210626","0.0-467.0","","<img src=""img/set2/S1.jpg"" width=""540"" height = ""360"" style=""border:16px solid orange"">","null","","","","","","","",""
"null","","html-keyboard-response","468","210828","0.0-468.0","","","null","","","","","","","",""
"570","","image-keyboard-response","469","211399","0.0-469.0","","img/set2/S3.jpg","72","3","structured_normal","72","random,structured_normal,structured_load,structured_incentive","2,1,2,3,3,4","true","",""
"null","","html-keyboard-response","470","211751","0.0-470.0","","<img src=""img/set2/S3.jpg"" width=""540"" height = ""360"" style=""border:16px solid orange"">","null","","","","","","","",""
"null","","html-keyboard-response","471","211953","0.0-471.0","","","null","","","","","","","",""
"378.60000014305115","","image-keyboard-response","472","212333","0.0-472.0","","img/set2/S4.jpg","74","4","structured_normal","74","random,structured_normal,structured_load,structured_incentive","2,1,2,3,3,4","true","",""
"null","","html-keyboard-response","473","212686","0.0-473.0","","<img src=""img/set2/S4.jpg"" width=""540"" height = ""360"" style=""border:16px solid orange"">","null","","","","","","","",""
"null","","html-keyboard-response","474","212888","0.0-474.0","","","null","","","","","","","",""
"401.7000000476837","","image-keyboard-response","475","213293","0.0-475.0","","img/set2/S4.jpg","74","4","structured_normal","74","random,structured_normal,structured_load,structured_incentive","2,1,2,3,3,4","true","",""
"null","","html-keyboard-response","476","213646","0.0-476.0","","<img src=""img/set2/S4.jpg"" width=""540"" height = ""360"" style=""border:16px solid orange"">","null","","","","","","","",""
"null","","html-keyboard-response","477","213848","0.0-477.0","","","null","","","","","","","",""
"654.4000000953674","","image-keyboard-response","478","214504","0.0-478.0","","img/set2/S2.jpg","68","2","structured_normal","68","random,structured_normal,structured_load,structured_incentive","2,1,2,3,3,4","true","",""
"null","","html-keyboard-response","479","214857","0.0-479.0","","<img src=""img/set2/S2.jpg"" width=""540"" height = ""360"" style=""border:16px solid orange"">","null","","","","","","","",""
"null","","html-keyboard-response","480","215058","0.0-480.0","","","null","","","","","","","",""
"383.2000000476837","","image-keyboard-response","481","215442","0.0-481.0","","img/set2/S1.jpg","83","1","structured_normal","83","random,structured_normal,structured_load,structured_incentive","2,1,2,3,3,4","true","",""
"null","","html-keyboard-response","482","215804","0.0-482.0","","<img src=""img/set2/S1.jpg"" width=""540"" height = ""360"" style=""border:16px solid orange"">","null","","","","","","","",""
"null","","html-keyboard-response","483","216005","0.0-483.0","","","null","","","","","","","",""
"745.7999999523163","","image-keyboard-response","484","216752","0.0-484.0","","img/set2/S4.jpg","74","4","structured_normal","74","random,structured_normal,structured_load,structured_incentive","2,1,2,3,3,4","true","",""
"null","","html-keyboard-response","485","217105","0.0-485.0","","<img src=""img/set2/S4.jpg"" width=""540"" height = ""360"" style=""border:16px solid orange"">","null","","","","","","","",""
"null","","html-keyboard-response","486","217307","0.0-486.0","","","null","","","","","","","",""
"891.2000000476837","","image-keyboard-response","487","218199","0.0-487.0","","img/set2/S2.jpg","68","2","structured_normal","68","random,structured_normal,structured_load,structured_incentive","2,1,2,3,3,4","true","",""
"null","","html-keyboard-response","488","218551","0.0-488.0","","<img src=""img/set2/S2.jpg"" width=""540"" height = ""360"" style=""border:16px solid orange"">","null","","","","","","","",""
"null","","html-keyboard-response","489","218753","0.0-489.0","","","null","","","","","","","",""
"561.5","","image-keyboard-response","490","219316","0.0-490.0","","img/set2/S1.jpg","83","1","structured_normal","83","random,structured_normal,structured_load,structured_incentive","2,1,2,3,3,4","true","",""
"null","","html-keyboard-response","491","219668","0.0-491.0","","<img src=""img/set2/S1.jpg"" width=""540"" height = ""360"" style=""border:16px solid orange"">","null","","","","","","","",""
"null","","html-keyboard-response","492","219869","0.0-492.0","","","null","","","","","","","",""
"843.6999998092651","","image-keyboard-response","493","220714","0.0-493.0","","img/set2/S2.jpg","68","2","structured_normal","68","random,structured_normal,structured_load,structured_incentive","2,1,2,3,3,4","true","",""
"null","","html-keyboard-response","494","221067","0.0-494.0","","<img src=""img/set2/S2.jpg"" width=""540"" height = ""360"" style=""border:16px solid orange"">","null","","","","","","","",""
"null","","html-keyboard-response","495","221279","0.0-495.0","","","null","","","","","","","",""
"488.5","","image-keyboard-response","496","221769","0.0-496.0","","img/set2/S1.jpg","83","1","structured_normal","83","random,structured_normal,structured_load,structured_incentive","2,1,2,3,3,4","true","",""
"null","","html-keyboard-response","497","222121","0.0-497.0","","<img src=""img/set2/S1.jpg"" width=""540"" height = ""360"" style=""border:16px solid orange"">","null","","","","","","","",""
"null","","html-keyboard-response","498","222322","0.0-498.0","","","null","","","","","","","",""
"570.8000001907349","","image-keyboard-response","499","222895","0.0-499.0","","img/set2/S4.jpg","74","4","structured_normal","74","random,structured_normal,structured_load,structured_incentive","2,1,2,3,3,4","true","",""
"null","","html-keyboard-response","500","223246","0.0-500.0","","<img src=""img/set2/S4.jpg"" width=""540"" height = ""360"" style=""border:16px solid orange"">","null","","","","","","","",""
"null","","html-keyboard-response","501","223448","0.0-501.0","","","null","","","","","","","",""
"941.7999999523163","","image-keyboard-response","502","224391","0.0-502.0","","img/set2/S2.jpg","68","2","structured_normal","68","random,structured_normal,structured_load,structured_incentive","2,1,2,3,3,4","true","",""
"null","","html-keyboard-response","503","224759","0.0-503.0","","<img src=""img/set2/S2.jpg"" width=""540"" height = ""360"" style=""border:16px solid orange"">","null","","","","","","","",""
"null","","html-keyboard-response","504","224961","0.0-504.0","","","null","","","","","","","",""
"461.2999999523163","","image-keyboard-response","505","225425","0.0-505.0","","img/set2/S1.jpg","83","1","structured_normal","83","random,structured_normal,structured_load,structured_incentive","2,1,2,3,3,4","true","",""
"null","","html-keyboard-response","506","225778","0.0-506.0","","<img src=""img/set2/S1.jpg"" width=""540"" height = ""360"" style=""border:16px solid orange"">","null","","","","","","","",""
"null","","html-keyboard-response","507","225980","0.0-507.0","","","null","","","","","","","",""
"551.1999998092651","","image-keyboard-response","508","226532","0.0-508.0","","img/set2/S4.jpg","74","4","structured_normal","74","random,structured_normal,structured_load,structured_incentive","2,1,2,3,3,4","true","",""
"null","","html-keyboard-response","509","226886","0.0-509.0","","<img src=""img/set2/S4.jpg"" width=""540"" height = ""360"" style=""border:16px solid orange"">","null","","","","","","","",""
"null","","html-keyboard-response","510","227088","0.0-510.0","","","null","","","","","","","",""
"562.8999998569489","","image-keyboard-response","511","227652","0.0-511.0","","img/set2/S4.jpg","74","4","structured_normal","74","random,structured_normal,structured_load,structured_incentive","2,1,2,3,3,4","true","",""
"null","","html-keyboard-response","512","228004","0.0-512.0","","<img src=""img/set2/S4.jpg"" width=""540"" height = ""360"" style=""border:16px solid orange"">","null","","","","","","","",""
"null","","html-keyboard-response","513","228205","0.0-513.0","","","null","","","","","","","",""
"579.2000000476837","","image-keyboard-response","514","228785","0.0-514.0","","img/set2/S3.jpg","72","3","structured_normal","72","random,structured_normal,structured_load,structured_incentive","2,1,2,3,3,4","true","",""
"null","","html-keyboard-response","515","229138","0.0-515.0","","<img src=""img/set2/S3.jpg"" width=""540"" height = ""360"" style=""border:16px solid orange"">","null","","","","","","","",""
"null","","html-keyboard-response","516","229340","0.0-516.0","","","null","","","","","","","",""
"567.6999998092651","","image-keyboard-response","517","229910","0.0-517.0","","img/set2/S4.jpg","74","4","structured_normal","74","random,structured_normal,structured_load,structured_incentive","2,1,2,3,3,4","true","",""
"null","","html-keyboard-response","518","230262","0.0-518.0","","<img src=""img/set2/S4.jpg"" width=""540"" height = ""360"" style=""border:16px solid orange"">","null","","","","","","","",""
"null","","html-keyboard-response","519","230464","0.0-519.0","","","null","","","","","","","",""
"824.4000000953674","","image-keyboard-response","520","231290","0.0-520.0","","img/set2/S3.jpg","72","3","structured_normal","72","random,structured_normal,structured_load,structured_incentive","2,1,2,3,3,4","true","",""
"null","","html-keyboard-response","521","231642","0.0-521.0","","<img src=""img/set2/S3.jpg"" width=""540"" height = ""360"" style=""border:16px solid orange"">","null","","","","","","","",""
"null","","html-keyboard-response","522","231844","0.0-522.0","","","null","","","","","","","",""
"943.5999999046326","","image-keyboard-response","523","232789","0.0-523.0","","img/set2/S4.jpg","74","4","structured_normal","74","random,structured_normal,structured_load,structured_incentive","2,1,2,3,3,4","true","",""
"null","","html-keyboard-response","524","233142","0.0-524.0","","<img src=""img/set2/S4.jpg"" width=""540"" height = ""360"" style=""border:16px solid orange"">","null","","","","","","","",""
"null","","html-keyboard-response","525","233343","0.0-525.0","","","null","","","","","","","",""
"981.3000001907349","","image-keyboard-response","526","234326","0.0-526.0","","img/set2/S3.jpg","72","3","structured_normal","72","random,structured_normal,structured_load,structured_incentive","2,1,2,3,3,4","true","",""
"null","","html-keyboard-response","527","234678","0.0-527.0","","<img src=""img/set2/S3.jpg"" width=""540"" height = ""360"" style=""border:16px solid orange"">","null","","","","","","","",""
"null","","html-keyboard-response","528","234880","0.0-528.0","","","null","","","","","","","",""
"1237.5","","image-keyboard-response","529","236119","0.0-529.0","","img/set2/S4.jpg","74","4","structured_normal","74","random,structured_normal,structured_load,structured_incentive","2,1,2,3,3,4","true","",""
"null","","html-keyboard-response","530","236471","0.0-530.0","","<img src=""img/set2/S4.jpg"" width=""540"" height = ""360"" style=""border:16px solid orange"">","null","","","","","","","",""
"null","","html-keyboard-response","531","236673","0.0-531.0","","","null","","","","","","","",""
"627.2999999523163","","image-keyboard-response","532","237301","0.0-532.0","","img/set2/S2.jpg","68","2","structured_normal","68","random,structured_normal,structured_load,structured_incentive","2,1,2,3,3,4","true","",""
"null","","html-keyboard-response","533","237654","0.0-533.0","","<img src=""img/set2/S2.jpg"" width=""540"" height = ""360"" style=""border:16px solid orange"">","null","","","","","","","",""
"null","","html-keyboard-response","534","237855","0.0-534.0","","","null","","","","","","","",""
"975.5999999046326","","image-keyboard-response","535","238832","0.0-535.0","","img/set2/S1.jpg","83","1","structured_normal","83","random,structured_normal,structured_load,structured_incentive","2,1,2,3,3,4","true","",""
"null","","html-keyboard-response","536","239196","0.0-536.0","","<img src=""img/set2/S1.jpg"" width=""540"" height = ""360"" style=""border:16px solid orange"">","null","","","","","","","",""
"null","","html-keyboard-response","537","239398","0.0-537.0","","","null","","","","","","","",""
"556.5999999046326","","image-keyboard-response","538","239957","0.0-538.0","","img/set2/S4.jpg","74","4","structured_normal","74","random,structured_normal,structured_load,structured_incentive","2,1,2,3,3,4","true","",""
"null","","html-keyboard-response","539","240310","0.0-539.0","","<img src=""img/set2/S4.jpg"" width=""540"" height = ""360"" style=""border:16px solid orange"">","null","","","","","","","",""
"null","","html-keyboard-response","540","240512","0.0-540.0","","","null","","","","","","","",""
"658.5","","image-keyboard-response","541","241171","0.0-541.0","","img/set2/S2.jpg","68","2","structured_normal","68","random,structured_normal,structured_load,structured_incentive","2,1,2,3,3,4","true","",""
"null","","html-keyboard-response","542","241523","0.0-542.0","","<img src=""img/set2/S2.jpg"" width=""540"" height = ""360"" style=""border:16px solid orange"">","null","","","","","","","",""
"null","","html-keyboard-response","543","241725","0.0-543.0","","","null","","","","","","","",""
"872.2999999523163","","image-keyboard-response","544","242598","0.0-544.0","","img/set2/S1.jpg","83","1","structured_normal","83","random,structured_normal,structured_load,structured_incentive","2,1,2,3,3,4","true","",""
"null","","html-keyboard-response","545","242951","0.0-545.0","","<img src=""img/set2/S1.jpg"" width=""540"" height = ""360"" style=""border:16px solid orange"">","null","","","","","","","",""
"null","","html-keyboard-response","546","243154","0.0-546.0","","","null","","","","","","","",""
"742.5999999046326","","image-keyboard-response","547","243899","0.0-547.0","","img/set2/S3.jpg","72","3","structured_normal","72","random,structured_normal,structured_load,structured_incentive","2,1,2,3,3,4","true","",""
"null","","html-keyboard-response","548","244251","0.0-548.0","","<img src=""img/set2/S3.jpg"" width=""540"" height = ""360"" style=""border:16px solid orange"">","null","","","","","","","",""
"null","","html-keyboard-response","549","244453","0.0-549.0","","","null","","","","","","","",""
"546.2000000476837","","image-keyboard-response","550","245000","0.0-550.0","","img/set2/S3.jpg","72","3","structured_normal","72","random,structured_normal,structured_load,structured_incentive","2,1,2,3,3,4","true","",""
"null","","html-keyboard-response","551","245352","0.0-551.0","","<img src=""img/set2/S3.jpg"" width=""540"" height = ""360"" style=""border:16px solid orange"">","null","","","","","","","",""
"null","","html-keyboard-response","552","245554","0.0-552.0","","","null","","","","","","","",""
"530.3999998569489","","image-keyboard-response","553","246086","0.0-553.0","","img/set2/S4.jpg","74","4","structured_normal","74","random,structured_normal,structured_load,structured_incentive","2,1,2,3,3,4","true","",""
"null","","html-keyboard-response","554","246438","0.0-554.0","","<img src=""img/set2/S4.jpg"" width=""540"" height = ""360"" style=""border:16px solid orange"">","null","","","","","","","",""
"null","","html-keyboard-response","555","246640","0.0-555.0","","","null","","","","","","","",""
"525.9000000953674","","image-keyboard-response","556","247167","0.0-556.0","","img/set2/S4.jpg","72","4","structured_normal","74","random,structured_normal,structured_load,structured_incentive","2,1,2,3,3,4","false","",""
"null","","html-keyboard-response","557","247520","0.0-557.0","","<img src=""img/set2/S4.jpg"" width=""540"" height = ""360"">","null","","","","","","","",""
"null","","html-keyboard-response","558","247722","0.0-558.0","","","null","","","","","","","",""
"570.3000001907349","","image-keyboard-response","559","248294","0.0-559.0","","img/set2/S2.jpg","68","2","structured_normal","68","random,structured_normal,structured_load,structured_incentive","2,1,2,3,3,4","true","",""
"null","","html-keyboard-response","560","248647","0.0-560.0","","<img src=""img/set2/S2.jpg"" width=""540"" height = ""360"" style=""border:16px solid orange"">","null","","","","","","","",""
"null","","html-keyboard-response","561","248849","0.0-561.0","","","null","","","","","","","",""
"468.2000000476837","","image-keyboard-response","562","249318","0.0-562.0","","img/set2/S1.jpg","83","1","structured_normal","83","random,structured_normal,structured_load,structured_incentive","2,1,2,3,3,4","true","",""
"null","","html-keyboard-response","563","249670","0.0-563.0","","<img src=""img/set2/S1.jpg"" width=""540"" height = ""360"" style=""border:16px solid orange"">","null","","","","","","","",""
"null","","html-keyboard-response","564","249872","0.0-564.0","","","null","","","","","","","",""
"573.5","","image-keyboard-response","565","250446","0.0-565.0","","img/set2/S4.jpg","74","4","structured_normal","74","random,structured_normal,structured_load,structured_incentive","2,1,2,3,3,4","true","",""
"null","","html-keyboard-response","566","250799","0.0-566.0","","<img src=""img/set2/S4.jpg"" width=""540"" height = ""360"" style=""border:16px solid orange"">","null","","","","","","","",""
"null","","html-keyboard-response","567","251000","0.0-567.0","","","null","","","","","","","",""
"606","","image-keyboard-response","568","251607","0.0-568.0","","img/set2/S4.jpg","74","4","structured_normal","74","random,structured_normal,structured_load,structured_incentive","2,1,2,3,3,4","true","",""
"null","","html-keyboard-response","569","251959","0.0-569.0","","<img src=""img/set2/S4.jpg"" width=""540"" height = ""360"" style=""border:16px solid orange"">","null","","","","","","","",""
"null","","html-keyboard-response","570","252161","0.0-570.0","","","null","","","","","","","",""
"727.5","","image-keyboard-response","571","252889","0.0-571.0","","img/set2/S2.jpg","68","2","structured_normal","68","random,structured_normal,structured_load,structured_incentive","2,1,2,3,3,4","true","",""
"null","","html-keyboard-response","572","253241","0.0-572.0","","<img src=""img/set2/S2.jpg"" width=""540"" height = ""360"" style=""border:16px solid orange"">","null","","","","","","","",""
"null","","html-keyboard-response","573","253444","0.0-573.0","","","null","","","","","","","",""
"551.7999999523163","","image-keyboard-response","574","253997","0.0-574.0","","img/set2/S1.jpg","83","1","structured_normal","83","random,structured_normal,structured_load,structured_incentive","2,1,2,3,3,4","true","",""
"null","","html-keyboard-response","575","254349","0.0-575.0","","<img src=""img/set2/S1.jpg"" width=""540"" height = ""360"" style=""border:16px solid orange"">","null","","","","","","","",""
"null","","html-keyboard-response","576","254551","0.0-576.0","","","null","","","","","","","",""
"1641.5","","image-keyboard-response","577","256194","0.0-577.0","","img/set2/S4.jpg","74","4","structured_normal","74","random,structured_normal,structured_load,structured_incentive","2,1,2,3,3,4","true","",""
"null","","html-keyboard-response","578","256545","0.0-578.0","","<img src=""img/set2/S4.jpg"" width=""540"" height = ""360"" style=""border:16px solid orange"">","null","","","","","","","",""
"null","","html-keyboard-response","579","256747","0.0-579.0","","","null","","","","","","","",""
"474.89999985694885","","image-keyboard-response","580","257224","0.0-580.0","","img/set2/S4.jpg","74","4","structured_normal","74","random,structured_normal,structured_load,structured_incentive","2,1,2,3,3,4","true","",""
"null","","html-keyboard-response","581","257578","0.0-581.0","","<img src=""img/set2/S4.jpg"" width=""540"" height = ""360"" style=""border:16px solid orange"">","null","","","","","","","",""
"null","","html-keyboard-response","582","257780","0.0-582.0","","","null","","","","","","","",""
"1364.8000001907349","","image-keyboard-response","583","259146","0.0-583.0","","img/set2/S3.jpg","72","3","structured_normal","72","random,structured_normal,structured_load,structured_incentive","2,1,2,3,3,4","true","",""
"null","","html-keyboard-response","584","259498","0.0-584.0","","<img src=""img/set2/S3.jpg"" width=""540"" height = ""360"" style=""border:16px solid orange"">","null","","","","","","","",""
"null","","html-keyboard-response","585","259699","0.0-585.0","","","null","","","","","","","",""
"665.5999999046326","","image-keyboard-response","586","260366","0.0-586.0","","img/set2/S4.jpg","74","4","structured_normal","74","random,structured_normal,structured_load,structured_incentive","2,1,2,3,3,4","true","",""
"null","","html-keyboard-response","587","260719","0.0-587.0","","<img src=""img/set2/S4.jpg"" width=""540"" height = ""360"" style=""border:16px solid orange"">","null","","","","","","","",""
"null","","html-keyboard-response","588","260920","0.0-588.0","","","null","","","","","","","",""
"706.2000000476837","","image-keyboard-response","589","261628","0.0-589.0","","img/set2/S3.jpg","72","3","structured_normal","72","random,structured_normal,structured_load,structured_incentive","2,1,2,3,3,4","true","",""
"null","","html-keyboard-response","590","261980","0.0-590.0","","<img src=""img/set2/S3.jpg"" width=""540"" height = ""360"" style=""border:16px solid orange"">","null","","","","","","","",""
"null","","html-keyboard-response","591","262182","0.0-591.0","","","null","","","","","","","",""
"529.8999998569489","","image-keyboard-response","592","262715","0.0-592.0","","img/set2/S4.jpg","74","4","structured_normal","74","random,structured_normal,structured_load,structured_incentive","2,1,2,3,3,4","true","",""
