"rt","url","trial_type","trial_index","time_elapsed","internal_node_id","view_history","stimulus","key_press","state","test_part","correct_response","order_block","order_chunk","correct","responses","question_order","bonus"
"6158","consent.html","external-html","0","6849","0.0-0.0","","","","","","","","","","","",""
"81670","","instructions","1","88556","0.0-1.0","[{""page_index"":0,""viewing_time"":2455},{""page_index"":1,""viewing_time"":16518},{""page_index"":2,""viewing_time"":20448},{""page_index"":3,""viewing_time"":13591},{""page_index"":4,""viewing_time"":11626},{""page_index"":5,""viewing_time"":9798},{""page_index"":6,""viewing_time"":7232}]","","","","","","","","","","",""
"8794","","instructions","2","97356","0.0-2.0","[{""page_index"":0,""viewing_time"":8794}]","","","","","","","","","","",""
"11562","","instructions","3","108923","0.0-3.0","[{""page_index"":0,""viewing_time"":8577},{""page_index"":1,""viewing_time"":2985}]","","","","","","","","","","",""
"null","","image-keyboard-response","4","111443","0.0-4.0","","img/set1/S4.jpg","null","4","structured_load","74","structured_load,structured_incentive,random,structured_normal","2,3,3,4,2,1","false","","",""
"null","","html-keyboard-response","5","111804","0.0-5.0","","<img src=""img/set1/S4.jpg"" width=""540"" height = ""360"">","null","","","","","","","","",""
"null","","html-keyboard-response","6","112006","0.0-6.0","","","null","","","","","","","","",""
"664","","image-keyboard-response","7","112674","0.0-7.0","","img/set1/S2.jpg","72","2","structured_load","68","structured_load,structured_incentive,random,structured_normal","2,3,3,4,2,1","false","","",""
"null","","html-keyboard-response","8","113040","0.0-8.0","","<img src=""img/set1/S2.jpg"" width=""540"" height = ""360"">","null","","","","","","","","",""
"null","","html-keyboard-response","9","113256","0.0-9.0","","","null","","","","","","","","",""
"469","","image-keyboard-response","10","113727","0.0-10.0","","img/set1/S3.jpg","83","3","structured_load","72","structured_load,structured_incentive,random,structured_normal","2,3,3,4,2,1","false","","",""
"null","","html-keyboard-response","11","114090","0.0-11.0","","<img src=""img/set1/S3.jpg"" width=""540"" height = ""360"">","null","","","","","","","","",""
"null","","html-keyboard-response","12","114296","0.0-12.0","","","null","","","","","","","","",""
"371","","image-keyboard-response","13","114669","0.0-13.0","","img/set1/S2.jpg","74","2","structured_load","68","structured_load,structured_incentive,random,structured_normal","2,3,3,4,2,1","false","","",""
"null","","html-keyboard-response","14","115041","0.0-14.0","","<img src=""img/set1/S2.jpg"" width=""540"" height = ""360"">","null","","","","","","","","",""
"null","","html-keyboard-response","15","115242","0.0-15.0","","","null","","","","","","","","",""
"725","","image-keyboard-response","16","115970","0.0-16.0","","img/set1/S3.jpg","68","3","structured_load","72","structured_load,structured_incentive,random,structured_normal","2,3,3,4,2,1","false","","",""
"null","","html-keyboard-response","17","116325","0.0-17.0","","<img src=""img/set1/S3.jpg"" width=""540"" height = ""360"">","null","","","","","","","","",""
"null","","html-keyboard-response","18","116528","0.0-18.0","","","null","","","","","","","","",""
"1364","","image-keyboard-response","19","117896","0.0-19.0","","img/set1/S2.jpg","72","2","structured_load","68","structured_load,structured_incentive,random,structured_normal","2,3,3,4,2,1","false","","",""
"null","","html-keyboard-response","20","118256","0.0-20.0","","<img src=""img/set1/S2.jpg"" width=""540"" height = ""360"">","null","","","","","","","","",""
"null","","html-keyboard-response","21","118459","0.0-21.0","","","null","","","","","","","","",""
"916","","image-keyboard-response","22","119377","0.0-22.0","","img/set1/S3.jpg","74","3","structured_load","72","structured_load,structured_incentive,random,structured_normal","2,3,3,4,2,1","false","","",""
"null","","html-keyboard-response","23","119731","0.0-23.0","","<img src=""img/set1/S3.jpg"" width=""540"" height = ""360"">","null","","","","","","","","",""
"null","","html-keyboard-response","24","119935","0.0-24.0","","","null","","","","","","","","",""
"null","","image-keyboard-response","25","122439","0.0-25.0","","img/set1/S2.jpg","null","2","structured_load","68","structured_load,structured_incentive,random,structured_normal","2,3,3,4,2,1","false","","",""
"null","","html-keyboard-response","26","122801","0.0-26.0","","<img src=""img/set1/S2.jpg"" width=""540"" height = ""360"">","null","","","","","","","","",""
"null","","html-keyboard-response","27","123005","0.0-27.0","","","null","","","","","","","","",""
"1285","","image-keyboard-response","28","124291","0.0-28.0","","img/set1/S3.jpg","72","3","structured_load","72","structured_load,structured_incentive,random,structured_normal","2,3,3,4,2,1","true","","",""
"null","","html-keyboard-response","29","124660","0.0-29.0","","<img src=""img/set1/S3.jpg"" width=""540"" height = ""360"" style=""border:16px solid orange"">","null","","","","","","","","",""
"null","","html-keyboard-response","30","124865","0.0-30.0","","","null","","","","","","","","",""
"1171","","image-keyboard-response","31","126038","0.0-31.0","","img/set1/S2.jpg","83","2","structured_load","68","structured_load,structured_incentive,random,structured_normal","2,3,3,4,2,1","false","","",""
"null","","html-keyboard-response","32","126400","0.0-32.0","","<img src=""img/set1/S2.jpg"" width=""540"" height = ""360"">","null","","","","","","","","",""
"null","","html-keyboard-response","33","126607","0.0-33.0","","","null","","","","","","","","",""
"832","","image-keyboard-response","34","127441","0.0-34.0","","img/set1/S3.jpg","74","3","structured_load","72","structured_load,structured_incentive,random,structured_normal","2,3,3,4,2,1","false","","",""
"null","","html-keyboard-response","35","127801","0.0-35.0","","<img src=""img/set1/S3.jpg"" width=""540"" height = ""360"">","null","","","","","","","","",""
"null","","html-keyboard-response","36","128005","0.0-36.0","","","null","","","","","","","","",""
"1120","","image-keyboard-response","37","129126","0.0-37.0","","img/set1/S2.jpg","68","2","structured_load","68","structured_load,structured_incentive,random,structured_normal","2,3,3,4,2,1","true","","",""
"null","","html-keyboard-response","38","129485","0.0-38.0","","<img src=""img/set1/S2.jpg"" width=""540"" height = ""360"" style=""border:16px solid orange"">","null","","","","","","","","",""
"null","","html-keyboard-response","39","129689","0.0-39.0","","","null","","","","","","","","",""
"741","","image-keyboard-response","40","130435","0.0-40.0","","img/set1/S3.jpg","72","3","structured_load","72","structured_load,structured_incentive,random,structured_normal","2,3,3,4,2,1","true","","",""
"null","","html-keyboard-response","41","130788","0.0-41.0","","<img src=""img/set1/S3.jpg"" width=""540"" height = ""360"" style=""border:16px solid orange"">","null","","","","","","","","",""
"null","","html-keyboard-response","42","130994","0.0-42.0","","","null","","","","","","","","",""
"386","","image-keyboard-response","43","131382","0.0-43.0","","img/set1/S2.jpg","68","2","structured_load","68","structured_load,structured_incentive,random,structured_normal","2,3,3,4,2,1","true","","",""
"null","","html-keyboard-response","44","131746","0.0-44.0","","<img src=""img/set1/S2.jpg"" width=""540"" height = ""360"" style=""border:16px solid orange"">","null","","","","","","","","",""
"null","","html-keyboard-response","45","131951","0.0-45.0","","","null","","","","","","","","",""
"295","","image-keyboard-response","46","132249","0.0-46.0","","img/set1/S3.jpg","72","3","structured_load","72","structured_load,structured_incentive,random,structured_normal","2,3,3,4,2,1","true","","",""
"null","","html-keyboard-response","47","132612","0.0-47.0","","<img src=""img/set1/S3.jpg"" width=""540"" height = ""360"" style=""border:16px solid orange"">","null","","","","","","","","",""
"null","","html-keyboard-response","48","132814","0.0-48.0","","","null","","","","","","","","",""
"969","","image-keyboard-response","49","133786","0.0-49.0","","img/set1/S4.jpg","83","4","structured_load","74","structured_load,structured_incentive,random,structured_normal","2,3,3,4,2,1","false","","",""
"null","","html-keyboard-response","50","134161","0.0-50.0","","<img src=""img/set1/S4.jpg"" width=""540"" height = ""360"">","null","","","","","","","","",""
"null","","html-keyboard-response","51","134368","0.0-51.0","","","null","","","","","","","","",""
"753","","image-keyboard-response","52","135122","0.0-52.0","","img/set1/S2.jpg","68","2","structured_load","68","structured_load,structured_incentive,random,structured_normal","2,3,3,4,2,1","true","","",""
"null","","html-keyboard-response","53","135482","0.0-53.0","","<img src=""img/set1/S2.jpg"" width=""540"" height = ""360"" style=""border:16px solid orange"">","null","","","","","","","","",""
"null","","html-keyboard-response","54","135688","0.0-54.0","","","null","","","","","","","","",""
"360","","image-keyboard-response","55","136052","0.0-55.0","","img/set1/S3.jpg","72","3","structured_load","72","structured_load,structured_incentive,random,structured_normal","2,3,3,4,2,1","true","","",""
"null","","html-keyboard-response","56","136408","0.0-56.0","","<img src=""img/set1/S3.jpg"" width=""540"" height = ""360"" style=""border:16px solid orange"">","null","","","","","","","","",""
"null","","html-keyboard-response","57","136619","0.0-57.0","","","null","","","","","","","","",""
"808","","image-keyboard-response","58","137429","0.0-58.0","","img/set1/S1.jpg","74","1","structured_load","83","structured_load,structured_incentive,random,structured_normal","2,3,3,4,2,1","false","","",""
"null","","html-keyboard-response","59","137803","0.0-59.0","","<img src=""img/set1/S1.jpg"" width=""540"" height = ""360"">","null","","","","","","","","",""
"null","","html-keyboard-response","60","138013","0.0-60.0","","","null","","","","","","","","",""
"590","","image-keyboard-response","61","138606","0.0-61.0","","img/set1/S1.jpg","83","1","structured_load","83","structured_load,structured_incentive,random,structured_normal","2,3,3,4,2,1","true","","",""
"null","","html-keyboard-response","62","138974","0.0-62.0","","<img src=""img/set1/S1.jpg"" width=""540"" height = ""360"" style=""border:16px solid orange"">","null","","","","","","","","",""
"null","","html-keyboard-response","63","139178","0.0-63.0","","","null","","","","","","","","",""
"785","","image-keyboard-response","64","139965","0.0-64.0","","img/set1/S2.jpg","68","2","structured_load","68","structured_load,structured_incentive,random,structured_normal","2,3,3,4,2,1","true","","",""
"null","","html-keyboard-response","65","140328","0.0-65.0","","<img src=""img/set1/S2.jpg"" width=""540"" height = ""360"" style=""border:16px solid orange"">","null","","","","","","","","",""
"null","","html-keyboard-response","66","140545","0.0-66.0","","","null","","","","","","","","",""
"495","","image-keyboard-response","67","141042","0.0-67.0","","img/set1/S3.jpg","72","3","structured_load","72","structured_load,structured_incentive,random,structured_normal","2,3,3,4,2,1","true","","",""
"null","","html-keyboard-response","68","141411","0.0-68.0","","<img src=""img/set1/S3.jpg"" width=""540"" height = ""360"" style=""border:16px solid orange"">","null","","","","","","","","",""
"null","","html-keyboard-response","69","141615","0.0-69.0","","","null","","","","","","","","",""
"992","","image-keyboard-response","70","142608","0.0-70.0","","img/set1/S2.jpg","83","2","structured_load","68","structured_load,structured_incentive,random,structured_normal","2,3,3,4,2,1","false","","",""
"null","","html-keyboard-response","71","142966","0.0-71.0","","<img src=""img/set1/S2.jpg"" width=""540"" height = ""360"">","null","","","","","","","","",""
"null","","html-keyboard-response","72","143169","0.0-72.0","","","null","","","","","","","","",""
"1056","","image-keyboard-response","73","144228","0.0-73.0","","img/set1/S3.jpg","72","3","structured_load","72","structured_load,structured_incentive,random,structured_normal","2,3,3,4,2,1","true","","",""
"null","","html-keyboard-response","74","144594","0.0-74.0","","<img src=""img/set1/S3.jpg"" width=""540"" height = ""360"" style=""border:16px solid orange"">","null","","","","","","","","",""
"null","","html-keyboard-response","75","144798","0.0-75.0","","","null","","","","","","","","",""
"873","","image-keyboard-response","76","145674","0.0-76.0","","img/set1/S4.jpg","74","4","structured_load","74","structured_load,structured_incentive,random,structured_normal","2,3,3,4,2,1","true","","",""
"null","","html-keyboard-response","77","146039","0.0-77.0","","<img src=""img/set1/S4.jpg"" width=""540"" height = ""360"" style=""border:16px solid orange"">","null","","","","","","","","",""
"null","","html-keyboard-response","78","146243","0.0-78.0","","","null","","","","","","","","",""
"683","","image-keyboard-response","79","146929","0.0-79.0","","img/set1/S2.jpg","68","2","structured_load","68","structured_load,structured_incentive,random,structured_normal","2,3,3,4,2,1","true","","",""
"null","","html-keyboard-response","80","147284","0.0-80.0","","<img src=""img/set1/S2.jpg"" width=""540"" height = ""360"" style=""border:16px solid orange"">","null","","","","","","","","",""
"null","","html-keyboard-response","81","147489","0.0-81.0","","","null","","","","","","","","",""
"441","","image-keyboard-response","82","147933","0.0-82.0","","img/set1/S3.jpg","72","3","structured_load","72","structured_load,structured_incentive,random,structured_normal","2,3,3,4,2,1","true","","",""
"null","","html-keyboard-response","83","148293","0.0-83.0","","<img src=""img/set1/S3.jpg"" width=""540"" height = ""360"" style=""border:16px solid orange"">","null","","","","","","","","",""
"null","","html-keyboard-response","84","148497","0.0-84.0","","","null","","","","","","","","",""
"645","","image-keyboard-response","85","149144","0.0-85.0","","img/set1/S1.jpg","83","1","structured_load","83","structured_load,structured_incentive,random,structured_normal","2,3,3,4,2,1","true","","",""
"null","","html-keyboard-response","86","149505","0.0-86.0","","<img src=""img/set1/S1.jpg"" width=""540"" height = ""360"" style=""border:16px solid orange"">","null","","","","","","","","",""
"null","","html-keyboard-response","87","149708","0.0-87.0","","","null","","","","","","","","",""
"651","","image-keyboard-response","88","150362","0.0-88.0","","img/set1/S1.jpg","83","1","structured_load","83","structured_load,structured_incentive,random,structured_normal","2,3,3,4,2,1","true","","",""
"null","","html-keyboard-response","89","150717","0.0-89.0","","<img src=""img/set1/S1.jpg"" width=""540"" height = ""360"" style=""border:16px solid orange"">","null","","","","","","","","",""
"null","","html-keyboard-response","90","150922","0.0-90.0","","","null","","","","","","","","",""
"374","","image-keyboard-response","91","151298","0.0-91.0","","img/set1/S1.jpg","83","1","structured_load","83","structured_load,structured_incentive,random,structured_normal","2,3,3,4,2,1","true","","",""
"null","","html-keyboard-response","92","151662","0.0-92.0","","<img src=""img/set1/S1.jpg"" width=""540"" height = ""360"" style=""border:16px solid orange"">","null","","","","","","","","",""
"null","","html-keyboard-response","93","151868","0.0-93.0","","","null","","","","","","","","",""
"854","","image-keyboard-response","94","152725","0.0-94.0","","img/set1/S4.jpg","72","4","structured_load","74","structured_load,structured_incentive,random,structured_normal","2,3,3,4,2,1","false","","",""
"null","","html-keyboard-response","95","153078","0.0-95.0","","<img src=""img/set1/S4.jpg"" width=""540"" height = ""360"">","null","","","","","","","","",""
"null","","html-keyboard-response","96","153283","0.0-96.0","","","null","","","","","","","","",""
"464","","image-keyboard-response","97","153751","0.0-97.0","","img/set1/S4.jpg","74","4","structured_load","74","structured_load,structured_incentive,random,structured_normal","2,3,3,4,2,1","true","","",""
"null","","html-keyboard-response","98","154112","0.0-98.0","","<img src=""img/set1/S4.jpg"" width=""540"" height = ""360"" style=""border:16px solid orange"">","null","","","","","","","","",""
"null","","html-keyboard-response","99","154316","0.0-99.0","","","null","","","","","","","","",""
"640","","image-keyboard-response","100","154960","0.0-100.0","","img/set1/S1.jpg","68","1","structured_load","83","structured_load,structured_incentive,random,structured_normal","2,3,3,4,2,1","false","","",""
"null","","html-keyboard-response","101","155325","0.0-101.0","","<img src=""img/set1/S1.jpg"" width=""540"" height = ""360"">","null","","","","","","","","",""
"null","","html-keyboard-response","102","155527","0.0-102.0","","","null","","","","","","","","",""
"447","","image-keyboard-response","103","155976","0.0-103.0","","img/set1/S1.jpg","83","1","structured_load","83","structured_load,structured_incentive,random,structured_normal","2,3,3,4,2,1","true","","",""
"null","","html-keyboard-response","104","156332","0.0-104.0","","<img src=""img/set1/S1.jpg"" width=""540"" height = ""360"" style=""border:16px solid orange"">","null","","","","","","","","",""
"null","","html-keyboard-response","105","156536","0.0-105.0","","","null","","","","","","","","",""
"419","","image-keyboard-response","106","156957","0.0-106.0","","img/set1/S1.jpg","83","1","structured_load","83","structured_load,structured_incentive,random,structured_normal","2,3,3,4,2,1","true","","",""
"null","","html-keyboard-response","107","157324","0.0-107.0","","<img src=""img/set1/S1.jpg"" width=""540"" height = ""360"" style=""border:16px solid orange"">","null","","","","","","","","",""
"null","","html-keyboard-response","108","157529","0.0-108.0","","","null","","","","","","","","",""
"736","","image-keyboard-response","109","158268","0.0-109.0","","img/set1/S4.jpg","83","4","structured_load","74","structured_load,structured_incentive,random,structured_normal","2,3,3,4,2,1","false","","",""
"null","","html-keyboard-response","110","158631","0.0-110.0","","<img src=""img/set1/S4.jpg"" width=""540"" height = ""360"">","null","","","","","","","","",""
"null","","html-keyboard-response","111","158838","0.0-111.0","","","null","","","","","","","","",""
"630","","image-keyboard-response","112","159470","0.0-112.0","","img/set1/S1.jpg","83","1","structured_load","83","structured_load,structured_incentive,random,structured_normal","2,3,3,4,2,1","true","","",""
"null","","html-keyboard-response","113","159828","0.0-113.0","","<img src=""img/set1/S1.jpg"" width=""540"" height = ""360"" style=""border:16px solid orange"">","null","","","","","","","","",""
"null","","html-keyboard-response","114","160035","0.0-114.0","","","null","","","","","","","","",""
"446","","image-keyboard-response","115","160483","0.0-115.0","","img/set1/S4.jpg","74","4","structured_load","74","structured_load,structured_incentive,random,structured_normal","2,3,3,4,2,1","true","","",""
"null","","html-keyboard-response","116","160851","0.0-116.0","","<img src=""img/set1/S4.jpg"" width=""540"" height = ""360"" style=""border:16px solid orange"">","null","","","","","","","","",""
"null","","html-keyboard-response","117","161054","0.0-117.0","","","null","","","","","","","","",""
"515","","image-keyboard-response","118","161572","0.0-118.0","","img/set1/S1.jpg","83","1","structured_load","83","structured_load,structured_incentive,random,structured_normal","2,3,3,4,2,1","true","","",""
"null","","html-keyboard-response","119","161934","0.0-119.0","","<img src=""img/set1/S1.jpg"" width=""540"" height = ""360"" style=""border:16px solid orange"">","null","","","","","","","","",""
"null","","html-keyboard-response","120","162139","0.0-120.0","","","null","","","","","","","","",""
"704","","image-keyboard-response","121","162846","0.0-121.0","","img/set1/S2.jpg","68","2","structured_load","68","structured_load,structured_incentive,random,structured_normal","2,3,3,4,2,1","true","","",""
"null","","html-keyboard-response","122","163208","0.0-122.0","","<img src=""img/set1/S2.jpg"" width=""540"" height = ""360"" style=""border:16px solid orange"">","null","","","","","","","","",""
"null","","html-keyboard-response","123","163413","0.0-123.0","","","null","","","","","","","","",""
"401","","image-keyboard-response","124","163816","0.0-124.0","","img/set1/S3.jpg","72","3","structured_load","72","structured_load,structured_incentive,random,structured_normal","2,3,3,4,2,1","true","","",""
"null","","html-keyboard-response","125","164181","0.0-125.0","","<img src=""img/set1/S3.jpg"" width=""540"" height = ""360"" style=""border:16px solid orange"">","null","","","","","","","","",""
"null","","html-keyboard-response","126","164386","0.0-126.0","","","null","","","","","","","","",""
"673","","image-keyboard-response","127","165062","0.0-127.0","","img/set1/S4.jpg","74","4","structured_load","74","structured_load,structured_incentive,random,structured_normal","2,3,3,4,2,1","true","","",""
"null","","html-keyboard-response","128","165425","0.0-128.0","","<img src=""img/set1/S4.jpg"" width=""540"" height = ""360"" style=""border:16px solid orange"">","null","","","","","","","","",""
"null","","html-keyboard-response","129","165634","0.0-129.0","","","null","","","","","","","","",""
"371","","image-keyboard-response","130","166008","0.0-130.0","","img/set1/S1.jpg","83","1","structured_load","83","structured_load,structured_incentive,random,structured_normal","2,3,3,4,2,1","true","","",""
"null","","html-keyboard-response","131","166364","0.0-131.0","","<img src=""img/set1/S1.jpg"" width=""540"" height = ""360"" style=""border:16px solid orange"">","null","","","","","","","","",""
"null","","html-keyboard-response","132","166568","0.0-132.0","","","null","","","","","","","","",""
"560","","image-keyboard-response","133","167130","0.0-133.0","","img/set1/S2.jpg","68","2","structured_load","68","structured_load,structured_incentive,random,structured_normal","2,3,3,4,2,1","true","","",""
"null","","html-keyboard-response","134","167496","0.0-134.0","","<img src=""img/set1/S2.jpg"" width=""540"" height = ""360"" style=""border:16px solid orange"">","null","","","","","","","","",""
"null","","html-keyboard-response","135","167699","0.0-135.0","","","null","","","","","","","","",""
"343","","image-keyboard-response","136","168045","0.0-136.0","","img/set1/S3.jpg","72","3","structured_load","72","structured_load,structured_incentive,random,structured_normal","2,3,3,4,2,1","true","","",""
"null","","html-keyboard-response","137","168406","0.0-137.0","","<img src=""img/set1/S3.jpg"" width=""540"" height = ""360"" style=""border:16px solid orange"">","null","","","","","","","","",""
"null","","html-keyboard-response","138","168612","0.0-138.0","","","null","","","","","","","","",""
"708","","image-keyboard-response","139","169322","0.0-139.0","","img/set1/S1.jpg","83","1","structured_load","83","structured_load,structured_incentive,random,structured_normal","2,3,3,4,2,1","true","","",""
"null","","html-keyboard-response","140","169679","0.0-140.0","","<img src=""img/set1/S1.jpg"" width=""540"" height = ""360"" style=""border:16px solid orange"">","null","","","","","","","","",""
"null","","html-keyboard-response","141","169884","0.0-141.0","","","null","","","","","","","","",""
"456","","image-keyboard-response","142","170342","0.0-142.0","","img/set1/S1.jpg","83","1","structured_load","83","structured_load,structured_incentive,random,structured_normal","2,3,3,4,2,1","true","","",""
"null","","html-keyboard-response","143","170702","0.0-143.0","","<img src=""img/set1/S1.jpg"" width=""540"" height = ""360"" style=""border:16px solid orange"">","null","","","","","","","","",""
"null","","html-keyboard-response","144","170905","0.0-144.0","","","null","","","","","","","","",""
"537","","image-keyboard-response","145","171444","0.0-145.0","","img/set1/S2.jpg","68","2","structured_load","68","structured_load,structured_incentive,random,structured_normal","2,3,3,4,2,1","true","","",""
"null","","html-keyboard-response","146","171799","0.0-146.0","","<img src=""img/set1/S2.jpg"" width=""540"" height = ""360"" style=""border:16px solid orange"">","null","","","","","","","","",""
"null","","html-keyboard-response","147","172005","0.0-147.0","","","null","","","","","","","","",""
"344","","image-keyboard-response","148","172353","0.0-148.0","","img/set1/S3.jpg","72","3","structured_load","72","structured_load,structured_incentive,random,structured_normal","2,3,3,4,2,1","true","","",""
"null","","html-keyboard-response","149","172715","0.0-149.0","","<img src=""img/set1/S3.jpg"" width=""540"" height = ""360"" style=""border:16px solid orange"">","null","","","","","","","","",""
"null","","html-keyboard-response","150","172918","0.0-150.0","","","null","","","","","","","","",""
"338","","image-keyboard-response","151","173257","0.0-151.0","","img/set1/S4.jpg","74","4","structured_load","74","structured_load,structured_incentive,random,structured_normal","2,3,3,4,2,1","true","","",""
"null","","html-keyboard-response","152","173614","0.0-152.0","","<img src=""img/set1/S4.jpg"" width=""540"" height = ""360"" style=""border:16px solid orange"">","null","","","","","","","","",""
"null","","html-keyboard-response","153","173820","0.0-153.0","","","null","","","","","","","","",""
"632","","image-keyboard-response","154","174456","0.0-154.0","","img/set1/S1.jpg","83","1","structured_load","83","structured_load,structured_incentive,random,structured_normal","2,3,3,4,2,1","true","","",""
"null","","html-keyboard-response","155","174821","0.0-155.0","","<img src=""img/set1/S1.jpg"" width=""540"" height = ""360"" style=""border:16px solid orange"">","null","","","","","","","","",""
"null","","html-keyboard-response","156","175026","0.0-156.0","","","null","","","","","","","","",""
"578","","image-keyboard-response","157","175608","0.0-157.0","","img/set1/S2.jpg","68","2","structured_load","68","structured_load,structured_incentive,random,structured_normal","2,3,3,4,2,1","true","","",""
"null","","html-keyboard-response","158","175968","0.0-158.0","","<img src=""img/set1/S2.jpg"" width=""540"" height = ""360"" style=""border:16px solid orange"">","null","","","","","","","","",""
"null","","html-keyboard-response","159","176169","0.0-159.0","","","null","","","","","","","","",""
"319","","image-keyboard-response","160","176491","0.0-160.0","","img/set1/S3.jpg","72","3","structured_load","72","structured_load,structured_incentive,random,structured_normal","2,3,3,4,2,1","true","","",""
"null","","html-keyboard-response","161","176850","0.0-161.0","","<img src=""img/set1/S3.jpg"" width=""540"" height = ""360"" style=""border:16px solid orange"">","null","","","","","","","","",""
"null","","html-keyboard-response","162","177053","0.0-162.0","","","null","","","","","","","","",""
"710","","image-keyboard-response","163","177768","0.0-163.0","","img/set1/S4.jpg","74","4","structured_load","74","structured_load,structured_incentive,random,structured_normal","2,3,3,4,2,1","true","","",""
"null","","html-keyboard-response","164","178127","0.0-164.0","","<img src=""img/set1/S4.jpg"" width=""540"" height = ""360"" style=""border:16px solid orange"">","null","","","","","","","","",""
"null","","html-keyboard-response","165","178332","0.0-165.0","","","null","","","","","","","","",""
"441","","image-keyboard-response","166","178776","0.0-166.0","","img/set1/S2.jpg","83","2","structured_load","68","structured_load,structured_incentive,random,structured_normal","2,3,3,4,2,1","false","","",""
"null","","html-keyboard-response","167","179135","0.0-167.0","","<img src=""img/set1/S2.jpg"" width=""540"" height = ""360"">","null","","","","","","","","",""
"null","","html-keyboard-response","168","179339","0.0-168.0","","","null","","","","","","","","",""
"624","","image-keyboard-response","169","179967","0.0-169.0","","img/set1/S3.jpg","72","3","structured_load","72","structured_load,structured_incentive,random,structured_normal","2,3,3,4,2,1","true","","",""
"null","","html-keyboard-response","170","180332","0.0-170.0","","<img src=""img/set1/S3.jpg"" width=""540"" height = ""360"" style=""border:16px solid orange"">","null","","","","","","","","",""
"null","","html-keyboard-response","171","180536","0.0-171.0","","","null","","","","","","","","",""
"530","","image-keyboard-response","172","181068","0.0-172.0","","img/set1/S1.jpg","83","1","structured_load","83","structured_load,structured_incentive,random,structured_normal","2,3,3,4,2,1","true","","",""
"null","","html-keyboard-response","173","181433","0.0-173.0","","<img src=""img/set1/S1.jpg"" width=""540"" height = ""360"" style=""border:16px solid orange"">","null","","","","","","","","",""
"null","","html-keyboard-response","174","181635","0.0-174.0","","","null","","","","","","","","",""
"464","","image-keyboard-response","175","182100","0.0-175.0","","img/set1/S1.jpg","68","1","structured_load","83","structured_load,structured_incentive,random,structured_normal","2,3,3,4,2,1","false","","",""
"null","","html-keyboard-response","176","182457","0.0-176.0","","<img src=""img/set1/S1.jpg"" width=""540"" height = ""360"">","null","","","","","","","","",""
"null","","html-keyboard-response","177","182661","0.0-177.0","","","null","","","","","","","","",""
"587","","image-keyboard-response","178","183250","0.0-178.0","","img/set1/S4.jpg","74","4","structured_load","74","structured_load,structured_incentive,random,structured_normal","2,3,3,4,2,1","true","","",""
"null","","html-keyboard-response","179","183605","0.0-179.0","","<img src=""img/set1/S4.jpg"" width=""540"" height = ""360"" style=""border:16px solid orange"">","null","","","","","","","","",""
"null","","html-keyboard-response","180","183810","0.0-180.0","","","null","","","","","","","","",""
"716","","image-keyboard-response","181","184527","0.0-181.0","","img/set1/S2.jpg","83","2","structured_load","68","structured_load,structured_incentive,random,structured_normal","2,3,3,4,2,1","false","","",""
"null","","html-keyboard-response","182","184886","0.0-182.0","","<img src=""img/set1/S2.jpg"" width=""540"" height = ""360"">","null","","","","","","","","",""
"null","","html-keyboard-response","183","185089","0.0-183.0","","","null","","","","","","","","",""
"569","","image-keyboard-response","184","185661","0.0-184.0","","img/set1/S3.jpg","72","3","structured_load","72","structured_load,structured_incentive,random,structured_normal","2,3,3,4,2,1","true","","",""
"null","","html-keyboard-response","185","186057","0.0-185.0","","<img src=""img/set1/S3.jpg"" width=""540"" height = ""360"" style=""border:16px solid orange"">","null","","","","","","","","",""
"null","","html-keyboard-response","186","186264","0.0-186.0","","","null","","","","","","","","",""
"573","","image-keyboard-response","187","186840","0.0-187.0","","img/set1/S1.jpg","83","1","structured_load","83","structured_load,structured_incentive,random,structured_normal","2,3,3,4,2,1","true","","",""
"null","","html-keyboard-response","188","187206","0.0-188.0","","<img src=""img/set1/S1.jpg"" width=""540"" height = ""360"" style=""border:16px solid orange"">","null","","","","","","","","",""
"null","","html-keyboard-response","189","187407","0.0-189.0","","","null","","","","","","","","",""
"643","","image-keyboard-response","190","188054","0.0-190.0","","img/set1/S4.jpg","74","4","structured_load","74","structured_load,structured_incentive,random,structured_normal","2,3,3,4,2,1","true","","",""
"null","","html-keyboard-response","191","188416","0.0-191.0","","<img src=""img/set1/S4.jpg"" width=""540"" height = ""360"" style=""border:16px solid orange"">","null","","","","","","","","",""
"null","","html-keyboard-response","192","188617","0.0-192.0","","","null","","","","","","","","",""
"759","","image-keyboard-response","193","189378","0.0-193.0","","img/set1/S2.jpg","68","2","structured_load","68","structured_load,structured_incentive,random,structured_normal","2,3,3,4,2,1","true","","",""
"null","","html-keyboard-response","194","189736","0.0-194.0","","<img src=""img/set1/S2.jpg"" width=""540"" height = ""360"" style=""border:16px solid orange"">","null","","","","","","","","",""
"null","","html-keyboard-response","195","189939","0.0-195.0","","","null","","","","","","","","",""
"409","","image-keyboard-response","196","190350","0.0-196.0","","img/set1/S3.jpg","72","3","structured_load","72","structured_load,structured_incentive,random,structured_normal","2,3,3,4,2,1","true","","",""
"null","","html-keyboard-response","197","190709","0.0-197.0","","<img src=""img/set1/S3.jpg"" width=""540"" height = ""360"" style=""border:16px solid orange"">","null","","","","","","","","",""
"null","","html-keyboard-response","198","190914","0.0-198.0","","","null","","","","","","","","",""
"562","","image-keyboard-response","199","191480","0.0-199.0","","img/set1/S1.jpg","83","1","structured_load","83","structured_load,structured_incentive,random,structured_normal","2,3,3,4,2,1","true","","",""
"null","","html-keyboard-response","200","191840","0.0-200.0","","<img src=""img/set1/S1.jpg"" width=""540"" height = ""360"" style=""border:16px solid orange"">","null","","","","","","","","",""
"null","","html-keyboard-response","201","192044","0.0-201.0","","","null","","","","","","","","",""
"675","","image-keyboard-response","202","192721","0.0-202.0","","img/set1/S2.jpg","68","2","structured_load","68","structured_load,structured_incentive,random,structured_normal","2,3,3,4,2,1","true","","",""
"null","","html-keyboard-response","203","193081","0.0-203.0","","<img src=""img/set1/S2.jpg"" width=""540"" height = ""360"" style=""border:16px solid orange"">","null","","","","","","","","",""
"null","","html-keyboard-response","204","193286","0.0-204.0","","","null","","","","","","","","",""
"472","","image-keyboard-response","205","193761","0.0-205.0","","img/set1/S3.jpg","72","3","structured_load","72","structured_load,structured_incentive,random,structured_normal","2,3,3,4,2,1","true","","",""
"null","","html-keyboard-response","206","194118","0.0-206.0","","<img src=""img/set1/S3.jpg"" width=""540"" height = ""360"" style=""border:16px solid orange"">","null","","","","","","","","",""
"null","","html-keyboard-response","207","194324","0.0-207.0","","","null","","","","","","","","",""
"619","","image-keyboard-response","208","194945","0.0-208.0","","img/set1/S4.jpg","74","4","structured_load","74","structured_load,structured_incentive,random,structured_normal","2,3,3,4,2,1","true","","",""
"null","","html-keyboard-response","209","195299","0.0-209.0","","<img src=""img/set1/S4.jpg"" width=""540"" height = ""360"" style=""border:16px solid orange"">","null","","","","","","","","",""
"null","","html-keyboard-response","210","195504","0.0-210.0","","","null","","","","","","","","",""
"398","","image-keyboard-response","211","195904","0.0-211.0","","img/set1/S4.jpg","74","4","structured_load","74","structured_load,structured_incentive,random,structured_normal","2,3,3,4,2,1","true","","",""
"null","","html-keyboard-response","212","196258","0.0-212.0","","<img src=""img/set1/S4.jpg"" width=""540"" height = ""360"" style=""border:16px solid orange"">","null","","","","","","","","",""
"null","","html-keyboard-response","213","196463","0.0-213.0","","","null","","","","","","","","",""
"409","","image-keyboard-response","214","196875","0.0-214.0","","img/set1/S1.jpg","83","1","structured_load","83","structured_load,structured_incentive,random,structured_normal","2,3,3,4,2,1","true","","",""
"null","","html-keyboard-response","215","197232","0.0-215.0","","<img src=""img/set1/S1.jpg"" width=""540"" height = ""360"" style=""border:16px solid orange"">","null","","","","","","","","",""
"null","","html-keyboard-response","216","197437","0.0-216.0","","","null","","","","","","","","",""
"382","","image-keyboard-response","217","197821","0.0-217.0","","img/set1/S4.jpg","83","4","structured_load","74","structured_load,structured_incentive,random,structured_normal","2,3,3,4,2,1","false","","",""
"null","","html-keyboard-response","218","198176","0.0-218.0","","<img src=""img/set1/S4.jpg"" width=""540"" height = ""360"">","null","","","","","","","","",""
"null","","html-keyboard-response","219","198379","0.0-219.0","","","null","","","","","","","","",""
"475","","image-keyboard-response","220","198857","0.0-220.0","","img/set1/S4.jpg","74","4","structured_load","74","structured_load,structured_incentive,random,structured_normal","2,3,3,4,2,1","true","","",""
"null","","html-keyboard-response","221","199215","0.0-221.0","","<img src=""img/set1/S4.jpg"" width=""540"" height = ""360"" style=""border:16px solid orange"">","null","","","","","","","","",""
"null","","html-keyboard-response","222","199421","0.0-222.0","","","null","","","","","","","","",""
"385","","image-keyboard-response","223","199809","0.0-223.0","","img/set1/S4.jpg","74","4","structured_load","74","structured_load,structured_incentive,random,structured_normal","2,3,3,4,2,1","true","","",""
"null","","html-keyboard-response","224","200175","0.0-224.0","","<img src=""img/set1/S4.jpg"" width=""540"" height = ""360"" style=""border:16px solid orange"">","null","","","","","","","","",""
"null","","html-keyboard-response","225","200379","0.0-225.0","","","null","","","","","","","","",""
"518","","image-keyboard-response","226","200899","0.0-226.0","","img/set1/S2.jpg","83","2","structured_load","68","structured_load,structured_incentive,random,structured_normal","2,3,3,4,2,1","false","","",""
"null","","html-keyboard-response","227","201259","0.0-227.0","","<img src=""img/set1/S2.jpg"" width=""540"" height = ""360"">","null","","","","","","","","",""
"null","","html-keyboard-response","228","201466","0.0-228.0","","","null","","","","","","","","",""
"452","","image-keyboard-response","229","201920","0.0-229.0","","img/set1/S3.jpg","72","3","structured_load","72","structured_load,structured_incentive,random,structured_normal","2,3,3,4,2,1","true","","",""
"null","","html-keyboard-response","230","202287","0.0-230.0","","<img src=""img/set1/S3.jpg"" width=""540"" height = ""360"" style=""border:16px solid orange"">","null","","","","","","","","",""
"null","","html-keyboard-response","231","202491","0.0-231.0","","","null","","","","","","","","",""
"645","","image-keyboard-response","232","203138","0.0-232.0","","img/set1/S4.jpg","74","4","structured_load","74","structured_load,structured_incentive,random,structured_normal","2,3,3,4,2,1","true","","",""
"null","","html-keyboard-response","233","203499","0.0-233.0","","<img src=""img/set1/S4.jpg"" width=""540"" height = ""360"" style=""border:16px solid orange"">","null","","","","","","","","",""
"null","","html-keyboard-response","234","203705","0.0-234.0","","","null","","","","","","","","",""
"429","","image-keyboard-response","235","204137","0.0-235.0","","img/set1/S1.jpg","83","1","structured_load","83","structured_load,structured_incentive,random,structured_normal","2,3,3,4,2,1","true","","",""
"null","","html-keyboard-response","236","204490","0.0-236.0","","<img src=""img/set1/S1.jpg"" width=""540"" height = ""360"" style=""border:16px solid orange"">","null","","","","","","","","",""
"null","","html-keyboard-response","237","204693","0.0-237.0","","","null","","","","","","","","",""
"637","","image-keyboard-response","238","205333","0.0-238.0","","img/set1/S2.jpg","68","2","structured_load","68","structured_load,structured_incentive,random,structured_normal","2,3,3,4,2,1","true","","",""
"null","","html-keyboard-response","239","205688","0.0-239.0","","<img src=""img/set1/S2.jpg"" width=""540"" height = ""360"" style=""border:16px solid orange"">","null","","","","","","","","",""
"null","","html-keyboard-response","240","205892","0.0-240.0","","","null","","","","","","","","",""
"436","","image-keyboard-response","241","206330","0.0-241.0","","img/set1/S3.jpg","72","3","structured_load","72","structured_load,structured_incentive,random,structured_normal","2,3,3,4,2,1","true","","",""
"null","","html-keyboard-response","242","206691","0.0-242.0","","<img src=""img/set1/S3.jpg"" width=""540"" height = ""360"" style=""border:16px solid orange"">","null","","","","","","","","",""
"null","","html-keyboard-response","243","206897","0.0-243.0","","","null","","","","","","","","",""
"552","","image-keyboard-response","244","207452","0.0-244.0","","img/set1/S1.jpg","83","1","structured_load","83","structured_load,structured_incentive,random,structured_normal","2,3,3,4,2,1","true","","",""
"null","","html-keyboard-response","245","207810","0.0-245.0","","<img src=""img/set1/S1.jpg"" width=""540"" height = ""360"" style=""border:16px solid orange"">","null","","","","","","","","",""
"null","","html-keyboard-response","246","208020","0.0-246.0","","","null","","","","","","","","",""
"640","","image-keyboard-response","247","208662","0.0-247.0","","img/set1/S4.jpg","74","4","structured_load","74","structured_load,structured_incentive,random,structured_normal","2,3,3,4,2,1","true","","",""
"null","","html-keyboard-response","248","209018","0.0-248.0","","<img src=""img/set1/S4.jpg"" width=""540"" height = ""360"" style=""border:16px solid orange"">","null","","","","","","","","",""
"null","","html-keyboard-response","249","209224","0.0-249.0","","","null","","","","","","","","",""
"387","","image-keyboard-response","250","209614","0.0-250.0","","img/set1/S4.jpg","74","4","structured_load","74","structured_load,structured_incentive,random,structured_normal","2,3,3,4,2,1","true","","",""
"null","","html-keyboard-response","251","209978","0.0-251.0","","<img src=""img/set1/S4.jpg"" width=""540"" height = ""360"" style=""border:16px solid orange"">","null","","","","","","","","",""
"null","","html-keyboard-response","252","210181","0.0-252.0","","","null","","","","","","","","",""
"563","","image-keyboard-response","253","210746","0.0-253.0","","img/set1/S1.jpg","68","1","structured_load","83","structured_load,structured_incentive,random,structured_normal","2,3,3,4,2,1","false","","",""
"null","","html-keyboard-response","254","211112","0.0-254.0","","<img src=""img/set1/S1.jpg"" width=""540"" height = ""360"">","null","","","","","","","","",""
"null","","html-keyboard-response","255","211313","0.0-255.0","","","null","","","","","","","","",""
"529","","image-keyboard-response","256","211845","0.0-256.0","","img/set1/S2.jpg","72","2","structured_load","68","structured_load,structured_incentive,random,structured_normal","2,3,3,4,2,1","false","","",""
"null","","html-keyboard-response","257","212209","0.0-257.0","","<img src=""img/set1/S2.jpg"" width=""540"" height = ""360"">","null","","","","","","","","",""
"null","","html-keyboard-response","258","212413","0.0-258.0","","","null","","","","","","","","",""
"428","","image-keyboard-response","259","212844","0.0-259.0","","img/set1/S3.jpg","72","3","structured_load","72","structured_load,structured_incentive,random,structured_normal","2,3,3,4,2,1","true","","",""
"null","","html-keyboard-response","260","213198","0.0-260.0","","<img src=""img/set1/S3.jpg"" width=""540"" height = ""360"" style=""border:16px solid orange"">","null","","","","","","","","",""
"null","","html-keyboard-response","261","213428","0.0-261.0","","","null","","","","","","","","",""
"518","","image-keyboard-response","262","213949","0.0-262.0","","img/set1/S2.jpg","68","2","structured_load","68","structured_load,structured_incentive,random,structured_normal","2,3,3,4,2,1","true","","",""
"null","","html-keyboard-response","263","214311","0.0-263.0","","<img src=""img/set1/S2.jpg"" width=""540"" height = ""360"" style=""border:16px solid orange"">","null","","","","","","","","",""
"null","","html-keyboard-response","264","214516","0.0-264.0","","","null","","","","","","","","",""
"433","","image-keyboard-response","265","214952","0.0-265.0","","img/set1/S3.jpg","72","3","structured_load","72","structured_load,structured_incentive,random,structured_normal","2,3,3,4,2,1","true","","",""
"null","","html-keyboard-response","266","215318","0.0-266.0","","<img src=""img/set1/S3.jpg"" width=""540"" height = ""360"" style=""border:16px solid orange"">","null","","","","","","","","",""
"null","","html-keyboard-response","267","215520","0.0-267.0","","","null","","","","","","","","",""
"460","","image-keyboard-response","268","215984","0.0-268.0","","img/set1/S2.jpg","68","2","structured_load","68","structured_load,structured_incentive,random,structured_normal","2,3,3,4,2,1","true","","",""
"null","","html-keyboard-response","269","216341","0.0-269.0","","<img src=""img/set1/S2.jpg"" width=""540"" height = ""360"" style=""border:16px solid orange"">","null","","","","","","","","",""
"null","","html-keyboard-response","270","216544","0.0-270.0","","","null","","","","","","","","",""
"341","","image-keyboard-response","271","216886","0.0-271.0","","img/set1/S3.jpg","72","3","structured_load","72","structured_load,structured_incentive,random,structured_normal","2,3,3,4,2,1","true","","",""
"null","","html-keyboard-response","272","217252","0.0-272.0","","<img src=""img/set1/S3.jpg"" width=""540"" height = ""360"" style=""border:16px solid orange"">","null","","","","","","","","",""
"null","","html-keyboard-response","273","217455","0.0-273.0","","","null","","","","","","","","",""
"588","","image-keyboard-response","274","218046","0.0-274.0","","img/set1/S1.jpg","83","1","structured_load","83","structured_load,structured_incentive,random,structured_normal","2,3,3,4,2,1","true","","",""
"null","","html-keyboard-response","275","218401","0.0-275.0","","<img src=""img/set1/S1.jpg"" width=""540"" height = ""360"" style=""border:16px solid orange"">","null","","","","","","","","",""
"null","","html-keyboard-response","276","218604","0.0-276.0","","","null","","","","","","","","",""
"416","","image-keyboard-response","277","219022","0.0-277.0","","img/set1/S1.jpg","83","1","structured_load","83","structured_load,structured_incentive,random,structured_normal","2,3,3,4,2,1","true","","",""
"null","","html-keyboard-response","278","219389","0.0-278.0","","<img src=""img/set1/S1.jpg"" width=""540"" height = ""360"" style=""border:16px solid orange"">","null","","","","","","","","",""
"null","","html-keyboard-response","279","219592","0.0-279.0","","","null","","","","","","","","",""
"346","","image-keyboard-response","280","219941","0.0-280.0","","img/set1/S1.jpg","83","1","structured_load","83","structured_load,structured_incentive,random,structured_normal","2,3,3,4,2,1","true","","",""
"null","","html-keyboard-response","281","220301","0.0-281.0","","<img src=""img/set1/S1.jpg"" width=""540"" height = ""360"" style=""border:16px solid orange"">","null","","","","","","","","",""
"null","","html-keyboard-response","282","220505","0.0-282.0","","","null","","","","","","","","",""
"611","","image-keyboard-response","283","221118","0.0-283.0","","img/set1/S4.jpg","74","4","structured_load","74","structured_load,structured_incentive,random,structured_normal","2,3,3,4,2,1","true","","",""
"null","","html-keyboard-response","284","221476","0.0-284.0","","<img src=""img/set1/S4.jpg"" width=""540"" height = ""360"" style=""border:16px solid orange"">","null","","","","","","","","",""
"null","","html-keyboard-response","285","221682","0.0-285.0","","","null","","","","","","","","",""
"358","","image-keyboard-response","286","222042","0.0-286.0","","img/set1/S4.jpg","74","4","structured_load","74","structured_load,structured_incentive,random,structured_normal","2,3,3,4,2,1","true","","",""
"null","","html-keyboard-response","287","222400","0.0-287.0","","<img src=""img/set1/S4.jpg"" width=""540"" height = ""360"" style=""border:16px solid orange"">","null","","","","","","","","",""
"null","","html-keyboard-response","288","222606","0.0-288.0","","","null","","","","","","","","",""
"313","","image-keyboard-response","289","222921","0.0-289.0","","img/set1/S4.jpg","74","4","structured_load","74","structured_load,structured_incentive,random,structured_normal","2,3,3,4,2,1","true","","",""
"null","","html-keyboard-response","290","223282","0.0-290.0","","<img src=""img/set1/S4.jpg"" width=""540"" height = ""360"" style=""border:16px solid orange"">","null","","","","","","","","",""
"null","","html-keyboard-response","291","223488","0.0-291.0","","","null","","","","","","","","",""
"466","","image-keyboard-response","292","223958","0.0-292.0","","img/set1/S2.jpg","83","2","structured_load","68","structured_load,structured_incentive,random,structured_normal","2,3,3,4,2,1","false","","",""
"null","","html-keyboard-response","293","224323","0.0-293.0","","<img src=""img/set1/S2.jpg"" width=""540"" height = ""360"">","null","","","","","","","","",""
"null","","html-keyboard-response","294","224527","0.0-294.0","","","null","","","","","","","","",""
"409","","image-keyboard-response","295","224938","0.0-295.0","","img/set1/S3.jpg","72","3","structured_load","72","structured_load,structured_incentive,random,structured_normal","2,3,3,4,2,1","true","","",""
"null","","html-keyboard-response","296","225297","0.0-296.0","","<img src=""img/set1/S3.jpg"" width=""540"" height = ""360"" style=""border:16px solid orange"">","null","","","","","","","","",""
"null","","html-keyboard-response","297","225500","0.0-297.0","","","null","","","","","","","","",""
"640","","image-keyboard-response","298","226142","0.0-298.0","","img/set1/S4.jpg","74","4","structured_load","74","structured_load,structured_incentive,random,structured_normal","2,3,3,4,2,1","true","","",""
"null","","html-keyboard-response","299","226507","0.0-299.0","","<img src=""img/set1/S4.jpg"" width=""540"" height = ""360"" style=""border:16px solid orange"">","null","","","","","","","","",""
"null","","html-keyboard-response","300","226710","0.0-300.0","","","null","","","","","","","","",""
"557","","image-keyboard-response","301","227270","0.0-301.0","","img/set1/S2.jpg","68","2","structured_load","68","structured_load,structured_incentive,random,structured_normal","2,3,3,4,2,1","true","","",""
"null","","html-keyboard-response","302","227638","0.0-302.0","","<img src=""img/set1/S2.jpg"" width=""540"" height = ""360"" style=""border:16px solid orange"">","null","","","","","","","","",""
"null","","html-keyboard-response","303","227845","0.0-303.0","","","null","","","","","","","","",""
"408","","image-keyboard-response","304","228257","0.0-304.0","","img/set1/S3.jpg","72","3","structured_load","72","structured_load,structured_incentive,random,structured_normal","2,3,3,4,2,1","true","","",""
"null","","html-keyboard-response","305","228626","0.0-305.0","","<img src=""img/set1/S3.jpg"" width=""540"" height = ""360"" style=""border:16px solid orange"">","null","","","","","","","","",""
"null","","html-keyboard-response","306","228845","0.0-306.0","","","null","","","","","","","","",""
"475","","image-keyboard-response","307","229322","0.0-307.0","","img/set1/S4.jpg","68","4","structured_load","74","structured_load,structured_incentive,random,structured_normal","2,3,3,4,2,1","false","","",""
"null","","html-keyboard-response","308","229677","0.0-308.0","","<img src=""img/set1/S4.jpg"" width=""540"" height = ""360"">","null","","","","","","","","",""
"null","","html-keyboard-response","309","229880","0.0-309.0","","","null","","","","","","","","",""
"658","","image-keyboard-response","310","230541","0.0-310.0","","img/set1/S2.jpg","68","2","structured_load","68","structured_load,structured_incentive,random,structured_normal","2,3,3,4,2,1","true","","",""
"null","","html-keyboard-response","311","230900","0.0-311.0","","<img src=""img/set1/S2.jpg"" width=""540"" height = ""360"" style=""border:16px solid orange"">","null","","","","","","","","",""
"null","","html-keyboard-response","312","231105","0.0-312.0","","","null","","","","","","","","",""
"524","","image-keyboard-response","313","231632","0.0-313.0","","img/set1/S3.jpg","72","3","structured_load","72","structured_load,structured_incentive,random,structured_normal","2,3,3,4,2,1","true","","",""
"null","","html-keyboard-response","314","232001","0.0-314.0","","<img src=""img/set1/S3.jpg"" width=""540"" height = ""360"" style=""border:16px solid orange"">","null","","","","","","","","",""
"null","","html-keyboard-response","315","232205","0.0-315.0","","","null","","","","","","","","",""
"570","","image-keyboard-response","316","232778","0.0-316.0","","img/set1/S4.jpg","74","4","structured_load","74","structured_load,structured_incentive,random,structured_normal","2,3,3,4,2,1","true","","",""
"null","","html-keyboard-response","317","233136","0.0-317.0","","<img src=""img/set1/S4.jpg"" width=""540"" height = ""360"" style=""border:16px solid orange"">","null","","","","","","","","",""
"null","","html-keyboard-response","318","233353","0.0-318.0","","","null","","","","","","","","",""
"567","","image-keyboard-response","319","233921","0.0-319.0","","img/set1/S2.jpg","68","2","structured_load","68","structured_load,structured_incentive,random,structured_normal","2,3,3,4,2,1","true","","",""
"null","","html-keyboard-response","320","234302","0.0-320.0","","<img src=""img/set1/S2.jpg"" width=""540"" height = ""360"" style=""border:16px solid orange"">","null","","","","","","","","",""
"null","","html-keyboard-response","321","234514","0.0-321.0","","","null","","","","","","","","",""
"543","","image-keyboard-response","322","235059","0.0-322.0","","img/set1/S3.jpg","68","3","structured_load","72","structured_load,structured_incentive,random,structured_normal","2,3,3,4,2,1","false","","",""
"null","","html-keyboard-response","323","235427","0.0-323.0","","<img src=""img/set1/S3.jpg"" width=""540"" height = ""360"">","null","","","","","","","","",""
"null","","html-keyboard-response","324","235631","0.0-324.0","","","null","","","","","","","","",""
"579","","image-keyboard-response","325","236212","0.0-325.0","","img/set1/S1.jpg","83","1","structured_load","83","structured_load,structured_incentive,random,structured_normal","2,3,3,4,2,1","true","","",""
"null","","html-keyboard-response","326","236571","0.0-326.0","","<img src=""img/set1/S1.jpg"" width=""540"" height = ""360"" style=""border:16px solid orange"">","null","","","","","","","","",""
"null","","html-keyboard-response","327","236774","0.0-327.0","","","null","","","","","","","","",""
"363","","image-keyboard-response","328","237140","0.0-328.0","","img/set1/S1.jpg","83","1","structured_load","83","structured_load,structured_incentive,random,structured_normal","2,3,3,4,2,1","true","","",""
"null","","html-keyboard-response","329","237499","0.0-329.0","","<img src=""img/set1/S1.jpg"" width=""540"" height = ""360"" style=""border:16px solid orange"">","null","","","","","","","","",""
"null","","html-keyboard-response","330","237704","0.0-330.0","","","null","","","","","","","","",""
"572","","image-keyboard-response","331","238278","0.0-331.0","","img/set1/S4.jpg","74","4","structured_load","74","structured_load,structured_incentive,random,structured_normal","2,3,3,4,2,1","true","","",""
"null","","html-keyboard-response","332","238634","0.0-332.0","","<img src=""img/set1/S4.jpg"" width=""540"" height = ""360"" style=""border:16px solid orange"">","null","","","","","","","","",""
"null","","html-keyboard-response","333","238839","0.0-333.0","","","null","","","","","","","","",""
"568","","image-keyboard-response","334","239408","0.0-334.0","","img/set1/S2.jpg","68","2","structured_load","68","structured_load,structured_incentive,random,structured_normal","2,3,3,4,2,1","true","","",""
"null","","html-keyboard-response","335","239767","0.0-335.0","","<img src=""img/set1/S2.jpg"" width=""540"" height = ""360"" style=""border:16px solid orange"">","null","","","","","","","","",""
"null","","html-keyboard-response","336","239971","0.0-336.0","","","null","","","","","","","","",""
"1615","","image-keyboard-response","337","241588","0.0-337.0","","img/set1/S3.jpg","72","3","structured_load","72","structured_load,structured_incentive,random,structured_normal","2,3,3,4,2,1","true","","",""
"null","","html-keyboard-response","338","241958","0.0-338.0","","<img src=""img/set1/S3.jpg"" width=""540"" height = ""360"" style=""border:16px solid orange"">","null","","","","","","","","",""
"null","","html-keyboard-response","339","242162","0.0-339.0","","","null","","","","","","","","",""
"547","","image-keyboard-response","340","242710","0.0-340.0","","img/set1/S1.jpg","83","1","structured_load","83","structured_load,structured_incentive,random,structured_normal","2,3,3,4,2,1","true","","",""
"null","","html-keyboard-response","341","243072","0.0-341.0","","<img src=""img/set1/S1.jpg"" width=""540"" height = ""360"" style=""border:16px solid orange"">","null","","","","","","","","",""
"null","","html-keyboard-response","342","243277","0.0-342.0","","","null","","","","","","","","",""
"551","","image-keyboard-response","343","243829","0.0-343.0","","img/set1/S4.jpg","74","4","structured_load","74","structured_load,structured_incentive,random,structured_normal","2,3,3,4,2,1","true","","",""
"null","","html-keyboard-response","344","244192","0.0-344.0","","<img src=""img/set1/S4.jpg"" width=""540"" height = ""360"" style=""border:16px solid orange"">","null","","","","","","","","",""
"null","","html-keyboard-response","345","244396","0.0-345.0","","","null","","","","","","","","",""
"619","","image-keyboard-response","346","245018","0.0-346.0","","img/set1/S2.jpg","68","2","structured_load","68","structured_load,structured_incentive,random,structured_normal","2,3,3,4,2,1","true","","",""
"null","","html-keyboard-response","347","245372","0.0-347.0","","<img src=""img/set1/S2.jpg"" width=""540"" height = ""360"" style=""border:16px solid orange"">","null","","","","","","","","",""
"null","","html-keyboard-response","348","245575","0.0-348.0","","","null","","","","","","","","",""
"323","","image-keyboard-response","349","245901","0.0-349.0","","img/set1/S3.jpg","72","3","structured_load","72","structured_load,structured_incentive,random,structured_normal","2,3,3,4,2,1","true","","",""
"null","","html-keyboard-response","350","246254","0.0-350.0","","<img src=""img/set1/S3.jpg"" width=""540"" height = ""360"" style=""border:16px solid orange"">","null","","","","","","","","",""
"null","","html-keyboard-response","351","246457","0.0-351.0","","","null","","","","","","","","",""
"566","","image-keyboard-response","352","247027","0.0-352.0","","img/set1/S4.jpg","74","4","structured_load","74","structured_load,structured_incentive,random,structured_normal","2,3,3,4,2,1","true","","",""
"null","","html-keyboard-response","353","247386","0.0-353.0","","<img src=""img/set1/S4.jpg"" width=""540"" height = ""360"" style=""border:16px solid orange"">","null","","","","","","","","",""
"null","","html-keyboard-response","354","247591","0.0-354.0","","","null","","","","","","","","",""
"388","","image-keyboard-response","355","247980","0.0-355.0","","img/set1/S1.jpg","83","1","structured_load","83","structured_load,structured_incentive,random,structured_normal","2,3,3,4,2,1","true","","",""
"null","","html-keyboard-response","356","248345","0.0-356.0","","<img src=""img/set1/S1.jpg"" width=""540"" height = ""360"" style=""border:16px solid orange"">","null","","","","","","","","",""
"null","","html-keyboard-response","357","248549","0.0-357.0","","","null","","","","","","","","",""
"405","","image-keyboard-response","358","248957","0.0-358.0","","img/set1/S1.jpg","83","1","structured_load","83","structured_load,structured_incentive,random,structured_normal","2,3,3,4,2,1","true","","",""
"null","","html-keyboard-response","359","249320","0.0-359.0","","<img src=""img/set1/S1.jpg"" width=""540"" height = ""360"" style=""border:16px solid orange"">","null","","","","","","","","",""
"null","","html-keyboard-response","360","249523","0.0-360.0","","","null","","","","","","","","",""
"513","","image-keyboard-response","361","250040","0.0-361.0","","img/set1/S4.jpg","74","4","structured_load","74","structured_load,structured_incentive,random,structured_normal","2,3,3,4,2,1","true","","",""
"null","","html-keyboard-response","362","250402","0.0-362.0","","<img src=""img/set1/S4.jpg"" width=""540"" height = ""360"" style=""border:16px solid orange"">","null","","","","","","","","",""
"null","","html-keyboard-response","363","250607","0.0-363.0","","","null","","","","","","","","",""
"5891","","survey-multi-choice","364","256503","0.0-364.0","","","","","","","","","","{""Q0"":""Picture B""}","[0]",""
"5862","","html-keyboard-response","365","262375","0.0-365.0","","<p class=""center-content"">You have completed a block! </p><p class=""center-content"">Press any key on the keyboard to continue, </p><p class=""center-content"">or wait for the automatic progression to the next block after one minute.</p>","72","","","","","","","","",""
"5013","","instructions","366","267389","0.0-366.0","[{""page_index"":0,""viewing_time"":5012}]","","","","","","","","","","",""
"14683","","instructions","367","282077","0.0-367.0","[{""page_index"":0,""viewing_time"":6946},{""page_index"":1,""viewing_time"":7737}]","","","","","","","","","","",""
"819","","image-keyboard-response","368","282903","0.0-368.0","","img/set2/S3.jpg","72","3","structured_incentive","72","structured_load,structured_incentive,random,structured_normal","2,3,3,4,2,1","true","","",""
"null","","html-keyboard-response","369","283263","0.0-369.0","","<img src=""img/set2/S3.jpg"" width=""540"" height = ""360"" style=""border:16px solid orange"">","null","","","","","","","","",""
"null","","html-keyboard-response","370","283468","0.0-370.0","","","null","","","","","","","","",""
"418","","image-keyboard-response","371","283889","0.0-371.0","","img/set2/S4.jpg","74","4","structured_incentive","74","structured_load,structured_incentive,random,structured_normal","2,3,3,4,2,1","true","","",""
"null","","html-keyboard-response","372","284252","0.0-372.0","","<img src=""img/set2/S4.jpg"" width=""540"" height = ""360"" style=""border:16px solid Violet"">","null","","","","","","","","",""
"null","","html-keyboard-response","373","284457","0.0-373.0","","","null","","","","","","","","",""
"522","","image-keyboard-response","374","284981","0.0-374.0","","img/set2/S2.jpg","72","2","structured_incentive","68","structured_load,structured_incentive,random,structured_normal","2,3,3,4,2,1","false","","",""
"null","","html-keyboard-response","375","285337","0.0-375.0","","<img src=""img/set2/S2.jpg"" width=""540"" height = ""360"">","null","","","","","","","","",""
"null","","html-keyboard-response","376","285541","0.0-376.0","","","null","","","","","","","","",""
"578","","image-keyboard-response","377","286122","0.0-377.0","","img/set2/S3.jpg","83","3","structured_incentive","72","structured_load,structured_incentive,random,structured_normal","2,3,3,4,2,1","false","","",""
"null","","html-keyboard-response","378","286486","0.0-378.0","","<img src=""img/set2/S3.jpg"" width=""540"" height = ""360"">","null","","","","","","","","",""
"null","","html-keyboard-response","379","286691","0.0-379.0","","","null","","","","","","","","",""
"352","","image-keyboard-response","380","287046","0.0-380.0","","img/set2/S4.jpg","74","4","structured_incentive","74","structured_load,structured_incentive,random,structured_normal","2,3,3,4,2,1","true","","",""
"null","","html-keyboard-response","381","287403","0.0-381.0","","<img src=""img/set2/S4.jpg"" width=""540"" height = ""360"" style=""border:16px solid Violet"">","null","","","","","","","","",""
"null","","html-keyboard-response","382","287608","0.0-382.0","","","null","","","","","","","","",""
"540","","image-keyboard-response","383","288150","0.0-383.0","","img/set2/S1.jpg","72","1","structured_incentive","83","structured_load,structured_incentive,random,structured_normal","2,3,3,4,2,1","false","","",""
"null","","html-keyboard-response","384","288505","0.0-384.0","","<img src=""img/set2/S1.jpg"" width=""540"" height = ""360"">","null","","","","","","","","",""
"null","","html-keyboard-response","385","288720","0.0-385.0","","","null","","","","","","","","",""
"539","","image-keyboard-response","386","289262","0.0-386.0","","img/set2/S3.jpg","74","3","structured_incentive","72","structured_load,structured_incentive,random,structured_normal","2,3,3,4,2,1","false","","",""
"null","","html-keyboard-response","387","289615","0.0-387.0","","<img src=""img/set2/S3.jpg"" width=""540"" height = ""360"">","null","","","","","","","","",""
"null","","html-keyboard-response","388","289818","0.0-388.0","","","null","","","","","","","","",""
"264","","image-keyboard-response","389","290086","0.0-389.0","","img/set2/S4.jpg","83","4","structured_incentive","74","structured_load,structured_incentive,random,structured_normal","2,3,3,4,2,1","false","","",""
"null","","html-keyboard-response","390","290447","0.0-390.0","","<img src=""img/set2/S4.jpg"" width=""540"" height = ""360"">","null","","","","","","","","",""
"null","","html-keyboard-response","391","290653","0.0-391.0","","","null","","","","","","","","",""
"647","","image-keyboard-response","392","291302","0.0-392.0","","img/set2/S1.jpg","68","1","structured_incentive","83","structured_load,structured_incentive,random,structured_normal","2,3,3,4,2,1","false","","",""
"null","","html-keyboard-response","393","291657","0.0-393.0","","<img src=""img/set2/S1.jpg"" width=""540"" height = ""360"">","null","","","","","","","","",""
"null","","html-keyboard-response","394","291868","0.0-394.0","","","null","","","","","","","","",""
"374","","image-keyboard-response","395","292245","0.0-395.0","","img/set2/S1.jpg","83","1","structured_incentive","83","structured_load,structured_incentive,random,structured_normal","2,3,3,4,2,1","true","","",""
"null","","html-keyboard-response","396","292606","0.0-396.0","","<img src=""img/set2/S1.jpg"" width=""540"" height = ""360"" style=""border:16px solid orange"">","null","","","","","","","","",""
"null","","html-keyboard-response","397","292810","0.0-397.0","","","null","","","","","","","","",""
"604","","image-keyboard-response","398","293418","0.0-398.0","","img/set2/S3.jpg","72","3","structured_incentive","72","structured_load,structured_incentive,random,structured_normal","2,3,3,4,2,1","true","","",""
"null","","html-keyboard-response","399","293788","0.0-399.0","","<img src=""img/set2/S3.jpg"" width=""540"" height = ""360"" style=""border:16px solid orange"">","null","","","","","","","","",""
"null","","html-keyboard-response","400","293992","0.0-400.0","","","null","","","","","","","","",""
"473","","image-keyboard-response","401","294468","0.0-401.0","","img/set2/S4.jpg","74","4","structured_incentive","74","structured_load,structured_incentive,random,structured_normal","2,3,3,4,2,1","true","","",""
"null","","html-keyboard-response","402","294823","0.0-402.0","","<img src=""img/set2/S4.jpg"" width=""540"" height = ""360"" style=""border:16px solid Violet"">","null","","","","","","","","",""
"null","","html-keyboard-response","403","295026","0.0-403.0","","","null","","","","","","","","",""
"518","","image-keyboard-response","404","295547","0.0-404.0","","img/set2/S2.jpg","83","2","structured_incentive","68","structured_load,structured_incentive,random,structured_normal","2,3,3,4,2,1","false","","",""
"null","","html-keyboard-response","405","295909","0.0-405.0","","<img src=""img/set2/S2.jpg"" width=""540"" height = ""360"">","null","","","","","","","","",""
"null","","html-keyboard-response","406","296112","0.0-406.0","","","null","","","","","","","","",""
"371","","image-keyboard-response","407","296488","0.0-407.0","","img/set2/S2.jpg","83","2","structured_incentive","68","structured_load,structured_incentive,random,structured_normal","2,3,3,4,2,1","false","","",""
"null","","html-keyboard-response","408","296846","0.0-408.0","","<img src=""img/set2/S2.jpg"" width=""540"" height = ""360"">","null","","","","","","","","",""
"null","","html-keyboard-response","409","297052","0.0-409.0","","","null","","","","","","","","",""
"23","","image-keyboard-response","410","297079","0.0-410.0","","img/set2/S2.jpg","68","2","structured_incentive","68","structured_load,structured_incentive,random,structured_normal","2,3,3,4,2,1","true","","",""
"null","","html-keyboard-response","411","297447","0.0-411.0","","<img src=""img/set2/S2.jpg"" width=""540"" height = ""360"" style=""border:16px solid orange"">","null","","","","","","","","",""
"null","","html-keyboard-response","412","297651","0.0-412.0","","","null","","","","","","","","",""
"672","","image-keyboard-response","413","298326","0.0-413.0","","img/set2/S2.jpg","72","2","structured_incentive","68","structured_load,structured_incentive,random,structured_normal","2,3,3,4,2,1","false","","",""
"null","","html-keyboard-response","414","298688","0.0-414.0","","<img src=""img/set2/S2.jpg"" width=""540"" height = ""360"">","null","","","","","","","","",""
"null","","html-keyboard-response","415","298892","0.0-415.0","","","null","","","","","","","","",""
"372","","image-keyboard-response","416","299265","0.0-416.0","","img/set2/S2.jpg","74","2","structured_incentive","68","structured_load,structured_incentive,random,structured_normal","2,3,3,4,2,1","false","","",""
"null","","html-keyboard-response","417","299633","0.0-417.0","","<img src=""img/set2/S2.jpg"" width=""540"" height = ""360"">","null","","","","","","","","",""
"null","","html-keyboard-response","418","299838","0.0-418.0","","","null","","","","","","","","",""
"305","","image-keyboard-response","419","300146","0.0-419.0","","img/set2/S1.jpg","68","1","structured_incentive","83","structured_load,structured_incentive,random,structured_normal","2,3,3,4,2,1","false","","",""
"null","","html-keyboard-response","420","300500","0.0-420.0","","<img src=""img/set2/S1.jpg"" width=""540"" height = ""360"">","null","","","","","","","","",""
"null","","html-keyboard-response","421","300703","0.0-421.0","","","null","","","","","","","","",""
"375","","image-keyboard-response","422","301081","0.0-422.0","","img/set2/S3.jpg","72","3","structured_incentive","72","structured_load,structured_incentive,random,structured_normal","2,3,3,4,2,1","true","","",""
"null","","html-keyboard-response","423","301445","0.0-423.0","","<img src=""img/set2/S3.jpg"" width=""540"" height = ""360"" style=""border:16px solid orange"">","null","","","","","","","","",""
"null","","html-keyboard-response","424","301650","0.0-424.0","","","null","","","","","","","","",""
"415","","image-keyboard-response","425","302068","0.0-425.0","","img/set2/S4.jpg","74","4","structured_incentive","74","structured_load,structured_incentive,random,structured_normal","2,3,3,4,2,1","true","","",""
"null","","html-keyboard-response","426","302435","0.0-426.0","","<img src=""img/set2/S4.jpg"" width=""540"" height = ""360"" style=""border:16px solid Violet"">","null","","","","","","","","",""
"null","","html-keyboard-response","427","302639","0.0-427.0","","","null","","","","","","","","",""
"432","","image-keyboard-response","428","303076","0.0-428.0","","img/set2/S2.jpg","83","2","structured_incentive","68","structured_load,structured_incentive,random,structured_normal","2,3,3,4,2,1","false","","",""
"null","","html-keyboard-response","429","303441","0.0-429.0","","<img src=""img/set2/S2.jpg"" width=""540"" height = ""360"">","null","","","","","","","","",""
"null","","html-keyboard-response","430","303646","0.0-430.0","","","null","","","","","","","","",""
"580","","image-keyboard-response","431","304229","0.0-431.0","","img/set2/S1.jpg","68","1","structured_incentive","83","structured_load,structured_incentive,random,structured_normal","2,3,3,4,2,1","false","","",""
"null","","html-keyboard-response","432","304587","0.0-432.0","","<img src=""img/set2/S1.jpg"" width=""540"" height = ""360"">","null","","","","","","","","",""
"null","","html-keyboard-response","433","304793","0.0-433.0","","","null","","","","","","","","",""
"1683","","image-keyboard-response","434","306480","0.0-434.0","","img/set2/S2.jpg","72","2","structured_incentive","68","structured_load,structured_incentive,random,structured_normal","2,3,3,4,2,1","false","","",""
"null","","html-keyboard-response","435","306844","0.0-435.0","","<img src=""img/set2/S2.jpg"" width=""540"" height = ""360"">","null","","","","","","","","",""
"null","","html-keyboard-response","436","307047","0.0-436.0","","","null","","","","","","","","",""
"727","","image-keyboard-response","437","307776","0.0-437.0","","img/set2/S1.jpg","74","1","structured_incentive","83","structured_load,structured_incentive,random,structured_normal","2,3,3,4,2,1","false","","",""
"null","","html-keyboard-response","438","308133","0.0-438.0","","<img src=""img/set2/S1.jpg"" width=""540"" height = ""360"">","null","","","","","","","","",""
"null","","html-keyboard-response","439","308339","0.0-439.0","","","null","","","","","","","","",""
"387","","image-keyboard-response","440","308728","0.0-440.0","","img/set2/S2.jpg","83","2","structured_incentive","68","structured_load,structured_incentive,random,structured_normal","2,3,3,4,2,1","false","","",""
"null","","html-keyboard-response","441","309095","0.0-441.0","","<img src=""img/set2/S2.jpg"" width=""540"" height = ""360"">","null","","","","","","","","",""
"null","","html-keyboard-response","442","309305","0.0-442.0","","","null","","","","","","","","",""
"642","","image-keyboard-response","443","309953","0.0-443.0","","img/set2/S2.jpg","68","2","structured_incentive","68","structured_load,structured_incentive,random,structured_normal","2,3,3,4,2,1","true","","",""
"null","","html-keyboard-response","444","310321","0.0-444.0","","<img src=""img/set2/S2.jpg"" width=""540"" height = ""360"" style=""border:16px solid orange"">","null","","","","","","","","",""
"null","","html-keyboard-response","445","310535","0.0-445.0","","","null","","","","","","","","",""
"854","","image-keyboard-response","446","311391","0.0-446.0","","img/set2/S3.jpg","72","3","structured_incentive","72","structured_load,structured_incentive,random,structured_normal","2,3,3,4,2,1","true","","",""
"null","","html-keyboard-response","447","311759","0.0-447.0","","<img src=""img/set2/S3.jpg"" width=""540"" height = ""360"" style=""border:16px solid orange"">","null","","","","","","","","",""
"null","","html-keyboard-response","448","311965","0.0-448.0","","","null","","","","","","","","",""
"524","","image-keyboard-response","449","312492","0.0-449.0","","img/set2/S4.jpg","74","4","structured_incentive","74","structured_load,structured_incentive,random,structured_normal","2,3,3,4,2,1","true","","",""
"null","","html-keyboard-response","450","312849","0.0-450.0","","<img src=""img/set2/S4.jpg"" width=""540"" height = ""360"" style=""border:16px solid Violet"">","null","","","","","","","","",""
"null","","html-keyboard-response","451","313054","0.0-451.0","","","null","","","","","","","","",""
"477","","image-keyboard-response","452","313534","0.0-452.0","","img/set2/S3.jpg","72","3","structured_incentive","72","structured_load,structured_incentive,random,structured_normal","2,3,3,4,2,1","true","","",""
"null","","html-keyboard-response","453","313888","0.0-453.0","","<img src=""img/set2/S3.jpg"" width=""540"" height = ""360"" style=""border:16px solid orange"">","null","","","","","","","","",""
"null","","html-keyboard-response","454","314091","0.0-454.0","","","null","","","","","","","","",""
"431","","image-keyboard-response","455","314525","0.0-455.0","","img/set2/S4.jpg","74","4","structured_incentive","74","structured_load,structured_incentive,random,structured_normal","2,3,3,4,2,1","true","","",""
"null","","html-keyboard-response","456","314900","0.0-456.0","","<img src=""img/set2/S4.jpg"" width=""540"" height = ""360"" style=""border:16px solid Violet"">","null","","","","","","","","",""
"null","","html-keyboard-response","457","315140","0.0-457.0","","","null","","","","","","","","",""
"476","","image-keyboard-response","458","315618","0.0-458.0","","img/set2/S3.jpg","72","3","structured_incentive","72","structured_load,structured_incentive,random,structured_normal","2,3,3,4,2,1","true","","",""
"null","","html-keyboard-response","459","315985","0.0-459.0","","<img src=""img/set2/S3.jpg"" width=""540"" height = ""360"" style=""border:16px solid orange"">","null","","","","","","","","",""
"null","","html-keyboard-response","460","316206","0.0-460.0","","","null","","","","","","","","",""
"446","","image-keyboard-response","461","316654","0.0-461.0","","img/set2/S4.jpg","74","4","structured_incentive","74","structured_load,structured_incentive,random,structured_normal","2,3,3,4,2,1","true","","",""
"null","","html-keyboard-response","462","317020","0.0-462.0","","<img src=""img/set2/S4.jpg"" width=""540"" height = ""360"" style=""border:16px solid Violet"">","null","","","","","","","","",""
"null","","html-keyboard-response","463","317225","0.0-463.0","","","null","","","","","","","","",""
"553","","image-keyboard-response","464","317781","0.0-464.0","","img/set2/S2.jpg","68","2","structured_incentive","68","structured_load,structured_incentive,random,structured_normal","2,3,3,4,2,1","true","","",""
"null","","html-keyboard-response","465","318135","0.0-465.0","","<img src=""img/set2/S2.jpg"" width=""540"" height = ""360"" style=""border:16px solid orange"">","null","","","","","","","","",""
"null","","html-keyboard-response","466","318340","0.0-466.0","","","null","","","","","","","","",""
"387","","image-keyboard-response","467","318729","0.0-467.0","","img/set2/S3.jpg","83","3","structured_incentive","72","structured_load,structured_incentive,random,structured_normal","2,3,3,4,2,1","false","","",""
"null","","html-keyboard-response","468","319096","0.0-468.0","","<img src=""img/set2/S3.jpg"" width=""540"" height = ""360"">","null","","","","","","","","",""
"null","","html-keyboard-response","469","319299","0.0-469.0","","","null","","","","","","","","",""
"656","","image-keyboard-response","470","319958","0.0-470.0","","img/set2/S4.jpg","74","4","structured_incentive","74","structured_load,structured_incentive,random,structured_normal","2,3,3,4,2,1","true","","",""
"null","","html-keyboard-response","471","320322","0.0-471.0","","<img src=""img/set2/S4.jpg"" width=""540"" height = ""360"" style=""border:16px solid Violet"">","null","","","","","","","","",""
"null","","html-keyboard-response","472","320525","0.0-472.0","","","null","","","","","","","","",""
"543","","image-keyboard-response","473","321071","0.0-473.0","","img/set2/S1.jpg","72","1","structured_incentive","83","structured_load,structured_incentive,random,structured_normal","2,3,3,4,2,1","false","","",""
"null","","html-keyboard-response","474","321437","0.0-474.0","","<img src=""img/set2/S1.jpg"" width=""540"" height = ""360"">","null","","","","","","","","",""
"null","","html-keyboard-response","475","321640","0.0-475.0","","","null","","","","","","","","",""
"693","","image-keyboard-response","476","322336","0.0-476.0","","img/set2/S3.jpg","72","3","structured_incentive","72","structured_load,structured_incentive,random,structured_normal","2,3,3,4,2,1","true","","",""
"null","","html-keyboard-response","477","322694","0.0-477.0","","<img src=""img/set2/S3.jpg"" width=""540"" height = ""360"" style=""border:16px solid orange"">","null","","","","","","","","",""
"null","","html-keyboard-response","478","322900","0.0-478.0","","","null","","","","","","","","",""
"358","","image-keyboard-response","479","323261","0.0-479.0","","img/set2/S4.jpg","74","4","structured_incentive","74","structured_load,structured_incentive,random,structured_normal","2,3,3,4,2,1","true","","",""
"null","","html-keyboard-response","480","323622","0.0-480.0","","<img src=""img/set2/S4.jpg"" width=""540"" height = ""360"" style=""border:16px solid Violet"">","null","","","","","","","","",""
"null","","html-keyboard-response","481","323829","0.0-481.0","","","null","","","","","","","","",""
"612","","image-keyboard-response","482","324443","0.0-482.0","","img/set2/S2.jpg","68","2","structured_incentive","68","structured_load,structured_incentive,random,structured_normal","2,3,3,4,2,1","true","","",""
"null","","html-keyboard-response","483","324803","0.0-483.0","","<img src=""img/set2/S2.jpg"" width=""540"" height = ""360"" style=""border:16px solid orange"">","null","","","","","","","","",""
"null","","html-keyboard-response","484","325007","0.0-484.0","","","null","","","","","","","","",""
"409","","image-keyboard-response","485","325419","0.0-485.0","","img/set2/S2.jpg","68","2","structured_incentive","68","structured_load,structured_incentive,random,structured_normal","2,3,3,4,2,1","true","","",""
"null","","html-keyboard-response","486","325777","0.0-486.0","","<img src=""img/set2/S2.jpg"" width=""540"" height = ""360"" style=""border:16px solid orange"">","null","","","","","","","","",""
"null","","html-keyboard-response","487","325983","0.0-487.0","","","null","","","","","","","","",""
"380","","image-keyboard-response","488","326364","0.0-488.0","","img/set2/S2.jpg","68","2","structured_incentive","68","structured_load,structured_incentive,random,structured_normal","2,3,3,4,2,1","true","","",""
"null","","html-keyboard-response","489","326721","0.0-489.0","","<img src=""img/set2/S2.jpg"" width=""540"" height = ""360"" style=""border:16px solid orange"">","null","","","","","","","","",""
"null","","html-keyboard-response","490","326926","0.0-490.0","","","null","","","","","","","","",""
"604","","image-keyboard-response","491","327533","0.0-491.0","","img/set2/S3.jpg","68","3","structured_incentive","72","structured_load,structured_incentive,random,structured_normal","2,3,3,4,2,1","false","","",""
"null","","html-keyboard-response","492","327901","0.0-492.0","","<img src=""img/set2/S3.jpg"" width=""540"" height = ""360"">","null","","","","","","","","",""
"null","","html-keyboard-response","493","328106","0.0-493.0","","","null","","","","","","","","",""
"13","","image-keyboard-response","494","328121","0.0-494.0","","img/set2/S4.jpg","72","4","structured_incentive","74","structured_load,structured_incentive,random,structured_normal","2,3,3,4,2,1","false","","",""
"null","","html-keyboard-response","495","328484","0.0-495.0","","<img src=""img/set2/S4.jpg"" width=""540"" height = ""360"">","null","","","","","","","","",""
"null","","html-keyboard-response","496","328688","0.0-496.0","","","null","","","","","","","","",""
"799","","image-keyboard-response","497","329489","0.0-497.0","","img/set2/S1.jpg","83","1","structured_incentive","83","structured_load,structured_incentive,random,structured_normal","2,3,3,4,2,1","true","","",""
"null","","html-keyboard-response","498","329850","0.0-498.0","","<img src=""img/set2/S1.jpg"" width=""540"" height = ""360"" style=""border:16px solid orange"">","null","","","","","","","","",""
"null","","html-keyboard-response","499","330054","0.0-499.0","","","null","","","","","","","","",""
"727","","image-keyboard-response","500","330785","0.0-500.0","","img/set2/S3.jpg","72","3","structured_incentive","72","structured_load,structured_incentive,random,structured_normal","2,3,3,4,2,1","true","","",""
"null","","html-keyboard-response","501","331148","0.0-501.0","","<img src=""img/set2/S3.jpg"" width=""540"" height = ""360"" style=""border:16px solid orange"">","null","","","","","","","","",""
"null","","html-keyboard-response","502","331354","0.0-502.0","","","null","","","","","","","","",""
"389","","image-keyboard-response","503","331747","0.0-503.0","","img/set2/S4.jpg","74","4","structured_incentive","74","structured_load,structured_incentive,random,structured_normal","2,3,3,4,2,1","true","","",""
"null","","html-keyboard-response","504","332107","0.0-504.0","","<img src=""img/set2/S4.jpg"" width=""540"" height = ""360"" style=""border:16px solid Violet"">","null","","","","","","","","",""
"null","","html-keyboard-response","505","332309","0.0-505.0","","","null","","","","","","","","",""
"643","","image-keyboard-response","506","332955","0.0-506.0","","img/set2/S3.jpg","83","3","structured_incentive","72","structured_load,structured_incentive,random,structured_normal","2,3,3,4,2,1","false","","",""
"null","","html-keyboard-response","507","333319","0.0-507.0","","<img src=""img/set2/S3.jpg"" width=""540"" height = ""360"">","null","","","","","","","","",""
"null","","html-keyboard-response","508","333523","0.0-508.0","","","null","","","","","","","","",""
"911","","image-keyboard-response","509","334438","0.0-509.0","","img/set2/S4.jpg","74","4","structured_incentive","74","structured_load,structured_incentive,random,structured_normal","2,3,3,4,2,1","true","","",""
"null","","html-keyboard-response","510","334797","0.0-510.0","","<img src=""img/set2/S4.jpg"" width=""540"" height = ""360"" style=""border:16px solid Violet"">","null","","","","","","","","",""
"null","","html-keyboard-response","511","335002","0.0-511.0","","","null","","","","","","","","",""
"385","","image-keyboard-response","512","335388","0.0-512.0","","img/set2/S1.jpg","68","1","structured_incentive","83","structured_load,structured_incentive,random,structured_normal","2,3,3,4,2,1","false","","",""
"null","","html-keyboard-response","513","335743","0.0-513.0","","<img src=""img/set2/S1.jpg"" width=""540"" height = ""360"">","null","","","","","","","","",""
"null","","html-keyboard-response","514","335948","0.0-514.0","","","null","","","","","","","","",""
"550","","image-keyboard-response","515","336502","0.0-515.0","","img/set2/S1.jpg","72","1","structured_incentive","83","structured_load,structured_incentive,random,structured_normal","2,3,3,4,2,1","false","","",""
"null","","html-keyboard-response","516","336859","0.0-516.0","","<img src=""img/set2/S1.jpg"" width=""540"" height = ""360"">","null","","","","","","","","",""
"null","","html-keyboard-response","517","337064","0.0-517.0","","","null","","","","","","","","",""
"456","","image-keyboard-response","518","337523","0.0-518.0","","img/set2/S1.jpg","83","1","structured_incentive","83","structured_load,structured_incentive,random,structured_normal","2,3,3,4,2,1","true","","",""
"null","","html-keyboard-response","519","337885","0.0-519.0","","<img src=""img/set2/S1.jpg"" width=""540"" height = ""360"" style=""border:16px solid orange"">","null","","","","","","","","",""
"null","","html-keyboard-response","520","338090","0.0-520.0","","","null","","","","","","","","",""
"820","","image-keyboard-response","521","338913","0.0-521.0","","img/set2/S2.jpg","72","2","structured_incentive","68","structured_load,structured_incentive,random,structured_normal","2,3,3,4,2,1","false","","",""
"null","","html-keyboard-response","522","339266","0.0-522.0","","<img src=""img/set2/S2.jpg"" width=""540"" height = ""360"">","null","","","","","","","","",""
"null","","html-keyboard-response","523","339469","0.0-523.0","","","null","","","","","","","","",""
"326","","image-keyboard-response","524","339797","0.0-524.0","","img/set2/S2.jpg","68","2","structured_incentive","68","structured_load,structured_incentive,random,structured_normal","2,3,3,4,2,1","true","","",""
"null","","html-keyboard-response","525","340163","0.0-525.0","","<img src=""img/set2/S2.jpg"" width=""540"" height = ""360"" style=""border:16px solid orange"">","null","","","","","","","","",""
"null","","html-keyboard-response","526","340365","0.0-526.0","","","null","","","","","","","","",""
"411","","image-keyboard-response","527","340779","0.0-527.0","","img/set2/S2.jpg","68","2","structured_incentive","68","structured_load,structured_incentive,random,structured_normal","2,3,3,4,2,1","true","","",""
"null","","html-keyboard-response","528","341136","0.0-528.0","","<img src=""img/set2/S2.jpg"" width=""540"" height = ""360"" style=""border:16px solid orange"">","null","","","","","","","","",""
"null","","html-keyboard-response","529","341340","0.0-529.0","","","null","","","","","","","","",""
"673","","image-keyboard-response","530","342017","0.0-530.0","","img/set2/S3.jpg","72","3","structured_incentive","72","structured_load,structured_incentive,random,structured_normal","2,3,3,4,2,1","true","","",""
"null","","html-keyboard-response","531","342378","0.0-531.0","","<img src=""img/set2/S3.jpg"" width=""540"" height = ""360"" style=""border:16px solid orange"">","null","","","","","","","","",""
"null","","html-keyboard-response","532","342582","0.0-532.0","","","null","","","","","","","","",""
"416","","image-keyboard-response","533","343000","0.0-533.0","","img/set2/S4.jpg","74","4","structured_incentive","74","structured_load,structured_incentive,random,structured_normal","2,3,3,4,2,1","true","","",""
"null","","html-keyboard-response","534","343356","0.0-534.0","","<img src=""img/set2/S4.jpg"" width=""540"" height = ""360"" style=""border:16px solid Violet"">","null","","","","","","","","",""
"null","","html-keyboard-response","535","343564","0.0-535.0","","","null","","","","","","","","",""
"890","","image-keyboard-response","536","344457","0.0-536.0","","img/set2/S2.jpg","68","2","structured_incentive","68","structured_load,structured_incentive,random,structured_normal","2,3,3,4,2,1","true","","",""
"null","","html-keyboard-response","537","344818","0.0-537.0","","<img src=""img/set2/S2.jpg"" width=""540"" height = ""360"" style=""border:16px solid orange"">","null","","","","","","","","",""
"null","","html-keyboard-response","538","345020","0.0-538.0","","","null","","","","","","","","",""
"764","","image-keyboard-response","539","345787","0.0-539.0","","img/set2/S1.jpg","83","1","structured_incentive","83","structured_load,structured_incentive,random,structured_normal","2,3,3,4,2,1","true","","",""
"null","","html-keyboard-response","540","346150","0.0-540.0","","<img src=""img/set2/S1.jpg"" width=""540"" height = ""360"" style=""border:16px solid orange"">","null","","","","","","","","",""
"null","","html-keyboard-response","541","346354","0.0-541.0","","","null","","","","","","","","",""
"741","","image-keyboard-response","542","347098","0.0-542.0","","img/set2/S2.jpg","68","2","structured_incentive","68","structured_load,structured_incentive,random,structured_normal","2,3,3,4,2,1","true","","",""
"null","","html-keyboard-response","543","347453","0.0-543.0","","<img src=""img/set2/S2.jpg"" width=""540"" height = ""360"" style=""border:16px solid orange"">","null","","","","","","","","",""
"null","","html-keyboard-response","544","347656","0.0-544.0","","","null","","","","","","","","",""
"530","","image-keyboard-response","545","348188","0.0-545.0","","img/set2/S1.jpg","68","1","structured_incentive","83","structured_load,structured_incentive,random,structured_normal","2,3,3,4,2,1","false","","",""
"null","","html-keyboard-response","546","348546","0.0-546.0","","<img src=""img/set2/S1.jpg"" width=""540"" height = ""360"">","null","","","","","","","","",""
"null","","html-keyboard-response","547","348750","0.0-547.0","","","null","","","","","","","","",""
"694","","image-keyboard-response","548","349448","0.0-548.0","","img/set2/S1.jpg","72","1","structured_incentive","83","structured_load,structured_incentive,random,structured_normal","2,3,3,4,2,1","false","","",""
"null","","html-keyboard-response","549","349805","0.0-549.0","","<img src=""img/set2/S1.jpg"" width=""540"" height = ""360"">","null","","","","","","","","",""
"null","","html-keyboard-response","550","350009","0.0-550.0","","","null","","","","","","","","",""
"646","","image-keyboard-response","551","350659","0.0-551.0","","img/set2/S3.jpg","74","3","structured_incentive","72","structured_load,structured_incentive,random,structured_normal","2,3,3,4,2,1","false","","",""
"null","","html-keyboard-response","552","351017","0.0-552.0","","<img src=""img/set2/S3.jpg"" width=""540"" height = ""360"">","null","","","","","","","","",""
"null","","html-keyboard-response","553","351221","0.0-553.0","","","null","","","","","","","","",""
"572","","image-keyboard-response","554","351794","0.0-554.0","","img/set2/S4.jpg","74","4","structured_incentive","74","structured_load,structured_incentive,random,structured_normal","2,3,3,4,2,1","true","","",""
"null","","html-keyboard-response","555","352149","0.0-555.0","","<img src=""img/set2/S4.jpg"" width=""540"" height = ""360"" style=""border:16px solid Violet"">","null","","","","","","","","",""
"null","","html-keyboard-response","556","352356","0.0-556.0","","","null","","","","","","","","",""
"599","","image-keyboard-response","557","352957","0.0-557.0","","img/set2/S2.jpg","68","2","structured_incentive","68","structured_load,structured_incentive,random,structured_normal","2,3,3,4,2,1","true","","",""
"null","","html-keyboard-response","558","353312","0.0-558.0","","<img src=""img/set2/S2.jpg"" width=""540"" height = ""360"" style=""border:16px solid orange"">","null","","","","","","","","",""
"null","","html-keyboard-response","559","353516","0.0-559.0","","","null","","","","","","","","",""
"447","","image-keyboard-response","560","353966","0.0-560.0","","img/set2/S1.jpg","83","1","structured_incentive","83","structured_load,structured_incentive,random,structured_normal","2,3,3,4,2,1","true","","",""
"null","","html-keyboard-response","561","354329","0.0-561.0","","<img src=""img/set2/S1.jpg"" width=""540"" height = ""360"" style=""border:16px solid orange"">","null","","","","","","","","",""
"null","","html-keyboard-response","562","354532","0.0-562.0","","","null","","","","","","","","",""
"418","","image-keyboard-response","563","354952","0.0-563.0","","img/set2/S1.jpg","83","1","structured_incentive","83","structured_load,structured_incentive,random,structured_normal","2,3,3,4,2,1","true","","",""
"null","","html-keyboard-response","564","355318","0.0-564.0","","<img src=""img/set2/S1.jpg"" width=""540"" height = ""360"" style=""border:16px solid orange"">","null","","","","","","","","",""
"null","","html-keyboard-response","565","355524","0.0-565.0","","","null","","","","","","","","",""
"391","","image-keyboard-response","566","355918","0.0-566.0","","img/set2/S1.jpg","83","1","structured_incentive","83","structured_load,structured_incentive,random,structured_normal","2,3,3,4,2,1","true","","",""
"null","","html-keyboard-response","567","356277","0.0-567.0","","<img src=""img/set2/S1.jpg"" width=""540"" height = ""360"" style=""border:16px solid orange"">","null","","","","","","","","",""
"null","","html-keyboard-response","568","356479","0.0-568.0","","","null","","","","","","","","",""
"329","","image-keyboard-response","569","356811","0.0-569.0","","img/set2/S1.jpg","83","1","structured_incentive","83","structured_load,structured_incentive,random,structured_normal","2,3,3,4,2,1","true","","",""
"null","","html-keyboard-response","570","357179","0.0-570.0","","<img src=""img/set2/S1.jpg"" width=""540"" height = ""360"" style=""border:16px solid orange"">","null","","","","","","","","",""
"null","","html-keyboard-response","571","357382","0.0-571.0","","","null","","","","","","","","",""
"317","","image-keyboard-response","572","357702","0.0-572.0","","img/set2/S1.jpg","83","1","structured_incentive","83","structured_load,structured_incentive,random,structured_normal","2,3,3,4,2,1","true","","",""
"null","","html-keyboard-response","573","358055","0.0-573.0","","<img src=""img/set2/S1.jpg"" width=""540"" height = ""360"" style=""border:16px solid orange"">","null","","","","","","","","",""
"null","","html-keyboard-response","574","358261","0.0-574.0","","","null","","","","","","","","",""
"310","","image-keyboard-response","575","358573","0.0-575.0","","img/set2/S1.jpg","83","1","structured_incentive","83","structured_load,structured_incentive,random,structured_normal","2,3,3,4,2,1","true","","",""
"null","","html-keyboard-response","576","358934","0.0-576.0","","<img src=""img/set2/S1.jpg"" width=""540"" height = ""360"" style=""border:16px solid orange"">","null","","","","","","","","",""
"null","","html-keyboard-response","577","359138","0.0-577.0","","","null","","","","","","","","",""
"660","","image-keyboard-response","578","359801","0.0-578.0","","img/set2/S3.jpg","72","3","structured_incentive","72","structured_load,structured_incentive,random,structured_normal","2,3,3,4,2,1","true","","",""
"null","","html-keyboard-response","579","360160","0.0-579.0","","<img src=""img/set2/S3.jpg"" width=""540"" height = ""360"" style=""border:16px solid orange"">","null","","","","","","","","",""
"null","","html-keyboard-response","580","360365","0.0-580.0","","","null","","","","","","","","",""
"567","","image-keyboard-response","581","360935","0.0-581.0","","img/set2/S4.jpg","74","4","structured_incentive","74","structured_load,structured_incentive,random,structured_normal","2,3,3,4,2,1","true","","",""
"null","","html-keyboard-response","582","361294","0.0-582.0","","<img src=""img/set2/S4.jpg"" width=""540"" height = ""360"" style=""border:16px solid Violet"">","null","","","","","","","","",""
"null","","html-keyboard-response","583","361496","0.0-583.0","","","null","","","","","","","","",""
"666","","image-keyboard-response","584","362165","0.0-584.0","","img/set2/S1.jpg","68","1","structured_incentive","83","structured_load,structured_incentive,random,structured_normal","2,3,3,4,2,1","false","","",""
"null","","html-keyboard-response","585","362520","0.0-585.0","","<img src=""img/set2/S1.jpg"" width=""540"" height = ""360"">","null","","","","","","","","",""
"null","","html-keyboard-response","586","362724","0.0-586.0","","","null","","","","","","","","",""
"349","","image-keyboard-response","587","363076","0.0-587.0","","img/set2/S1.jpg","83","1","structured_incentive","83","structured_load,structured_incentive,random,structured_normal","2,3,3,4,2,1","true","","",""
"null","","html-keyboard-response","588","363431","0.0-588.0","","<img src=""img/set2/S1.jpg"" width=""540"" height = ""360"" style=""border:16px solid orange"">","null","","","","","","","","",""
"null","","html-keyboard-response","589","363636","0.0-589.0","","","null","","","","","","","","",""
"339","","image-keyboard-response","590","363977","0.0-590.0","","img/set2/S2.jpg","83","2","structured_incentive","68","structured_load,structured_incentive,random,structured_normal","2,3,3,4,2,1","false","","",""
"null","","html-keyboard-response","591","364346","0.0-591.0","","<img src=""img/set2/S2.jpg"" width=""540"" height = ""360"">","null","","","","","","","","",""
"null","","html-keyboard-response","592","364548","0.0-592.0","","","null","","","","","","","","",""
"19","","image-keyboard-response","593","364569","0.0-593.0","","img/set2/S2.jpg","72","2","structured_incentive","68","structured_load,structured_incentive,random,structured_normal","2,3,3,4,2,1","false","","",""
