"rt","url","trial_type","trial_index","time_elapsed","internal_node_id","assignmentID","mturkID","hitID","view_history","stimulus","key_press","state","test_part","correct_response","order_block","order_chunk","order_freq","correct","responses","question_order","bonus"
"39901.19999998808","consent.html","external-html","0","40010","0.0-0.0","3OSWBBLG1FJDA1OGD3HKDDW3WMRDX1","A222R4PNCF08OF","3DZKABX2ZIR9F0FDMQGPG3LEN12CVN","","","","","","","","","","","","",""
"106234.39999997616","","instructions","1","146246","0.0-1.0","3OSWBBLG1FJDA1OGD3HKDDW3WMRDX1","A222R4PNCF08OF","3DZKABX2ZIR9F0FDMQGPG3LEN12CVN","[{""page_index"":0,""viewing_time"":2681},{""page_index"":1,""viewing_time"":42016.19999998808},{""page_index"":2,""viewing_time"":3593.199999988079},{""page_index"":3,""viewing_time"":41658.39999997616},{""page_index"":4,""viewing_time"":3584.5},{""page_index"":5,""viewing_time"":7040.5},{""page_index"":6,""viewing_time"":5659.800000011921}]","","","","","","","","","","","",""
"40650.89999997616","","instructions","2","186897","0.0-2.0","3OSWBBLG1FJDA1OGD3HKDDW3WMRDX1","A222R4PNCF08OF","3DZKABX2ZIR9F0FDMQGPG3LEN12CVN","[{""page_index"":0,""viewing_time"":40650.39999997616}]","","","","","","","","","","","",""
"19691.5","","instructions","3","206589","0.0-3.0","3OSWBBLG1FJDA1OGD3HKDDW3WMRDX1","A222R4PNCF08OF","3DZKABX2ZIR9F0FDMQGPG3LEN12CVN","[{""page_index"":0,""viewing_time"":14409.900000035763},{""page_index"":1,""viewing_time"":5281.099999964237}]","","","","","","","","","","","",""
"null","","image-keyboard-response","4","209096","0.0-4.0","3OSWBBLG1FJDA1OGD3HKDDW3WMRDX1","A222R4PNCF08OF","3DZKABX2ZIR9F0FDMQGPG3LEN12CVN","","img/set1/S1.jpg","null","1","structured_incentive","83","structured_incentive,structured_load,random,structured_normal","2,3,3,4,2,1","2,1,3,4","false","","",""
"null","","html-keyboard-response","5","209454","0.0-5.0","3OSWBBLG1FJDA1OGD3HKDDW3WMRDX1","A222R4PNCF08OF","3DZKABX2ZIR9F0FDMQGPG3LEN12CVN","","<img src=""img/set1/S1.jpg"" width=""540"" height = ""360"">","null","","","","","","","","","",""
"null","","html-keyboard-response","6","209660","0.0-6.0","3OSWBBLG1FJDA1OGD3HKDDW3WMRDX1","A222R4PNCF08OF","3DZKABX2ZIR9F0FDMQGPG3LEN12CVN","","","null","","","","","","","","","",""
"null","","image-keyboard-response","7","212165","0.0-7.0","3OSWBBLG1FJDA1OGD3HKDDW3WMRDX1","A222R4PNCF08OF","3DZKABX2ZIR9F0FDMQGPG3LEN12CVN","","img/set1/S4.jpg","null","4","structured_incentive","74","structured_incentive,structured_load,random,structured_normal","2,3,3,4,2,1","2,1,3,4","false","","",""
"null","","html-keyboard-response","8","212520","0.0-8.0","3OSWBBLG1FJDA1OGD3HKDDW3WMRDX1","A222R4PNCF08OF","3DZKABX2ZIR9F0FDMQGPG3LEN12CVN","","<img src=""img/set1/S4.jpg"" width=""540"" height = ""360"">","null","","","","","","","","","",""
"null","","html-keyboard-response","9","212724","0.0-9.0","3OSWBBLG1FJDA1OGD3HKDDW3WMRDX1","A222R4PNCF08OF","3DZKABX2ZIR9F0FDMQGPG3LEN12CVN","","","null","","","","","","","","","",""
"null","","image-keyboard-response","10","215230","0.0-10.0","3OSWBBLG1FJDA1OGD3HKDDW3WMRDX1","A222R4PNCF08OF","3DZKABX2ZIR9F0FDMQGPG3LEN12CVN","","img/set1/S1.jpg","null","1","structured_incentive","83","structured_incentive,structured_load,random,structured_normal","2,3,3,4,2,1","2,1,3,4","false","","",""
"null","","html-keyboard-response","11","215584","0.0-11.0","3OSWBBLG1FJDA1OGD3HKDDW3WMRDX1","A222R4PNCF08OF","3DZKABX2ZIR9F0FDMQGPG3LEN12CVN","","<img src=""img/set1/S1.jpg"" width=""540"" height = ""360"">","null","","","","","","","","","",""
"null","","html-keyboard-response","12","215787","0.0-12.0","3OSWBBLG1FJDA1OGD3HKDDW3WMRDX1","A222R4PNCF08OF","3DZKABX2ZIR9F0FDMQGPG3LEN12CVN","","","null","","","","","","","","","",""
"null","","image-keyboard-response","13","218291","0.0-13.0","3OSWBBLG1FJDA1OGD3HKDDW3WMRDX1","A222R4PNCF08OF","3DZKABX2ZIR9F0FDMQGPG3LEN12CVN","","img/set1/S2.jpg","null","2","structured_incentive","68","structured_incentive,structured_load,random,structured_normal","2,3,3,4,2,1","2,1,3,4","false","","",""
"null","","html-keyboard-response","14","218646","0.0-14.0","3OSWBBLG1FJDA1OGD3HKDDW3WMRDX1","A222R4PNCF08OF","3DZKABX2ZIR9F0FDMQGPG3LEN12CVN","","<img src=""img/set1/S2.jpg"" width=""540"" height = ""360"">","null","","","","","","","","","",""
"null","","html-keyboard-response","15","218852","0.0-15.0","3OSWBBLG1FJDA1OGD3HKDDW3WMRDX1","A222R4PNCF08OF","3DZKABX2ZIR9F0FDMQGPG3LEN12CVN","","","null","","","","","","","","","",""
"642.3999999761581","","image-keyboard-response","16","219495","0.0-16.0","3OSWBBLG1FJDA1OGD3HKDDW3WMRDX1","A222R4PNCF08OF","3DZKABX2ZIR9F0FDMQGPG3LEN12CVN","","img/set1/S3.jpg","83","3","structured_incentive","72","structured_incentive,structured_load,random,structured_normal","2,3,3,4,2,1","2,1,3,4","false","","",""
"null","","html-keyboard-response","17","219851","0.0-17.0","3OSWBBLG1FJDA1OGD3HKDDW3WMRDX1","A222R4PNCF08OF","3DZKABX2ZIR9F0FDMQGPG3LEN12CVN","","<img src=""img/set1/S3.jpg"" width=""540"" height = ""360"">","null","","","","","","","","","",""
"null","","html-keyboard-response","18","220055","0.0-18.0","3OSWBBLG1FJDA1OGD3HKDDW3WMRDX1","A222R4PNCF08OF","3DZKABX2ZIR9F0FDMQGPG3LEN12CVN","","","null","","","","","","","","","",""
"248.39999997615814","","image-keyboard-response","19","220305","0.0-19.0","3OSWBBLG1FJDA1OGD3HKDDW3WMRDX1","A222R4PNCF08OF","3DZKABX2ZIR9F0FDMQGPG3LEN12CVN","","img/set1/S1.jpg","68","1","structured_incentive","83","structured_incentive,structured_load,random,structured_normal","2,3,3,4,2,1","2,1,3,4","false","","",""
"null","","html-keyboard-response","20","220658","0.0-20.0","3OSWBBLG1FJDA1OGD3HKDDW3WMRDX1","A222R4PNCF08OF","3DZKABX2ZIR9F0FDMQGPG3LEN12CVN","","<img src=""img/set1/S1.jpg"" width=""540"" height = ""360"">","null","","","","","","","","","",""
"null","","html-keyboard-response","21","220864","0.0-21.0","3OSWBBLG1FJDA1OGD3HKDDW3WMRDX1","A222R4PNCF08OF","3DZKABX2ZIR9F0FDMQGPG3LEN12CVN","","","null","","","","","","","","","",""
"412.30000001192093","","image-keyboard-response","22","221277","0.0-22.0","3OSWBBLG1FJDA1OGD3HKDDW3WMRDX1","A222R4PNCF08OF","3DZKABX2ZIR9F0FDMQGPG3LEN12CVN","","img/set1/S1.jpg","74","1","structured_incentive","83","structured_incentive,structured_load,random,structured_normal","2,3,3,4,2,1","2,1,3,4","false","","",""
"null","","html-keyboard-response","23","221633","0.0-23.0","3OSWBBLG1FJDA1OGD3HKDDW3WMRDX1","A222R4PNCF08OF","3DZKABX2ZIR9F0FDMQGPG3LEN12CVN","","<img src=""img/set1/S1.jpg"" width=""540"" height = ""360"">","null","","","","","","","","","",""
"null","","html-keyboard-response","24","221836","0.0-24.0","3OSWBBLG1FJDA1OGD3HKDDW3WMRDX1","A222R4PNCF08OF","3DZKABX2ZIR9F0FDMQGPG3LEN12CVN","","","null","","","","","","","","","",""
"968.4000000357628","","image-keyboard-response","25","222805","0.0-25.0","3OSWBBLG1FJDA1OGD3HKDDW3WMRDX1","A222R4PNCF08OF","3DZKABX2ZIR9F0FDMQGPG3LEN12CVN","","img/set1/S2.jpg","74","2","structured_incentive","68","structured_incentive,structured_load,random,structured_normal","2,3,3,4,2,1","2,1,3,4","false","","",""
"null","","html-keyboard-response","26","223159","0.0-26.0","3OSWBBLG1FJDA1OGD3HKDDW3WMRDX1","A222R4PNCF08OF","3DZKABX2ZIR9F0FDMQGPG3LEN12CVN","","<img src=""img/set1/S2.jpg"" width=""540"" height = ""360"">","null","","","","","","","","","",""
"null","","html-keyboard-response","27","223363","0.0-27.0","3OSWBBLG1FJDA1OGD3HKDDW3WMRDX1","A222R4PNCF08OF","3DZKABX2ZIR9F0FDMQGPG3LEN12CVN","","","null","","","","","","","","","",""
"731.1000000238419","","image-keyboard-response","28","224095","0.0-28.0","3OSWBBLG1FJDA1OGD3HKDDW3WMRDX1","A222R4PNCF08OF","3DZKABX2ZIR9F0FDMQGPG3LEN12CVN","","img/set1/S3.jpg","83","3","structured_incentive","72","structured_incentive,structured_load,random,structured_normal","2,3,3,4,2,1","2,1,3,4","false","","",""
"null","","html-keyboard-response","29","224448","0.0-29.0","3OSWBBLG1FJDA1OGD3HKDDW3WMRDX1","A222R4PNCF08OF","3DZKABX2ZIR9F0FDMQGPG3LEN12CVN","","<img src=""img/set1/S3.jpg"" width=""540"" height = ""360"">","null","","","","","","","","","",""
"null","","html-keyboard-response","30","224651","0.0-30.0","3OSWBBLG1FJDA1OGD3HKDDW3WMRDX1","A222R4PNCF08OF","3DZKABX2ZIR9F0FDMQGPG3LEN12CVN","","","null","","","","","","","","","",""
"null","","image-keyboard-response","31","227156","0.0-31.0","3OSWBBLG1FJDA1OGD3HKDDW3WMRDX1","A222R4PNCF08OF","3DZKABX2ZIR9F0FDMQGPG3LEN12CVN","","img/set1/S1.jpg","null","1","structured_incentive","83","structured_incentive,structured_load,random,structured_normal","2,3,3,4,2,1","2,1,3,4","false","","",""
"null","","html-keyboard-response","32","227508","0.0-32.0","3OSWBBLG1FJDA1OGD3HKDDW3WMRDX1","A222R4PNCF08OF","3DZKABX2ZIR9F0FDMQGPG3LEN12CVN","","<img src=""img/set1/S1.jpg"" width=""540"" height = ""360"">","null","","","","","","","","","",""
"null","","html-keyboard-response","33","227711","0.0-33.0","3OSWBBLG1FJDA1OGD3HKDDW3WMRDX1","A222R4PNCF08OF","3DZKABX2ZIR9F0FDMQGPG3LEN12CVN","","","null","","","","","","","","","",""
"617.6999999880791","","image-keyboard-response","34","228330","0.0-34.0","3OSWBBLG1FJDA1OGD3HKDDW3WMRDX1","A222R4PNCF08OF","3DZKABX2ZIR9F0FDMQGPG3LEN12CVN","","img/set1/S2.jpg","72","2","structured_incentive","68","structured_incentive,structured_load,random,structured_normal","2,3,3,4,2,1","2,1,3,4","false","","",""
"null","","html-keyboard-response","35","228685","0.0-35.0","3OSWBBLG1FJDA1OGD3HKDDW3WMRDX1","A222R4PNCF08OF","3DZKABX2ZIR9F0FDMQGPG3LEN12CVN","","<img src=""img/set1/S2.jpg"" width=""540"" height = ""360"">","null","","","","","","","","","",""
"null","","html-keyboard-response","36","228890","0.0-36.0","3OSWBBLG1FJDA1OGD3HKDDW3WMRDX1","A222R4PNCF08OF","3DZKABX2ZIR9F0FDMQGPG3LEN12CVN","","","null","","","","","","","","","",""
"716.1000000238419","","image-keyboard-response","37","229607","0.0-37.0","3OSWBBLG1FJDA1OGD3HKDDW3WMRDX1","A222R4PNCF08OF","3DZKABX2ZIR9F0FDMQGPG3LEN12CVN","","img/set1/S3.jpg","83","3","structured_incentive","72","structured_incentive,structured_load,random,structured_normal","2,3,3,4,2,1","2,1,3,4","false","","",""
"null","","html-keyboard-response","38","229963","0.0-38.0","3OSWBBLG1FJDA1OGD3HKDDW3WMRDX1","A222R4PNCF08OF","3DZKABX2ZIR9F0FDMQGPG3LEN12CVN","","<img src=""img/set1/S3.jpg"" width=""540"" height = ""360"">","null","","","","","","","","","",""
"null","","html-keyboard-response","39","230167","0.0-39.0","3OSWBBLG1FJDA1OGD3HKDDW3WMRDX1","A222R4PNCF08OF","3DZKABX2ZIR9F0FDMQGPG3LEN12CVN","","","null","","","","","","","","","",""
"null","","image-keyboard-response","40","232674","0.0-40.0","3OSWBBLG1FJDA1OGD3HKDDW3WMRDX1","A222R4PNCF08OF","3DZKABX2ZIR9F0FDMQGPG3LEN12CVN","","img/set1/S2.jpg","null","2","structured_incentive","68","structured_incentive,structured_load,random,structured_normal","2,3,3,4,2,1","2,1,3,4","false","","",""
"null","","html-keyboard-response","41","233028","0.0-41.0","3OSWBBLG1FJDA1OGD3HKDDW3WMRDX1","A222R4PNCF08OF","3DZKABX2ZIR9F0FDMQGPG3LEN12CVN","","<img src=""img/set1/S2.jpg"" width=""540"" height = ""360"">","null","","","","","","","","","",""
"null","","html-keyboard-response","42","233231","0.0-42.0","3OSWBBLG1FJDA1OGD3HKDDW3WMRDX1","A222R4PNCF08OF","3DZKABX2ZIR9F0FDMQGPG3LEN12CVN","","","null","","","","","","","","","",""
"521.3000000119209","","image-keyboard-response","43","233754","0.0-43.0","3OSWBBLG1FJDA1OGD3HKDDW3WMRDX1","A222R4PNCF08OF","3DZKABX2ZIR9F0FDMQGPG3LEN12CVN","","img/set1/S3.jpg","83","3","structured_incentive","72","structured_incentive,structured_load,random,structured_normal","2,3,3,4,2,1","2,1,3,4","false","","",""
"null","","html-keyboard-response","44","234108","0.0-44.0","3OSWBBLG1FJDA1OGD3HKDDW3WMRDX1","A222R4PNCF08OF","3DZKABX2ZIR9F0FDMQGPG3LEN12CVN","","<img src=""img/set1/S3.jpg"" width=""540"" height = ""360"">","null","","","","","","","","","",""
"null","","html-keyboard-response","45","234311","0.0-45.0","3OSWBBLG1FJDA1OGD3HKDDW3WMRDX1","A222R4PNCF08OF","3DZKABX2ZIR9F0FDMQGPG3LEN12CVN","","","null","","","","","","","","","",""
"null","","image-keyboard-response","46","236816","0.0-46.0","3OSWBBLG1FJDA1OGD3HKDDW3WMRDX1","A222R4PNCF08OF","3DZKABX2ZIR9F0FDMQGPG3LEN12CVN","","img/set1/S4.jpg","null","4","structured_incentive","74","structured_incentive,structured_load,random,structured_normal","2,3,3,4,2,1","2,1,3,4","false","","",""
"null","","html-keyboard-response","47","237172","0.0-47.0","3OSWBBLG1FJDA1OGD3HKDDW3WMRDX1","A222R4PNCF08OF","3DZKABX2ZIR9F0FDMQGPG3LEN12CVN","","<img src=""img/set1/S4.jpg"" width=""540"" height = ""360"">","null","","","","","","","","","",""
"null","","html-keyboard-response","48","237375","0.0-48.0","3OSWBBLG1FJDA1OGD3HKDDW3WMRDX1","A222R4PNCF08OF","3DZKABX2ZIR9F0FDMQGPG3LEN12CVN","","","null","","","","","","","","","",""
"903.5","","image-keyboard-response","49","238280","0.0-49.0","3OSWBBLG1FJDA1OGD3HKDDW3WMRDX1","A222R4PNCF08OF","3DZKABX2ZIR9F0FDMQGPG3LEN12CVN","","img/set1/S1.jpg","74","1","structured_incentive","83","structured_incentive,structured_load,random,structured_normal","2,3,3,4,2,1","2,1,3,4","false","","",""
"null","","html-keyboard-response","50","238636","0.0-50.0","3OSWBBLG1FJDA1OGD3HKDDW3WMRDX1","A222R4PNCF08OF","3DZKABX2ZIR9F0FDMQGPG3LEN12CVN","","<img src=""img/set1/S1.jpg"" width=""540"" height = ""360"">","null","","","","","","","","","",""
"null","","html-keyboard-response","51","238839","0.0-51.0","3OSWBBLG1FJDA1OGD3HKDDW3WMRDX1","A222R4PNCF08OF","3DZKABX2ZIR9F0FDMQGPG3LEN12CVN","","","null","","","","","","","","","",""
"1335.7000000476837","","image-keyboard-response","52","240176","0.0-52.0","3OSWBBLG1FJDA1OGD3HKDDW3WMRDX1","A222R4PNCF08OF","3DZKABX2ZIR9F0FDMQGPG3LEN12CVN","","img/set1/S4.jpg","72","4","structured_incentive","74","structured_incentive,structured_load,random,structured_normal","2,3,3,4,2,1","2,1,3,4","false","","",""
"null","","html-keyboard-response","53","240532","0.0-53.0","3OSWBBLG1FJDA1OGD3HKDDW3WMRDX1","A222R4PNCF08OF","3DZKABX2ZIR9F0FDMQGPG3LEN12CVN","","<img src=""img/set1/S4.jpg"" width=""540"" height = ""360"">","null","","","","","","","","","",""
"null","","html-keyboard-response","54","240737","0.0-54.0","3OSWBBLG1FJDA1OGD3HKDDW3WMRDX1","A222R4PNCF08OF","3DZKABX2ZIR9F0FDMQGPG3LEN12CVN","","","null","","","","","","","","","",""
"756","","image-keyboard-response","55","241495","0.0-55.0","3OSWBBLG1FJDA1OGD3HKDDW3WMRDX1","A222R4PNCF08OF","3DZKABX2ZIR9F0FDMQGPG3LEN12CVN","","img/set1/S4.jpg","72","4","structured_incentive","74","structured_incentive,structured_load,random,structured_normal","2,3,3,4,2,1","2,1,3,4","false","","",""
"null","","html-keyboard-response","56","241848","0.0-56.0","3OSWBBLG1FJDA1OGD3HKDDW3WMRDX1","A222R4PNCF08OF","3DZKABX2ZIR9F0FDMQGPG3LEN12CVN","","<img src=""img/set1/S4.jpg"" width=""540"" height = ""360"">","null","","","","","","","","","",""
"null","","html-keyboard-response","57","242051","0.0-57.0","3OSWBBLG1FJDA1OGD3HKDDW3WMRDX1","A222R4PNCF08OF","3DZKABX2ZIR9F0FDMQGPG3LEN12CVN","","","null","","","","","","","","","",""
"979.1000000238419","","image-keyboard-response","58","243031","0.0-58.0","3OSWBBLG1FJDA1OGD3HKDDW3WMRDX1","A222R4PNCF08OF","3DZKABX2ZIR9F0FDMQGPG3LEN12CVN","","img/set1/S1.jpg","68","1","structured_incentive","83","structured_incentive,structured_load,random,structured_normal","2,3,3,4,2,1","2,1,3,4","false","","",""
"null","","html-keyboard-response","59","243387","0.0-59.0","3OSWBBLG1FJDA1OGD3HKDDW3WMRDX1","A222R4PNCF08OF","3DZKABX2ZIR9F0FDMQGPG3LEN12CVN","","<img src=""img/set1/S1.jpg"" width=""540"" height = ""360"">","null","","","","","","","","","",""
"null","","html-keyboard-response","60","243593","0.0-60.0","3OSWBBLG1FJDA1OGD3HKDDW3WMRDX1","A222R4PNCF08OF","3DZKABX2ZIR9F0FDMQGPG3LEN12CVN","","","null","","","","","","","","","",""
"1200.6000000238419","","image-keyboard-response","61","244795","0.0-61.0","3OSWBBLG1FJDA1OGD3HKDDW3WMRDX1","A222R4PNCF08OF","3DZKABX2ZIR9F0FDMQGPG3LEN12CVN","","img/set1/S2.jpg","74","2","structured_incentive","68","structured_incentive,structured_load,random,structured_normal","2,3,3,4,2,1","2,1,3,4","false","","",""
"null","","html-keyboard-response","62","245148","0.0-62.0","3OSWBBLG1FJDA1OGD3HKDDW3WMRDX1","A222R4PNCF08OF","3DZKABX2ZIR9F0FDMQGPG3LEN12CVN","","<img src=""img/set1/S2.jpg"" width=""540"" height = ""360"">","null","","","","","","","","","",""
"null","","html-keyboard-response","63","245352","0.0-63.0","3OSWBBLG1FJDA1OGD3HKDDW3WMRDX1","A222R4PNCF08OF","3DZKABX2ZIR9F0FDMQGPG3LEN12CVN","","","null","","","","","","","","","",""
"713.6000000238419","","image-keyboard-response","64","246066","0.0-64.0","3OSWBBLG1FJDA1OGD3HKDDW3WMRDX1","A222R4PNCF08OF","3DZKABX2ZIR9F0FDMQGPG3LEN12CVN","","img/set1/S3.jpg","83","3","structured_incentive","72","structured_incentive,structured_load,random,structured_normal","2,3,3,4,2,1","2,1,3,4","false","","",""
"null","","html-keyboard-response","65","246420","0.0-65.0","3OSWBBLG1FJDA1OGD3HKDDW3WMRDX1","A222R4PNCF08OF","3DZKABX2ZIR9F0FDMQGPG3LEN12CVN","","<img src=""img/set1/S3.jpg"" width=""540"" height = ""360"">","null","","","","","","","","","",""
"null","","html-keyboard-response","66","246625","0.0-66.0","3OSWBBLG1FJDA1OGD3HKDDW3WMRDX1","A222R4PNCF08OF","3DZKABX2ZIR9F0FDMQGPG3LEN12CVN","","","null","","","","","","","","","",""
"816.1999999880791","","image-keyboard-response","67","247443","0.0-67.0","3OSWBBLG1FJDA1OGD3HKDDW3WMRDX1","A222R4PNCF08OF","3DZKABX2ZIR9F0FDMQGPG3LEN12CVN","","img/set1/S4.jpg","74","4","structured_incentive","74","structured_incentive,structured_load,random,structured_normal","2,3,3,4,2,1","2,1,3,4","true","","",""
"null","","html-keyboard-response","68","247795","0.0-68.0","3OSWBBLG1FJDA1OGD3HKDDW3WMRDX1","A222R4PNCF08OF","3DZKABX2ZIR9F0FDMQGPG3LEN12CVN","","<img src=""img/set1/S4.jpg"" width=""540"" height = ""360"" style=""border:16px solid orange"">","null","","","","","","","","","",""
"null","","html-keyboard-response","69","247999","0.0-69.0","3OSWBBLG1FJDA1OGD3HKDDW3WMRDX1","A222R4PNCF08OF","3DZKABX2ZIR9F0FDMQGPG3LEN12CVN","","","null","","","","","","","","","",""
"1069.5","","image-keyboard-response","70","249071","0.0-70.0","3OSWBBLG1FJDA1OGD3HKDDW3WMRDX1","A222R4PNCF08OF","3DZKABX2ZIR9F0FDMQGPG3LEN12CVN","","img/set1/S4.jpg","74","4","structured_incentive","74","structured_incentive,structured_load,random,structured_normal","2,3,3,4,2,1","2,1,3,4","true","","",""
"null","","html-keyboard-response","71","249427","0.0-71.0","3OSWBBLG1FJDA1OGD3HKDDW3WMRDX1","A222R4PNCF08OF","3DZKABX2ZIR9F0FDMQGPG3LEN12CVN","","<img src=""img/set1/S4.jpg"" width=""540"" height = ""360"" style=""border:16px solid orange"">","null","","","","","","","","","",""
"null","","html-keyboard-response","72","249632","0.0-72.0","3OSWBBLG1FJDA1OGD3HKDDW3WMRDX1","A222R4PNCF08OF","3DZKABX2ZIR9F0FDMQGPG3LEN12CVN","","","null","","","","","","","","","",""
"893","","image-keyboard-response","73","250526","0.0-73.0","3OSWBBLG1FJDA1OGD3HKDDW3WMRDX1","A222R4PNCF08OF","3DZKABX2ZIR9F0FDMQGPG3LEN12CVN","","img/set1/S2.jpg","72","2","structured_incentive","68","structured_incentive,structured_load,random,structured_normal","2,3,3,4,2,1","2,1,3,4","false","","",""
"null","","html-keyboard-response","74","250878","0.0-74.0","3OSWBBLG1FJDA1OGD3HKDDW3WMRDX1","A222R4PNCF08OF","3DZKABX2ZIR9F0FDMQGPG3LEN12CVN","","<img src=""img/set1/S2.jpg"" width=""540"" height = ""360"">","null","","","","","","","","","",""
"null","","html-keyboard-response","75","251083","0.0-75.0","3OSWBBLG1FJDA1OGD3HKDDW3WMRDX1","A222R4PNCF08OF","3DZKABX2ZIR9F0FDMQGPG3LEN12CVN","","","null","","","","","","","","","",""
"1135.3999999761581","","image-keyboard-response","76","252220","0.0-76.0","3OSWBBLG1FJDA1OGD3HKDDW3WMRDX1","A222R4PNCF08OF","3DZKABX2ZIR9F0FDMQGPG3LEN12CVN","","img/set1/S3.jpg","68","3","structured_incentive","72","structured_incentive,structured_load,random,structured_normal","2,3,3,4,2,1","2,1,3,4","false","","",""
"null","","html-keyboard-response","77","252575","0.0-77.0","3OSWBBLG1FJDA1OGD3HKDDW3WMRDX1","A222R4PNCF08OF","3DZKABX2ZIR9F0FDMQGPG3LEN12CVN","","<img src=""img/set1/S3.jpg"" width=""540"" height = ""360"">","null","","","","","","","","","",""
"null","","html-keyboard-response","78","252778","0.0-78.0","3OSWBBLG1FJDA1OGD3HKDDW3WMRDX1","A222R4PNCF08OF","3DZKABX2ZIR9F0FDMQGPG3LEN12CVN","","","null","","","","","","","","","",""
"755.6999999880791","","image-keyboard-response","79","253535","0.0-79.0","3OSWBBLG1FJDA1OGD3HKDDW3WMRDX1","A222R4PNCF08OF","3DZKABX2ZIR9F0FDMQGPG3LEN12CVN","","img/set1/S1.jpg","83","1","structured_incentive","83","structured_incentive,structured_load,random,structured_normal","2,3,3,4,2,1","2,1,3,4","true","","",""
"null","","html-keyboard-response","80","253886","0.0-80.0","3OSWBBLG1FJDA1OGD3HKDDW3WMRDX1","A222R4PNCF08OF","3DZKABX2ZIR9F0FDMQGPG3LEN12CVN","","<img src=""img/set1/S1.jpg"" width=""540"" height = ""360"" style=""border:16px solid orange"">","null","","","","","","","","","",""
"null","","html-keyboard-response","81","254088","0.0-81.0","3OSWBBLG1FJDA1OGD3HKDDW3WMRDX1","A222R4PNCF08OF","3DZKABX2ZIR9F0FDMQGPG3LEN12CVN","","","null","","","","","","","","","",""
"1285.199999988079","","image-keyboard-response","82","255374","0.0-82.0","3OSWBBLG1FJDA1OGD3HKDDW3WMRDX1","A222R4PNCF08OF","3DZKABX2ZIR9F0FDMQGPG3LEN12CVN","","img/set1/S2.jpg","74","2","structured_incentive","68","structured_incentive,structured_load,random,structured_normal","2,3,3,4,2,1","2,1,3,4","false","","",""
"null","","html-keyboard-response","83","255727","0.0-83.0","3OSWBBLG1FJDA1OGD3HKDDW3WMRDX1","A222R4PNCF08OF","3DZKABX2ZIR9F0FDMQGPG3LEN12CVN","","<img src=""img/set1/S2.jpg"" width=""540"" height = ""360"">","null","","","","","","","","","",""
"null","","html-keyboard-response","84","255932","0.0-84.0","3OSWBBLG1FJDA1OGD3HKDDW3WMRDX1","A222R4PNCF08OF","3DZKABX2ZIR9F0FDMQGPG3LEN12CVN","","","null","","","","","","","","","",""
"783.1999999880791","","image-keyboard-response","85","256716","0.0-85.0","3OSWBBLG1FJDA1OGD3HKDDW3WMRDX1","A222R4PNCF08OF","3DZKABX2ZIR9F0FDMQGPG3LEN12CVN","","img/set1/S3.jpg","83","3","structured_incentive","72","structured_incentive,structured_load,random,structured_normal","2,3,3,4,2,1","2,1,3,4","false","","",""
"null","","html-keyboard-response","86","257071","0.0-86.0","3OSWBBLG1FJDA1OGD3HKDDW3WMRDX1","A222R4PNCF08OF","3DZKABX2ZIR9F0FDMQGPG3LEN12CVN","","<img src=""img/set1/S3.jpg"" width=""540"" height = ""360"">","null","","","","","","","","","",""
"null","","html-keyboard-response","87","257275","0.0-87.0","3OSWBBLG1FJDA1OGD3HKDDW3WMRDX1","A222R4PNCF08OF","3DZKABX2ZIR9F0FDMQGPG3LEN12CVN","","","null","","","","","","","","","",""
"994.8000000119209","","image-keyboard-response","88","258271","0.0-88.0","3OSWBBLG1FJDA1OGD3HKDDW3WMRDX1","A222R4PNCF08OF","3DZKABX2ZIR9F0FDMQGPG3LEN12CVN","","img/set1/S4.jpg","83","4","structured_incentive","74","structured_incentive,structured_load,random,structured_normal","2,3,3,4,2,1","2,1,3,4","false","","",""
"null","","html-keyboard-response","89","258628","0.0-89.0","3OSWBBLG1FJDA1OGD3HKDDW3WMRDX1","A222R4PNCF08OF","3DZKABX2ZIR9F0FDMQGPG3LEN12CVN","","<img src=""img/set1/S4.jpg"" width=""540"" height = ""360"">","null","","","","","","","","","",""
"null","","html-keyboard-response","90","258831","0.0-90.0","3OSWBBLG1FJDA1OGD3HKDDW3WMRDX1","A222R4PNCF08OF","3DZKABX2ZIR9F0FDMQGPG3LEN12CVN","","","null","","","","","","","","","",""
"655.4000000357628","","image-keyboard-response","91","259488","0.0-91.0","3OSWBBLG1FJDA1OGD3HKDDW3WMRDX1","A222R4PNCF08OF","3DZKABX2ZIR9F0FDMQGPG3LEN12CVN","","img/set1/S1.jpg","83","1","structured_incentive","83","structured_incentive,structured_load,random,structured_normal","2,3,3,4,2,1","2,1,3,4","true","","",""
"null","","html-keyboard-response","92","259844","0.0-92.0","3OSWBBLG1FJDA1OGD3HKDDW3WMRDX1","A222R4PNCF08OF","3DZKABX2ZIR9F0FDMQGPG3LEN12CVN","","<img src=""img/set1/S1.jpg"" width=""540"" height = ""360"" style=""border:16px solid orange"">","null","","","","","","","","","",""
"null","","html-keyboard-response","93","260050","0.0-93.0","3OSWBBLG1FJDA1OGD3HKDDW3WMRDX1","A222R4PNCF08OF","3DZKABX2ZIR9F0FDMQGPG3LEN12CVN","","","null","","","","","","","","","",""
"591.5","","image-keyboard-response","94","260642","0.0-94.0","3OSWBBLG1FJDA1OGD3HKDDW3WMRDX1","A222R4PNCF08OF","3DZKABX2ZIR9F0FDMQGPG3LEN12CVN","","img/set1/S1.jpg","83","1","structured_incentive","83","structured_incentive,structured_load,random,structured_normal","2,3,3,4,2,1","2,1,3,4","true","","",""
"null","","html-keyboard-response","95","260996","0.0-95.0","3OSWBBLG1FJDA1OGD3HKDDW3WMRDX1","A222R4PNCF08OF","3DZKABX2ZIR9F0FDMQGPG3LEN12CVN","","<img src=""img/set1/S1.jpg"" width=""540"" height = ""360"" style=""border:16px solid orange"">","null","","","","","","","","","",""
"null","","html-keyboard-response","96","261199","0.0-96.0","3OSWBBLG1FJDA1OGD3HKDDW3WMRDX1","A222R4PNCF08OF","3DZKABX2ZIR9F0FDMQGPG3LEN12CVN","","","null","","","","","","","","","",""
"731.9000000357628","","image-keyboard-response","97","261932","0.0-97.0","3OSWBBLG1FJDA1OGD3HKDDW3WMRDX1","A222R4PNCF08OF","3DZKABX2ZIR9F0FDMQGPG3LEN12CVN","","img/set1/S2.jpg","68","2","structured_incentive","68","structured_incentive,structured_load,random,structured_normal","2,3,3,4,2,1","2,1,3,4","true","","",""
"null","","html-keyboard-response","98","262287","0.0-98.0","3OSWBBLG1FJDA1OGD3HKDDW3WMRDX1","A222R4PNCF08OF","3DZKABX2ZIR9F0FDMQGPG3LEN12CVN","","<img src=""img/set1/S2.jpg"" width=""540"" height = ""360"" style=""border:16px solid orange"">","null","","","","","","","","","",""
"null","","html-keyboard-response","99","262491","0.0-99.0","3OSWBBLG1FJDA1OGD3HKDDW3WMRDX1","A222R4PNCF08OF","3DZKABX2ZIR9F0FDMQGPG3LEN12CVN","","","null","","","","","","","","","",""
"1044.699999988079","","image-keyboard-response","100","263536","0.0-100.0","3OSWBBLG1FJDA1OGD3HKDDW3WMRDX1","A222R4PNCF08OF","3DZKABX2ZIR9F0FDMQGPG3LEN12CVN","","img/set1/S3.jpg","72","3","structured_incentive","72","structured_incentive,structured_load,random,structured_normal","2,3,3,4,2,1","2,1,3,4","true","","",""
"null","","html-keyboard-response","101","263893","0.0-101.0","3OSWBBLG1FJDA1OGD3HKDDW3WMRDX1","A222R4PNCF08OF","3DZKABX2ZIR9F0FDMQGPG3LEN12CVN","","<img src=""img/set1/S3.jpg"" width=""540"" height = ""360"" style=""border:16px solid Violet"">","null","","","","","","","","","",""
"null","","html-keyboard-response","102","264096","0.0-102.0","3OSWBBLG1FJDA1OGD3HKDDW3WMRDX1","A222R4PNCF08OF","3DZKABX2ZIR9F0FDMQGPG3LEN12CVN","","","null","","","","","","","","","",""
"949.6999999880791","","image-keyboard-response","103","265047","0.0-103.0","3OSWBBLG1FJDA1OGD3HKDDW3WMRDX1","A222R4PNCF08OF","3DZKABX2ZIR9F0FDMQGPG3LEN12CVN","","img/set1/S2.jpg","74","2","structured_incentive","68","structured_incentive,structured_load,random,structured_normal","2,3,3,4,2,1","2,1,3,4","false","","",""
"null","","html-keyboard-response","104","265402","0.0-104.0","3OSWBBLG1FJDA1OGD3HKDDW3WMRDX1","A222R4PNCF08OF","3DZKABX2ZIR9F0FDMQGPG3LEN12CVN","","<img src=""img/set1/S2.jpg"" width=""540"" height = ""360"">","null","","","","","","","","","",""
"null","","html-keyboard-response","105","265608","0.0-105.0","3OSWBBLG1FJDA1OGD3HKDDW3WMRDX1","A222R4PNCF08OF","3DZKABX2ZIR9F0FDMQGPG3LEN12CVN","","","null","","","","","","","","","",""
"716.6000000238419","","image-keyboard-response","106","266326","0.0-106.0","3OSWBBLG1FJDA1OGD3HKDDW3WMRDX1","A222R4PNCF08OF","3DZKABX2ZIR9F0FDMQGPG3LEN12CVN","","img/set1/S3.jpg","72","3","structured_incentive","72","structured_incentive,structured_load,random,structured_normal","2,3,3,4,2,1","2,1,3,4","true","","",""
"null","","html-keyboard-response","107","266679","0.0-107.0","3OSWBBLG1FJDA1OGD3HKDDW3WMRDX1","A222R4PNCF08OF","3DZKABX2ZIR9F0FDMQGPG3LEN12CVN","","<img src=""img/set1/S3.jpg"" width=""540"" height = ""360"" style=""border:16px solid Violet"">","null","","","","","","","","","",""
"null","","html-keyboard-response","108","266883","0.0-108.0","3OSWBBLG1FJDA1OGD3HKDDW3WMRDX1","A222R4PNCF08OF","3DZKABX2ZIR9F0FDMQGPG3LEN12CVN","","","null","","","","","","","","","",""
"629.8000000119209","","image-keyboard-response","109","267514","0.0-109.0","3OSWBBLG1FJDA1OGD3HKDDW3WMRDX1","A222R4PNCF08OF","3DZKABX2ZIR9F0FDMQGPG3LEN12CVN","","img/set1/S1.jpg","68","1","structured_incentive","83","structured_incentive,structured_load,random,structured_normal","2,3,3,4,2,1","2,1,3,4","false","","",""
"null","","html-keyboard-response","110","267866","0.0-110.0","3OSWBBLG1FJDA1OGD3HKDDW3WMRDX1","A222R4PNCF08OF","3DZKABX2ZIR9F0FDMQGPG3LEN12CVN","","<img src=""img/set1/S1.jpg"" width=""540"" height = ""360"">","null","","","","","","","","","",""
"null","","html-keyboard-response","111","268072","0.0-111.0","3OSWBBLG1FJDA1OGD3HKDDW3WMRDX1","A222R4PNCF08OF","3DZKABX2ZIR9F0FDMQGPG3LEN12CVN","","","null","","","","","","","","","",""
"1326.199999988079","","image-keyboard-response","112","269399","0.0-112.0","3OSWBBLG1FJDA1OGD3HKDDW3WMRDX1","A222R4PNCF08OF","3DZKABX2ZIR9F0FDMQGPG3LEN12CVN","","img/set1/S2.jpg","83","2","structured_incentive","68","structured_incentive,structured_load,random,structured_normal","2,3,3,4,2,1","2,1,3,4","false","","",""
"null","","html-keyboard-response","113","269755","0.0-113.0","3OSWBBLG1FJDA1OGD3HKDDW3WMRDX1","A222R4PNCF08OF","3DZKABX2ZIR9F0FDMQGPG3LEN12CVN","","<img src=""img/set1/S2.jpg"" width=""540"" height = ""360"">","null","","","","","","","","","",""
"null","","html-keyboard-response","114","269959","0.0-114.0","3OSWBBLG1FJDA1OGD3HKDDW3WMRDX1","A222R4PNCF08OF","3DZKABX2ZIR9F0FDMQGPG3LEN12CVN","","","null","","","","","","","","","",""
"943.4000000357628","","image-keyboard-response","115","270904","0.0-115.0","3OSWBBLG1FJDA1OGD3HKDDW3WMRDX1","A222R4PNCF08OF","3DZKABX2ZIR9F0FDMQGPG3LEN12CVN","","img/set1/S3.jpg","72","3","structured_incentive","72","structured_incentive,structured_load,random,structured_normal","2,3,3,4,2,1","2,1,3,4","true","","",""
"null","","html-keyboard-response","116","271259","0.0-116.0","3OSWBBLG1FJDA1OGD3HKDDW3WMRDX1","A222R4PNCF08OF","3DZKABX2ZIR9F0FDMQGPG3LEN12CVN","","<img src=""img/set1/S3.jpg"" width=""540"" height = ""360"" style=""border:16px solid Violet"">","null","","","","","","","","","",""
"null","","html-keyboard-response","117","271463","0.0-117.0","3OSWBBLG1FJDA1OGD3HKDDW3WMRDX1","A222R4PNCF08OF","3DZKABX2ZIR9F0FDMQGPG3LEN12CVN","","","null","","","","","","","","","",""
"1212.300000011921","","image-keyboard-response","118","272676","0.0-118.0","3OSWBBLG1FJDA1OGD3HKDDW3WMRDX1","A222R4PNCF08OF","3DZKABX2ZIR9F0FDMQGPG3LEN12CVN","","img/set1/S2.jpg","83","2","structured_incentive","68","structured_incentive,structured_load,random,structured_normal","2,3,3,4,2,1","2,1,3,4","false","","",""
"null","","html-keyboard-response","119","273031","0.0-119.0","3OSWBBLG1FJDA1OGD3HKDDW3WMRDX1","A222R4PNCF08OF","3DZKABX2ZIR9F0FDMQGPG3LEN12CVN","","<img src=""img/set1/S2.jpg"" width=""540"" height = ""360"">","null","","","","","","","","","",""
"null","","html-keyboard-response","120","273236","0.0-120.0","3OSWBBLG1FJDA1OGD3HKDDW3WMRDX1","A222R4PNCF08OF","3DZKABX2ZIR9F0FDMQGPG3LEN12CVN","","","null","","","","","","","","","",""
"954.8999999761581","","image-keyboard-response","121","274192","0.0-121.0","3OSWBBLG1FJDA1OGD3HKDDW3WMRDX1","A222R4PNCF08OF","3DZKABX2ZIR9F0FDMQGPG3LEN12CVN","","img/set1/S3.jpg","72","3","structured_incentive","72","structured_incentive,structured_load,random,structured_normal","2,3,3,4,2,1","2,1,3,4","true","","",""
"null","","html-keyboard-response","122","274545","0.0-122.0","3OSWBBLG1FJDA1OGD3HKDDW3WMRDX1","A222R4PNCF08OF","3DZKABX2ZIR9F0FDMQGPG3LEN12CVN","","<img src=""img/set1/S3.jpg"" width=""540"" height = ""360"" style=""border:16px solid Violet"">","null","","","","","","","","","",""
"null","","html-keyboard-response","123","274748","0.0-123.0","3OSWBBLG1FJDA1OGD3HKDDW3WMRDX1","A222R4PNCF08OF","3DZKABX2ZIR9F0FDMQGPG3LEN12CVN","","","null","","","","","","","","","",""
"770.3999999761581","","image-keyboard-response","124","275520","0.0-124.0","3OSWBBLG1FJDA1OGD3HKDDW3WMRDX1","A222R4PNCF08OF","3DZKABX2ZIR9F0FDMQGPG3LEN12CVN","","img/set1/S4.jpg","68","4","structured_incentive","74","structured_incentive,structured_load,random,structured_normal","2,3,3,4,2,1","2,1,3,4","false","","",""
"null","","html-keyboard-response","125","275875","0.0-125.0","3OSWBBLG1FJDA1OGD3HKDDW3WMRDX1","A222R4PNCF08OF","3DZKABX2ZIR9F0FDMQGPG3LEN12CVN","","<img src=""img/set1/S4.jpg"" width=""540"" height = ""360"">","null","","","","","","","","","",""
"null","","html-keyboard-response","126","276080","0.0-126.0","3OSWBBLG1FJDA1OGD3HKDDW3WMRDX1","A222R4PNCF08OF","3DZKABX2ZIR9F0FDMQGPG3LEN12CVN","","","null","","","","","","","","","",""
"603.5","","image-keyboard-response","127","276684","0.0-127.0","3OSWBBLG1FJDA1OGD3HKDDW3WMRDX1","A222R4PNCF08OF","3DZKABX2ZIR9F0FDMQGPG3LEN12CVN","","img/set1/S4.jpg","74","4","structured_incentive","74","structured_incentive,structured_load,random,structured_normal","2,3,3,4,2,1","2,1,3,4","true","","",""
"null","","html-keyboard-response","128","277039","0.0-128.0","3OSWBBLG1FJDA1OGD3HKDDW3WMRDX1","A222R4PNCF08OF","3DZKABX2ZIR9F0FDMQGPG3LEN12CVN","","<img src=""img/set1/S4.jpg"" width=""540"" height = ""360"" style=""border:16px solid orange"">","null","","","","","","","","","",""
"null","","html-keyboard-response","129","277244","0.0-129.0","3OSWBBLG1FJDA1OGD3HKDDW3WMRDX1","A222R4PNCF08OF","3DZKABX2ZIR9F0FDMQGPG3LEN12CVN","","","null","","","","","","","","","",""
"936.5999999642372","","image-keyboard-response","130","278182","0.0-130.0","3OSWBBLG1FJDA1OGD3HKDDW3WMRDX1","A222R4PNCF08OF","3DZKABX2ZIR9F0FDMQGPG3LEN12CVN","","img/set1/S2.jpg","68","2","structured_incentive","68","structured_incentive,structured_load,random,structured_normal","2,3,3,4,2,1","2,1,3,4","true","","",""
"null","","html-keyboard-response","131","278534","0.0-131.0","3OSWBBLG1FJDA1OGD3HKDDW3WMRDX1","A222R4PNCF08OF","3DZKABX2ZIR9F0FDMQGPG3LEN12CVN","","<img src=""img/set1/S2.jpg"" width=""540"" height = ""360"" style=""border:16px solid orange"">","null","","","","","","","","","",""
"null","","html-keyboard-response","132","278737","0.0-132.0","3OSWBBLG1FJDA1OGD3HKDDW3WMRDX1","A222R4PNCF08OF","3DZKABX2ZIR9F0FDMQGPG3LEN12CVN","","","null","","","","","","","","","",""
"776.4000000357628","","image-keyboard-response","133","279515","0.0-133.0","3OSWBBLG1FJDA1OGD3HKDDW3WMRDX1","A222R4PNCF08OF","3DZKABX2ZIR9F0FDMQGPG3LEN12CVN","","img/set1/S3.jpg","72","3","structured_incentive","72","structured_incentive,structured_load,random,structured_normal","2,3,3,4,2,1","2,1,3,4","true","","",""
"null","","html-keyboard-response","134","279868","0.0-134.0","3OSWBBLG1FJDA1OGD3HKDDW3WMRDX1","A222R4PNCF08OF","3DZKABX2ZIR9F0FDMQGPG3LEN12CVN","","<img src=""img/set1/S3.jpg"" width=""540"" height = ""360"" style=""border:16px solid Violet"">","null","","","","","","","","","",""
"null","","html-keyboard-response","135","280071","0.0-135.0","3OSWBBLG1FJDA1OGD3HKDDW3WMRDX1","A222R4PNCF08OF","3DZKABX2ZIR9F0FDMQGPG3LEN12CVN","","","null","","","","","","","","","",""
"640.8000000119209","","image-keyboard-response","136","280714","0.0-136.0","3OSWBBLG1FJDA1OGD3HKDDW3WMRDX1","A222R4PNCF08OF","3DZKABX2ZIR9F0FDMQGPG3LEN12CVN","","img/set1/S1.jpg","83","1","structured_incentive","83","structured_incentive,structured_load,random,structured_normal","2,3,3,4,2,1","2,1,3,4","true","","",""
"null","","html-keyboard-response","137","281069","0.0-137.0","3OSWBBLG1FJDA1OGD3HKDDW3WMRDX1","A222R4PNCF08OF","3DZKABX2ZIR9F0FDMQGPG3LEN12CVN","","<img src=""img/set1/S1.jpg"" width=""540"" height = ""360"" style=""border:16px solid orange"">","null","","","","","","","","","",""
"null","","html-keyboard-response","138","281273","0.0-138.0","3OSWBBLG1FJDA1OGD3HKDDW3WMRDX1","A222R4PNCF08OF","3DZKABX2ZIR9F0FDMQGPG3LEN12CVN","","","null","","","","","","","","","",""
"927.3000000119209","","image-keyboard-response","139","282201","0.0-139.0","3OSWBBLG1FJDA1OGD3HKDDW3WMRDX1","A222R4PNCF08OF","3DZKABX2ZIR9F0FDMQGPG3LEN12CVN","","img/set1/S4.jpg","74","4","structured_incentive","74","structured_incentive,structured_load,random,structured_normal","2,3,3,4,2,1","2,1,3,4","true","","",""
"null","","html-keyboard-response","140","282556","0.0-140.0","3OSWBBLG1FJDA1OGD3HKDDW3WMRDX1","A222R4PNCF08OF","3DZKABX2ZIR9F0FDMQGPG3LEN12CVN","","<img src=""img/set1/S4.jpg"" width=""540"" height = ""360"" style=""border:16px solid orange"">","null","","","","","","","","","",""
"null","","html-keyboard-response","141","282759","0.0-141.0","3OSWBBLG1FJDA1OGD3HKDDW3WMRDX1","A222R4PNCF08OF","3DZKABX2ZIR9F0FDMQGPG3LEN12CVN","","","null","","","","","","","","","",""
"814.4000000357628","","image-keyboard-response","142","283574","0.0-142.0","3OSWBBLG1FJDA1OGD3HKDDW3WMRDX1","A222R4PNCF08OF","3DZKABX2ZIR9F0FDMQGPG3LEN12CVN","","img/set1/S1.jpg","68","1","structured_incentive","83","structured_incentive,structured_load,random,structured_normal","2,3,3,4,2,1","2,1,3,4","false","","",""
"null","","html-keyboard-response","143","283928","0.0-143.0","3OSWBBLG1FJDA1OGD3HKDDW3WMRDX1","A222R4PNCF08OF","3DZKABX2ZIR9F0FDMQGPG3LEN12CVN","","<img src=""img/set1/S1.jpg"" width=""540"" height = ""360"">","null","","","","","","","","","",""
"null","","html-keyboard-response","144","284131","0.0-144.0","3OSWBBLG1FJDA1OGD3HKDDW3WMRDX1","A222R4PNCF08OF","3DZKABX2ZIR9F0FDMQGPG3LEN12CVN","","","null","","","","","","","","","",""
"1140.3999999761581","","image-keyboard-response","145","285273","0.0-145.0","3OSWBBLG1FJDA1OGD3HKDDW3WMRDX1","A222R4PNCF08OF","3DZKABX2ZIR9F0FDMQGPG3LEN12CVN","","img/set1/S2.jpg","74","2","structured_incentive","68","structured_incentive,structured_load,random,structured_normal","2,3,3,4,2,1","2,1,3,4","false","","",""
"null","","html-keyboard-response","146","285627","0.0-146.0","3OSWBBLG1FJDA1OGD3HKDDW3WMRDX1","A222R4PNCF08OF","3DZKABX2ZIR9F0FDMQGPG3LEN12CVN","","<img src=""img/set1/S2.jpg"" width=""540"" height = ""360"">","null","","","","","","","","","",""
"null","","html-keyboard-response","147","285831","0.0-147.0","3OSWBBLG1FJDA1OGD3HKDDW3WMRDX1","A222R4PNCF08OF","3DZKABX2ZIR9F0FDMQGPG3LEN12CVN","","","null","","","","","","","","","",""
"854.1000000238419","","image-keyboard-response","148","286687","0.0-148.0","3OSWBBLG1FJDA1OGD3HKDDW3WMRDX1","A222R4PNCF08OF","3DZKABX2ZIR9F0FDMQGPG3LEN12CVN","","img/set1/S3.jpg","72","3","structured_incentive","72","structured_incentive,structured_load,random,structured_normal","2,3,3,4,2,1","2,1,3,4","true","","",""
"null","","html-keyboard-response","149","287043","0.0-149.0","3OSWBBLG1FJDA1OGD3HKDDW3WMRDX1","A222R4PNCF08OF","3DZKABX2ZIR9F0FDMQGPG3LEN12CVN","","<img src=""img/set1/S3.jpg"" width=""540"" height = ""360"" style=""border:16px solid Violet"">","null","","","","","","","","","",""
"null","","html-keyboard-response","150","287247","0.0-150.0","3OSWBBLG1FJDA1OGD3HKDDW3WMRDX1","A222R4PNCF08OF","3DZKABX2ZIR9F0FDMQGPG3LEN12CVN","","","null","","","","","","","","","",""
"797","","image-keyboard-response","151","288046","0.0-151.0","3OSWBBLG1FJDA1OGD3HKDDW3WMRDX1","A222R4PNCF08OF","3DZKABX2ZIR9F0FDMQGPG3LEN12CVN","","img/set1/S2.jpg","83","2","structured_incentive","68","structured_incentive,structured_load,random,structured_normal","2,3,3,4,2,1","2,1,3,4","false","","",""
"null","","html-keyboard-response","152","288402","0.0-152.0","3OSWBBLG1FJDA1OGD3HKDDW3WMRDX1","A222R4PNCF08OF","3DZKABX2ZIR9F0FDMQGPG3LEN12CVN","","<img src=""img/set1/S2.jpg"" width=""540"" height = ""360"">","null","","","","","","","","","",""
"null","","html-keyboard-response","153","288604","0.0-153.0","3OSWBBLG1FJDA1OGD3HKDDW3WMRDX1","A222R4PNCF08OF","3DZKABX2ZIR9F0FDMQGPG3LEN12CVN","","","null","","","","","","","","","",""
"836.0999999642372","","image-keyboard-response","154","289442","0.0-154.0","3OSWBBLG1FJDA1OGD3HKDDW3WMRDX1","A222R4PNCF08OF","3DZKABX2ZIR9F0FDMQGPG3LEN12CVN","","img/set1/S3.jpg","72","3","structured_incentive","72","structured_incentive,structured_load,random,structured_normal","2,3,3,4,2,1","2,1,3,4","true","","",""
"null","","html-keyboard-response","155","289795","0.0-155.0","3OSWBBLG1FJDA1OGD3HKDDW3WMRDX1","A222R4PNCF08OF","3DZKABX2ZIR9F0FDMQGPG3LEN12CVN","","<img src=""img/set1/S3.jpg"" width=""540"" height = ""360"" style=""border:16px solid Violet"">","null","","","","","","","","","",""
"null","","html-keyboard-response","156","289999","0.0-156.0","3OSWBBLG1FJDA1OGD3HKDDW3WMRDX1","A222R4PNCF08OF","3DZKABX2ZIR9F0FDMQGPG3LEN12CVN","","","null","","","","","","","","","",""
"765.1000000238419","","image-keyboard-response","157","290766","0.0-157.0","3OSWBBLG1FJDA1OGD3HKDDW3WMRDX1","A222R4PNCF08OF","3DZKABX2ZIR9F0FDMQGPG3LEN12CVN","","img/set1/S2.jpg","68","2","structured_incentive","68","structured_incentive,structured_load,random,structured_normal","2,3,3,4,2,1","2,1,3,4","true","","",""
"null","","html-keyboard-response","158","291119","0.0-158.0","3OSWBBLG1FJDA1OGD3HKDDW3WMRDX1","A222R4PNCF08OF","3DZKABX2ZIR9F0FDMQGPG3LEN12CVN","","<img src=""img/set1/S2.jpg"" width=""540"" height = ""360"" style=""border:16px solid orange"">","null","","","","","","","","","",""
"null","","html-keyboard-response","159","291323","0.0-159.0","3OSWBBLG1FJDA1OGD3HKDDW3WMRDX1","A222R4PNCF08OF","3DZKABX2ZIR9F0FDMQGPG3LEN12CVN","","","null","","","","","","","","","",""
"735.8999999761581","","image-keyboard-response","160","292060","0.0-160.0","3OSWBBLG1FJDA1OGD3HKDDW3WMRDX1","A222R4PNCF08OF","3DZKABX2ZIR9F0FDMQGPG3LEN12CVN","","img/set1/S3.jpg","72","3","structured_incentive","72","structured_incentive,structured_load,random,structured_normal","2,3,3,4,2,1","2,1,3,4","true","","",""
"null","","html-keyboard-response","161","292416","0.0-161.0","3OSWBBLG1FJDA1OGD3HKDDW3WMRDX1","A222R4PNCF08OF","3DZKABX2ZIR9F0FDMQGPG3LEN12CVN","","<img src=""img/set1/S3.jpg"" width=""540"" height = ""360"" style=""border:16px solid Violet"">","null","","","","","","","","","",""
"null","","html-keyboard-response","162","292622","0.0-162.0","3OSWBBLG1FJDA1OGD3HKDDW3WMRDX1","A222R4PNCF08OF","3DZKABX2ZIR9F0FDMQGPG3LEN12CVN","","","null","","","","","","","","","",""
"685.1000000238419","","image-keyboard-response","163","293308","0.0-163.0","3OSWBBLG1FJDA1OGD3HKDDW3WMRDX1","A222R4PNCF08OF","3DZKABX2ZIR9F0FDMQGPG3LEN12CVN","","img/set1/S2.jpg","68","2","structured_incentive","68","structured_incentive,structured_load,random,structured_normal","2,3,3,4,2,1","2,1,3,4","true","","",""
"null","","html-keyboard-response","164","293664","0.0-164.0","3OSWBBLG1FJDA1OGD3HKDDW3WMRDX1","A222R4PNCF08OF","3DZKABX2ZIR9F0FDMQGPG3LEN12CVN","","<img src=""img/set1/S2.jpg"" width=""540"" height = ""360"" style=""border:16px solid orange"">","null","","","","","","","","","",""
"null","","html-keyboard-response","165","293870","0.0-165.0","3OSWBBLG1FJDA1OGD3HKDDW3WMRDX1","A222R4PNCF08OF","3DZKABX2ZIR9F0FDMQGPG3LEN12CVN","","","null","","","","","","","","","",""
"767.5999999642372","","image-keyboard-response","166","294639","0.0-166.0","3OSWBBLG1FJDA1OGD3HKDDW3WMRDX1","A222R4PNCF08OF","3DZKABX2ZIR9F0FDMQGPG3LEN12CVN","","img/set1/S3.jpg","72","3","structured_incentive","72","structured_incentive,structured_load,random,structured_normal","2,3,3,4,2,1","2,1,3,4","true","","",""
"null","","html-keyboard-response","167","294995","0.0-167.0","3OSWBBLG1FJDA1OGD3HKDDW3WMRDX1","A222R4PNCF08OF","3DZKABX2ZIR9F0FDMQGPG3LEN12CVN","","<img src=""img/set1/S3.jpg"" width=""540"" height = ""360"" style=""border:16px solid Violet"">","null","","","","","","","","","",""
"null","","html-keyboard-response","168","295199","0.0-168.0","3OSWBBLG1FJDA1OGD3HKDDW3WMRDX1","A222R4PNCF08OF","3DZKABX2ZIR9F0FDMQGPG3LEN12CVN","","","null","","","","","","","","","",""
"641","","image-keyboard-response","169","295841","0.0-169.0","3OSWBBLG1FJDA1OGD3HKDDW3WMRDX1","A222R4PNCF08OF","3DZKABX2ZIR9F0FDMQGPG3LEN12CVN","","img/set1/S4.jpg","74","4","structured_incentive","74","structured_incentive,structured_load,random,structured_normal","2,3,3,4,2,1","2,1,3,4","true","","",""
"null","","html-keyboard-response","170","296198","0.0-170.0","3OSWBBLG1FJDA1OGD3HKDDW3WMRDX1","A222R4PNCF08OF","3DZKABX2ZIR9F0FDMQGPG3LEN12CVN","","<img src=""img/set1/S4.jpg"" width=""540"" height = ""360"" style=""border:16px solid orange"">","null","","","","","","","","","",""
"null","","html-keyboard-response","171","296404","0.0-171.0","3OSWBBLG1FJDA1OGD3HKDDW3WMRDX1","A222R4PNCF08OF","3DZKABX2ZIR9F0FDMQGPG3LEN12CVN","","","null","","","","","","","","","",""
"543","","image-keyboard-response","172","296948","0.0-172.0","3OSWBBLG1FJDA1OGD3HKDDW3WMRDX1","A222R4PNCF08OF","3DZKABX2ZIR9F0FDMQGPG3LEN12CVN","","img/set1/S1.jpg","83","1","structured_incentive","83","structured_incentive,structured_load,random,structured_normal","2,3,3,4,2,1","2,1,3,4","true","","",""
"null","","html-keyboard-response","173","297300","0.0-173.0","3OSWBBLG1FJDA1OGD3HKDDW3WMRDX1","A222R4PNCF08OF","3DZKABX2ZIR9F0FDMQGPG3LEN12CVN","","<img src=""img/set1/S1.jpg"" width=""540"" height = ""360"" style=""border:16px solid orange"">","null","","","","","","","","","",""
"null","","html-keyboard-response","174","297504","0.0-174.0","3OSWBBLG1FJDA1OGD3HKDDW3WMRDX1","A222R4PNCF08OF","3DZKABX2ZIR9F0FDMQGPG3LEN12CVN","","","null","","","","","","","","","",""
"537.8000000119209","","image-keyboard-response","175","298043","0.0-175.0","3OSWBBLG1FJDA1OGD3HKDDW3WMRDX1","A222R4PNCF08OF","3DZKABX2ZIR9F0FDMQGPG3LEN12CVN","","img/set1/S1.jpg","83","1","structured_incentive","83","structured_incentive,structured_load,random,structured_normal","2,3,3,4,2,1","2,1,3,4","true","","",""
"null","","html-keyboard-response","176","298398","0.0-176.0","3OSWBBLG1FJDA1OGD3HKDDW3WMRDX1","A222R4PNCF08OF","3DZKABX2ZIR9F0FDMQGPG3LEN12CVN","","<img src=""img/set1/S1.jpg"" width=""540"" height = ""360"" style=""border:16px solid orange"">","null","","","","","","","","","",""
"null","","html-keyboard-response","177","298604","0.0-177.0","3OSWBBLG1FJDA1OGD3HKDDW3WMRDX1","A222R4PNCF08OF","3DZKABX2ZIR9F0FDMQGPG3LEN12CVN","","","null","","","","","","","","","",""
"796.4000000357628","","image-keyboard-response","178","299402","0.0-178.0","3OSWBBLG1FJDA1OGD3HKDDW3WMRDX1","A222R4PNCF08OF","3DZKABX2ZIR9F0FDMQGPG3LEN12CVN","","img/set1/S4.jpg","74","4","structured_incentive","74","structured_incentive,structured_load,random,structured_normal","2,3,3,4,2,1","2,1,3,4","true","","",""
"null","","html-keyboard-response","179","299755","0.0-179.0","3OSWBBLG1FJDA1OGD3HKDDW3WMRDX1","A222R4PNCF08OF","3DZKABX2ZIR9F0FDMQGPG3LEN12CVN","","<img src=""img/set1/S4.jpg"" width=""540"" height = ""360"" style=""border:16px solid orange"">","null","","","","","","","","","",""
"null","","html-keyboard-response","180","299959","0.0-180.0","3OSWBBLG1FJDA1OGD3HKDDW3WMRDX1","A222R4PNCF08OF","3DZKABX2ZIR9F0FDMQGPG3LEN12CVN","","","null","","","","","","","","","",""
"628.4000000357628","","image-keyboard-response","181","300589","0.0-181.0","3OSWBBLG1FJDA1OGD3HKDDW3WMRDX1","A222R4PNCF08OF","3DZKABX2ZIR9F0FDMQGPG3LEN12CVN","","img/set1/S4.jpg","74","4","structured_incentive","74","structured_incentive,structured_load,random,structured_normal","2,3,3,4,2,1","2,1,3,4","true","","",""
"null","","html-keyboard-response","182","300942","0.0-182.0","3OSWBBLG1FJDA1OGD3HKDDW3WMRDX1","A222R4PNCF08OF","3DZKABX2ZIR9F0FDMQGPG3LEN12CVN","","<img src=""img/set1/S4.jpg"" width=""540"" height = ""360"" style=""border:16px solid orange"">","null","","","","","","","","","",""
"null","","html-keyboard-response","183","301144","0.0-183.0","3OSWBBLG1FJDA1OGD3HKDDW3WMRDX1","A222R4PNCF08OF","3DZKABX2ZIR9F0FDMQGPG3LEN12CVN","","","null","","","","","","","","","",""
"857.3000000119209","","image-keyboard-response","184","302002","0.0-184.0","3OSWBBLG1FJDA1OGD3HKDDW3WMRDX1","A222R4PNCF08OF","3DZKABX2ZIR9F0FDMQGPG3LEN12CVN","","img/set1/S2.jpg","83","2","structured_incentive","68","structured_incentive,structured_load,random,structured_normal","2,3,3,4,2,1","2,1,3,4","false","","",""
"null","","html-keyboard-response","185","302357","0.0-185.0","3OSWBBLG1FJDA1OGD3HKDDW3WMRDX1","A222R4PNCF08OF","3DZKABX2ZIR9F0FDMQGPG3LEN12CVN","","<img src=""img/set1/S2.jpg"" width=""540"" height = ""360"">","null","","","","","","","","","",""
"null","","html-keyboard-response","186","302560","0.0-186.0","3OSWBBLG1FJDA1OGD3HKDDW3WMRDX1","A222R4PNCF08OF","3DZKABX2ZIR9F0FDMQGPG3LEN12CVN","","","null","","","","","","","","","",""
"813.9000000357628","","image-keyboard-response","187","303375","0.0-187.0","3OSWBBLG1FJDA1OGD3HKDDW3WMRDX1","A222R4PNCF08OF","3DZKABX2ZIR9F0FDMQGPG3LEN12CVN","","img/set1/S3.jpg","72","3","structured_incentive","72","structured_incentive,structured_load,random,structured_normal","2,3,3,4,2,1","2,1,3,4","true","","",""
"null","","html-keyboard-response","188","303727","0.0-188.0","3OSWBBLG1FJDA1OGD3HKDDW3WMRDX1","A222R4PNCF08OF","3DZKABX2ZIR9F0FDMQGPG3LEN12CVN","","<img src=""img/set1/S3.jpg"" width=""540"" height = ""360"" style=""border:16px solid Violet"">","null","","","","","","","","","",""
"null","","html-keyboard-response","189","303931","0.0-189.0","3OSWBBLG1FJDA1OGD3HKDDW3WMRDX1","A222R4PNCF08OF","3DZKABX2ZIR9F0FDMQGPG3LEN12CVN","","","null","","","","","","","","","",""
"636.0999999642372","","image-keyboard-response","190","304569","0.0-190.0","3OSWBBLG1FJDA1OGD3HKDDW3WMRDX1","A222R4PNCF08OF","3DZKABX2ZIR9F0FDMQGPG3LEN12CVN","","img/set1/S1.jpg","83","1","structured_incentive","83","structured_incentive,structured_load,random,structured_normal","2,3,3,4,2,1","2,1,3,4","true","","",""
"null","","html-keyboard-response","191","304923","0.0-191.0","3OSWBBLG1FJDA1OGD3HKDDW3WMRDX1","A222R4PNCF08OF","3DZKABX2ZIR9F0FDMQGPG3LEN12CVN","","<img src=""img/set1/S1.jpg"" width=""540"" height = ""360"" style=""border:16px solid orange"">","null","","","","","","","","","",""
"null","","html-keyboard-response","192","305125","0.0-192.0","3OSWBBLG1FJDA1OGD3HKDDW3WMRDX1","A222R4PNCF08OF","3DZKABX2ZIR9F0FDMQGPG3LEN12CVN","","","null","","","","","","","","","",""
"765.1999999880791","","image-keyboard-response","193","305892","0.0-193.0","3OSWBBLG1FJDA1OGD3HKDDW3WMRDX1","A222R4PNCF08OF","3DZKABX2ZIR9F0FDMQGPG3LEN12CVN","","img/set1/S4.jpg","74","4","structured_incentive","74","structured_incentive,structured_load,random,structured_normal","2,3,3,4,2,1","2,1,3,4","true","","",""
"null","","html-keyboard-response","194","306247","0.0-194.0","3OSWBBLG1FJDA1OGD3HKDDW3WMRDX1","A222R4PNCF08OF","3DZKABX2ZIR9F0FDMQGPG3LEN12CVN","","<img src=""img/set1/S4.jpg"" width=""540"" height = ""360"" style=""border:16px solid orange"">","null","","","","","","","","","",""
"null","","html-keyboard-response","195","306449","0.0-195.0","3OSWBBLG1FJDA1OGD3HKDDW3WMRDX1","A222R4PNCF08OF","3DZKABX2ZIR9F0FDMQGPG3LEN12CVN","","","null","","","","","","","","","",""
"581.2999999523163","","image-keyboard-response","196","307032","0.0-196.0","3OSWBBLG1FJDA1OGD3HKDDW3WMRDX1","A222R4PNCF08OF","3DZKABX2ZIR9F0FDMQGPG3LEN12CVN","","img/set1/S4.jpg","74","4","structured_incentive","74","structured_incentive,structured_load,random,structured_normal","2,3,3,4,2,1","2,1,3,4","true","","",""
"null","","html-keyboard-response","197","307385","0.0-197.0","3OSWBBLG1FJDA1OGD3HKDDW3WMRDX1","A222R4PNCF08OF","3DZKABX2ZIR9F0FDMQGPG3LEN12CVN","","<img src=""img/set1/S4.jpg"" width=""540"" height = ""360"" style=""border:16px solid orange"">","null","","","","","","","","","",""
"null","","html-keyboard-response","198","307587","0.0-198.0","3OSWBBLG1FJDA1OGD3HKDDW3WMRDX1","A222R4PNCF08OF","3DZKABX2ZIR9F0FDMQGPG3LEN12CVN","","","null","","","","","","","","","",""
"543","","image-keyboard-response","199","308131","0.0-199.0","3OSWBBLG1FJDA1OGD3HKDDW3WMRDX1","A222R4PNCF08OF","3DZKABX2ZIR9F0FDMQGPG3LEN12CVN","","img/set1/S4.jpg","74","4","structured_incentive","74","structured_incentive,structured_load,random,structured_normal","2,3,3,4,2,1","2,1,3,4","true","","",""
"null","","html-keyboard-response","200","308487","0.0-200.0","3OSWBBLG1FJDA1OGD3HKDDW3WMRDX1","A222R4PNCF08OF","3DZKABX2ZIR9F0FDMQGPG3LEN12CVN","","<img src=""img/set1/S4.jpg"" width=""540"" height = ""360"" style=""border:16px solid orange"">","null","","","","","","","","","",""
"null","","html-keyboard-response","201","308691","0.0-201.0","3OSWBBLG1FJDA1OGD3HKDDW3WMRDX1","A222R4PNCF08OF","3DZKABX2ZIR9F0FDMQGPG3LEN12CVN","","","null","","","","","","","","","",""
"688.2000000476837","","image-keyboard-response","202","309381","0.0-202.0","3OSWBBLG1FJDA1OGD3HKDDW3WMRDX1","A222R4PNCF08OF","3DZKABX2ZIR9F0FDMQGPG3LEN12CVN","","img/set1/S1.jpg","83","1","structured_incentive","83","structured_incentive,structured_load,random,structured_normal","2,3,3,4,2,1","2,1,3,4","true","","",""
"null","","html-keyboard-response","203","309735","0.0-203.0","3OSWBBLG1FJDA1OGD3HKDDW3WMRDX1","A222R4PNCF08OF","3DZKABX2ZIR9F0FDMQGPG3LEN12CVN","","<img src=""img/set1/S1.jpg"" width=""540"" height = ""360"" style=""border:16px solid orange"">","null","","","","","","","","","",""
"null","","html-keyboard-response","204","309939","0.0-204.0","3OSWBBLG1FJDA1OGD3HKDDW3WMRDX1","A222R4PNCF08OF","3DZKABX2ZIR9F0FDMQGPG3LEN12CVN","","","null","","","","","","","","","",""
"930.7000000476837","","image-keyboard-response","205","310871","0.0-205.0","3OSWBBLG1FJDA1OGD3HKDDW3WMRDX1","A222R4PNCF08OF","3DZKABX2ZIR9F0FDMQGPG3LEN12CVN","","img/set1/S2.jpg","68","2","structured_incentive","68","structured_incentive,structured_load,random,structured_normal","2,3,3,4,2,1","2,1,3,4","true","","",""
"null","","html-keyboard-response","206","311227","0.0-206.0","3OSWBBLG1FJDA1OGD3HKDDW3WMRDX1","A222R4PNCF08OF","3DZKABX2ZIR9F0FDMQGPG3LEN12CVN","","<img src=""img/set1/S2.jpg"" width=""540"" height = ""360"" style=""border:16px solid orange"">","null","","","","","","","","","",""
"null","","html-keyboard-response","207","311431","0.0-207.0","3OSWBBLG1FJDA1OGD3HKDDW3WMRDX1","A222R4PNCF08OF","3DZKABX2ZIR9F0FDMQGPG3LEN12CVN","","","null","","","","","","","","","",""
"910.3000000119209","","image-keyboard-response","208","312343","0.0-208.0","3OSWBBLG1FJDA1OGD3HKDDW3WMRDX1","A222R4PNCF08OF","3DZKABX2ZIR9F0FDMQGPG3LEN12CVN","","img/set1/S3.jpg","72","3","structured_incentive","72","structured_incentive,structured_load,random,structured_normal","2,3,3,4,2,1","2,1,3,4","true","","",""
"null","","html-keyboard-response","209","312695","0.0-209.0","3OSWBBLG1FJDA1OGD3HKDDW3WMRDX1","A222R4PNCF08OF","3DZKABX2ZIR9F0FDMQGPG3LEN12CVN","","<img src=""img/set1/S3.jpg"" width=""540"" height = ""360"" style=""border:16px solid Violet"">","null","","","","","","","","","",""
"null","","html-keyboard-response","210","312898","0.0-210.0","3OSWBBLG1FJDA1OGD3HKDDW3WMRDX1","A222R4PNCF08OF","3DZKABX2ZIR9F0FDMQGPG3LEN12CVN","","","null","","","","","","","","","",""
"603.1999999880791","","image-keyboard-response","211","313502","0.0-211.0","3OSWBBLG1FJDA1OGD3HKDDW3WMRDX1","A222R4PNCF08OF","3DZKABX2ZIR9F0FDMQGPG3LEN12CVN","","img/set1/S1.jpg","83","1","structured_incentive","83","structured_incentive,structured_load,random,structured_normal","2,3,3,4,2,1","2,1,3,4","true","","",""
"null","","html-keyboard-response","212","313856","0.0-212.0","3OSWBBLG1FJDA1OGD3HKDDW3WMRDX1","A222R4PNCF08OF","3DZKABX2ZIR9F0FDMQGPG3LEN12CVN","","<img src=""img/set1/S1.jpg"" width=""540"" height = ""360"" style=""border:16px solid orange"">","null","","","","","","","","","",""
"null","","html-keyboard-response","213","314059","0.0-213.0","3OSWBBLG1FJDA1OGD3HKDDW3WMRDX1","A222R4PNCF08OF","3DZKABX2ZIR9F0FDMQGPG3LEN12CVN","","","null","","","","","","","","","",""
"933.5999999642372","","image-keyboard-response","214","314994","0.0-214.0","3OSWBBLG1FJDA1OGD3HKDDW3WMRDX1","A222R4PNCF08OF","3DZKABX2ZIR9F0FDMQGPG3LEN12CVN","","img/set1/S2.jpg","68","2","structured_incentive","68","structured_incentive,structured_load,random,structured_normal","2,3,3,4,2,1","2,1,3,4","true","","",""
"null","","html-keyboard-response","215","315348","0.0-215.0","3OSWBBLG1FJDA1OGD3HKDDW3WMRDX1","A222R4PNCF08OF","3DZKABX2ZIR9F0FDMQGPG3LEN12CVN","","<img src=""img/set1/S2.jpg"" width=""540"" height = ""360"" style=""border:16px solid orange"">","null","","","","","","","","","",""
"null","","html-keyboard-response","216","315551","0.0-216.0","3OSWBBLG1FJDA1OGD3HKDDW3WMRDX1","A222R4PNCF08OF","3DZKABX2ZIR9F0FDMQGPG3LEN12CVN","","","null","","","","","","","","","",""
"833.6999999880791","","image-keyboard-response","217","316386","0.0-217.0","3OSWBBLG1FJDA1OGD3HKDDW3WMRDX1","A222R4PNCF08OF","3DZKABX2ZIR9F0FDMQGPG3LEN12CVN","","img/set1/S3.jpg","72","3","structured_incentive","72","structured_incentive,structured_load,random,structured_normal","2,3,3,4,2,1","2,1,3,4","true","","",""
"null","","html-keyboard-response","218","316742","0.0-218.0","3OSWBBLG1FJDA1OGD3HKDDW3WMRDX1","A222R4PNCF08OF","3DZKABX2ZIR9F0FDMQGPG3LEN12CVN","","<img src=""img/set1/S3.jpg"" width=""540"" height = ""360"" style=""border:16px solid Violet"">","null","","","","","","","","","",""
"null","","html-keyboard-response","219","316944","0.0-219.0","3OSWBBLG1FJDA1OGD3HKDDW3WMRDX1","A222R4PNCF08OF","3DZKABX2ZIR9F0FDMQGPG3LEN12CVN","","","null","","","","","","","","","",""
"775","","image-keyboard-response","220","317720","0.0-220.0","3OSWBBLG1FJDA1OGD3HKDDW3WMRDX1","A222R4PNCF08OF","3DZKABX2ZIR9F0FDMQGPG3LEN12CVN","","img/set1/S2.jpg","68","2","structured_incentive","68","structured_incentive,structured_load,random,structured_normal","2,3,3,4,2,1","2,1,3,4","true","","",""
"null","","html-keyboard-response","221","318076","0.0-221.0","3OSWBBLG1FJDA1OGD3HKDDW3WMRDX1","A222R4PNCF08OF","3DZKABX2ZIR9F0FDMQGPG3LEN12CVN","","<img src=""img/set1/S2.jpg"" width=""540"" height = ""360"" style=""border:16px solid orange"">","null","","","","","","","","","",""
"null","","html-keyboard-response","222","318280","0.0-222.0","3OSWBBLG1FJDA1OGD3HKDDW3WMRDX1","A222R4PNCF08OF","3DZKABX2ZIR9F0FDMQGPG3LEN12CVN","","","null","","","","","","","","","",""
"714.8000000119209","","image-keyboard-response","223","318996","0.0-223.0","3OSWBBLG1FJDA1OGD3HKDDW3WMRDX1","A222R4PNCF08OF","3DZKABX2ZIR9F0FDMQGPG3LEN12CVN","","img/set1/S3.jpg","72","3","structured_incentive","72","structured_incentive,structured_load,random,structured_normal","2,3,3,4,2,1","2,1,3,4","true","","",""
"null","","html-keyboard-response","224","319351","0.0-224.0","3OSWBBLG1FJDA1OGD3HKDDW3WMRDX1","A222R4PNCF08OF","3DZKABX2ZIR9F0FDMQGPG3LEN12CVN","","<img src=""img/set1/S3.jpg"" width=""540"" height = ""360"" style=""border:16px solid Violet"">","null","","","","","","","","","",""
"null","","html-keyboard-response","225","319556","0.0-225.0","3OSWBBLG1FJDA1OGD3HKDDW3WMRDX1","A222R4PNCF08OF","3DZKABX2ZIR9F0FDMQGPG3LEN12CVN","","","null","","","","","","","","","",""
"567.3000000119209","","image-keyboard-response","226","320125","0.0-226.0","3OSWBBLG1FJDA1OGD3HKDDW3WMRDX1","A222R4PNCF08OF","3DZKABX2ZIR9F0FDMQGPG3LEN12CVN","","img/set1/S1.jpg","83","1","structured_incentive","83","structured_incentive,structured_load,random,structured_normal","2,3,3,4,2,1","2,1,3,4","true","","",""
"null","","html-keyboard-response","227","320480","0.0-227.0","3OSWBBLG1FJDA1OGD3HKDDW3WMRDX1","A222R4PNCF08OF","3DZKABX2ZIR9F0FDMQGPG3LEN12CVN","","<img src=""img/set1/S1.jpg"" width=""540"" height = ""360"" style=""border:16px solid orange"">","null","","","","","","","","","",""
"null","","html-keyboard-response","228","320686","0.0-228.0","3OSWBBLG1FJDA1OGD3HKDDW3WMRDX1","A222R4PNCF08OF","3DZKABX2ZIR9F0FDMQGPG3LEN12CVN","","","null","","","","","","","","","",""
"493.5","","image-keyboard-response","229","321180","0.0-229.0","3OSWBBLG1FJDA1OGD3HKDDW3WMRDX1","A222R4PNCF08OF","3DZKABX2ZIR9F0FDMQGPG3LEN12CVN","","img/set1/S1.jpg","83","1","structured_incentive","83","structured_incentive,structured_load,random,structured_normal","2,3,3,4,2,1","2,1,3,4","true","","",""
"null","","html-keyboard-response","230","321536","0.0-230.0","3OSWBBLG1FJDA1OGD3HKDDW3WMRDX1","A222R4PNCF08OF","3DZKABX2ZIR9F0FDMQGPG3LEN12CVN","","<img src=""img/set1/S1.jpg"" width=""540"" height = ""360"" style=""border:16px solid orange"">","null","","","","","","","","","",""
"null","","html-keyboard-response","231","321739","0.0-231.0","3OSWBBLG1FJDA1OGD3HKDDW3WMRDX1","A222R4PNCF08OF","3DZKABX2ZIR9F0FDMQGPG3LEN12CVN","","","null","","","","","","","","","",""
"577.1999999880791","","image-keyboard-response","232","322318","0.0-232.0","3OSWBBLG1FJDA1OGD3HKDDW3WMRDX1","A222R4PNCF08OF","3DZKABX2ZIR9F0FDMQGPG3LEN12CVN","","img/set1/S1.jpg","83","1","structured_incentive","83","structured_incentive,structured_load,random,structured_normal","2,3,3,4,2,1","2,1,3,4","true","","",""
"null","","html-keyboard-response","233","322674","0.0-233.0","3OSWBBLG1FJDA1OGD3HKDDW3WMRDX1","A222R4PNCF08OF","3DZKABX2ZIR9F0FDMQGPG3LEN12CVN","","<img src=""img/set1/S1.jpg"" width=""540"" height = ""360"" style=""border:16px solid orange"">","null","","","","","","","","","",""
"null","","html-keyboard-response","234","322879","0.0-234.0","3OSWBBLG1FJDA1OGD3HKDDW3WMRDX1","A222R4PNCF08OF","3DZKABX2ZIR9F0FDMQGPG3LEN12CVN","","","null","","","","","","","","","",""
"669.7999999523163","","image-keyboard-response","235","323550","0.0-235.0","3OSWBBLG1FJDA1OGD3HKDDW3WMRDX1","A222R4PNCF08OF","3DZKABX2ZIR9F0FDMQGPG3LEN12CVN","","img/set1/S4.jpg","74","4","structured_incentive","74","structured_incentive,structured_load,random,structured_normal","2,3,3,4,2,1","2,1,3,4","true","","",""
"null","","html-keyboard-response","236","323905","0.0-236.0","3OSWBBLG1FJDA1OGD3HKDDW3WMRDX1","A222R4PNCF08OF","3DZKABX2ZIR9F0FDMQGPG3LEN12CVN","","<img src=""img/set1/S4.jpg"" width=""540"" height = ""360"" style=""border:16px solid orange"">","null","","","","","","","","","",""
"null","","html-keyboard-response","237","324108","0.0-237.0","3OSWBBLG1FJDA1OGD3HKDDW3WMRDX1","A222R4PNCF08OF","3DZKABX2ZIR9F0FDMQGPG3LEN12CVN","","","null","","","","","","","","","",""
"486.4000000357628","","image-keyboard-response","238","324595","0.0-238.0","3OSWBBLG1FJDA1OGD3HKDDW3WMRDX1","A222R4PNCF08OF","3DZKABX2ZIR9F0FDMQGPG3LEN12CVN","","img/set1/S4.jpg","74","4","structured_incentive","74","structured_incentive,structured_load,random,structured_normal","2,3,3,4,2,1","2,1,3,4","true","","",""
"null","","html-keyboard-response","239","324952","0.0-239.0","3OSWBBLG1FJDA1OGD3HKDDW3WMRDX1","A222R4PNCF08OF","3DZKABX2ZIR9F0FDMQGPG3LEN12CVN","","<img src=""img/set1/S4.jpg"" width=""540"" height = ""360"" style=""border:16px solid orange"">","null","","","","","","","","","",""
"null","","html-keyboard-response","240","325153","0.0-240.0","3OSWBBLG1FJDA1OGD3HKDDW3WMRDX1","A222R4PNCF08OF","3DZKABX2ZIR9F0FDMQGPG3LEN12CVN","","","null","","","","","","","","","",""
"657.3000000119209","","image-keyboard-response","241","325811","0.0-241.0","3OSWBBLG1FJDA1OGD3HKDDW3WMRDX1","A222R4PNCF08OF","3DZKABX2ZIR9F0FDMQGPG3LEN12CVN","","img/set1/S1.jpg","83","1","structured_incentive","83","structured_incentive,structured_load,random,structured_normal","2,3,3,4,2,1","2,1,3,4","true","","",""
"null","","html-keyboard-response","242","326163","0.0-242.0","3OSWBBLG1FJDA1OGD3HKDDW3WMRDX1","A222R4PNCF08OF","3DZKABX2ZIR9F0FDMQGPG3LEN12CVN","","<img src=""img/set1/S1.jpg"" width=""540"" height = ""360"" style=""border:16px solid orange"">","null","","","","","","","","","",""
"null","","html-keyboard-response","243","326367","0.0-243.0","3OSWBBLG1FJDA1OGD3HKDDW3WMRDX1","A222R4PNCF08OF","3DZKABX2ZIR9F0FDMQGPG3LEN12CVN","","","null","","","","","","","","","",""
"655.1999999880791","","image-keyboard-response","244","327023","0.0-244.0","3OSWBBLG1FJDA1OGD3HKDDW3WMRDX1","A222R4PNCF08OF","3DZKABX2ZIR9F0FDMQGPG3LEN12CVN","","img/set1/S4.jpg","74","4","structured_incentive","74","structured_incentive,structured_load,random,structured_normal","2,3,3,4,2,1","2,1,3,4","true","","",""
"null","","html-keyboard-response","245","327379","0.0-245.0","3OSWBBLG1FJDA1OGD3HKDDW3WMRDX1","A222R4PNCF08OF","3DZKABX2ZIR9F0FDMQGPG3LEN12CVN","","<img src=""img/set1/S4.jpg"" width=""540"" height = ""360"" style=""border:16px solid orange"">","null","","","","","","","","","",""
"null","","html-keyboard-response","246","327585","0.0-246.0","3OSWBBLG1FJDA1OGD3HKDDW3WMRDX1","A222R4PNCF08OF","3DZKABX2ZIR9F0FDMQGPG3LEN12CVN","","","null","","","","","","","","","",""
"695.3999999761581","","image-keyboard-response","247","328281","0.0-247.0","3OSWBBLG1FJDA1OGD3HKDDW3WMRDX1","A222R4PNCF08OF","3DZKABX2ZIR9F0FDMQGPG3LEN12CVN","","img/set1/S1.jpg","83","1","structured_incentive","83","structured_incentive,structured_load,random,structured_normal","2,3,3,4,2,1","2,1,3,4","true","","",""
"null","","html-keyboard-response","248","328636","0.0-248.0","3OSWBBLG1FJDA1OGD3HKDDW3WMRDX1","A222R4PNCF08OF","3DZKABX2ZIR9F0FDMQGPG3LEN12CVN","","<img src=""img/set1/S1.jpg"" width=""540"" height = ""360"" style=""border:16px solid orange"">","null","","","","","","","","","",""
"null","","html-keyboard-response","249","328839","0.0-249.0","3OSWBBLG1FJDA1OGD3HKDDW3WMRDX1","A222R4PNCF08OF","3DZKABX2ZIR9F0FDMQGPG3LEN12CVN","","","null","","","","","","","","","",""
"831.8999999761581","","image-keyboard-response","250","329672","0.0-250.0","3OSWBBLG1FJDA1OGD3HKDDW3WMRDX1","A222R4PNCF08OF","3DZKABX2ZIR9F0FDMQGPG3LEN12CVN","","img/set1/S4.jpg","74","4","structured_incentive","74","structured_incentive,structured_load,random,structured_normal","2,3,3,4,2,1","2,1,3,4","true","","",""
"null","","html-keyboard-response","251","330024","0.0-251.0","3OSWBBLG1FJDA1OGD3HKDDW3WMRDX1","A222R4PNCF08OF","3DZKABX2ZIR9F0FDMQGPG3LEN12CVN","","<img src=""img/set1/S4.jpg"" width=""540"" height = ""360"" style=""border:16px solid orange"">","null","","","","","","","","","",""
"null","","html-keyboard-response","252","330227","0.0-252.0","3OSWBBLG1FJDA1OGD3HKDDW3WMRDX1","A222R4PNCF08OF","3DZKABX2ZIR9F0FDMQGPG3LEN12CVN","","","null","","","","","","","","","",""
"714.6999999880791","","image-keyboard-response","253","330944","0.0-253.0","3OSWBBLG1FJDA1OGD3HKDDW3WMRDX1","A222R4PNCF08OF","3DZKABX2ZIR9F0FDMQGPG3LEN12CVN","","img/set1/S2.jpg","68","2","structured_incentive","68","structured_incentive,structured_load,random,structured_normal","2,3,3,4,2,1","2,1,3,4","true","","",""
"null","","html-keyboard-response","254","331300","0.0-254.0","3OSWBBLG1FJDA1OGD3HKDDW3WMRDX1","A222R4PNCF08OF","3DZKABX2ZIR9F0FDMQGPG3LEN12CVN","","<img src=""img/set1/S2.jpg"" width=""540"" height = ""360"" style=""border:16px solid orange"">","null","","","","","","","","","",""
"null","","html-keyboard-response","255","331503","0.0-255.0","3OSWBBLG1FJDA1OGD3HKDDW3WMRDX1","A222R4PNCF08OF","3DZKABX2ZIR9F0FDMQGPG3LEN12CVN","","","null","","","","","","","","","",""
"876.0999999642372","","image-keyboard-response","256","332381","0.0-256.0","3OSWBBLG1FJDA1OGD3HKDDW3WMRDX1","A222R4PNCF08OF","3DZKABX2ZIR9F0FDMQGPG3LEN12CVN","","img/set1/S3.jpg","72","3","structured_incentive","72","structured_incentive,structured_load,random,structured_normal","2,3,3,4,2,1","2,1,3,4","true","","",""
"null","","html-keyboard-response","257","332735","0.0-257.0","3OSWBBLG1FJDA1OGD3HKDDW3WMRDX1","A222R4PNCF08OF","3DZKABX2ZIR9F0FDMQGPG3LEN12CVN","","<img src=""img/set1/S3.jpg"" width=""540"" height = ""360"" style=""border:16px solid Violet"">","null","","","","","","","","","",""
"null","","html-keyboard-response","258","332939","0.0-258.0","3OSWBBLG1FJDA1OGD3HKDDW3WMRDX1","A222R4PNCF08OF","3DZKABX2ZIR9F0FDMQGPG3LEN12CVN","","","null","","","","","","","","","",""
"653.8000000119209","","image-keyboard-response","259","333594","0.0-259.0","3OSWBBLG1FJDA1OGD3HKDDW3WMRDX1","A222R4PNCF08OF","3DZKABX2ZIR9F0FDMQGPG3LEN12CVN","","img/set1/S4.jpg","74","4","structured_incentive","74","structured_incentive,structured_load,random,structured_normal","2,3,3,4,2,1","2,1,3,4","true","","",""
"null","","html-keyboard-response","260","333947","0.0-260.0","3OSWBBLG1FJDA1OGD3HKDDW3WMRDX1","A222R4PNCF08OF","3DZKABX2ZIR9F0FDMQGPG3LEN12CVN","","<img src=""img/set1/S4.jpg"" width=""540"" height = ""360"" style=""border:16px solid orange"">","null","","","","","","","","","",""
"null","","html-keyboard-response","261","334151","0.0-261.0","3OSWBBLG1FJDA1OGD3HKDDW3WMRDX1","A222R4PNCF08OF","3DZKABX2ZIR9F0FDMQGPG3LEN12CVN","","","null","","","","","","","","","",""
"664.1999999880791","","image-keyboard-response","262","334816","0.0-262.0","3OSWBBLG1FJDA1OGD3HKDDW3WMRDX1","A222R4PNCF08OF","3DZKABX2ZIR9F0FDMQGPG3LEN12CVN","","img/set1/S1.jpg","83","1","structured_incentive","83","structured_incentive,structured_load,random,structured_normal","2,3,3,4,2,1","2,1,3,4","true","","",""
"null","","html-keyboard-response","263","335172","0.0-263.0","3OSWBBLG1FJDA1OGD3HKDDW3WMRDX1","A222R4PNCF08OF","3DZKABX2ZIR9F0FDMQGPG3LEN12CVN","","<img src=""img/set1/S1.jpg"" width=""540"" height = ""360"" style=""border:16px solid orange"">","null","","","","","","","","","",""
"null","","html-keyboard-response","264","335376","0.0-264.0","3OSWBBLG1FJDA1OGD3HKDDW3WMRDX1","A222R4PNCF08OF","3DZKABX2ZIR9F0FDMQGPG3LEN12CVN","","","null","","","","","","","","","",""
"517.3000000119209","","image-keyboard-response","265","335895","0.0-265.0","3OSWBBLG1FJDA1OGD3HKDDW3WMRDX1","A222R4PNCF08OF","3DZKABX2ZIR9F0FDMQGPG3LEN12CVN","","img/set1/S1.jpg","83","1","structured_incentive","83","structured_incentive,structured_load,random,structured_normal","2,3,3,4,2,1","2,1,3,4","true","","",""
"null","","html-keyboard-response","266","336247","0.0-266.0","3OSWBBLG1FJDA1OGD3HKDDW3WMRDX1","A222R4PNCF08OF","3DZKABX2ZIR9F0FDMQGPG3LEN12CVN","","<img src=""img/set1/S1.jpg"" width=""540"" height = ""360"" style=""border:16px solid orange"">","null","","","","","","","","","",""
"null","","html-keyboard-response","267","336451","0.0-267.0","3OSWBBLG1FJDA1OGD3HKDDW3WMRDX1","A222R4PNCF08OF","3DZKABX2ZIR9F0FDMQGPG3LEN12CVN","","","null","","","","","","","","","",""
"759.6000000238419","","image-keyboard-response","268","337212","0.0-268.0","3OSWBBLG1FJDA1OGD3HKDDW3WMRDX1","A222R4PNCF08OF","3DZKABX2ZIR9F0FDMQGPG3LEN12CVN","","img/set1/S2.jpg","74","2","structured_incentive","68","structured_incentive,structured_load,random,structured_normal","2,3,3,4,2,1","2,1,3,4","false","","",""
"null","","html-keyboard-response","269","337564","0.0-269.0","3OSWBBLG1FJDA1OGD3HKDDW3WMRDX1","A222R4PNCF08OF","3DZKABX2ZIR9F0FDMQGPG3LEN12CVN","","<img src=""img/set1/S2.jpg"" width=""540"" height = ""360"">","null","","","","","","","","","",""
"null","","html-keyboard-response","270","337767","0.0-270.0","3OSWBBLG1FJDA1OGD3HKDDW3WMRDX1","A222R4PNCF08OF","3DZKABX2ZIR9F0FDMQGPG3LEN12CVN","","","null","","","","","","","","","",""
"639.0999999642372","","image-keyboard-response","271","338407","0.0-271.0","3OSWBBLG1FJDA1OGD3HKDDW3WMRDX1","A222R4PNCF08OF","3DZKABX2ZIR9F0FDMQGPG3LEN12CVN","","img/set1/S3.jpg","72","3","structured_incentive","72","structured_incentive,structured_load,random,structured_normal","2,3,3,4,2,1","2,1,3,4","true","","",""
"null","","html-keyboard-response","272","338760","0.0-272.0","3OSWBBLG1FJDA1OGD3HKDDW3WMRDX1","A222R4PNCF08OF","3DZKABX2ZIR9F0FDMQGPG3LEN12CVN","","<img src=""img/set1/S3.jpg"" width=""540"" height = ""360"" style=""border:16px solid Violet"">","null","","","","","","","","","",""
"null","","html-keyboard-response","273","338963","0.0-273.0","3OSWBBLG1FJDA1OGD3HKDDW3WMRDX1","A222R4PNCF08OF","3DZKABX2ZIR9F0FDMQGPG3LEN12CVN","","","null","","","","","","","","","",""
"588.1000000238419","","image-keyboard-response","274","339552","0.0-274.0","3OSWBBLG1FJDA1OGD3HKDDW3WMRDX1","A222R4PNCF08OF","3DZKABX2ZIR9F0FDMQGPG3LEN12CVN","","img/set1/S4.jpg","74","4","structured_incentive","74","structured_incentive,structured_load,random,structured_normal","2,3,3,4,2,1","2,1,3,4","true","","",""
"null","","html-keyboard-response","275","339909","0.0-275.0","3OSWBBLG1FJDA1OGD3HKDDW3WMRDX1","A222R4PNCF08OF","3DZKABX2ZIR9F0FDMQGPG3LEN12CVN","","<img src=""img/set1/S4.jpg"" width=""540"" height = ""360"" style=""border:16px solid orange"">","null","","","","","","","","","",""
"null","","html-keyboard-response","276","340115","0.0-276.0","3OSWBBLG1FJDA1OGD3HKDDW3WMRDX1","A222R4PNCF08OF","3DZKABX2ZIR9F0FDMQGPG3LEN12CVN","","","null","","","","","","","","","",""
"508.30000001192093","","image-keyboard-response","277","340625","0.0-277.0","3OSWBBLG1FJDA1OGD3HKDDW3WMRDX1","A222R4PNCF08OF","3DZKABX2ZIR9F0FDMQGPG3LEN12CVN","","img/set1/S2.jpg","68","2","structured_incentive","68","structured_incentive,structured_load,random,structured_normal","2,3,3,4,2,1","2,1,3,4","true","","",""
"null","","html-keyboard-response","278","340977","0.0-278.0","3OSWBBLG1FJDA1OGD3HKDDW3WMRDX1","A222R4PNCF08OF","3DZKABX2ZIR9F0FDMQGPG3LEN12CVN","","<img src=""img/set1/S2.jpg"" width=""540"" height = ""360"" style=""border:16px solid orange"">","null","","","","","","","","","",""
"null","","html-keyboard-response","279","341184","0.0-279.0","3OSWBBLG1FJDA1OGD3HKDDW3WMRDX1","A222R4PNCF08OF","3DZKABX2ZIR9F0FDMQGPG3LEN12CVN","","","null","","","","","","","","","",""
"821.6999999880791","","image-keyboard-response","280","342007","0.0-280.0","3OSWBBLG1FJDA1OGD3HKDDW3WMRDX1","A222R4PNCF08OF","3DZKABX2ZIR9F0FDMQGPG3LEN12CVN","","img/set1/S3.jpg","72","3","structured_incentive","72","structured_incentive,structured_load,random,structured_normal","2,3,3,4,2,1","2,1,3,4","true","","",""
"null","","html-keyboard-response","281","342359","0.0-281.0","3OSWBBLG1FJDA1OGD3HKDDW3WMRDX1","A222R4PNCF08OF","3DZKABX2ZIR9F0FDMQGPG3LEN12CVN","","<img src=""img/set1/S3.jpg"" width=""540"" height = ""360"" style=""border:16px solid Violet"">","null","","","","","","","","","",""
"null","","html-keyboard-response","282","342563","0.0-282.0","3OSWBBLG1FJDA1OGD3HKDDW3WMRDX1","A222R4PNCF08OF","3DZKABX2ZIR9F0FDMQGPG3LEN12CVN","","","null","","","","","","","","","",""
"585.1999999880791","","image-keyboard-response","283","343150","0.0-283.0","3OSWBBLG1FJDA1OGD3HKDDW3WMRDX1","A222R4PNCF08OF","3DZKABX2ZIR9F0FDMQGPG3LEN12CVN","","img/set1/S1.jpg","83","1","structured_incentive","83","structured_incentive,structured_load,random,structured_normal","2,3,3,4,2,1","2,1,3,4","true","","",""
"null","","html-keyboard-response","284","343503","0.0-284.0","3OSWBBLG1FJDA1OGD3HKDDW3WMRDX1","A222R4PNCF08OF","3DZKABX2ZIR9F0FDMQGPG3LEN12CVN","","<img src=""img/set1/S1.jpg"" width=""540"" height = ""360"" style=""border:16px solid orange"">","null","","","","","","","","","",""
"null","","html-keyboard-response","285","343705","0.0-285.0","3OSWBBLG1FJDA1OGD3HKDDW3WMRDX1","A222R4PNCF08OF","3DZKABX2ZIR9F0FDMQGPG3LEN12CVN","","","null","","","","","","","","","",""
"593","","image-keyboard-response","286","344300","0.0-286.0","3OSWBBLG1FJDA1OGD3HKDDW3WMRDX1","A222R4PNCF08OF","3DZKABX2ZIR9F0FDMQGPG3LEN12CVN","","img/set1/S4.jpg","74","4","structured_incentive","74","structured_incentive,structured_load,random,structured_normal","2,3,3,4,2,1","2,1,3,4","true","","",""
"null","","html-keyboard-response","287","344652","0.0-287.0","3OSWBBLG1FJDA1OGD3HKDDW3WMRDX1","A222R4PNCF08OF","3DZKABX2ZIR9F0FDMQGPG3LEN12CVN","","<img src=""img/set1/S4.jpg"" width=""540"" height = ""360"" style=""border:16px solid orange"">","null","","","","","","","","","",""
"null","","html-keyboard-response","288","344855","0.0-288.0","3OSWBBLG1FJDA1OGD3HKDDW3WMRDX1","A222R4PNCF08OF","3DZKABX2ZIR9F0FDMQGPG3LEN12CVN","","","null","","","","","","","","","",""
"622.5","","image-keyboard-response","289","345478","0.0-289.0","3OSWBBLG1FJDA1OGD3HKDDW3WMRDX1","A222R4PNCF08OF","3DZKABX2ZIR9F0FDMQGPG3LEN12CVN","","img/set1/S1.jpg","83","1","structured_incentive","83","structured_incentive,structured_load,random,structured_normal","2,3,3,4,2,1","2,1,3,4","true","","",""
"null","","html-keyboard-response","290","345831","0.0-290.0","3OSWBBLG1FJDA1OGD3HKDDW3WMRDX1","A222R4PNCF08OF","3DZKABX2ZIR9F0FDMQGPG3LEN12CVN","","<img src=""img/set1/S1.jpg"" width=""540"" height = ""360"" style=""border:16px solid orange"">","null","","","","","","","","","",""
"null","","html-keyboard-response","291","346035","0.0-291.0","3OSWBBLG1FJDA1OGD3HKDDW3WMRDX1","A222R4PNCF08OF","3DZKABX2ZIR9F0FDMQGPG3LEN12CVN","","","null","","","","","","","","","",""
"511","","image-keyboard-response","292","346547","0.0-292.0","3OSWBBLG1FJDA1OGD3HKDDW3WMRDX1","A222R4PNCF08OF","3DZKABX2ZIR9F0FDMQGPG3LEN12CVN","","img/set1/S1.jpg","83","1","structured_incentive","83","structured_incentive,structured_load,random,structured_normal","2,3,3,4,2,1","2,1,3,4","true","","",""
"null","","html-keyboard-response","293","346902","0.0-293.0","3OSWBBLG1FJDA1OGD3HKDDW3WMRDX1","A222R4PNCF08OF","3DZKABX2ZIR9F0FDMQGPG3LEN12CVN","","<img src=""img/set1/S1.jpg"" width=""540"" height = ""360"" style=""border:16px solid orange"">","null","","","","","","","","","",""
"null","","html-keyboard-response","294","347107","0.0-294.0","3OSWBBLG1FJDA1OGD3HKDDW3WMRDX1","A222R4PNCF08OF","3DZKABX2ZIR9F0FDMQGPG3LEN12CVN","","","null","","","","","","","","","",""
"738.5999999642372","","image-keyboard-response","295","347847","0.0-295.0","3OSWBBLG1FJDA1OGD3HKDDW3WMRDX1","A222R4PNCF08OF","3DZKABX2ZIR9F0FDMQGPG3LEN12CVN","","img/set1/S2.jpg","68","2","structured_incentive","68","structured_incentive,structured_load,random,structured_normal","2,3,3,4,2,1","2,1,3,4","true","","",""
"null","","html-keyboard-response","296","348201","0.0-296.0","3OSWBBLG1FJDA1OGD3HKDDW3WMRDX1","A222R4PNCF08OF","3DZKABX2ZIR9F0FDMQGPG3LEN12CVN","","<img src=""img/set1/S2.jpg"" width=""540"" height = ""360"" style=""border:16px solid orange"">","null","","","","","","","","","",""
"null","","html-keyboard-response","297","348407","0.0-297.0","3OSWBBLG1FJDA1OGD3HKDDW3WMRDX1","A222R4PNCF08OF","3DZKABX2ZIR9F0FDMQGPG3LEN12CVN","","","null","","","","","","","","","",""
"611","","image-keyboard-response","298","349020","0.0-298.0","3OSWBBLG1FJDA1OGD3HKDDW3WMRDX1","A222R4PNCF08OF","3DZKABX2ZIR9F0FDMQGPG3LEN12CVN","","img/set1/S3.jpg","72","3","structured_incentive","72","structured_incentive,structured_load,random,structured_normal","2,3,3,4,2,1","2,1,3,4","true","","",""
"null","","html-keyboard-response","299","349376","0.0-299.0","3OSWBBLG1FJDA1OGD3HKDDW3WMRDX1","A222R4PNCF08OF","3DZKABX2ZIR9F0FDMQGPG3LEN12CVN","","<img src=""img/set1/S3.jpg"" width=""540"" height = ""360"" style=""border:16px solid Violet"">","null","","","","","","","","","",""
"null","","html-keyboard-response","300","349579","0.0-300.0","3OSWBBLG1FJDA1OGD3HKDDW3WMRDX1","A222R4PNCF08OF","3DZKABX2ZIR9F0FDMQGPG3LEN12CVN","","","null","","","","","","","","","",""
"620.5","","image-keyboard-response","301","350202","0.0-301.0","3OSWBBLG1FJDA1OGD3HKDDW3WMRDX1","A222R4PNCF08OF","3DZKABX2ZIR9F0FDMQGPG3LEN12CVN","","img/set1/S2.jpg","68","2","structured_incentive","68","structured_incentive,structured_load,random,structured_normal","2,3,3,4,2,1","2,1,3,4","true","","",""
"null","","html-keyboard-response","302","350555","0.0-302.0","3OSWBBLG1FJDA1OGD3HKDDW3WMRDX1","A222R4PNCF08OF","3DZKABX2ZIR9F0FDMQGPG3LEN12CVN","","<img src=""img/set1/S2.jpg"" width=""540"" height = ""360"" style=""border:16px solid orange"">","null","","","","","","","","","",""
"null","","html-keyboard-response","303","350760","0.0-303.0","3OSWBBLG1FJDA1OGD3HKDDW3WMRDX1","A222R4PNCF08OF","3DZKABX2ZIR9F0FDMQGPG3LEN12CVN","","","null","","","","","","","","","",""
"720.9000000357628","","image-keyboard-response","304","351482","0.0-304.0","3OSWBBLG1FJDA1OGD3HKDDW3WMRDX1","A222R4PNCF08OF","3DZKABX2ZIR9F0FDMQGPG3LEN12CVN","","img/set1/S3.jpg","72","3","structured_incentive","72","structured_incentive,structured_load,random,structured_normal","2,3,3,4,2,1","2,1,3,4","true","","",""
"null","","html-keyboard-response","305","351838","0.0-305.0","3OSWBBLG1FJDA1OGD3HKDDW3WMRDX1","A222R4PNCF08OF","3DZKABX2ZIR9F0FDMQGPG3LEN12CVN","","<img src=""img/set1/S3.jpg"" width=""540"" height = ""360"" style=""border:16px solid Violet"">","null","","","","","","","","","",""
"null","","html-keyboard-response","306","352043","0.0-306.0","3OSWBBLG1FJDA1OGD3HKDDW3WMRDX1","A222R4PNCF08OF","3DZKABX2ZIR9F0FDMQGPG3LEN12CVN","","","null","","","","","","","","","",""
"591.2999999523163","","image-keyboard-response","307","352635","0.0-307.0","3OSWBBLG1FJDA1OGD3HKDDW3WMRDX1","A222R4PNCF08OF","3DZKABX2ZIR9F0FDMQGPG3LEN12CVN","","img/set1/S2.jpg","68","2","structured_incentive","68","structured_incentive,structured_load,random,structured_normal","2,3,3,4,2,1","2,1,3,4","true","","",""
"null","","html-keyboard-response","308","352988","0.0-308.0","3OSWBBLG1FJDA1OGD3HKDDW3WMRDX1","A222R4PNCF08OF","3DZKABX2ZIR9F0FDMQGPG3LEN12CVN","","<img src=""img/set1/S2.jpg"" width=""540"" height = ""360"" style=""border:16px solid orange"">","null","","","","","","","","","",""
"null","","html-keyboard-response","309","353191","0.0-309.0","3OSWBBLG1FJDA1OGD3HKDDW3WMRDX1","A222R4PNCF08OF","3DZKABX2ZIR9F0FDMQGPG3LEN12CVN","","","null","","","","","","","","","",""
"678.1999999880791","","image-keyboard-response","310","353871","0.0-310.0","3OSWBBLG1FJDA1OGD3HKDDW3WMRDX1","A222R4PNCF08OF","3DZKABX2ZIR9F0FDMQGPG3LEN12CVN","","img/set1/S3.jpg","72","3","structured_incentive","72","structured_incentive,structured_load,random,structured_normal","2,3,3,4,2,1","2,1,3,4","true","","",""
"null","","html-keyboard-response","311","354227","0.0-311.0","3OSWBBLG1FJDA1OGD3HKDDW3WMRDX1","A222R4PNCF08OF","3DZKABX2ZIR9F0FDMQGPG3LEN12CVN","","<img src=""img/set1/S3.jpg"" width=""540"" height = ""360"" style=""border:16px solid Violet"">","null","","","","","","","","","",""
"null","","html-keyboard-response","312","354432","0.0-312.0","3OSWBBLG1FJDA1OGD3HKDDW3WMRDX1","A222R4PNCF08OF","3DZKABX2ZIR9F0FDMQGPG3LEN12CVN","","","null","","","","","","","","","",""
"585.5","","image-keyboard-response","313","355019","0.0-313.0","3OSWBBLG1FJDA1OGD3HKDDW3WMRDX1","A222R4PNCF08OF","3DZKABX2ZIR9F0FDMQGPG3LEN12CVN","","img/set1/S4.jpg","74","4","structured_incentive","74","structured_incentive,structured_load,random,structured_normal","2,3,3,4,2,1","2,1,3,4","true","","",""
"null","","html-keyboard-response","314","355375","0.0-314.0","3OSWBBLG1FJDA1OGD3HKDDW3WMRDX1","A222R4PNCF08OF","3DZKABX2ZIR9F0FDMQGPG3LEN12CVN","","<img src=""img/set1/S4.jpg"" width=""540"" height = ""360"" style=""border:16px solid orange"">","null","","","","","","","","","",""
"null","","html-keyboard-response","315","355580","0.0-315.0","3OSWBBLG1FJDA1OGD3HKDDW3WMRDX1","A222R4PNCF08OF","3DZKABX2ZIR9F0FDMQGPG3LEN12CVN","","","null","","","","","","","","","",""
"486.80000001192093","","image-keyboard-response","316","356068","0.0-316.0","3OSWBBLG1FJDA1OGD3HKDDW3WMRDX1","A222R4PNCF08OF","3DZKABX2ZIR9F0FDMQGPG3LEN12CVN","","img/set1/S4.jpg","74","4","structured_incentive","74","structured_incentive,structured_load,random,structured_normal","2,3,3,4,2,1","2,1,3,4","true","","",""
"null","","html-keyboard-response","317","356424","0.0-317.0","3OSWBBLG1FJDA1OGD3HKDDW3WMRDX1","A222R4PNCF08OF","3DZKABX2ZIR9F0FDMQGPG3LEN12CVN","","<img src=""img/set1/S4.jpg"" width=""540"" height = ""360"" style=""border:16px solid orange"">","null","","","","","","","","","",""
"null","","html-keyboard-response","318","356627","0.0-318.0","3OSWBBLG1FJDA1OGD3HKDDW3WMRDX1","A222R4PNCF08OF","3DZKABX2ZIR9F0FDMQGPG3LEN12CVN","","","null","","","","","","","","","",""
"490.69999998807907","","image-keyboard-response","319","357119","0.0-319.0","3OSWBBLG1FJDA1OGD3HKDDW3WMRDX1","A222R4PNCF08OF","3DZKABX2ZIR9F0FDMQGPG3LEN12CVN","","img/set1/S4.jpg","74","4","structured_incentive","74","structured_incentive,structured_load,random,structured_normal","2,3,3,4,2,1","2,1,3,4","true","","",""
"null","","html-keyboard-response","320","357475","0.0-320.0","3OSWBBLG1FJDA1OGD3HKDDW3WMRDX1","A222R4PNCF08OF","3DZKABX2ZIR9F0FDMQGPG3LEN12CVN","","<img src=""img/set1/S4.jpg"" width=""540"" height = ""360"" style=""border:16px solid orange"">","null","","","","","","","","","",""
"null","","html-keyboard-response","321","357679","0.0-321.0","3OSWBBLG1FJDA1OGD3HKDDW3WMRDX1","A222R4PNCF08OF","3DZKABX2ZIR9F0FDMQGPG3LEN12CVN","","","null","","","","","","","","","",""
"671.1000000238419","","image-keyboard-response","322","358351","0.0-322.0","3OSWBBLG1FJDA1OGD3HKDDW3WMRDX1","A222R4PNCF08OF","3DZKABX2ZIR9F0FDMQGPG3LEN12CVN","","img/set1/S2.jpg","68","2","structured_incentive","68","structured_incentive,structured_load,random,structured_normal","2,3,3,4,2,1","2,1,3,4","true","","",""
"null","","html-keyboard-response","323","358707","0.0-323.0","3OSWBBLG1FJDA1OGD3HKDDW3WMRDX1","A222R4PNCF08OF","3DZKABX2ZIR9F0FDMQGPG3LEN12CVN","","<img src=""img/set1/S2.jpg"" width=""540"" height = ""360"" style=""border:16px solid orange"">","null","","","","","","","","","",""
"null","","html-keyboard-response","324","358910","0.0-324.0","3OSWBBLG1FJDA1OGD3HKDDW3WMRDX1","A222R4PNCF08OF","3DZKABX2ZIR9F0FDMQGPG3LEN12CVN","","","null","","","","","","","","","",""
"603.8000000119209","","image-keyboard-response","325","359516","0.0-325.0","3OSWBBLG1FJDA1OGD3HKDDW3WMRDX1","A222R4PNCF08OF","3DZKABX2ZIR9F0FDMQGPG3LEN12CVN","","img/set1/S3.jpg","72","3","structured_incentive","72","structured_incentive,structured_load,random,structured_normal","2,3,3,4,2,1","2,1,3,4","true","","",""
"null","","html-keyboard-response","326","359872","0.0-326.0","3OSWBBLG1FJDA1OGD3HKDDW3WMRDX1","A222R4PNCF08OF","3DZKABX2ZIR9F0FDMQGPG3LEN12CVN","","<img src=""img/set1/S3.jpg"" width=""540"" height = ""360"" style=""border:16px solid Violet"">","null","","","","","","","","","",""
"null","","html-keyboard-response","327","360075","0.0-327.0","3OSWBBLG1FJDA1OGD3HKDDW3WMRDX1","A222R4PNCF08OF","3DZKABX2ZIR9F0FDMQGPG3LEN12CVN","","","null","","","","","","","","","",""
"498.5","","image-keyboard-response","328","360575","0.0-328.0","3OSWBBLG1FJDA1OGD3HKDDW3WMRDX1","A222R4PNCF08OF","3DZKABX2ZIR9F0FDMQGPG3LEN12CVN","","img/set1/S1.jpg","83","1","structured_incentive","83","structured_incentive,structured_load,random,structured_normal","2,3,3,4,2,1","2,1,3,4","true","","",""
"null","","html-keyboard-response","329","360929","0.0-329.0","3OSWBBLG1FJDA1OGD3HKDDW3WMRDX1","A222R4PNCF08OF","3DZKABX2ZIR9F0FDMQGPG3LEN12CVN","","<img src=""img/set1/S1.jpg"" width=""540"" height = ""360"" style=""border:16px solid orange"">","null","","","","","","","","","",""
"null","","html-keyboard-response","330","361132","0.0-330.0","3OSWBBLG1FJDA1OGD3HKDDW3WMRDX1","A222R4PNCF08OF","3DZKABX2ZIR9F0FDMQGPG3LEN12CVN","","","null","","","","","","","","","",""
"682.1999999880791","","image-keyboard-response","331","361815","0.0-331.0","3OSWBBLG1FJDA1OGD3HKDDW3WMRDX1","A222R4PNCF08OF","3DZKABX2ZIR9F0FDMQGPG3LEN12CVN","","img/set1/S2.jpg","68","2","structured_incentive","68","structured_incentive,structured_load,random,structured_normal","2,3,3,4,2,1","2,1,3,4","true","","",""
"null","","html-keyboard-response","332","362171","0.0-332.0","3OSWBBLG1FJDA1OGD3HKDDW3WMRDX1","A222R4PNCF08OF","3DZKABX2ZIR9F0FDMQGPG3LEN12CVN","","<img src=""img/set1/S2.jpg"" width=""540"" height = ""360"" style=""border:16px solid orange"">","null","","","","","","","","","",""
"null","","html-keyboard-response","333","362374","0.0-333.0","3OSWBBLG1FJDA1OGD3HKDDW3WMRDX1","A222R4PNCF08OF","3DZKABX2ZIR9F0FDMQGPG3LEN12CVN","","","null","","","","","","","","","",""
"621.6999999880791","","image-keyboard-response","334","362997","0.0-334.0","3OSWBBLG1FJDA1OGD3HKDDW3WMRDX1","A222R4PNCF08OF","3DZKABX2ZIR9F0FDMQGPG3LEN12CVN","","img/set1/S3.jpg","72","3","structured_incentive","72","structured_incentive,structured_load,random,structured_normal","2,3,3,4,2,1","2,1,3,4","true","","",""
"null","","html-keyboard-response","335","363351","0.0-335.0","3OSWBBLG1FJDA1OGD3HKDDW3WMRDX1","A222R4PNCF08OF","3DZKABX2ZIR9F0FDMQGPG3LEN12CVN","","<img src=""img/set1/S3.jpg"" width=""540"" height = ""360"" style=""border:16px solid Violet"">","null","","","","","","","","","",""
"null","","html-keyboard-response","336","363554","0.0-336.0","3OSWBBLG1FJDA1OGD3HKDDW3WMRDX1","A222R4PNCF08OF","3DZKABX2ZIR9F0FDMQGPG3LEN12CVN","","","null","","","","","","","","","",""
"594.1999999880791","","image-keyboard-response","337","364150","0.0-337.0","3OSWBBLG1FJDA1OGD3HKDDW3WMRDX1","A222R4PNCF08OF","3DZKABX2ZIR9F0FDMQGPG3LEN12CVN","","img/set1/S4.jpg","74","4","structured_incentive","74","structured_incentive,structured_load,random,structured_normal","2,3,3,4,2,1","2,1,3,4","true","","",""
"null","","html-keyboard-response","338","364505","0.0-338.0","3OSWBBLG1FJDA1OGD3HKDDW3WMRDX1","A222R4PNCF08OF","3DZKABX2ZIR9F0FDMQGPG3LEN12CVN","","<img src=""img/set1/S4.jpg"" width=""540"" height = ""360"" style=""border:16px solid orange"">","null","","","","","","","","","",""
"null","","html-keyboard-response","339","364710","0.0-339.0","3OSWBBLG1FJDA1OGD3HKDDW3WMRDX1","A222R4PNCF08OF","3DZKABX2ZIR9F0FDMQGPG3LEN12CVN","","","null","","","","","","","","","",""
"665.6000000238419","","image-keyboard-response","340","365377","0.0-340.0","3OSWBBLG1FJDA1OGD3HKDDW3WMRDX1","A222R4PNCF08OF","3DZKABX2ZIR9F0FDMQGPG3LEN12CVN","","img/set1/S1.jpg","83","1","structured_incentive","83","structured_incentive,structured_load,random,structured_normal","2,3,3,4,2,1","2,1,3,4","true","","",""
"null","","html-keyboard-response","341","365731","0.0-341.0","3OSWBBLG1FJDA1OGD3HKDDW3WMRDX1","A222R4PNCF08OF","3DZKABX2ZIR9F0FDMQGPG3LEN12CVN","","<img src=""img/set1/S1.jpg"" width=""540"" height = ""360"" style=""border:16px solid orange"">","null","","","","","","","","","",""
"null","","html-keyboard-response","342","365935","0.0-342.0","3OSWBBLG1FJDA1OGD3HKDDW3WMRDX1","A222R4PNCF08OF","3DZKABX2ZIR9F0FDMQGPG3LEN12CVN","","","null","","","","","","","","","",""
"559.2999999523163","","image-keyboard-response","343","366496","0.0-343.0","3OSWBBLG1FJDA1OGD3HKDDW3WMRDX1","A222R4PNCF08OF","3DZKABX2ZIR9F0FDMQGPG3LEN12CVN","","img/set1/S1.jpg","83","1","structured_incentive","83","structured_incentive,structured_load,random,structured_normal","2,3,3,4,2,1","2,1,3,4","true","","",""
"null","","html-keyboard-response","344","366851","0.0-344.0","3OSWBBLG1FJDA1OGD3HKDDW3WMRDX1","A222R4PNCF08OF","3DZKABX2ZIR9F0FDMQGPG3LEN12CVN","","<img src=""img/set1/S1.jpg"" width=""540"" height = ""360"" style=""border:16px solid orange"">","null","","","","","","","","","",""
"null","","html-keyboard-response","345","367054","0.0-345.0","3OSWBBLG1FJDA1OGD3HKDDW3WMRDX1","A222R4PNCF08OF","3DZKABX2ZIR9F0FDMQGPG3LEN12CVN","","","null","","","","","","","","","",""
"502.7000000476837","","image-keyboard-response","346","367558","0.0-346.0","3OSWBBLG1FJDA1OGD3HKDDW3WMRDX1","A222R4PNCF08OF","3DZKABX2ZIR9F0FDMQGPG3LEN12CVN","","img/set1/S2.jpg","83","2","structured_incentive","68","structured_incentive,structured_load,random,structured_normal","2,3,3,4,2,1","2,1,3,4","false","","",""
"null","","html-keyboard-response","347","367912","0.0-347.0","3OSWBBLG1FJDA1OGD3HKDDW3WMRDX1","A222R4PNCF08OF","3DZKABX2ZIR9F0FDMQGPG3LEN12CVN","","<img src=""img/set1/S2.jpg"" width=""540"" height = ""360"">","null","","","","","","","","","",""
"null","","html-keyboard-response","348","368115","0.0-348.0","3OSWBBLG1FJDA1OGD3HKDDW3WMRDX1","A222R4PNCF08OF","3DZKABX2ZIR9F0FDMQGPG3LEN12CVN","","","null","","","","","","","","","",""
"777.3999999761581","","image-keyboard-response","349","368893","0.0-349.0","3OSWBBLG1FJDA1OGD3HKDDW3WMRDX1","A222R4PNCF08OF","3DZKABX2ZIR9F0FDMQGPG3LEN12CVN","","img/set1/S3.jpg","72","3","structured_incentive","72","structured_incentive,structured_load,random,structured_normal","2,3,3,4,2,1","2,1,3,4","true","","",""
"null","","html-keyboard-response","350","369247","0.0-350.0","3OSWBBLG1FJDA1OGD3HKDDW3WMRDX1","A222R4PNCF08OF","3DZKABX2ZIR9F0FDMQGPG3LEN12CVN","","<img src=""img/set1/S3.jpg"" width=""540"" height = ""360"" style=""border:16px solid Violet"">","null","","","","","","","","","",""
"null","","html-keyboard-response","351","369451","0.0-351.0","3OSWBBLG1FJDA1OGD3HKDDW3WMRDX1","A222R4PNCF08OF","3DZKABX2ZIR9F0FDMQGPG3LEN12CVN","","","null","","","","","","","","","",""
"607.5","","image-keyboard-response","352","370059","0.0-352.0","3OSWBBLG1FJDA1OGD3HKDDW3WMRDX1","A222R4PNCF08OF","3DZKABX2ZIR9F0FDMQGPG3LEN12CVN","","img/set1/S2.jpg","68","2","structured_incentive","68","structured_incentive,structured_load,random,structured_normal","2,3,3,4,2,1","2,1,3,4","true","","",""
"null","","html-keyboard-response","353","370414","0.0-353.0","3OSWBBLG1FJDA1OGD3HKDDW3WMRDX1","A222R4PNCF08OF","3DZKABX2ZIR9F0FDMQGPG3LEN12CVN","","<img src=""img/set1/S2.jpg"" width=""540"" height = ""360"" style=""border:16px solid orange"">","null","","","","","","","","","",""
"null","","html-keyboard-response","354","370619","0.0-354.0","3OSWBBLG1FJDA1OGD3HKDDW3WMRDX1","A222R4PNCF08OF","3DZKABX2ZIR9F0FDMQGPG3LEN12CVN","","","null","","","","","","","","","",""
"718.1999999880791","","image-keyboard-response","355","371339","0.0-355.0","3OSWBBLG1FJDA1OGD3HKDDW3WMRDX1","A222R4PNCF08OF","3DZKABX2ZIR9F0FDMQGPG3LEN12CVN","","img/set1/S3.jpg","72","3","structured_incentive","72","structured_incentive,structured_load,random,structured_normal","2,3,3,4,2,1","2,1,3,4","true","","",""
"null","","html-keyboard-response","356","371691","0.0-356.0","3OSWBBLG1FJDA1OGD3HKDDW3WMRDX1","A222R4PNCF08OF","3DZKABX2ZIR9F0FDMQGPG3LEN12CVN","","<img src=""img/set1/S3.jpg"" width=""540"" height = ""360"" style=""border:16px solid Violet"">","null","","","","","","","","","",""
"null","","html-keyboard-response","357","371895","0.0-357.0","3OSWBBLG1FJDA1OGD3HKDDW3WMRDX1","A222R4PNCF08OF","3DZKABX2ZIR9F0FDMQGPG3LEN12CVN","","","null","","","","","","","","","",""
"551.1999999880791","","image-keyboard-response","358","372447","0.0-358.0","3OSWBBLG1FJDA1OGD3HKDDW3WMRDX1","A222R4PNCF08OF","3DZKABX2ZIR9F0FDMQGPG3LEN12CVN","","img/set1/S1.jpg","83","1","structured_incentive","83","structured_incentive,structured_load,random,structured_normal","2,3,3,4,2,1","2,1,3,4","true","","",""
"null","","html-keyboard-response","359","372803","0.0-359.0","3OSWBBLG1FJDA1OGD3HKDDW3WMRDX1","A222R4PNCF08OF","3DZKABX2ZIR9F0FDMQGPG3LEN12CVN","","<img src=""img/set1/S1.jpg"" width=""540"" height = ""360"" style=""border:16px solid orange"">","null","","","","","","","","","",""
"null","","html-keyboard-response","360","373008","0.0-360.0","3OSWBBLG1FJDA1OGD3HKDDW3WMRDX1","A222R4PNCF08OF","3DZKABX2ZIR9F0FDMQGPG3LEN12CVN","","","null","","","","","","","","","",""
"562.5","","image-keyboard-response","361","373572","0.0-361.0","3OSWBBLG1FJDA1OGD3HKDDW3WMRDX1","A222R4PNCF08OF","3DZKABX2ZIR9F0FDMQGPG3LEN12CVN","","img/set1/S4.jpg","74","4","structured_incentive","74","structured_incentive,structured_load,random,structured_normal","2,3,3,4,2,1","2,1,3,4","true","","",""
"null","","html-keyboard-response","362","373927","0.0-362.0","3OSWBBLG1FJDA1OGD3HKDDW3WMRDX1","A222R4PNCF08OF","3DZKABX2ZIR9F0FDMQGPG3LEN12CVN","","<img src=""img/set1/S4.jpg"" width=""540"" height = ""360"" style=""border:16px solid orange"">","null","","","","","","","","","",""
"null","","html-keyboard-response","363","374130","0.0-363.0","3OSWBBLG1FJDA1OGD3HKDDW3WMRDX1","A222R4PNCF08OF","3DZKABX2ZIR9F0FDMQGPG3LEN12CVN","","","null","","","","","","","","","",""
"4442.5","","html-keyboard-response","364","378573","0.0-364.0","3OSWBBLG1FJDA1OGD3HKDDW3WMRDX1","A222R4PNCF08OF","3DZKABX2ZIR9F0FDMQGPG3LEN12CVN","","<p class=""center-content"">You have completed a block! </p><p class=""center-content"">Press any key on the keyboard to continue, </p><p class=""center-content"">or wait for the automatic progression to the next block after one minute.</p>","32","","","","","","","","","",""
"67167.69999998808","","instructions","365","445741","0.0-365.0","3OSWBBLG1FJDA1OGD3HKDDW3WMRDX1","A222R4PNCF08OF","3DZKABX2ZIR9F0FDMQGPG3LEN12CVN","[{""page_index"":0,""viewing_time"":67167.09999996424}]","","","","","","","","","","","",""
"25566","","instructions","366","471308","0.0-366.0","3OSWBBLG1FJDA1OGD3HKDDW3WMRDX1","A222R4PNCF08OF","3DZKABX2ZIR9F0FDMQGPG3LEN12CVN","[{""page_index"":0,""viewing_time"":22640.69999998808},{""page_index"":1,""viewing_time"":2924.800000011921}]","","","","","","","","","","","",""
"1395.4000000357628","","image-keyboard-response","367","472705","0.0-367.0","3OSWBBLG1FJDA1OGD3HKDDW3WMRDX1","A222R4PNCF08OF","3DZKABX2ZIR9F0FDMQGPG3LEN12CVN","","img/set2/S2.jpg","68","2","structured_load","68","structured_incentive,structured_load,random,structured_normal","2,3,3,4,2,1","2,1,3,4","true","","",""
"null","","html-keyboard-response","368","473061","0.0-368.0","3OSWBBLG1FJDA1OGD3HKDDW3WMRDX1","A222R4PNCF08OF","3DZKABX2ZIR9F0FDMQGPG3LEN12CVN","","<img src=""img/set2/S2.jpg"" width=""540"" height = ""360"" style=""border:16px solid orange"">","null","","","","","","","","","",""
"null","","html-keyboard-response","369","473267","0.0-369.0","3OSWBBLG1FJDA1OGD3HKDDW3WMRDX1","A222R4PNCF08OF","3DZKABX2ZIR9F0FDMQGPG3LEN12CVN","","","null","","","","","","","","","",""
"592","","image-keyboard-response","370","473860","0.0-370.0","3OSWBBLG1FJDA1OGD3HKDDW3WMRDX1","A222R4PNCF08OF","3DZKABX2ZIR9F0FDMQGPG3LEN12CVN","","img/set2/S1.jpg","83","1","structured_load","83","structured_incentive,structured_load,random,structured_normal","2,3,3,4,2,1","2,1,3,4","true","","",""
"null","","html-keyboard-response","371","474214","0.0-371.0","3OSWBBLG1FJDA1OGD3HKDDW3WMRDX1","A222R4PNCF08OF","3DZKABX2ZIR9F0FDMQGPG3LEN12CVN","","<img src=""img/set2/S1.jpg"" width=""540"" height = ""360"" style=""border:16px solid orange"">","null","","","","","","","","","",""
"null","","html-keyboard-response","372","474419","0.0-372.0","3OSWBBLG1FJDA1OGD3HKDDW3WMRDX1","A222R4PNCF08OF","3DZKABX2ZIR9F0FDMQGPG3LEN12CVN","","","null","","","","","","","","","",""
"652.9000000357628","","image-keyboard-response","373","475073","0.0-373.0","3OSWBBLG1FJDA1OGD3HKDDW3WMRDX1","A222R4PNCF08OF","3DZKABX2ZIR9F0FDMQGPG3LEN12CVN","","img/set2/S2.jpg","68","2","structured_load","68","structured_incentive,structured_load,random,structured_normal","2,3,3,4,2,1","2,1,3,4","true","","",""
"null","","html-keyboard-response","374","475426","0.0-374.0","3OSWBBLG1FJDA1OGD3HKDDW3WMRDX1","A222R4PNCF08OF","3DZKABX2ZIR9F0FDMQGPG3LEN12CVN","","<img src=""img/set2/S2.jpg"" width=""540"" height = ""360"" style=""border:16px solid orange"">","null","","","","","","","","","",""
"null","","html-keyboard-response","375","475631","0.0-375.0","3OSWBBLG1FJDA1OGD3HKDDW3WMRDX1","A222R4PNCF08OF","3DZKABX2ZIR9F0FDMQGPG3LEN12CVN","","","null","","","","","","","","","",""
"549.5","","image-keyboard-response","376","476181","0.0-376.0","3OSWBBLG1FJDA1OGD3HKDDW3WMRDX1","A222R4PNCF08OF","3DZKABX2ZIR9F0FDMQGPG3LEN12CVN","","img/set2/S2.jpg","68","2","structured_load","68","structured_incentive,structured_load,random,structured_normal","2,3,3,4,2,1","2,1,3,4","true","","",""
"null","","html-keyboard-response","377","476535","0.0-377.0","3OSWBBLG1FJDA1OGD3HKDDW3WMRDX1","A222R4PNCF08OF","3DZKABX2ZIR9F0FDMQGPG3LEN12CVN","","<img src=""img/set2/S2.jpg"" width=""540"" height = ""360"" style=""border:16px solid orange"">","null","","","","","","","","","",""
"null","","html-keyboard-response","378","476739","0.0-378.0","3OSWBBLG1FJDA1OGD3HKDDW3WMRDX1","A222R4PNCF08OF","3DZKABX2ZIR9F0FDMQGPG3LEN12CVN","","","null","","","","","","","","","",""
"2234.400000035763","","image-keyboard-response","379","478974","0.0-379.0","3OSWBBLG1FJDA1OGD3HKDDW3WMRDX1","A222R4PNCF08OF","3DZKABX2ZIR9F0FDMQGPG3LEN12CVN","","img/set2/S3.jpg","74","3","structured_load","72","structured_incentive,structured_load,random,structured_normal","2,3,3,4,2,1","2,1,3,4","false","","",""
"null","","html-keyboard-response","380","479327","0.0-380.0","3OSWBBLG1FJDA1OGD3HKDDW3WMRDX1","A222R4PNCF08OF","3DZKABX2ZIR9F0FDMQGPG3LEN12CVN","","<img src=""img/set2/S3.jpg"" width=""540"" height = ""360"">","null","","","","","","","","","",""
"null","","html-keyboard-response","381","479530","0.0-381.0","3OSWBBLG1FJDA1OGD3HKDDW3WMRDX1","A222R4PNCF08OF","3DZKABX2ZIR9F0FDMQGPG3LEN12CVN","","","null","","","","","","","","","",""
