"rt","url","trial_type","trial_index","time_elapsed","internal_node_id","assignmentID","mturkID","hitID","view_history","stimulus","key_press","state","test_part","correct_response","order_block","order_chunk","order_freq","correct","responses","question_order","bonus"
"4122.29999999702","consent.html","external-html","0","4265","0.0-0.0","35K3O9HUACZ12LBV94MIDOEHTWCEFR","A235DXY5FJN0IW","3URJ6VVYUP9BUCT1SZOT2DFI02L4OC","","","","","","","","","","","","",""
"75211.10000000149","","instructions","1","79481","0.0-1.0","35K3O9HUACZ12LBV94MIDOEHTWCEFR","A235DXY5FJN0IW","3URJ6VVYUP9BUCT1SZOT2DFI02L4OC","[{""page_index"":0,""viewing_time"":1427.1000000014901},{""page_index"":1,""viewing_time"":812.7999999970198},{""page_index"":2,""viewing_time"":6253.9000000059605},{""page_index"":3,""viewing_time"":7166},{""page_index"":4,""viewing_time"":24700},{""page_index"":5,""viewing_time"":19992},{""page_index"":6,""viewing_time"":14857.5}]","","","","","","","","","","","",""
"4402.70000000298","","instructions","2","83885","0.0-2.0","35K3O9HUACZ12LBV94MIDOEHTWCEFR","A235DXY5FJN0IW","3URJ6VVYUP9BUCT1SZOT2DFI02L4OC","[{""page_index"":0,""viewing_time"":4402.39999999851}]","","","","","","","","","","","",""
"20928.89999999851","","instructions","3","104816","0.0-3.0","35K3O9HUACZ12LBV94MIDOEHTWCEFR","A235DXY5FJN0IW","3URJ6VVYUP9BUCT1SZOT2DFI02L4OC","[{""page_index"":0,""viewing_time"":5281.29999999702},{""page_index"":1,""viewing_time"":15646.79999999702}]","","","","","","","","","","","",""
"null","","image-keyboard-response","4","107334","0.0-4.0","35K3O9HUACZ12LBV94MIDOEHTWCEFR","A235DXY5FJN0IW","3URJ6VVYUP9BUCT1SZOT2DFI02L4OC","","img/set1/S1.jpg","null","1","structured_incentive","83","structured_incentive,structured_normal,structured_load,random","2,3,1,2,4,2","2,3,4,1","false","","",""
"null","","html-keyboard-response","5","107692","0.0-5.0","35K3O9HUACZ12LBV94MIDOEHTWCEFR","A235DXY5FJN0IW","3URJ6VVYUP9BUCT1SZOT2DFI02L4OC","","<img src=""img/set1/S1.jpg"" width=""540"" height = ""360"">","null","","","","","","","","","",""
"null","","html-keyboard-response","6","107896","0.0-6.0","35K3O9HUACZ12LBV94MIDOEHTWCEFR","A235DXY5FJN0IW","3URJ6VVYUP9BUCT1SZOT2DFI02L4OC","","","null","","","","","","","","","",""
"70.39999999850988","","image-keyboard-response","7","107969","0.0-7.0","35K3O9HUACZ12LBV94MIDOEHTWCEFR","A235DXY5FJN0IW","3URJ6VVYUP9BUCT1SZOT2DFI02L4OC","","img/set1/S2.jpg","74","2","structured_incentive","68","structured_incentive,structured_normal,structured_load,random","2,3,1,2,4,2","2,3,4,1","false","","",""
"null","","html-keyboard-response","8","108335","0.0-8.0","35K3O9HUACZ12LBV94MIDOEHTWCEFR","A235DXY5FJN0IW","3URJ6VVYUP9BUCT1SZOT2DFI02L4OC","","<img src=""img/set1/S2.jpg"" width=""540"" height = ""360"">","null","","","","","","","","","",""
"null","","html-keyboard-response","9","108539","0.0-9.0","35K3O9HUACZ12LBV94MIDOEHTWCEFR","A235DXY5FJN0IW","3URJ6VVYUP9BUCT1SZOT2DFI02L4OC","","","null","","","","","","","","","",""
"5.100000001490116","","image-keyboard-response","10","108547","0.0-10.0","35K3O9HUACZ12LBV94MIDOEHTWCEFR","A235DXY5FJN0IW","3URJ6VVYUP9BUCT1SZOT2DFI02L4OC","","img/set1/S4.jpg","74","4","structured_incentive","74","structured_incentive,structured_normal,structured_load,random","2,3,1,2,4,2","2,3,4,1","true","","",""
"null","","html-keyboard-response","11","108915","0.0-11.0","35K3O9HUACZ12LBV94MIDOEHTWCEFR","A235DXY5FJN0IW","3URJ6VVYUP9BUCT1SZOT2DFI02L4OC","","<img src=""img/set1/S4.jpg"" width=""540"" height = ""360"" style=""border:16px solid Violet"">","null","","","","","","","","","",""
"null","","html-keyboard-response","12","109132","0.0-12.0","35K3O9HUACZ12LBV94MIDOEHTWCEFR","A235DXY5FJN0IW","3URJ6VVYUP9BUCT1SZOT2DFI02L4OC","","","null","","","","","","","","","",""
"15.099999994039536","","image-keyboard-response","13","109148","0.0-13.0","35K3O9HUACZ12LBV94MIDOEHTWCEFR","A235DXY5FJN0IW","3URJ6VVYUP9BUCT1SZOT2DFI02L4OC","","img/set1/S4.jpg","74","4","structured_incentive","74","structured_incentive,structured_normal,structured_load,random","2,3,1,2,4,2","2,3,4,1","true","","",""
"null","","html-keyboard-response","14","109507","0.0-14.0","35K3O9HUACZ12LBV94MIDOEHTWCEFR","A235DXY5FJN0IW","3URJ6VVYUP9BUCT1SZOT2DFI02L4OC","","<img src=""img/set1/S4.jpg"" width=""540"" height = ""360"" style=""border:16px solid Violet"">","null","","","","","","","","","",""
"null","","html-keyboard-response","15","109719","0.0-15.0","35K3O9HUACZ12LBV94MIDOEHTWCEFR","A235DXY5FJN0IW","3URJ6VVYUP9BUCT1SZOT2DFI02L4OC","","","null","","","","","","","","","",""
"1482.2999999970198","","image-keyboard-response","16","111203","0.0-16.0","35K3O9HUACZ12LBV94MIDOEHTWCEFR","A235DXY5FJN0IW","3URJ6VVYUP9BUCT1SZOT2DFI02L4OC","","img/set1/S4.jpg","74","4","structured_incentive","74","structured_incentive,structured_normal,structured_load,random","2,3,1,2,4,2","2,3,4,1","true","","",""
"null","","html-keyboard-response","17","111568","0.0-17.0","35K3O9HUACZ12LBV94MIDOEHTWCEFR","A235DXY5FJN0IW","3URJ6VVYUP9BUCT1SZOT2DFI02L4OC","","<img src=""img/set1/S4.jpg"" width=""540"" height = ""360"" style=""border:16px solid Violet"">","null","","","","","","","","","",""
"null","","html-keyboard-response","18","111783","0.0-18.0","35K3O9HUACZ12LBV94MIDOEHTWCEFR","A235DXY5FJN0IW","3URJ6VVYUP9BUCT1SZOT2DFI02L4OC","","","null","","","","","","","","","",""
"1140.0999999940395","","image-keyboard-response","19","112925","0.0-19.0","35K3O9HUACZ12LBV94MIDOEHTWCEFR","A235DXY5FJN0IW","3URJ6VVYUP9BUCT1SZOT2DFI02L4OC","","img/set1/S1.jpg","74","1","structured_incentive","83","structured_incentive,structured_normal,structured_load,random","2,3,1,2,4,2","2,3,4,1","false","","",""
"null","","html-keyboard-response","20","113280","0.0-20.0","35K3O9HUACZ12LBV94MIDOEHTWCEFR","A235DXY5FJN0IW","3URJ6VVYUP9BUCT1SZOT2DFI02L4OC","","<img src=""img/set1/S1.jpg"" width=""540"" height = ""360"">","null","","","","","","","","","",""
"null","","html-keyboard-response","21","113484","0.0-21.0","35K3O9HUACZ12LBV94MIDOEHTWCEFR","A235DXY5FJN0IW","3URJ6VVYUP9BUCT1SZOT2DFI02L4OC","","","null","","","","","","","","","",""
"1963.6000000014901","","image-keyboard-response","22","115450","0.0-22.0","35K3O9HUACZ12LBV94MIDOEHTWCEFR","A235DXY5FJN0IW","3URJ6VVYUP9BUCT1SZOT2DFI02L4OC","","img/set1/S2.jpg","68","2","structured_incentive","68","structured_incentive,structured_normal,structured_load,random","2,3,1,2,4,2","2,3,4,1","true","","",""
"null","","html-keyboard-response","23","115812","0.0-23.0","35K3O9HUACZ12LBV94MIDOEHTWCEFR","A235DXY5FJN0IW","3URJ6VVYUP9BUCT1SZOT2DFI02L4OC","","<img src=""img/set1/S2.jpg"" width=""540"" height = ""360"" style=""border:16px solid orange"">","null","","","","","","","","","",""
"null","","html-keyboard-response","24","116017","0.0-24.0","35K3O9HUACZ12LBV94MIDOEHTWCEFR","A235DXY5FJN0IW","3URJ6VVYUP9BUCT1SZOT2DFI02L4OC","","","null","","","","","","","","","",""
"861.3000000044703","","image-keyboard-response","25","116881","0.0-25.0","35K3O9HUACZ12LBV94MIDOEHTWCEFR","A235DXY5FJN0IW","3URJ6VVYUP9BUCT1SZOT2DFI02L4OC","","img/set1/S3.jpg","74","3","structured_incentive","72","structured_incentive,structured_normal,structured_load,random","2,3,1,2,4,2","2,3,4,1","false","","",""
"null","","html-keyboard-response","26","117239","0.0-26.0","35K3O9HUACZ12LBV94MIDOEHTWCEFR","A235DXY5FJN0IW","3URJ6VVYUP9BUCT1SZOT2DFI02L4OC","","<img src=""img/set1/S3.jpg"" width=""540"" height = ""360"">","null","","","","","","","","","",""
"null","","html-keyboard-response","27","117444","0.0-27.0","35K3O9HUACZ12LBV94MIDOEHTWCEFR","A235DXY5FJN0IW","3URJ6VVYUP9BUCT1SZOT2DFI02L4OC","","","null","","","","","","","","","",""
"625","","image-keyboard-response","28","118070","0.0-28.0","35K3O9HUACZ12LBV94MIDOEHTWCEFR","A235DXY5FJN0IW","3URJ6VVYUP9BUCT1SZOT2DFI02L4OC","","img/set1/S2.jpg","68","2","structured_incentive","68","structured_incentive,structured_normal,structured_load,random","2,3,1,2,4,2","2,3,4,1","true","","",""
"null","","html-keyboard-response","29","118426","0.0-29.0","35K3O9HUACZ12LBV94MIDOEHTWCEFR","A235DXY5FJN0IW","3URJ6VVYUP9BUCT1SZOT2DFI02L4OC","","<img src=""img/set1/S2.jpg"" width=""540"" height = ""360"" style=""border:16px solid orange"">","null","","","","","","","","","",""
"null","","html-keyboard-response","30","118629","0.0-30.0","35K3O9HUACZ12LBV94MIDOEHTWCEFR","A235DXY5FJN0IW","3URJ6VVYUP9BUCT1SZOT2DFI02L4OC","","","null","","","","","","","","","",""
"658.5","","image-keyboard-response","31","119290","0.0-31.0","35K3O9HUACZ12LBV94MIDOEHTWCEFR","A235DXY5FJN0IW","3URJ6VVYUP9BUCT1SZOT2DFI02L4OC","","img/set1/S3.jpg","74","3","structured_incentive","72","structured_incentive,structured_normal,structured_load,random","2,3,1,2,4,2","2,3,4,1","false","","",""
"null","","html-keyboard-response","32","119648","0.0-32.0","35K3O9HUACZ12LBV94MIDOEHTWCEFR","A235DXY5FJN0IW","3URJ6VVYUP9BUCT1SZOT2DFI02L4OC","","<img src=""img/set1/S3.jpg"" width=""540"" height = ""360"">","null","","","","","","","","","",""
"null","","html-keyboard-response","33","119853","0.0-33.0","35K3O9HUACZ12LBV94MIDOEHTWCEFR","A235DXY5FJN0IW","3URJ6VVYUP9BUCT1SZOT2DFI02L4OC","","","null","","","","","","","","","",""
"1382.7999999970198","","image-keyboard-response","34","121238","0.0-34.0","35K3O9HUACZ12LBV94MIDOEHTWCEFR","A235DXY5FJN0IW","3URJ6VVYUP9BUCT1SZOT2DFI02L4OC","","img/set1/S2.jpg","68","2","structured_incentive","68","structured_incentive,structured_normal,structured_load,random","2,3,1,2,4,2","2,3,4,1","true","","",""
"null","","html-keyboard-response","35","121601","0.0-35.0","35K3O9HUACZ12LBV94MIDOEHTWCEFR","A235DXY5FJN0IW","3URJ6VVYUP9BUCT1SZOT2DFI02L4OC","","<img src=""img/set1/S2.jpg"" width=""540"" height = ""360"" style=""border:16px solid orange"">","null","","","","","","","","","",""
"null","","html-keyboard-response","36","121804","0.0-36.0","35K3O9HUACZ12LBV94MIDOEHTWCEFR","A235DXY5FJN0IW","3URJ6VVYUP9BUCT1SZOT2DFI02L4OC","","","null","","","","","","","","","",""
"475.1000000014901","","image-keyboard-response","37","122281","0.0-37.0","35K3O9HUACZ12LBV94MIDOEHTWCEFR","A235DXY5FJN0IW","3URJ6VVYUP9BUCT1SZOT2DFI02L4OC","","img/set1/S3.jpg","68","3","structured_incentive","72","structured_incentive,structured_normal,structured_load,random","2,3,1,2,4,2","2,3,4,1","false","","",""
"null","","html-keyboard-response","38","122637","0.0-38.0","35K3O9HUACZ12LBV94MIDOEHTWCEFR","A235DXY5FJN0IW","3URJ6VVYUP9BUCT1SZOT2DFI02L4OC","","<img src=""img/set1/S3.jpg"" width=""540"" height = ""360"">","null","","","","","","","","","",""
"null","","html-keyboard-response","39","122842","0.0-39.0","35K3O9HUACZ12LBV94MIDOEHTWCEFR","A235DXY5FJN0IW","3URJ6VVYUP9BUCT1SZOT2DFI02L4OC","","","null","","","","","","","","","",""
"2142.9000000059605","","image-keyboard-response","40","124987","0.0-40.0","35K3O9HUACZ12LBV94MIDOEHTWCEFR","A235DXY5FJN0IW","3URJ6VVYUP9BUCT1SZOT2DFI02L4OC","","img/set1/S1.jpg","68","1","structured_incentive","83","structured_incentive,structured_normal,structured_load,random","2,3,1,2,4,2","2,3,4,1","false","","",""
"null","","html-keyboard-response","41","125346","0.0-41.0","35K3O9HUACZ12LBV94MIDOEHTWCEFR","A235DXY5FJN0IW","3URJ6VVYUP9BUCT1SZOT2DFI02L4OC","","<img src=""img/set1/S1.jpg"" width=""540"" height = ""360"">","null","","","","","","","","","",""
"null","","html-keyboard-response","42","125562","0.0-42.0","35K3O9HUACZ12LBV94MIDOEHTWCEFR","A235DXY5FJN0IW","3URJ6VVYUP9BUCT1SZOT2DFI02L4OC","","","null","","","","","","","","","",""
"628","","image-keyboard-response","43","126192","0.0-43.0","35K3O9HUACZ12LBV94MIDOEHTWCEFR","A235DXY5FJN0IW","3URJ6VVYUP9BUCT1SZOT2DFI02L4OC","","img/set1/S4.jpg","74","4","structured_incentive","74","structured_incentive,structured_normal,structured_load,random","2,3,1,2,4,2","2,3,4,1","true","","",""
"null","","html-keyboard-response","44","126558","0.0-44.0","35K3O9HUACZ12LBV94MIDOEHTWCEFR","A235DXY5FJN0IW","3URJ6VVYUP9BUCT1SZOT2DFI02L4OC","","<img src=""img/set1/S4.jpg"" width=""540"" height = ""360"" style=""border:16px solid Violet"">","null","","","","","","","","","",""
"null","","html-keyboard-response","45","126762","0.0-45.0","35K3O9HUACZ12LBV94MIDOEHTWCEFR","A235DXY5FJN0IW","3URJ6VVYUP9BUCT1SZOT2DFI02L4OC","","","null","","","","","","","","","",""
"510.29999999701977","","image-keyboard-response","46","127274","0.0-46.0","35K3O9HUACZ12LBV94MIDOEHTWCEFR","A235DXY5FJN0IW","3URJ6VVYUP9BUCT1SZOT2DFI02L4OC","","img/set1/S3.jpg","68","3","structured_incentive","72","structured_incentive,structured_normal,structured_load,random","2,3,1,2,4,2","2,3,4,1","false","","",""
"null","","html-keyboard-response","47","127630","0.0-47.0","35K3O9HUACZ12LBV94MIDOEHTWCEFR","A235DXY5FJN0IW","3URJ6VVYUP9BUCT1SZOT2DFI02L4OC","","<img src=""img/set1/S3.jpg"" width=""540"" height = ""360"">","null","","","","","","","","","",""
"null","","html-keyboard-response","48","127837","0.0-48.0","35K3O9HUACZ12LBV94MIDOEHTWCEFR","A235DXY5FJN0IW","3URJ6VVYUP9BUCT1SZOT2DFI02L4OC","","","null","","","","","","","","","",""
"null","","image-keyboard-response","49","130353","0.0-49.0","35K3O9HUACZ12LBV94MIDOEHTWCEFR","A235DXY5FJN0IW","3URJ6VVYUP9BUCT1SZOT2DFI02L4OC","","img/set1/S4.jpg","null","4","structured_incentive","74","structured_incentive,structured_normal,structured_load,random","2,3,1,2,4,2","2,3,4,1","false","","",""
"null","","html-keyboard-response","50","130720","0.0-50.0","35K3O9HUACZ12LBV94MIDOEHTWCEFR","A235DXY5FJN0IW","3URJ6VVYUP9BUCT1SZOT2DFI02L4OC","","<img src=""img/set1/S4.jpg"" width=""540"" height = ""360"">","null","","","","","","","","","",""
"null","","html-keyboard-response","51","130935","0.0-51.0","35K3O9HUACZ12LBV94MIDOEHTWCEFR","A235DXY5FJN0IW","3URJ6VVYUP9BUCT1SZOT2DFI02L4OC","","","null","","","","","","","","","",""
"677.2000000029802","","image-keyboard-response","52","131614","0.0-52.0","35K3O9HUACZ12LBV94MIDOEHTWCEFR","A235DXY5FJN0IW","3URJ6VVYUP9BUCT1SZOT2DFI02L4OC","","img/set1/S1.jpg","74","1","structured_incentive","83","structured_incentive,structured_normal,structured_load,random","2,3,1,2,4,2","2,3,4,1","false","","",""
"null","","html-keyboard-response","53","131970","0.0-53.0","35K3O9HUACZ12LBV94MIDOEHTWCEFR","A235DXY5FJN0IW","3URJ6VVYUP9BUCT1SZOT2DFI02L4OC","","<img src=""img/set1/S1.jpg"" width=""540"" height = ""360"">","null","","","","","","","","","",""
"null","","html-keyboard-response","54","132188","0.0-54.0","35K3O9HUACZ12LBV94MIDOEHTWCEFR","A235DXY5FJN0IW","3URJ6VVYUP9BUCT1SZOT2DFI02L4OC","","","null","","","","","","","","","",""
"1228.7000000029802","","image-keyboard-response","55","133419","0.0-55.0","35K3O9HUACZ12LBV94MIDOEHTWCEFR","A235DXY5FJN0IW","3URJ6VVYUP9BUCT1SZOT2DFI02L4OC","","img/set1/S1.jpg","74","1","structured_incentive","83","structured_incentive,structured_normal,structured_load,random","2,3,1,2,4,2","2,3,4,1","false","","",""
"null","","html-keyboard-response","56","133779","0.0-56.0","35K3O9HUACZ12LBV94MIDOEHTWCEFR","A235DXY5FJN0IW","3URJ6VVYUP9BUCT1SZOT2DFI02L4OC","","<img src=""img/set1/S1.jpg"" width=""540"" height = ""360"">","null","","","","","","","","","",""
"null","","html-keyboard-response","57","133981","0.0-57.0","35K3O9HUACZ12LBV94MIDOEHTWCEFR","A235DXY5FJN0IW","3URJ6VVYUP9BUCT1SZOT2DFI02L4OC","","","null","","","","","","","","","",""
"899.0999999940395","","image-keyboard-response","58","134882","0.0-58.0","35K3O9HUACZ12LBV94MIDOEHTWCEFR","A235DXY5FJN0IW","3URJ6VVYUP9BUCT1SZOT2DFI02L4OC","","img/set1/S3.jpg","72","3","structured_incentive","72","structured_incentive,structured_normal,structured_load,random","2,3,1,2,4,2","2,3,4,1","true","","",""
"null","","html-keyboard-response","59","135245","0.0-59.0","35K3O9HUACZ12LBV94MIDOEHTWCEFR","A235DXY5FJN0IW","3URJ6VVYUP9BUCT1SZOT2DFI02L4OC","","<img src=""img/set1/S3.jpg"" width=""540"" height = ""360"" style=""border:16px solid orange"">","null","","","","","","","","","",""
"null","","html-keyboard-response","60","135462","0.0-60.0","35K3O9HUACZ12LBV94MIDOEHTWCEFR","A235DXY5FJN0IW","3URJ6VVYUP9BUCT1SZOT2DFI02L4OC","","","null","","","","","","","","","",""
"387.1000000014901","","image-keyboard-response","61","135851","0.0-61.0","35K3O9HUACZ12LBV94MIDOEHTWCEFR","A235DXY5FJN0IW","3URJ6VVYUP9BUCT1SZOT2DFI02L4OC","","img/set1/S1.jpg","74","1","structured_incentive","83","structured_incentive,structured_normal,structured_load,random","2,3,1,2,4,2","2,3,4,1","false","","",""
"null","","html-keyboard-response","62","136213","0.0-62.0","35K3O9HUACZ12LBV94MIDOEHTWCEFR","A235DXY5FJN0IW","3URJ6VVYUP9BUCT1SZOT2DFI02L4OC","","<img src=""img/set1/S1.jpg"" width=""540"" height = ""360"">","null","","","","","","","","","",""
"null","","html-keyboard-response","63","136417","0.0-63.0","35K3O9HUACZ12LBV94MIDOEHTWCEFR","A235DXY5FJN0IW","3URJ6VVYUP9BUCT1SZOT2DFI02L4OC","","","null","","","","","","","","","",""
"527.3000000044703","","image-keyboard-response","64","136946","0.0-64.0","35K3O9HUACZ12LBV94MIDOEHTWCEFR","A235DXY5FJN0IW","3URJ6VVYUP9BUCT1SZOT2DFI02L4OC","","img/set1/S2.jpg","72","2","structured_incentive","68","structured_incentive,structured_normal,structured_load,random","2,3,1,2,4,2","2,3,4,1","false","","",""
"null","","html-keyboard-response","65","137310","0.0-65.0","35K3O9HUACZ12LBV94MIDOEHTWCEFR","A235DXY5FJN0IW","3URJ6VVYUP9BUCT1SZOT2DFI02L4OC","","<img src=""img/set1/S2.jpg"" width=""540"" height = ""360"">","null","","","","","","","","","",""
"null","","html-keyboard-response","66","137528","0.0-66.0","35K3O9HUACZ12LBV94MIDOEHTWCEFR","A235DXY5FJN0IW","3URJ6VVYUP9BUCT1SZOT2DFI02L4OC","","","null","","","","","","","","","",""
"88.20000000298023","","image-keyboard-response","67","137618","0.0-67.0","35K3O9HUACZ12LBV94MIDOEHTWCEFR","A235DXY5FJN0IW","3URJ6VVYUP9BUCT1SZOT2DFI02L4OC","","img/set1/S3.jpg","74","3","structured_incentive","72","structured_incentive,structured_normal,structured_load,random","2,3,1,2,4,2","2,3,4,1","false","","",""
"null","","html-keyboard-response","68","137982","0.0-68.0","35K3O9HUACZ12LBV94MIDOEHTWCEFR","A235DXY5FJN0IW","3URJ6VVYUP9BUCT1SZOT2DFI02L4OC","","<img src=""img/set1/S3.jpg"" width=""540"" height = ""360"">","null","","","","","","","","","",""
"null","","html-keyboard-response","69","138184","0.0-69.0","35K3O9HUACZ12LBV94MIDOEHTWCEFR","A235DXY5FJN0IW","3URJ6VVYUP9BUCT1SZOT2DFI02L4OC","","","null","","","","","","","","","",""
"78.10000000149012","","image-keyboard-response","70","138268","0.0-70.0","35K3O9HUACZ12LBV94MIDOEHTWCEFR","A235DXY5FJN0IW","3URJ6VVYUP9BUCT1SZOT2DFI02L4OC","","img/set1/S2.jpg","74","2","structured_incentive","68","structured_incentive,structured_normal,structured_load,random","2,3,1,2,4,2","2,3,4,1","false","","",""
"null","","html-keyboard-response","71","138621","0.0-71.0","35K3O9HUACZ12LBV94MIDOEHTWCEFR","A235DXY5FJN0IW","3URJ6VVYUP9BUCT1SZOT2DFI02L4OC","","<img src=""img/set1/S2.jpg"" width=""540"" height = ""360"">","null","","","","","","","","","",""
"null","","html-keyboard-response","72","138825","0.0-72.0","35K3O9HUACZ12LBV94MIDOEHTWCEFR","A235DXY5FJN0IW","3URJ6VVYUP9BUCT1SZOT2DFI02L4OC","","","null","","","","","","","","","",""
"441.20000000298023","","image-keyboard-response","73","139268","0.0-73.0","35K3O9HUACZ12LBV94MIDOEHTWCEFR","A235DXY5FJN0IW","3URJ6VVYUP9BUCT1SZOT2DFI02L4OC","","img/set1/S3.jpg","74","3","structured_incentive","72","structured_incentive,structured_normal,structured_load,random","2,3,1,2,4,2","2,3,4,1","false","","",""
"null","","html-keyboard-response","74","139635","0.0-74.0","35K3O9HUACZ12LBV94MIDOEHTWCEFR","A235DXY5FJN0IW","3URJ6VVYUP9BUCT1SZOT2DFI02L4OC","","<img src=""img/set1/S3.jpg"" width=""540"" height = ""360"">","null","","","","","","","","","",""
"null","","html-keyboard-response","75","139838","0.0-75.0","35K3O9HUACZ12LBV94MIDOEHTWCEFR","A235DXY5FJN0IW","3URJ6VVYUP9BUCT1SZOT2DFI02L4OC","","","null","","","","","","","","","",""
"483.29999999701977","","image-keyboard-response","76","140324","0.0-76.0","35K3O9HUACZ12LBV94MIDOEHTWCEFR","A235DXY5FJN0IW","3URJ6VVYUP9BUCT1SZOT2DFI02L4OC","","img/set1/S2.jpg","74","2","structured_incentive","68","structured_incentive,structured_normal,structured_load,random","2,3,1,2,4,2","2,3,4,1","false","","",""
"null","","html-keyboard-response","77","140688","0.0-77.0","35K3O9HUACZ12LBV94MIDOEHTWCEFR","A235DXY5FJN0IW","3URJ6VVYUP9BUCT1SZOT2DFI02L4OC","","<img src=""img/set1/S2.jpg"" width=""540"" height = ""360"">","null","","","","","","","","","",""
"null","","html-keyboard-response","78","140907","0.0-78.0","35K3O9HUACZ12LBV94MIDOEHTWCEFR","A235DXY5FJN0IW","3URJ6VVYUP9BUCT1SZOT2DFI02L4OC","","","null","","","","","","","","","",""
"145.10000000149012","","image-keyboard-response","79","141054","0.0-79.0","35K3O9HUACZ12LBV94MIDOEHTWCEFR","A235DXY5FJN0IW","3URJ6VVYUP9BUCT1SZOT2DFI02L4OC","","img/set1/S3.jpg","74","3","structured_incentive","72","structured_incentive,structured_normal,structured_load,random","2,3,1,2,4,2","2,3,4,1","false","","",""
"null","","html-keyboard-response","80","141418","0.0-80.0","35K3O9HUACZ12LBV94MIDOEHTWCEFR","A235DXY5FJN0IW","3URJ6VVYUP9BUCT1SZOT2DFI02L4OC","","<img src=""img/set1/S3.jpg"" width=""540"" height = ""360"">","null","","","","","","","","","",""
"null","","html-keyboard-response","81","141630","0.0-81.0","35K3O9HUACZ12LBV94MIDOEHTWCEFR","A235DXY5FJN0IW","3URJ6VVYUP9BUCT1SZOT2DFI02L4OC","","","null","","","","","","","","","",""
"144.20000000298023","","image-keyboard-response","82","141776","0.0-82.0","35K3O9HUACZ12LBV94MIDOEHTWCEFR","A235DXY5FJN0IW","3URJ6VVYUP9BUCT1SZOT2DFI02L4OC","","img/set1/S2.jpg","74","2","structured_incentive","68","structured_incentive,structured_normal,structured_load,random","2,3,1,2,4,2","2,3,4,1","false","","",""
"null","","html-keyboard-response","83","142138","0.0-83.0","35K3O9HUACZ12LBV94MIDOEHTWCEFR","A235DXY5FJN0IW","3URJ6VVYUP9BUCT1SZOT2DFI02L4OC","","<img src=""img/set1/S2.jpg"" width=""540"" height = ""360"">","null","","","","","","","","","",""
"null","","html-keyboard-response","84","142342","0.0-84.0","35K3O9HUACZ12LBV94MIDOEHTWCEFR","A235DXY5FJN0IW","3URJ6VVYUP9BUCT1SZOT2DFI02L4OC","","","null","","","","","","","","","",""
"181.60000000149012","","image-keyboard-response","85","142552","0.0-85.0","35K3O9HUACZ12LBV94MIDOEHTWCEFR","A235DXY5FJN0IW","3URJ6VVYUP9BUCT1SZOT2DFI02L4OC","","img/set1/S3.jpg","74","3","structured_incentive","72","structured_incentive,structured_normal,structured_load,random","2,3,1,2,4,2","2,3,4,1","false","","",""
"null","","html-keyboard-response","86","142908","0.0-86.0","35K3O9HUACZ12LBV94MIDOEHTWCEFR","A235DXY5FJN0IW","3URJ6VVYUP9BUCT1SZOT2DFI02L4OC","","<img src=""img/set1/S3.jpg"" width=""540"" height = ""360"">","null","","","","","","","","","",""
"null","","html-keyboard-response","87","143111","0.0-87.0","35K3O9HUACZ12LBV94MIDOEHTWCEFR","A235DXY5FJN0IW","3URJ6VVYUP9BUCT1SZOT2DFI02L4OC","","","null","","","","","","","","","",""
"185","","image-keyboard-response","88","143300","0.0-88.0","35K3O9HUACZ12LBV94MIDOEHTWCEFR","A235DXY5FJN0IW","3URJ6VVYUP9BUCT1SZOT2DFI02L4OC","","img/set1/S2.jpg","74","2","structured_incentive","68","structured_incentive,structured_normal,structured_load,random","2,3,1,2,4,2","2,3,4,1","false","","",""
"null","","html-keyboard-response","89","143654","0.0-89.0","35K3O9HUACZ12LBV94MIDOEHTWCEFR","A235DXY5FJN0IW","3URJ6VVYUP9BUCT1SZOT2DFI02L4OC","","<img src=""img/set1/S2.jpg"" width=""540"" height = ""360"">","null","","","","","","","","","",""
"null","","html-keyboard-response","90","143861","0.0-90.0","35K3O9HUACZ12LBV94MIDOEHTWCEFR","A235DXY5FJN0IW","3URJ6VVYUP9BUCT1SZOT2DFI02L4OC","","","null","","","","","","","","","",""
"58.5","","image-keyboard-response","91","143921","0.0-91.0","35K3O9HUACZ12LBV94MIDOEHTWCEFR","A235DXY5FJN0IW","3URJ6VVYUP9BUCT1SZOT2DFI02L4OC","","img/set1/S3.jpg","74","3","structured_incentive","72","structured_incentive,structured_normal,structured_load,random","2,3,1,2,4,2","2,3,4,1","false","","",""
"null","","html-keyboard-response","92","144282","0.0-92.0","35K3O9HUACZ12LBV94MIDOEHTWCEFR","A235DXY5FJN0IW","3URJ6VVYUP9BUCT1SZOT2DFI02L4OC","","<img src=""img/set1/S3.jpg"" width=""540"" height = ""360"">","null","","","","","","","","","",""
"null","","html-keyboard-response","93","144499","0.0-93.0","35K3O9HUACZ12LBV94MIDOEHTWCEFR","A235DXY5FJN0IW","3URJ6VVYUP9BUCT1SZOT2DFI02L4OC","","","null","","","","","","","","","",""
"506.69999999552965","","image-keyboard-response","94","145007","0.0-94.0","35K3O9HUACZ12LBV94MIDOEHTWCEFR","A235DXY5FJN0IW","3URJ6VVYUP9BUCT1SZOT2DFI02L4OC","","img/set1/S4.jpg","74","4","structured_incentive","74","structured_incentive,structured_normal,structured_load,random","2,3,1,2,4,2","2,3,4,1","true","","",""
"null","","html-keyboard-response","95","145366","0.0-95.0","35K3O9HUACZ12LBV94MIDOEHTWCEFR","A235DXY5FJN0IW","3URJ6VVYUP9BUCT1SZOT2DFI02L4OC","","<img src=""img/set1/S4.jpg"" width=""540"" height = ""360"" style=""border:16px solid Violet"">","null","","","","","","","","","",""
"null","","html-keyboard-response","96","145569","0.0-96.0","35K3O9HUACZ12LBV94MIDOEHTWCEFR","A235DXY5FJN0IW","3URJ6VVYUP9BUCT1SZOT2DFI02L4OC","","","null","","","","","","","","","",""
"468.29999999701977","","image-keyboard-response","97","146040","0.0-97.0","35K3O9HUACZ12LBV94MIDOEHTWCEFR","A235DXY5FJN0IW","3URJ6VVYUP9BUCT1SZOT2DFI02L4OC","","img/set1/S1.jpg","74","1","structured_incentive","83","structured_incentive,structured_normal,structured_load,random","2,3,1,2,4,2","2,3,4,1","false","","",""
"null","","html-keyboard-response","98","146406","0.0-98.0","35K3O9HUACZ12LBV94MIDOEHTWCEFR","A235DXY5FJN0IW","3URJ6VVYUP9BUCT1SZOT2DFI02L4OC","","<img src=""img/set1/S1.jpg"" width=""540"" height = ""360"">","null","","","","","","","","","",""
"null","","html-keyboard-response","99","146623","0.0-99.0","35K3O9HUACZ12LBV94MIDOEHTWCEFR","A235DXY5FJN0IW","3URJ6VVYUP9BUCT1SZOT2DFI02L4OC","","","null","","","","","","","","","",""
"499.80000000447035","","image-keyboard-response","100","147124","0.0-100.0","35K3O9HUACZ12LBV94MIDOEHTWCEFR","A235DXY5FJN0IW","3URJ6VVYUP9BUCT1SZOT2DFI02L4OC","","img/set1/S3.jpg","74","3","structured_incentive","72","structured_incentive,structured_normal,structured_load,random","2,3,1,2,4,2","2,3,4,1","false","","",""
"null","","html-keyboard-response","101","147478","0.0-101.0","35K3O9HUACZ12LBV94MIDOEHTWCEFR","A235DXY5FJN0IW","3URJ6VVYUP9BUCT1SZOT2DFI02L4OC","","<img src=""img/set1/S3.jpg"" width=""540"" height = ""360"">","null","","","","","","","","","",""
"null","","html-keyboard-response","102","147685","0.0-102.0","35K3O9HUACZ12LBV94MIDOEHTWCEFR","A235DXY5FJN0IW","3URJ6VVYUP9BUCT1SZOT2DFI02L4OC","","","null","","","","","","","","","",""
"866.6000000014901","","image-keyboard-response","103","148553","0.0-103.0","35K3O9HUACZ12LBV94MIDOEHTWCEFR","A235DXY5FJN0IW","3URJ6VVYUP9BUCT1SZOT2DFI02L4OC","","img/set1/S4.jpg","74","4","structured_incentive","74","structured_incentive,structured_normal,structured_load,random","2,3,1,2,4,2","2,3,4,1","true","","",""
"null","","html-keyboard-response","104","148909","0.0-104.0","35K3O9HUACZ12LBV94MIDOEHTWCEFR","A235DXY5FJN0IW","3URJ6VVYUP9BUCT1SZOT2DFI02L4OC","","<img src=""img/set1/S4.jpg"" width=""540"" height = ""360"" style=""border:16px solid Violet"">","null","","","","","","","","","",""
"null","","html-keyboard-response","105","149125","0.0-105.0","35K3O9HUACZ12LBV94MIDOEHTWCEFR","A235DXY5FJN0IW","3URJ6VVYUP9BUCT1SZOT2DFI02L4OC","","","null","","","","","","","","","",""
"324.5","","image-keyboard-response","106","149452","0.0-106.0","35K3O9HUACZ12LBV94MIDOEHTWCEFR","A235DXY5FJN0IW","3URJ6VVYUP9BUCT1SZOT2DFI02L4OC","","img/set1/S2.jpg","74","2","structured_incentive","68","structured_incentive,structured_normal,structured_load,random","2,3,1,2,4,2","2,3,4,1","false","","",""
"null","","html-keyboard-response","107","149818","0.0-107.0","35K3O9HUACZ12LBV94MIDOEHTWCEFR","A235DXY5FJN0IW","3URJ6VVYUP9BUCT1SZOT2DFI02L4OC","","<img src=""img/set1/S2.jpg"" width=""540"" height = ""360"">","null","","","","","","","","","",""
"null","","html-keyboard-response","108","150022","0.0-108.0","35K3O9HUACZ12LBV94MIDOEHTWCEFR","A235DXY5FJN0IW","3URJ6VVYUP9BUCT1SZOT2DFI02L4OC","","","null","","","","","","","","","",""
"341","","image-keyboard-response","109","150365","0.0-109.0","35K3O9HUACZ12LBV94MIDOEHTWCEFR","A235DXY5FJN0IW","3URJ6VVYUP9BUCT1SZOT2DFI02L4OC","","img/set1/S3.jpg","74","3","structured_incentive","72","structured_incentive,structured_normal,structured_load,random","2,3,1,2,4,2","2,3,4,1","false","","",""
"null","","html-keyboard-response","110","150765","0.0-110.0","35K3O9HUACZ12LBV94MIDOEHTWCEFR","A235DXY5FJN0IW","3URJ6VVYUP9BUCT1SZOT2DFI02L4OC","","<img src=""img/set1/S3.jpg"" width=""540"" height = ""360"">","null","","","","","","","","","",""
"null","","html-keyboard-response","111","150975","0.0-111.0","35K3O9HUACZ12LBV94MIDOEHTWCEFR","A235DXY5FJN0IW","3URJ6VVYUP9BUCT1SZOT2DFI02L4OC","","","null","","","","","","","","","",""
"169.5","","image-keyboard-response","112","151146","0.0-112.0","35K3O9HUACZ12LBV94MIDOEHTWCEFR","A235DXY5FJN0IW","3URJ6VVYUP9BUCT1SZOT2DFI02L4OC","","img/set1/S4.jpg","74","4","structured_incentive","74","structured_incentive,structured_normal,structured_load,random","2,3,1,2,4,2","2,3,4,1","true","","",""
"null","","html-keyboard-response","113","151510","0.0-113.0","35K3O9HUACZ12LBV94MIDOEHTWCEFR","A235DXY5FJN0IW","3URJ6VVYUP9BUCT1SZOT2DFI02L4OC","","<img src=""img/set1/S4.jpg"" width=""540"" height = ""360"" style=""border:16px solid Violet"">","null","","","","","","","","","",""
"null","","html-keyboard-response","114","151726","0.0-114.0","35K3O9HUACZ12LBV94MIDOEHTWCEFR","A235DXY5FJN0IW","3URJ6VVYUP9BUCT1SZOT2DFI02L4OC","","","null","","","","","","","","","",""
"579.1999999955297","","image-keyboard-response","115","152307","0.0-115.0","35K3O9HUACZ12LBV94MIDOEHTWCEFR","A235DXY5FJN0IW","3URJ6VVYUP9BUCT1SZOT2DFI02L4OC","","img/set1/S1.jpg","74","1","structured_incentive","83","structured_incentive,structured_normal,structured_load,random","2,3,1,2,4,2","2,3,4,1","false","","",""
"null","","html-keyboard-response","116","152666","0.0-116.0","35K3O9HUACZ12LBV94MIDOEHTWCEFR","A235DXY5FJN0IW","3URJ6VVYUP9BUCT1SZOT2DFI02L4OC","","<img src=""img/set1/S1.jpg"" width=""540"" height = ""360"">","null","","","","","","","","","",""
"null","","html-keyboard-response","117","152870","0.0-117.0","35K3O9HUACZ12LBV94MIDOEHTWCEFR","A235DXY5FJN0IW","3URJ6VVYUP9BUCT1SZOT2DFI02L4OC","","","null","","","","","","","","","",""
"293.1000000014901","","image-keyboard-response","118","153166","0.0-118.0","35K3O9HUACZ12LBV94MIDOEHTWCEFR","A235DXY5FJN0IW","3URJ6VVYUP9BUCT1SZOT2DFI02L4OC","","img/set1/S4.jpg","74","4","structured_incentive","74","structured_incentive,structured_normal,structured_load,random","2,3,1,2,4,2","2,3,4,1","true","","",""
"null","","html-keyboard-response","119","153522","0.0-119.0","35K3O9HUACZ12LBV94MIDOEHTWCEFR","A235DXY5FJN0IW","3URJ6VVYUP9BUCT1SZOT2DFI02L4OC","","<img src=""img/set1/S4.jpg"" width=""540"" height = ""360"" style=""border:16px solid Violet"">","null","","","","","","","","","",""
"null","","html-keyboard-response","120","153724","0.0-120.0","35K3O9HUACZ12LBV94MIDOEHTWCEFR","A235DXY5FJN0IW","3URJ6VVYUP9BUCT1SZOT2DFI02L4OC","","","null","","","","","","","","","",""
"560.9000000059605","","image-keyboard-response","121","154287","0.0-121.0","35K3O9HUACZ12LBV94MIDOEHTWCEFR","A235DXY5FJN0IW","3URJ6VVYUP9BUCT1SZOT2DFI02L4OC","","img/set1/S2.jpg","74","2","structured_incentive","68","structured_incentive,structured_normal,structured_load,random","2,3,1,2,4,2","2,3,4,1","false","","",""
"null","","html-keyboard-response","122","154648","0.0-122.0","35K3O9HUACZ12LBV94MIDOEHTWCEFR","A235DXY5FJN0IW","3URJ6VVYUP9BUCT1SZOT2DFI02L4OC","","<img src=""img/set1/S2.jpg"" width=""540"" height = ""360"">","null","","","","","","","","","",""
"null","","html-keyboard-response","123","154854","0.0-123.0","35K3O9HUACZ12LBV94MIDOEHTWCEFR","A235DXY5FJN0IW","3URJ6VVYUP9BUCT1SZOT2DFI02L4OC","","","null","","","","","","","","","",""
"176.5","","image-keyboard-response","124","155032","0.0-124.0","35K3O9HUACZ12LBV94MIDOEHTWCEFR","A235DXY5FJN0IW","3URJ6VVYUP9BUCT1SZOT2DFI02L4OC","","img/set1/S3.jpg","74","3","structured_incentive","72","structured_incentive,structured_normal,structured_load,random","2,3,1,2,4,2","2,3,4,1","false","","",""
"null","","html-keyboard-response","125","155385","0.0-125.0","35K3O9HUACZ12LBV94MIDOEHTWCEFR","A235DXY5FJN0IW","3URJ6VVYUP9BUCT1SZOT2DFI02L4OC","","<img src=""img/set1/S3.jpg"" width=""540"" height = ""360"">","null","","","","","","","","","",""
"null","","html-keyboard-response","126","155590","0.0-126.0","35K3O9HUACZ12LBV94MIDOEHTWCEFR","A235DXY5FJN0IW","3URJ6VVYUP9BUCT1SZOT2DFI02L4OC","","","null","","","","","","","","","",""
"125.90000000596046","","image-keyboard-response","127","155718","0.0-127.0","35K3O9HUACZ12LBV94MIDOEHTWCEFR","A235DXY5FJN0IW","3URJ6VVYUP9BUCT1SZOT2DFI02L4OC","","img/set1/S2.jpg","74","2","structured_incentive","68","structured_incentive,structured_normal,structured_load,random","2,3,1,2,4,2","2,3,4,1","false","","",""
"null","","html-keyboard-response","128","156073","0.0-128.0","35K3O9HUACZ12LBV94MIDOEHTWCEFR","A235DXY5FJN0IW","3URJ6VVYUP9BUCT1SZOT2DFI02L4OC","","<img src=""img/set1/S2.jpg"" width=""540"" height = ""360"">","null","","","","","","","","","",""
"null","","html-keyboard-response","129","156290","0.0-129.0","35K3O9HUACZ12LBV94MIDOEHTWCEFR","A235DXY5FJN0IW","3URJ6VVYUP9BUCT1SZOT2DFI02L4OC","","","null","","","","","","","","","",""
"136.39999999850988","","image-keyboard-response","130","156428","0.0-130.0","35K3O9HUACZ12LBV94MIDOEHTWCEFR","A235DXY5FJN0IW","3URJ6VVYUP9BUCT1SZOT2DFI02L4OC","","img/set1/S3.jpg","72","3","structured_incentive","72","structured_incentive,structured_normal,structured_load,random","2,3,1,2,4,2","2,3,4,1","true","","",""
"null","","html-keyboard-response","131","156791","0.0-131.0","35K3O9HUACZ12LBV94MIDOEHTWCEFR","A235DXY5FJN0IW","3URJ6VVYUP9BUCT1SZOT2DFI02L4OC","","<img src=""img/set1/S3.jpg"" width=""540"" height = ""360"" style=""border:16px solid orange"">","null","","","","","","","","","",""
"null","","html-keyboard-response","132","156995","0.0-132.0","35K3O9HUACZ12LBV94MIDOEHTWCEFR","A235DXY5FJN0IW","3URJ6VVYUP9BUCT1SZOT2DFI02L4OC","","","null","","","","","","","","","",""
"213.5","","image-keyboard-response","133","157211","0.0-133.0","35K3O9HUACZ12LBV94MIDOEHTWCEFR","A235DXY5FJN0IW","3URJ6VVYUP9BUCT1SZOT2DFI02L4OC","","img/set1/S4.jpg","74","4","structured_incentive","74","structured_incentive,structured_normal,structured_load,random","2,3,1,2,4,2","2,3,4,1","true","","",""
"null","","html-keyboard-response","134","157571","0.0-134.0","35K3O9HUACZ12LBV94MIDOEHTWCEFR","A235DXY5FJN0IW","3URJ6VVYUP9BUCT1SZOT2DFI02L4OC","","<img src=""img/set1/S4.jpg"" width=""540"" height = ""360"" style=""border:16px solid Violet"">","null","","","","","","","","","",""
"null","","html-keyboard-response","135","157776","0.0-135.0","35K3O9HUACZ12LBV94MIDOEHTWCEFR","A235DXY5FJN0IW","3URJ6VVYUP9BUCT1SZOT2DFI02L4OC","","","null","","","","","","","","","",""
"64.70000000298023","","image-keyboard-response","136","157843","0.0-136.0","35K3O9HUACZ12LBV94MIDOEHTWCEFR","A235DXY5FJN0IW","3URJ6VVYUP9BUCT1SZOT2DFI02L4OC","","img/set1/S2.jpg","74","2","structured_incentive","68","structured_incentive,structured_normal,structured_load,random","2,3,1,2,4,2","2,3,4,1","false","","",""
"null","","html-keyboard-response","137","158209","0.0-137.0","35K3O9HUACZ12LBV94MIDOEHTWCEFR","A235DXY5FJN0IW","3URJ6VVYUP9BUCT1SZOT2DFI02L4OC","","<img src=""img/set1/S2.jpg"" width=""540"" height = ""360"">","null","","","","","","","","","",""
"null","","html-keyboard-response","138","158413","0.0-138.0","35K3O9HUACZ12LBV94MIDOEHTWCEFR","A235DXY5FJN0IW","3URJ6VVYUP9BUCT1SZOT2DFI02L4OC","","","null","","","","","","","","","",""
"85.60000000149012","","image-keyboard-response","139","158500","0.0-139.0","35K3O9HUACZ12LBV94MIDOEHTWCEFR","A235DXY5FJN0IW","3URJ6VVYUP9BUCT1SZOT2DFI02L4OC","","img/set1/S3.jpg","74","3","structured_incentive","72","structured_incentive,structured_normal,structured_load,random","2,3,1,2,4,2","2,3,4,1","false","","",""
"null","","html-keyboard-response","140","158864","0.0-140.0","35K3O9HUACZ12LBV94MIDOEHTWCEFR","A235DXY5FJN0IW","3URJ6VVYUP9BUCT1SZOT2DFI02L4OC","","<img src=""img/set1/S3.jpg"" width=""540"" height = ""360"">","null","","","","","","","","","",""
"null","","html-keyboard-response","141","159068","0.0-141.0","35K3O9HUACZ12LBV94MIDOEHTWCEFR","A235DXY5FJN0IW","3URJ6VVYUP9BUCT1SZOT2DFI02L4OC","","","null","","","","","","","","","",""
"105.10000000149012","","image-keyboard-response","142","159175","0.0-142.0","35K3O9HUACZ12LBV94MIDOEHTWCEFR","A235DXY5FJN0IW","3URJ6VVYUP9BUCT1SZOT2DFI02L4OC","","img/set1/S2.jpg","74","2","structured_incentive","68","structured_incentive,structured_normal,structured_load,random","2,3,1,2,4,2","2,3,4,1","false","","",""
"null","","html-keyboard-response","143","159535","0.0-143.0","35K3O9HUACZ12LBV94MIDOEHTWCEFR","A235DXY5FJN0IW","3URJ6VVYUP9BUCT1SZOT2DFI02L4OC","","<img src=""img/set1/S2.jpg"" width=""540"" height = ""360"">","null","","","","","","","","","",""
"null","","html-keyboard-response","144","159738","0.0-144.0","35K3O9HUACZ12LBV94MIDOEHTWCEFR","A235DXY5FJN0IW","3URJ6VVYUP9BUCT1SZOT2DFI02L4OC","","","null","","","","","","","","","",""
"113","","image-keyboard-response","145","159852","0.0-145.0","35K3O9HUACZ12LBV94MIDOEHTWCEFR","A235DXY5FJN0IW","3URJ6VVYUP9BUCT1SZOT2DFI02L4OC","","img/set1/S3.jpg","74","3","structured_incentive","72","structured_incentive,structured_normal,structured_load,random","2,3,1,2,4,2","2,3,4,1","false","","",""
"null","","html-keyboard-response","146","160211","0.0-146.0","35K3O9HUACZ12LBV94MIDOEHTWCEFR","A235DXY5FJN0IW","3URJ6VVYUP9BUCT1SZOT2DFI02L4OC","","<img src=""img/set1/S3.jpg"" width=""540"" height = ""360"">","null","","","","","","","","","",""
"null","","html-keyboard-response","147","160429","0.0-147.0","35K3O9HUACZ12LBV94MIDOEHTWCEFR","A235DXY5FJN0IW","3URJ6VVYUP9BUCT1SZOT2DFI02L4OC","","","null","","","","","","","","","",""
"5.100000001490116","","image-keyboard-response","148","160435","0.0-148.0","35K3O9HUACZ12LBV94MIDOEHTWCEFR","A235DXY5FJN0IW","3URJ6VVYUP9BUCT1SZOT2DFI02L4OC","","img/set1/S1.jpg","72","1","structured_incentive","83","structured_incentive,structured_normal,structured_load,random","2,3,1,2,4,2","2,3,4,1","false","","",""
"null","","html-keyboard-response","149","160793","0.0-149.0","35K3O9HUACZ12LBV94MIDOEHTWCEFR","A235DXY5FJN0IW","3URJ6VVYUP9BUCT1SZOT2DFI02L4OC","","<img src=""img/set1/S1.jpg"" width=""540"" height = ""360"">","null","","","","","","","","","",""
"null","","html-keyboard-response","150","160996","0.0-150.0","35K3O9HUACZ12LBV94MIDOEHTWCEFR","A235DXY5FJN0IW","3URJ6VVYUP9BUCT1SZOT2DFI02L4OC","","","null","","","","","","","","","",""
"271.79999999701977","","image-keyboard-response","151","161270","0.0-151.0","35K3O9HUACZ12LBV94MIDOEHTWCEFR","A235DXY5FJN0IW","3URJ6VVYUP9BUCT1SZOT2DFI02L4OC","","img/set1/S2.jpg","72","2","structured_incentive","68","structured_incentive,structured_normal,structured_load,random","2,3,1,2,4,2","2,3,4,1","false","","",""
"null","","html-keyboard-response","152","161622","0.0-152.0","35K3O9HUACZ12LBV94MIDOEHTWCEFR","A235DXY5FJN0IW","3URJ6VVYUP9BUCT1SZOT2DFI02L4OC","","<img src=""img/set1/S2.jpg"" width=""540"" height = ""360"">","null","","","","","","","","","",""
"null","","html-keyboard-response","153","161828","0.0-153.0","35K3O9HUACZ12LBV94MIDOEHTWCEFR","A235DXY5FJN0IW","3URJ6VVYUP9BUCT1SZOT2DFI02L4OC","","","null","","","","","","","","","",""
"201.39999999850988","","image-keyboard-response","154","162031","0.0-154.0","35K3O9HUACZ12LBV94MIDOEHTWCEFR","A235DXY5FJN0IW","3URJ6VVYUP9BUCT1SZOT2DFI02L4OC","","img/set1/S4.jpg","74","4","structured_incentive","74","structured_incentive,structured_normal,structured_load,random","2,3,1,2,4,2","2,3,4,1","true","","",""
"null","","html-keyboard-response","155","162391","0.0-155.0","35K3O9HUACZ12LBV94MIDOEHTWCEFR","A235DXY5FJN0IW","3URJ6VVYUP9BUCT1SZOT2DFI02L4OC","","<img src=""img/set1/S4.jpg"" width=""540"" height = ""360"" style=""border:16px solid Violet"">","null","","","","","","","","","",""
"null","","html-keyboard-response","156","162594","0.0-156.0","35K3O9HUACZ12LBV94MIDOEHTWCEFR","A235DXY5FJN0IW","3URJ6VVYUP9BUCT1SZOT2DFI02L4OC","","","null","","","","","","","","","",""
"924.2000000029802","","image-keyboard-response","157","163520","0.0-157.0","35K3O9HUACZ12LBV94MIDOEHTWCEFR","A235DXY5FJN0IW","3URJ6VVYUP9BUCT1SZOT2DFI02L4OC","","img/set1/S1.jpg","74","1","structured_incentive","83","structured_incentive,structured_normal,structured_load,random","2,3,1,2,4,2","2,3,4,1","false","","",""
"null","","html-keyboard-response","158","163877","0.0-158.0","35K3O9HUACZ12LBV94MIDOEHTWCEFR","A235DXY5FJN0IW","3URJ6VVYUP9BUCT1SZOT2DFI02L4OC","","<img src=""img/set1/S1.jpg"" width=""540"" height = ""360"">","null","","","","","","","","","",""
"null","","html-keyboard-response","159","164080","0.0-159.0","35K3O9HUACZ12LBV94MIDOEHTWCEFR","A235DXY5FJN0IW","3URJ6VVYUP9BUCT1SZOT2DFI02L4OC","","","null","","","","","","","","","",""
"653.6000000014901","","image-keyboard-response","160","164736","0.0-160.0","35K3O9HUACZ12LBV94MIDOEHTWCEFR","A235DXY5FJN0IW","3URJ6VVYUP9BUCT1SZOT2DFI02L4OC","","img/set1/S3.jpg","74","3","structured_incentive","72","structured_incentive,structured_normal,structured_load,random","2,3,1,2,4,2","2,3,4,1","false","","",""
"null","","html-keyboard-response","161","165097","0.0-161.0","35K3O9HUACZ12LBV94MIDOEHTWCEFR","A235DXY5FJN0IW","3URJ6VVYUP9BUCT1SZOT2DFI02L4OC","","<img src=""img/set1/S3.jpg"" width=""540"" height = ""360"">","null","","","","","","","","","",""
"null","","html-keyboard-response","162","165299","0.0-162.0","35K3O9HUACZ12LBV94MIDOEHTWCEFR","A235DXY5FJN0IW","3URJ6VVYUP9BUCT1SZOT2DFI02L4OC","","","null","","","","","","","","","",""
"1068.8999999985099","","image-keyboard-response","163","166371","0.0-163.0","35K3O9HUACZ12LBV94MIDOEHTWCEFR","A235DXY5FJN0IW","3URJ6VVYUP9BUCT1SZOT2DFI02L4OC","","img/set1/S4.jpg","74","4","structured_incentive","74","structured_incentive,structured_normal,structured_load,random","2,3,1,2,4,2","2,3,4,1","true","","",""
"null","","html-keyboard-response","164","166731","0.0-164.0","35K3O9HUACZ12LBV94MIDOEHTWCEFR","A235DXY5FJN0IW","3URJ6VVYUP9BUCT1SZOT2DFI02L4OC","","<img src=""img/set1/S4.jpg"" width=""540"" height = ""360"" style=""border:16px solid Violet"">","null","","","","","","","","","",""
"null","","html-keyboard-response","165","166935","0.0-165.0","35K3O9HUACZ12LBV94MIDOEHTWCEFR","A235DXY5FJN0IW","3URJ6VVYUP9BUCT1SZOT2DFI02L4OC","","","null","","","","","","","","","",""
"756.7000000029802","","image-keyboard-response","166","167697","0.0-166.0","35K3O9HUACZ12LBV94MIDOEHTWCEFR","A235DXY5FJN0IW","3URJ6VVYUP9BUCT1SZOT2DFI02L4OC","","img/set1/S1.jpg","72","1","structured_incentive","83","structured_incentive,structured_normal,structured_load,random","2,3,1,2,4,2","2,3,4,1","false","","",""
"null","","html-keyboard-response","167","168053","0.0-167.0","35K3O9HUACZ12LBV94MIDOEHTWCEFR","A235DXY5FJN0IW","3URJ6VVYUP9BUCT1SZOT2DFI02L4OC","","<img src=""img/set1/S1.jpg"" width=""540"" height = ""360"">","null","","","","","","","","","",""
"null","","html-keyboard-response","168","168268","0.0-168.0","35K3O9HUACZ12LBV94MIDOEHTWCEFR","A235DXY5FJN0IW","3URJ6VVYUP9BUCT1SZOT2DFI02L4OC","","","null","","","","","","","","","",""
"72.39999999850988","","image-keyboard-response","169","168343","0.0-169.0","35K3O9HUACZ12LBV94MIDOEHTWCEFR","A235DXY5FJN0IW","3URJ6VVYUP9BUCT1SZOT2DFI02L4OC","","img/set1/S2.jpg","72","2","structured_incentive","68","structured_incentive,structured_normal,structured_load,random","2,3,1,2,4,2","2,3,4,1","false","","",""
"null","","html-keyboard-response","170","168705","0.0-170.0","35K3O9HUACZ12LBV94MIDOEHTWCEFR","A235DXY5FJN0IW","3URJ6VVYUP9BUCT1SZOT2DFI02L4OC","","<img src=""img/set1/S2.jpg"" width=""540"" height = ""360"">","null","","","","","","","","","",""
"null","","html-keyboard-response","171","168906","0.0-171.0","35K3O9HUACZ12LBV94MIDOEHTWCEFR","A235DXY5FJN0IW","3URJ6VVYUP9BUCT1SZOT2DFI02L4OC","","","null","","","","","","","","","",""
"113.19999999552965","","image-keyboard-response","172","169021","0.0-172.0","35K3O9HUACZ12LBV94MIDOEHTWCEFR","A235DXY5FJN0IW","3URJ6VVYUP9BUCT1SZOT2DFI02L4OC","","img/set1/S4.jpg","74","4","structured_incentive","74","structured_incentive,structured_normal,structured_load,random","2,3,1,2,4,2","2,3,4,1","true","","",""
"null","","html-keyboard-response","173","169378","0.0-173.0","35K3O9HUACZ12LBV94MIDOEHTWCEFR","A235DXY5FJN0IW","3URJ6VVYUP9BUCT1SZOT2DFI02L4OC","","<img src=""img/set1/S4.jpg"" width=""540"" height = ""360"" style=""border:16px solid Violet"">","null","","","","","","","","","",""
"null","","html-keyboard-response","174","169581","0.0-174.0","35K3O9HUACZ12LBV94MIDOEHTWCEFR","A235DXY5FJN0IW","3URJ6VVYUP9BUCT1SZOT2DFI02L4OC","","","null","","","","","","","","","",""
"383.69999999552965","","image-keyboard-response","175","169967","0.0-175.0","35K3O9HUACZ12LBV94MIDOEHTWCEFR","A235DXY5FJN0IW","3URJ6VVYUP9BUCT1SZOT2DFI02L4OC","","img/set1/S1.jpg","72","1","structured_incentive","83","structured_incentive,structured_normal,structured_load,random","2,3,1,2,4,2","2,3,4,1","false","","",""
"null","","html-keyboard-response","176","170328","0.0-176.0","35K3O9HUACZ12LBV94MIDOEHTWCEFR","A235DXY5FJN0IW","3URJ6VVYUP9BUCT1SZOT2DFI02L4OC","","<img src=""img/set1/S1.jpg"" width=""540"" height = ""360"">","null","","","","","","","","","",""
"null","","html-keyboard-response","177","170536","0.0-177.0","35K3O9HUACZ12LBV94MIDOEHTWCEFR","A235DXY5FJN0IW","3URJ6VVYUP9BUCT1SZOT2DFI02L4OC","","","null","","","","","","","","","",""
"1055.4000000059605","","image-keyboard-response","178","171593","0.0-178.0","35K3O9HUACZ12LBV94MIDOEHTWCEFR","A235DXY5FJN0IW","3URJ6VVYUP9BUCT1SZOT2DFI02L4OC","","img/set1/S2.jpg","72","2","structured_incentive","68","structured_incentive,structured_normal,structured_load,random","2,3,1,2,4,2","2,3,4,1","false","","",""
"null","","html-keyboard-response","179","171951","0.0-179.0","35K3O9HUACZ12LBV94MIDOEHTWCEFR","A235DXY5FJN0IW","3URJ6VVYUP9BUCT1SZOT2DFI02L4OC","","<img src=""img/set1/S2.jpg"" width=""540"" height = ""360"">","null","","","","","","","","","",""
"null","","html-keyboard-response","180","172157","0.0-180.0","35K3O9HUACZ12LBV94MIDOEHTWCEFR","A235DXY5FJN0IW","3URJ6VVYUP9BUCT1SZOT2DFI02L4OC","","","null","","","","","","","","","",""
"172.69999999552965","","image-keyboard-response","181","172331","0.0-181.0","35K3O9HUACZ12LBV94MIDOEHTWCEFR","A235DXY5FJN0IW","3URJ6VVYUP9BUCT1SZOT2DFI02L4OC","","img/set1/S3.jpg","74","3","structured_incentive","72","structured_incentive,structured_normal,structured_load,random","2,3,1,2,4,2","2,3,4,1","false","","",""
"null","","html-keyboard-response","182","172695","0.0-182.0","35K3O9HUACZ12LBV94MIDOEHTWCEFR","A235DXY5FJN0IW","3URJ6VVYUP9BUCT1SZOT2DFI02L4OC","","<img src=""img/set1/S3.jpg"" width=""540"" height = ""360"">","null","","","","","","","","","",""
"null","","html-keyboard-response","183","172910","0.0-183.0","35K3O9HUACZ12LBV94MIDOEHTWCEFR","A235DXY5FJN0IW","3URJ6VVYUP9BUCT1SZOT2DFI02L4OC","","","null","","","","","","","","","",""
"79.39999999850988","","image-keyboard-response","184","172992","0.0-184.0","35K3O9HUACZ12LBV94MIDOEHTWCEFR","A235DXY5FJN0IW","3URJ6VVYUP9BUCT1SZOT2DFI02L4OC","","img/set1/S4.jpg","74","4","structured_incentive","74","structured_incentive,structured_normal,structured_load,random","2,3,1,2,4,2","2,3,4,1","true","","",""
"null","","html-keyboard-response","185","173347","0.0-185.0","35K3O9HUACZ12LBV94MIDOEHTWCEFR","A235DXY5FJN0IW","3URJ6VVYUP9BUCT1SZOT2DFI02L4OC","","<img src=""img/set1/S4.jpg"" width=""540"" height = ""360"" style=""border:16px solid Violet"">","null","","","","","","","","","",""
"null","","html-keyboard-response","186","173550","0.0-186.0","35K3O9HUACZ12LBV94MIDOEHTWCEFR","A235DXY5FJN0IW","3URJ6VVYUP9BUCT1SZOT2DFI02L4OC","","","null","","","","","","","","","",""
"344.8999999985099","","image-keyboard-response","187","173897","0.0-187.0","35K3O9HUACZ12LBV94MIDOEHTWCEFR","A235DXY5FJN0IW","3URJ6VVYUP9BUCT1SZOT2DFI02L4OC","","img/set1/S4.jpg","74","4","structured_incentive","74","structured_incentive,structured_normal,structured_load,random","2,3,1,2,4,2","2,3,4,1","true","","",""
"null","","html-keyboard-response","188","174252","0.0-188.0","35K3O9HUACZ12LBV94MIDOEHTWCEFR","A235DXY5FJN0IW","3URJ6VVYUP9BUCT1SZOT2DFI02L4OC","","<img src=""img/set1/S4.jpg"" width=""540"" height = ""360"" style=""border:16px solid Violet"">","null","","","","","","","","","",""
"null","","html-keyboard-response","189","174456","0.0-189.0","35K3O9HUACZ12LBV94MIDOEHTWCEFR","A235DXY5FJN0IW","3URJ6VVYUP9BUCT1SZOT2DFI02L4OC","","","null","","","","","","","","","",""
"281.3999999985099","","image-keyboard-response","190","174739","0.0-190.0","35K3O9HUACZ12LBV94MIDOEHTWCEFR","A235DXY5FJN0IW","3URJ6VVYUP9BUCT1SZOT2DFI02L4OC","","img/set1/S4.jpg","72","4","structured_incentive","74","structured_incentive,structured_normal,structured_load,random","2,3,1,2,4,2","2,3,4,1","false","","",""
"null","","html-keyboard-response","191","175093","0.0-191.0","35K3O9HUACZ12LBV94MIDOEHTWCEFR","A235DXY5FJN0IW","3URJ6VVYUP9BUCT1SZOT2DFI02L4OC","","<img src=""img/set1/S4.jpg"" width=""540"" height = ""360"">","null","","","","","","","","","",""
"null","","html-keyboard-response","192","175304","0.0-192.0","35K3O9HUACZ12LBV94MIDOEHTWCEFR","A235DXY5FJN0IW","3URJ6VVYUP9BUCT1SZOT2DFI02L4OC","","","null","","","","","","","","","",""
"141.10000000149012","","image-keyboard-response","193","175447","0.0-193.0","35K3O9HUACZ12LBV94MIDOEHTWCEFR","A235DXY5FJN0IW","3URJ6VVYUP9BUCT1SZOT2DFI02L4OC","","img/set1/S1.jpg","74","1","structured_incentive","83","structured_incentive,structured_normal,structured_load,random","2,3,1,2,4,2","2,3,4,1","false","","",""
"null","","html-keyboard-response","194","175814","0.0-194.0","35K3O9HUACZ12LBV94MIDOEHTWCEFR","A235DXY5FJN0IW","3URJ6VVYUP9BUCT1SZOT2DFI02L4OC","","<img src=""img/set1/S1.jpg"" width=""540"" height = ""360"">","null","","","","","","","","","",""
"null","","html-keyboard-response","195","176017","0.0-195.0","35K3O9HUACZ12LBV94MIDOEHTWCEFR","A235DXY5FJN0IW","3URJ6VVYUP9BUCT1SZOT2DFI02L4OC","","","null","","","","","","","","","",""
"321.90000000596046","","image-keyboard-response","196","176341","0.0-196.0","35K3O9HUACZ12LBV94MIDOEHTWCEFR","A235DXY5FJN0IW","3URJ6VVYUP9BUCT1SZOT2DFI02L4OC","","img/set1/S2.jpg","74","2","structured_incentive","68","structured_incentive,structured_normal,structured_load,random","2,3,1,2,4,2","2,3,4,1","false","","",""
"null","","html-keyboard-response","197","176709","0.0-197.0","35K3O9HUACZ12LBV94MIDOEHTWCEFR","A235DXY5FJN0IW","3URJ6VVYUP9BUCT1SZOT2DFI02L4OC","","<img src=""img/set1/S2.jpg"" width=""540"" height = ""360"">","null","","","","","","","","","",""
"null","","html-keyboard-response","198","176917","0.0-198.0","35K3O9HUACZ12LBV94MIDOEHTWCEFR","A235DXY5FJN0IW","3URJ6VVYUP9BUCT1SZOT2DFI02L4OC","","","null","","","","","","","","","",""
"1320.5","","image-keyboard-response","199","178239","0.0-199.0","35K3O9HUACZ12LBV94MIDOEHTWCEFR","A235DXY5FJN0IW","3URJ6VVYUP9BUCT1SZOT2DFI02L4OC","","img/set1/S3.jpg","74","3","structured_incentive","72","structured_incentive,structured_normal,structured_load,random","2,3,1,2,4,2","2,3,4,1","false","","",""
"null","","html-keyboard-response","200","178594","0.0-200.0","35K3O9HUACZ12LBV94MIDOEHTWCEFR","A235DXY5FJN0IW","3URJ6VVYUP9BUCT1SZOT2DFI02L4OC","","<img src=""img/set1/S3.jpg"" width=""540"" height = ""360"">","null","","","","","","","","","",""
"null","","html-keyboard-response","201","178801","0.0-201.0","35K3O9HUACZ12LBV94MIDOEHTWCEFR","A235DXY5FJN0IW","3URJ6VVYUP9BUCT1SZOT2DFI02L4OC","","","null","","","","","","","","","",""
"1119.8999999985099","","image-keyboard-response","202","179923","0.0-202.0","35K3O9HUACZ12LBV94MIDOEHTWCEFR","A235DXY5FJN0IW","3URJ6VVYUP9BUCT1SZOT2DFI02L4OC","","img/set1/S4.jpg","74","4","structured_incentive","74","structured_incentive,structured_normal,structured_load,random","2,3,1,2,4,2","2,3,4,1","true","","",""
"null","","html-keyboard-response","203","180286","0.0-203.0","35K3O9HUACZ12LBV94MIDOEHTWCEFR","A235DXY5FJN0IW","3URJ6VVYUP9BUCT1SZOT2DFI02L4OC","","<img src=""img/set1/S4.jpg"" width=""540"" height = ""360"" style=""border:16px solid Violet"">","null","","","","","","","","","",""
"null","","html-keyboard-response","204","180501","0.0-204.0","35K3O9HUACZ12LBV94MIDOEHTWCEFR","A235DXY5FJN0IW","3URJ6VVYUP9BUCT1SZOT2DFI02L4OC","","","null","","","","","","","","","",""
"300.29999999701977","","image-keyboard-response","205","180803","0.0-205.0","35K3O9HUACZ12LBV94MIDOEHTWCEFR","A235DXY5FJN0IW","3URJ6VVYUP9BUCT1SZOT2DFI02L4OC","","img/set1/S2.jpg","74","2","structured_incentive","68","structured_incentive,structured_normal,structured_load,random","2,3,1,2,4,2","2,3,4,1","false","","",""
"null","","html-keyboard-response","206","181168","0.0-206.0","35K3O9HUACZ12LBV94MIDOEHTWCEFR","A235DXY5FJN0IW","3URJ6VVYUP9BUCT1SZOT2DFI02L4OC","","<img src=""img/set1/S2.jpg"" width=""540"" height = ""360"">","null","","","","","","","","","",""
"null","","html-keyboard-response","207","181376","0.0-207.0","35K3O9HUACZ12LBV94MIDOEHTWCEFR","A235DXY5FJN0IW","3URJ6VVYUP9BUCT1SZOT2DFI02L4OC","","","null","","","","","","","","","",""
"145.89999999850988","","image-keyboard-response","208","181523","0.0-208.0","35K3O9HUACZ12LBV94MIDOEHTWCEFR","A235DXY5FJN0IW","3URJ6VVYUP9BUCT1SZOT2DFI02L4OC","","img/set1/S3.jpg","72","3","structured_incentive","72","structured_incentive,structured_normal,structured_load,random","2,3,1,2,4,2","2,3,4,1","true","","",""
"null","","html-keyboard-response","209","181888","0.0-209.0","35K3O9HUACZ12LBV94MIDOEHTWCEFR","A235DXY5FJN0IW","3URJ6VVYUP9BUCT1SZOT2DFI02L4OC","","<img src=""img/set1/S3.jpg"" width=""540"" height = ""360"" style=""border:16px solid orange"">","null","","","","","","","","","",""
"null","","html-keyboard-response","210","182091","0.0-210.0","35K3O9HUACZ12LBV94MIDOEHTWCEFR","A235DXY5FJN0IW","3URJ6VVYUP9BUCT1SZOT2DFI02L4OC","","","null","","","","","","","","","",""
"351.1000000014901","","image-keyboard-response","211","182445","0.0-211.0","35K3O9HUACZ12LBV94MIDOEHTWCEFR","A235DXY5FJN0IW","3URJ6VVYUP9BUCT1SZOT2DFI02L4OC","","img/set1/S1.jpg","72","1","structured_incentive","83","structured_incentive,structured_normal,structured_load,random","2,3,1,2,4,2","2,3,4,1","false","","",""
"null","","html-keyboard-response","212","182807","0.0-212.0","35K3O9HUACZ12LBV94MIDOEHTWCEFR","A235DXY5FJN0IW","3URJ6VVYUP9BUCT1SZOT2DFI02L4OC","","<img src=""img/set1/S1.jpg"" width=""540"" height = ""360"">","null","","","","","","","","","",""
"null","","html-keyboard-response","213","183010","0.0-213.0","35K3O9HUACZ12LBV94MIDOEHTWCEFR","A235DXY5FJN0IW","3URJ6VVYUP9BUCT1SZOT2DFI02L4OC","","","null","","","","","","","","","",""
"711","","image-keyboard-response","214","183724","0.0-214.0","35K3O9HUACZ12LBV94MIDOEHTWCEFR","A235DXY5FJN0IW","3URJ6VVYUP9BUCT1SZOT2DFI02L4OC","","img/set1/S1.jpg","68","1","structured_incentive","83","structured_incentive,structured_normal,structured_load,random","2,3,1,2,4,2","2,3,4,1","false","","",""
"null","","html-keyboard-response","215","184090","0.0-215.0","35K3O9HUACZ12LBV94MIDOEHTWCEFR","A235DXY5FJN0IW","3URJ6VVYUP9BUCT1SZOT2DFI02L4OC","","<img src=""img/set1/S1.jpg"" width=""540"" height = ""360"">","null","","","","","","","","","",""
"null","","html-keyboard-response","216","184306","0.0-216.0","35K3O9HUACZ12LBV94MIDOEHTWCEFR","A235DXY5FJN0IW","3URJ6VVYUP9BUCT1SZOT2DFI02L4OC","","","null","","","","","","","","","",""
"154.19999999552965","","image-keyboard-response","217","184462","0.0-217.0","35K3O9HUACZ12LBV94MIDOEHTWCEFR","A235DXY5FJN0IW","3URJ6VVYUP9BUCT1SZOT2DFI02L4OC","","img/set1/S1.jpg","74","1","structured_incentive","83","structured_incentive,structured_normal,structured_load,random","2,3,1,2,4,2","2,3,4,1","false","","",""
"null","","html-keyboard-response","218","184823","0.0-218.0","35K3O9HUACZ12LBV94MIDOEHTWCEFR","A235DXY5FJN0IW","3URJ6VVYUP9BUCT1SZOT2DFI02L4OC","","<img src=""img/set1/S1.jpg"" width=""540"" height = ""360"">","null","","","","","","","","","",""
"null","","html-keyboard-response","219","185029","0.0-219.0","35K3O9HUACZ12LBV94MIDOEHTWCEFR","A235DXY5FJN0IW","3URJ6VVYUP9BUCT1SZOT2DFI02L4OC","","","null","","","","","","","","","",""
"54.899999998509884","","image-keyboard-response","220","185087","0.0-220.0","35K3O9HUACZ12LBV94MIDOEHTWCEFR","A235DXY5FJN0IW","3URJ6VVYUP9BUCT1SZOT2DFI02L4OC","","img/set1/S2.jpg","74","2","structured_incentive","68","structured_incentive,structured_normal,structured_load,random","2,3,1,2,4,2","2,3,4,1","false","","",""
"null","","html-keyboard-response","221","185457","0.0-221.0","35K3O9HUACZ12LBV94MIDOEHTWCEFR","A235DXY5FJN0IW","3URJ6VVYUP9BUCT1SZOT2DFI02L4OC","","<img src=""img/set1/S2.jpg"" width=""540"" height = ""360"">","null","","","","","","","","","",""
"null","","html-keyboard-response","222","185661","0.0-222.0","35K3O9HUACZ12LBV94MIDOEHTWCEFR","A235DXY5FJN0IW","3URJ6VVYUP9BUCT1SZOT2DFI02L4OC","","","null","","","","","","","","","",""
"257","","image-keyboard-response","223","185919","0.0-223.0","35K3O9HUACZ12LBV94MIDOEHTWCEFR","A235DXY5FJN0IW","3URJ6VVYUP9BUCT1SZOT2DFI02L4OC","","img/set1/S4.jpg","68","4","structured_incentive","74","structured_incentive,structured_normal,structured_load,random","2,3,1,2,4,2","2,3,4,1","false","","",""
"null","","html-keyboard-response","224","186285","0.0-224.0","35K3O9HUACZ12LBV94MIDOEHTWCEFR","A235DXY5FJN0IW","3URJ6VVYUP9BUCT1SZOT2DFI02L4OC","","<img src=""img/set1/S4.jpg"" width=""540"" height = ""360"">","null","","","","","","","","","",""
"null","","html-keyboard-response","225","186491","0.0-225.0","35K3O9HUACZ12LBV94MIDOEHTWCEFR","A235DXY5FJN0IW","3URJ6VVYUP9BUCT1SZOT2DFI02L4OC","","","null","","","","","","","","","",""
"190.70000000298023","","image-keyboard-response","226","186684","0.0-226.0","35K3O9HUACZ12LBV94MIDOEHTWCEFR","A235DXY5FJN0IW","3URJ6VVYUP9BUCT1SZOT2DFI02L4OC","","img/set1/S2.jpg","68","2","structured_incentive","68","structured_incentive,structured_normal,structured_load,random","2,3,1,2,4,2","2,3,4,1","true","","",""
"null","","html-keyboard-response","227","187049","0.0-227.0","35K3O9HUACZ12LBV94MIDOEHTWCEFR","A235DXY5FJN0IW","3URJ6VVYUP9BUCT1SZOT2DFI02L4OC","","<img src=""img/set1/S2.jpg"" width=""540"" height = ""360"" style=""border:16px solid orange"">","null","","","","","","","","","",""
"null","","html-keyboard-response","228","187257","0.0-228.0","35K3O9HUACZ12LBV94MIDOEHTWCEFR","A235DXY5FJN0IW","3URJ6VVYUP9BUCT1SZOT2DFI02L4OC","","","null","","","","","","","","","",""
"2342","","image-keyboard-response","229","189600","0.0-229.0","35K3O9HUACZ12LBV94MIDOEHTWCEFR","A235DXY5FJN0IW","3URJ6VVYUP9BUCT1SZOT2DFI02L4OC","","img/set1/S3.jpg","68","3","structured_incentive","72","structured_incentive,structured_normal,structured_load,random","2,3,1,2,4,2","2,3,4,1","false","","",""
"null","","html-keyboard-response","230","189958","0.0-230.0","35K3O9HUACZ12LBV94MIDOEHTWCEFR","A235DXY5FJN0IW","3URJ6VVYUP9BUCT1SZOT2DFI02L4OC","","<img src=""img/set1/S3.jpg"" width=""540"" height = ""360"">","null","","","","","","","","","",""
"null","","html-keyboard-response","231","190176","0.0-231.0","35K3O9HUACZ12LBV94MIDOEHTWCEFR","A235DXY5FJN0IW","3URJ6VVYUP9BUCT1SZOT2DFI02L4OC","","","null","","","","","","","","","",""
"641.8999999985099","","image-keyboard-response","232","190819","0.0-232.0","35K3O9HUACZ12LBV94MIDOEHTWCEFR","A235DXY5FJN0IW","3URJ6VVYUP9BUCT1SZOT2DFI02L4OC","","img/set1/S1.jpg","72","1","structured_incentive","83","structured_incentive,structured_normal,structured_load,random","2,3,1,2,4,2","2,3,4,1","false","","",""
"null","","html-keyboard-response","233","191176","0.0-233.0","35K3O9HUACZ12LBV94MIDOEHTWCEFR","A235DXY5FJN0IW","3URJ6VVYUP9BUCT1SZOT2DFI02L4OC","","<img src=""img/set1/S1.jpg"" width=""540"" height = ""360"">","null","","","","","","","","","",""
"null","","html-keyboard-response","234","191378","0.0-234.0","35K3O9HUACZ12LBV94MIDOEHTWCEFR","A235DXY5FJN0IW","3URJ6VVYUP9BUCT1SZOT2DFI02L4OC","","","null","","","","","","","","","",""
"551.7999999970198","","image-keyboard-response","235","191932","0.0-235.0","35K3O9HUACZ12LBV94MIDOEHTWCEFR","A235DXY5FJN0IW","3URJ6VVYUP9BUCT1SZOT2DFI02L4OC","","img/set1/S2.jpg","74","2","structured_incentive","68","structured_incentive,structured_normal,structured_load,random","2,3,1,2,4,2","2,3,4,1","false","","",""
"null","","html-keyboard-response","236","192285","0.0-236.0","35K3O9HUACZ12LBV94MIDOEHTWCEFR","A235DXY5FJN0IW","3URJ6VVYUP9BUCT1SZOT2DFI02L4OC","","<img src=""img/set1/S2.jpg"" width=""540"" height = ""360"">","null","","","","","","","","","",""
"null","","html-keyboard-response","237","192492","0.0-237.0","35K3O9HUACZ12LBV94MIDOEHTWCEFR","A235DXY5FJN0IW","3URJ6VVYUP9BUCT1SZOT2DFI02L4OC","","","null","","","","","","","","","",""
"922.4000000059605","","image-keyboard-response","238","193417","0.0-238.0","35K3O9HUACZ12LBV94MIDOEHTWCEFR","A235DXY5FJN0IW","3URJ6VVYUP9BUCT1SZOT2DFI02L4OC","","img/set1/S4.jpg","74","4","structured_incentive","74","structured_incentive,structured_normal,structured_load,random","2,3,1,2,4,2","2,3,4,1","true","","",""
"null","","html-keyboard-response","239","193772","0.0-239.0","35K3O9HUACZ12LBV94MIDOEHTWCEFR","A235DXY5FJN0IW","3URJ6VVYUP9BUCT1SZOT2DFI02L4OC","","<img src=""img/set1/S4.jpg"" width=""540"" height = ""360"" style=""border:16px solid Violet"">","null","","","","","","","","","",""
"null","","html-keyboard-response","240","193974","0.0-240.0","35K3O9HUACZ12LBV94MIDOEHTWCEFR","A235DXY5FJN0IW","3URJ6VVYUP9BUCT1SZOT2DFI02L4OC","","","null","","","","","","","","","",""
"1332.7000000029802","","image-keyboard-response","241","195309","0.0-241.0","35K3O9HUACZ12LBV94MIDOEHTWCEFR","A235DXY5FJN0IW","3URJ6VVYUP9BUCT1SZOT2DFI02L4OC","","img/set1/S4.jpg","74","4","structured_incentive","74","structured_incentive,structured_normal,structured_load,random","2,3,1,2,4,2","2,3,4,1","true","","",""
"null","","html-keyboard-response","242","195676","0.0-242.0","35K3O9HUACZ12LBV94MIDOEHTWCEFR","A235DXY5FJN0IW","3URJ6VVYUP9BUCT1SZOT2DFI02L4OC","","<img src=""img/set1/S4.jpg"" width=""540"" height = ""360"" style=""border:16px solid Violet"">","null","","","","","","","","","",""
"null","","html-keyboard-response","243","195882","0.0-243.0","35K3O9HUACZ12LBV94MIDOEHTWCEFR","A235DXY5FJN0IW","3URJ6VVYUP9BUCT1SZOT2DFI02L4OC","","","null","","","","","","","","","",""
"1422.1999999955297","","image-keyboard-response","244","197305","0.0-244.0","35K3O9HUACZ12LBV94MIDOEHTWCEFR","A235DXY5FJN0IW","3URJ6VVYUP9BUCT1SZOT2DFI02L4OC","","img/set1/S2.jpg","74","2","structured_incentive","68","structured_incentive,structured_normal,structured_load,random","2,3,1,2,4,2","2,3,4,1","false","","",""
"null","","html-keyboard-response","245","197660","0.0-245.0","35K3O9HUACZ12LBV94MIDOEHTWCEFR","A235DXY5FJN0IW","3URJ6VVYUP9BUCT1SZOT2DFI02L4OC","","<img src=""img/set1/S2.jpg"" width=""540"" height = ""360"">","null","","","","","","","","","",""
"null","","html-keyboard-response","246","197862","0.0-246.0","35K3O9HUACZ12LBV94MIDOEHTWCEFR","A235DXY5FJN0IW","3URJ6VVYUP9BUCT1SZOT2DFI02L4OC","","","null","","","","","","","","","",""
"56.20000000298023","","image-keyboard-response","247","197920","0.0-247.0","35K3O9HUACZ12LBV94MIDOEHTWCEFR","A235DXY5FJN0IW","3URJ6VVYUP9BUCT1SZOT2DFI02L4OC","","img/set1/S4.jpg","68","4","structured_incentive","74","structured_incentive,structured_normal,structured_load,random","2,3,1,2,4,2","2,3,4,1","false","","",""
"null","","html-keyboard-response","248","198286","0.0-248.0","35K3O9HUACZ12LBV94MIDOEHTWCEFR","A235DXY5FJN0IW","3URJ6VVYUP9BUCT1SZOT2DFI02L4OC","","<img src=""img/set1/S4.jpg"" width=""540"" height = ""360"">","null","","","","","","","","","",""
"null","","html-keyboard-response","249","198504","0.0-249.0","35K3O9HUACZ12LBV94MIDOEHTWCEFR","A235DXY5FJN0IW","3URJ6VVYUP9BUCT1SZOT2DFI02L4OC","","","null","","","","","","","","","",""
"49.599999994039536","","image-keyboard-response","250","198555","0.0-250.0","35K3O9HUACZ12LBV94MIDOEHTWCEFR","A235DXY5FJN0IW","3URJ6VVYUP9BUCT1SZOT2DFI02L4OC","","img/set1/S1.jpg","74","1","structured_incentive","83","structured_incentive,structured_normal,structured_load,random","2,3,1,2,4,2","2,3,4,1","false","","",""
"null","","html-keyboard-response","251","198911","0.0-251.0","35K3O9HUACZ12LBV94MIDOEHTWCEFR","A235DXY5FJN0IW","3URJ6VVYUP9BUCT1SZOT2DFI02L4OC","","<img src=""img/set1/S1.jpg"" width=""540"" height = ""360"">","null","","","","","","","","","",""
"null","","html-keyboard-response","252","199112","0.0-252.0","35K3O9HUACZ12LBV94MIDOEHTWCEFR","A235DXY5FJN0IW","3URJ6VVYUP9BUCT1SZOT2DFI02L4OC","","","null","","","","","","","","","",""
"216.5","","image-keyboard-response","253","199331","0.0-253.0","35K3O9HUACZ12LBV94MIDOEHTWCEFR","A235DXY5FJN0IW","3URJ6VVYUP9BUCT1SZOT2DFI02L4OC","","img/set1/S2.jpg","74","2","structured_incentive","68","structured_incentive,structured_normal,structured_load,random","2,3,1,2,4,2","2,3,4,1","false","","",""
"null","","html-keyboard-response","254","199690","0.0-254.0","35K3O9HUACZ12LBV94MIDOEHTWCEFR","A235DXY5FJN0IW","3URJ6VVYUP9BUCT1SZOT2DFI02L4OC","","<img src=""img/set1/S2.jpg"" width=""540"" height = ""360"">","null","","","","","","","","","",""
"null","","html-keyboard-response","255","199894","0.0-255.0","35K3O9HUACZ12LBV94MIDOEHTWCEFR","A235DXY5FJN0IW","3URJ6VVYUP9BUCT1SZOT2DFI02L4OC","","","null","","","","","","","","","",""
"205.80000000447035","","image-keyboard-response","256","200103","0.0-256.0","35K3O9HUACZ12LBV94MIDOEHTWCEFR","A235DXY5FJN0IW","3URJ6VVYUP9BUCT1SZOT2DFI02L4OC","","img/set1/S3.jpg","74","3","structured_incentive","72","structured_incentive,structured_normal,structured_load,random","2,3,1,2,4,2","2,3,4,1","false","","",""
"null","","html-keyboard-response","257","200469","0.0-257.0","35K3O9HUACZ12LBV94MIDOEHTWCEFR","A235DXY5FJN0IW","3URJ6VVYUP9BUCT1SZOT2DFI02L4OC","","<img src=""img/set1/S3.jpg"" width=""540"" height = ""360"">","null","","","","","","","","","",""
"null","","html-keyboard-response","258","200687","0.0-258.0","35K3O9HUACZ12LBV94MIDOEHTWCEFR","A235DXY5FJN0IW","3URJ6VVYUP9BUCT1SZOT2DFI02L4OC","","","null","","","","","","","","","",""
"71.09999999403954","","image-keyboard-response","259","200759","0.0-259.0","35K3O9HUACZ12LBV94MIDOEHTWCEFR","A235DXY5FJN0IW","3URJ6VVYUP9BUCT1SZOT2DFI02L4OC","","img/set1/S2.jpg","74","2","structured_incentive","68","structured_incentive,structured_normal,structured_load,random","2,3,1,2,4,2","2,3,4,1","false","","",""
"null","","html-keyboard-response","260","201127","0.0-260.0","35K3O9HUACZ12LBV94MIDOEHTWCEFR","A235DXY5FJN0IW","3URJ6VVYUP9BUCT1SZOT2DFI02L4OC","","<img src=""img/set1/S2.jpg"" width=""540"" height = ""360"">","null","","","","","","","","","",""
"null","","html-keyboard-response","261","201329","0.0-261.0","35K3O9HUACZ12LBV94MIDOEHTWCEFR","A235DXY5FJN0IW","3URJ6VVYUP9BUCT1SZOT2DFI02L4OC","","","null","","","","","","","","","",""
"143","","image-keyboard-response","262","201475","0.0-262.0","35K3O9HUACZ12LBV94MIDOEHTWCEFR","A235DXY5FJN0IW","3URJ6VVYUP9BUCT1SZOT2DFI02L4OC","","img/set1/S3.jpg","74","3","structured_incentive","72","structured_incentive,structured_normal,structured_load,random","2,3,1,2,4,2","2,3,4,1","false","","",""
"null","","html-keyboard-response","263","201828","0.0-263.0","35K3O9HUACZ12LBV94MIDOEHTWCEFR","A235DXY5FJN0IW","3URJ6VVYUP9BUCT1SZOT2DFI02L4OC","","<img src=""img/set1/S3.jpg"" width=""540"" height = ""360"">","null","","","","","","","","","",""
"null","","html-keyboard-response","264","202031","0.0-264.0","35K3O9HUACZ12LBV94MIDOEHTWCEFR","A235DXY5FJN0IW","3URJ6VVYUP9BUCT1SZOT2DFI02L4OC","","","null","","","","","","","","","",""
"342.20000000298023","","image-keyboard-response","265","202375","0.0-265.0","35K3O9HUACZ12LBV94MIDOEHTWCEFR","A235DXY5FJN0IW","3URJ6VVYUP9BUCT1SZOT2DFI02L4OC","","img/set1/S4.jpg","74","4","structured_incentive","74","structured_incentive,structured_normal,structured_load,random","2,3,1,2,4,2","2,3,4,1","true","","",""
"null","","html-keyboard-response","266","202737","0.0-266.0","35K3O9HUACZ12LBV94MIDOEHTWCEFR","A235DXY5FJN0IW","3URJ6VVYUP9BUCT1SZOT2DFI02L4OC","","<img src=""img/set1/S4.jpg"" width=""540"" height = ""360"" style=""border:16px solid Violet"">","null","","","","","","","","","",""
"null","","html-keyboard-response","267","202944","0.0-267.0","35K3O9HUACZ12LBV94MIDOEHTWCEFR","A235DXY5FJN0IW","3URJ6VVYUP9BUCT1SZOT2DFI02L4OC","","","null","","","","","","","","","",""
"130.09999999403954","","image-keyboard-response","268","203076","0.0-268.0","35K3O9HUACZ12LBV94MIDOEHTWCEFR","A235DXY5FJN0IW","3URJ6VVYUP9BUCT1SZOT2DFI02L4OC","","img/set1/S1.jpg","74","1","structured_incentive","83","structured_incentive,structured_normal,structured_load,random","2,3,1,2,4,2","2,3,4,1","false","","",""
"null","","html-keyboard-response","269","203443","0.0-269.0","35K3O9HUACZ12LBV94MIDOEHTWCEFR","A235DXY5FJN0IW","3URJ6VVYUP9BUCT1SZOT2DFI02L4OC","","<img src=""img/set1/S1.jpg"" width=""540"" height = ""360"">","null","","","","","","","","","",""
"null","","html-keyboard-response","270","203660","0.0-270.0","35K3O9HUACZ12LBV94MIDOEHTWCEFR","A235DXY5FJN0IW","3URJ6VVYUP9BUCT1SZOT2DFI02L4OC","","","null","","","","","","","","","",""
"47.29999999701977","","image-keyboard-response","271","203710","0.0-271.0","35K3O9HUACZ12LBV94MIDOEHTWCEFR","A235DXY5FJN0IW","3URJ6VVYUP9BUCT1SZOT2DFI02L4OC","","img/set1/S1.jpg","74","1","structured_incentive","83","structured_incentive,structured_normal,structured_load,random","2,3,1,2,4,2","2,3,4,1","false","","",""
"null","","html-keyboard-response","272","204068","0.0-272.0","35K3O9HUACZ12LBV94MIDOEHTWCEFR","A235DXY5FJN0IW","3URJ6VVYUP9BUCT1SZOT2DFI02L4OC","","<img src=""img/set1/S1.jpg"" width=""540"" height = ""360"">","null","","","","","","","","","",""
"null","","html-keyboard-response","273","204286","0.0-273.0","35K3O9HUACZ12LBV94MIDOEHTWCEFR","A235DXY5FJN0IW","3URJ6VVYUP9BUCT1SZOT2DFI02L4OC","","","null","","","","","","","","","",""
"274.8999999985099","","image-keyboard-response","274","204563","0.0-274.0","35K3O9HUACZ12LBV94MIDOEHTWCEFR","A235DXY5FJN0IW","3URJ6VVYUP9BUCT1SZOT2DFI02L4OC","","img/set1/S2.jpg","74","2","structured_incentive","68","structured_incentive,structured_normal,structured_load,random","2,3,1,2,4,2","2,3,4,1","false","","",""
"null","","html-keyboard-response","275","204919","0.0-275.0","35K3O9HUACZ12LBV94MIDOEHTWCEFR","A235DXY5FJN0IW","3URJ6VVYUP9BUCT1SZOT2DFI02L4OC","","<img src=""img/set1/S2.jpg"" width=""540"" height = ""360"">","null","","","","","","","","","",""
"null","","html-keyboard-response","276","205121","0.0-276.0","35K3O9HUACZ12LBV94MIDOEHTWCEFR","A235DXY5FJN0IW","3URJ6VVYUP9BUCT1SZOT2DFI02L4OC","","","null","","","","","","","","","",""
"559.2999999970198","","image-keyboard-response","277","205682","0.0-277.0","35K3O9HUACZ12LBV94MIDOEHTWCEFR","A235DXY5FJN0IW","3URJ6VVYUP9BUCT1SZOT2DFI02L4OC","","img/set1/S4.jpg","74","4","structured_incentive","74","structured_incentive,structured_normal,structured_load,random","2,3,1,2,4,2","2,3,4,1","true","","",""
"null","","html-keyboard-response","278","206040","0.0-278.0","35K3O9HUACZ12LBV94MIDOEHTWCEFR","A235DXY5FJN0IW","3URJ6VVYUP9BUCT1SZOT2DFI02L4OC","","<img src=""img/set1/S4.jpg"" width=""540"" height = ""360"" style=""border:16px solid Violet"">","null","","","","","","","","","",""
"null","","html-keyboard-response","279","206246","0.0-279.0","35K3O9HUACZ12LBV94MIDOEHTWCEFR","A235DXY5FJN0IW","3URJ6VVYUP9BUCT1SZOT2DFI02L4OC","","","null","","","","","","","","","",""
"339.30000000447035","","image-keyboard-response","280","206587","0.0-280.0","35K3O9HUACZ12LBV94MIDOEHTWCEFR","A235DXY5FJN0IW","3URJ6VVYUP9BUCT1SZOT2DFI02L4OC","","img/set1/S1.jpg","74","1","structured_incentive","83","structured_incentive,structured_normal,structured_load,random","2,3,1,2,4,2","2,3,4,1","false","","",""
"null","","html-keyboard-response","281","206952","0.0-281.0","35K3O9HUACZ12LBV94MIDOEHTWCEFR","A235DXY5FJN0IW","3URJ6VVYUP9BUCT1SZOT2DFI02L4OC","","<img src=""img/set1/S1.jpg"" width=""540"" height = ""360"">","null","","","","","","","","","",""
"null","","html-keyboard-response","282","207154","0.0-282.0","35K3O9HUACZ12LBV94MIDOEHTWCEFR","A235DXY5FJN0IW","3URJ6VVYUP9BUCT1SZOT2DFI02L4OC","","","null","","","","","","","","","",""
"246.39999999850988","","image-keyboard-response","283","207403","0.0-283.0","35K3O9HUACZ12LBV94MIDOEHTWCEFR","A235DXY5FJN0IW","3URJ6VVYUP9BUCT1SZOT2DFI02L4OC","","img/set1/S2.jpg","74","2","structured_incentive","68","structured_incentive,structured_normal,structured_load,random","2,3,1,2,4,2","2,3,4,1","false","","",""
"null","","html-keyboard-response","284","207759","0.0-284.0","35K3O9HUACZ12LBV94MIDOEHTWCEFR","A235DXY5FJN0IW","3URJ6VVYUP9BUCT1SZOT2DFI02L4OC","","<img src=""img/set1/S2.jpg"" width=""540"" height = ""360"">","null","","","","","","","","","",""
"null","","html-keyboard-response","285","207961","0.0-285.0","35K3O9HUACZ12LBV94MIDOEHTWCEFR","A235DXY5FJN0IW","3URJ6VVYUP9BUCT1SZOT2DFI02L4OC","","","null","","","","","","","","","",""
"194.29999999701977","","image-keyboard-response","286","208157","0.0-286.0","35K3O9HUACZ12LBV94MIDOEHTWCEFR","A235DXY5FJN0IW","3URJ6VVYUP9BUCT1SZOT2DFI02L4OC","","img/set1/S3.jpg","74","3","structured_incentive","72","structured_incentive,structured_normal,structured_load,random","2,3,1,2,4,2","2,3,4,1","false","","",""
"null","","html-keyboard-response","287","208520","0.0-287.0","35K3O9HUACZ12LBV94MIDOEHTWCEFR","A235DXY5FJN0IW","3URJ6VVYUP9BUCT1SZOT2DFI02L4OC","","<img src=""img/set1/S3.jpg"" width=""540"" height = ""360"">","null","","","","","","","","","",""
"null","","html-keyboard-response","288","208728","0.0-288.0","35K3O9HUACZ12LBV94MIDOEHTWCEFR","A235DXY5FJN0IW","3URJ6VVYUP9BUCT1SZOT2DFI02L4OC","","","null","","","","","","","","","",""
"140.60000000149012","","image-keyboard-response","289","208871","0.0-289.0","35K3O9HUACZ12LBV94MIDOEHTWCEFR","A235DXY5FJN0IW","3URJ6VVYUP9BUCT1SZOT2DFI02L4OC","","img/set1/S4.jpg","74","4","structured_incentive","74","structured_incentive,structured_normal,structured_load,random","2,3,1,2,4,2","2,3,4,1","true","","",""
"null","","html-keyboard-response","290","209227","0.0-290.0","35K3O9HUACZ12LBV94MIDOEHTWCEFR","A235DXY5FJN0IW","3URJ6VVYUP9BUCT1SZOT2DFI02L4OC","","<img src=""img/set1/S4.jpg"" width=""540"" height = ""360"" style=""border:16px solid Violet"">","null","","","","","","","","","",""
"null","","html-keyboard-response","291","209430","0.0-291.0","35K3O9HUACZ12LBV94MIDOEHTWCEFR","A235DXY5FJN0IW","3URJ6VVYUP9BUCT1SZOT2DFI02L4OC","","","null","","","","","","","","","",""
"132.79999999701977","","image-keyboard-response","292","209564","0.0-292.0","35K3O9HUACZ12LBV94MIDOEHTWCEFR","A235DXY5FJN0IW","3URJ6VVYUP9BUCT1SZOT2DFI02L4OC","","img/set1/S2.jpg","74","2","structured_incentive","68","structured_incentive,structured_normal,structured_load,random","2,3,1,2,4,2","2,3,4,1","false","","",""
"null","","html-keyboard-response","293","209916","0.0-293.0","35K3O9HUACZ12LBV94MIDOEHTWCEFR","A235DXY5FJN0IW","3URJ6VVYUP9BUCT1SZOT2DFI02L4OC","","<img src=""img/set1/S2.jpg"" width=""540"" height = ""360"">","null","","","","","","","","","",""
"null","","html-keyboard-response","294","210122","0.0-294.0","35K3O9HUACZ12LBV94MIDOEHTWCEFR","A235DXY5FJN0IW","3URJ6VVYUP9BUCT1SZOT2DFI02L4OC","","","null","","","","","","","","","",""
"185.80000000447035","","image-keyboard-response","295","210310","0.0-295.0","35K3O9HUACZ12LBV94MIDOEHTWCEFR","A235DXY5FJN0IW","3URJ6VVYUP9BUCT1SZOT2DFI02L4OC","","img/set1/S3.jpg","74","3","structured_incentive","72","structured_incentive,structured_normal,structured_load,random","2,3,1,2,4,2","2,3,4,1","false","","",""
"null","","html-keyboard-response","296","210664","0.0-296.0","35K3O9HUACZ12LBV94MIDOEHTWCEFR","A235DXY5FJN0IW","3URJ6VVYUP9BUCT1SZOT2DFI02L4OC","","<img src=""img/set1/S3.jpg"" width=""540"" height = ""360"">","null","","","","","","","","","",""
"null","","html-keyboard-response","297","210869","0.0-297.0","35K3O9HUACZ12LBV94MIDOEHTWCEFR","A235DXY5FJN0IW","3URJ6VVYUP9BUCT1SZOT2DFI02L4OC","","","null","","","","","","","","","",""
"156.10000000149012","","image-keyboard-response","298","211029","0.0-298.0","35K3O9HUACZ12LBV94MIDOEHTWCEFR","A235DXY5FJN0IW","3URJ6VVYUP9BUCT1SZOT2DFI02L4OC","","img/set1/S3.jpg","74","3","structured_incentive","72","structured_incentive,structured_normal,structured_load,random","2,3,1,2,4,2","2,3,4,1","false","","",""
"null","","html-keyboard-response","299","211390","0.0-299.0","35K3O9HUACZ12LBV94MIDOEHTWCEFR","A235DXY5FJN0IW","3URJ6VVYUP9BUCT1SZOT2DFI02L4OC","","<img src=""img/set1/S3.jpg"" width=""540"" height = ""360"">","null","","","","","","","","","",""
"null","","html-keyboard-response","300","211593","0.0-300.0","35K3O9HUACZ12LBV94MIDOEHTWCEFR","A235DXY5FJN0IW","3URJ6VVYUP9BUCT1SZOT2DFI02L4OC","","","null","","","","","","","","","",""
"201","","image-keyboard-response","301","211796","0.0-301.0","35K3O9HUACZ12LBV94MIDOEHTWCEFR","A235DXY5FJN0IW","3URJ6VVYUP9BUCT1SZOT2DFI02L4OC","","img/set1/S1.jpg","74","1","structured_incentive","83","structured_incentive,structured_normal,structured_load,random","2,3,1,2,4,2","2,3,4,1","false","","",""
"null","","html-keyboard-response","302","212155","0.0-302.0","35K3O9HUACZ12LBV94MIDOEHTWCEFR","A235DXY5FJN0IW","3URJ6VVYUP9BUCT1SZOT2DFI02L4OC","","<img src=""img/set1/S1.jpg"" width=""540"" height = ""360"">","null","","","","","","","","","",""
"null","","html-keyboard-response","303","212358","0.0-303.0","35K3O9HUACZ12LBV94MIDOEHTWCEFR","A235DXY5FJN0IW","3URJ6VVYUP9BUCT1SZOT2DFI02L4OC","","","null","","","","","","","","","",""
"177.30000000447035","","image-keyboard-response","304","212537","0.0-304.0","35K3O9HUACZ12LBV94MIDOEHTWCEFR","A235DXY5FJN0IW","3URJ6VVYUP9BUCT1SZOT2DFI02L4OC","","img/set1/S1.jpg","74","1","structured_incentive","83","structured_incentive,structured_normal,structured_load,random","2,3,1,2,4,2","2,3,4,1","false","","",""
"null","","html-keyboard-response","305","212892","0.0-305.0","35K3O9HUACZ12LBV94MIDOEHTWCEFR","A235DXY5FJN0IW","3URJ6VVYUP9BUCT1SZOT2DFI02L4OC","","<img src=""img/set1/S1.jpg"" width=""540"" height = ""360"">","null","","","","","","","","","",""
"null","","html-keyboard-response","306","213113","0.0-306.0","35K3O9HUACZ12LBV94MIDOEHTWCEFR","A235DXY5FJN0IW","3URJ6VVYUP9BUCT1SZOT2DFI02L4OC","","","null","","","","","","","","","",""
"256.3999999985099","","image-keyboard-response","307","213371","0.0-307.0","35K3O9HUACZ12LBV94MIDOEHTWCEFR","A235DXY5FJN0IW","3URJ6VVYUP9BUCT1SZOT2DFI02L4OC","","img/set1/S3.jpg","74","3","structured_incentive","72","structured_incentive,structured_normal,structured_load,random","2,3,1,2,4,2","2,3,4,1","false","","",""
"null","","html-keyboard-response","308","213737","0.0-308.0","35K3O9HUACZ12LBV94MIDOEHTWCEFR","A235DXY5FJN0IW","3URJ6VVYUP9BUCT1SZOT2DFI02L4OC","","<img src=""img/set1/S3.jpg"" width=""540"" height = ""360"">","null","","","","","","","","","",""
"null","","html-keyboard-response","309","213953","0.0-309.0","35K3O9HUACZ12LBV94MIDOEHTWCEFR","A235DXY5FJN0IW","3URJ6VVYUP9BUCT1SZOT2DFI02L4OC","","","null","","","","","","","","","",""
"136.69999999552965","","image-keyboard-response","310","214092","0.0-310.0","35K3O9HUACZ12LBV94MIDOEHTWCEFR","A235DXY5FJN0IW","3URJ6VVYUP9BUCT1SZOT2DFI02L4OC","","img/set1/S1.jpg","74","1","structured_incentive","83","structured_incentive,structured_normal,structured_load,random","2,3,1,2,4,2","2,3,4,1","false","","",""
"null","","html-keyboard-response","311","214452","0.0-311.0","35K3O9HUACZ12LBV94MIDOEHTWCEFR","A235DXY5FJN0IW","3URJ6VVYUP9BUCT1SZOT2DFI02L4OC","","<img src=""img/set1/S1.jpg"" width=""540"" height = ""360"">","null","","","","","","","","","",""
"null","","html-keyboard-response","312","214654","0.0-312.0","35K3O9HUACZ12LBV94MIDOEHTWCEFR","A235DXY5FJN0IW","3URJ6VVYUP9BUCT1SZOT2DFI02L4OC","","","null","","","","","","","","","",""
"225.10000000149012","","image-keyboard-response","313","214881","0.0-313.0","35K3O9HUACZ12LBV94MIDOEHTWCEFR","A235DXY5FJN0IW","3URJ6VVYUP9BUCT1SZOT2DFI02L4OC","","img/set1/S4.jpg","74","4","structured_incentive","74","structured_incentive,structured_normal,structured_load,random","2,3,1,2,4,2","2,3,4,1","true","","",""
"null","","html-keyboard-response","314","215240","0.0-314.0","35K3O9HUACZ12LBV94MIDOEHTWCEFR","A235DXY5FJN0IW","3URJ6VVYUP9BUCT1SZOT2DFI02L4OC","","<img src=""img/set1/S4.jpg"" width=""540"" height = ""360"" style=""border:16px solid Violet"">","null","","","","","","","","","",""
"null","","html-keyboard-response","315","215447","0.0-315.0","35K3O9HUACZ12LBV94MIDOEHTWCEFR","A235DXY5FJN0IW","3URJ6VVYUP9BUCT1SZOT2DFI02L4OC","","","null","","","","","","","","","",""
"149.30000000447035","","image-keyboard-response","316","215600","0.0-316.0","35K3O9HUACZ12LBV94MIDOEHTWCEFR","A235DXY5FJN0IW","3URJ6VVYUP9BUCT1SZOT2DFI02L4OC","","img/set1/S2.jpg","74","2","structured_incentive","68","structured_incentive,structured_normal,structured_load,random","2,3,1,2,4,2","2,3,4,1","false","","",""
"null","","html-keyboard-response","317","215954","0.0-317.0","35K3O9HUACZ12LBV94MIDOEHTWCEFR","A235DXY5FJN0IW","3URJ6VVYUP9BUCT1SZOT2DFI02L4OC","","<img src=""img/set1/S2.jpg"" width=""540"" height = ""360"">","null","","","","","","","","","",""
"null","","html-keyboard-response","318","216159","0.0-318.0","35K3O9HUACZ12LBV94MIDOEHTWCEFR","A235DXY5FJN0IW","3URJ6VVYUP9BUCT1SZOT2DFI02L4OC","","","null","","","","","","","","","",""
"74.69999999552965","","image-keyboard-response","319","216236","0.0-319.0","35K3O9HUACZ12LBV94MIDOEHTWCEFR","A235DXY5FJN0IW","3URJ6VVYUP9BUCT1SZOT2DFI02L4OC","","img/set1/S3.jpg","74","3","structured_incentive","72","structured_incentive,structured_normal,structured_load,random","2,3,1,2,4,2","2,3,4,1","false","","",""
"null","","html-keyboard-response","320","216592","0.0-320.0","35K3O9HUACZ12LBV94MIDOEHTWCEFR","A235DXY5FJN0IW","3URJ6VVYUP9BUCT1SZOT2DFI02L4OC","","<img src=""img/set1/S3.jpg"" width=""540"" height = ""360"">","null","","","","","","","","","",""
"null","","html-keyboard-response","321","216795","0.0-321.0","35K3O9HUACZ12LBV94MIDOEHTWCEFR","A235DXY5FJN0IW","3URJ6VVYUP9BUCT1SZOT2DFI02L4OC","","","null","","","","","","","","","",""
"116","","image-keyboard-response","322","216913","0.0-322.0","35K3O9HUACZ12LBV94MIDOEHTWCEFR","A235DXY5FJN0IW","3URJ6VVYUP9BUCT1SZOT2DFI02L4OC","","img/set1/S1.jpg","74","1","structured_incentive","83","structured_incentive,structured_normal,structured_load,random","2,3,1,2,4,2","2,3,4,1","false","","",""
"null","","html-keyboard-response","323","217268","0.0-323.0","35K3O9HUACZ12LBV94MIDOEHTWCEFR","A235DXY5FJN0IW","3URJ6VVYUP9BUCT1SZOT2DFI02L4OC","","<img src=""img/set1/S1.jpg"" width=""540"" height = ""360"">","null","","","","","","","","","",""
"null","","html-keyboard-response","324","217470","0.0-324.0","35K3O9HUACZ12LBV94MIDOEHTWCEFR","A235DXY5FJN0IW","3URJ6VVYUP9BUCT1SZOT2DFI02L4OC","","","null","","","","","","","","","",""
"242.5","","image-keyboard-response","325","217714","0.0-325.0","35K3O9HUACZ12LBV94MIDOEHTWCEFR","A235DXY5FJN0IW","3URJ6VVYUP9BUCT1SZOT2DFI02L4OC","","img/set1/S1.jpg","74","1","structured_incentive","83","structured_incentive,structured_normal,structured_load,random","2,3,1,2,4,2","2,3,4,1","false","","",""
"null","","html-keyboard-response","326","218072","0.0-326.0","35K3O9HUACZ12LBV94MIDOEHTWCEFR","A235DXY5FJN0IW","3URJ6VVYUP9BUCT1SZOT2DFI02L4OC","","<img src=""img/set1/S1.jpg"" width=""540"" height = ""360"">","null","","","","","","","","","",""
"null","","html-keyboard-response","327","218289","0.0-327.0","35K3O9HUACZ12LBV94MIDOEHTWCEFR","A235DXY5FJN0IW","3URJ6VVYUP9BUCT1SZOT2DFI02L4OC","","","null","","","","","","","","","",""
"52.19999999552965","","image-keyboard-response","328","218344","0.0-328.0","35K3O9HUACZ12LBV94MIDOEHTWCEFR","A235DXY5FJN0IW","3URJ6VVYUP9BUCT1SZOT2DFI02L4OC","","img/set1/S4.jpg","74","4","structured_incentive","74","structured_incentive,structured_normal,structured_load,random","2,3,1,2,4,2","2,3,4,1","true","","",""
"null","","html-keyboard-response","329","218708","0.0-329.0","35K3O9HUACZ12LBV94MIDOEHTWCEFR","A235DXY5FJN0IW","3URJ6VVYUP9BUCT1SZOT2DFI02L4OC","","<img src=""img/set1/S4.jpg"" width=""540"" height = ""360"" style=""border:16px solid Violet"">","null","","","","","","","","","",""
"null","","html-keyboard-response","330","218913","0.0-330.0","35K3O9HUACZ12LBV94MIDOEHTWCEFR","A235DXY5FJN0IW","3URJ6VVYUP9BUCT1SZOT2DFI02L4OC","","","null","","","","","","","","","",""
"164","","image-keyboard-response","331","219080","0.0-331.0","35K3O9HUACZ12LBV94MIDOEHTWCEFR","A235DXY5FJN0IW","3URJ6VVYUP9BUCT1SZOT2DFI02L4OC","","img/set1/S4.jpg","74","4","structured_incentive","74","structured_incentive,structured_normal,structured_load,random","2,3,1,2,4,2","2,3,4,1","true","","",""
"null","","html-keyboard-response","332","219435","0.0-332.0","35K3O9HUACZ12LBV94MIDOEHTWCEFR","A235DXY5FJN0IW","3URJ6VVYUP9BUCT1SZOT2DFI02L4OC","","<img src=""img/set1/S4.jpg"" width=""540"" height = ""360"" style=""border:16px solid Violet"">","null","","","","","","","","","",""
"null","","html-keyboard-response","333","219646","0.0-333.0","35K3O9HUACZ12LBV94MIDOEHTWCEFR","A235DXY5FJN0IW","3URJ6VVYUP9BUCT1SZOT2DFI02L4OC","","","null","","","","","","","","","",""
"1012.6000000014901","","image-keyboard-response","334","220661","0.0-334.0","35K3O9HUACZ12LBV94MIDOEHTWCEFR","A235DXY5FJN0IW","3URJ6VVYUP9BUCT1SZOT2DFI02L4OC","","img/set1/S4.jpg","72","4","structured_incentive","74","structured_incentive,structured_normal,structured_load,random","2,3,1,2,4,2","2,3,4,1","false","","",""
"null","","html-keyboard-response","335","221027","0.0-335.0","35K3O9HUACZ12LBV94MIDOEHTWCEFR","A235DXY5FJN0IW","3URJ6VVYUP9BUCT1SZOT2DFI02L4OC","","<img src=""img/set1/S4.jpg"" width=""540"" height = ""360"">","null","","","","","","","","","",""
"null","","html-keyboard-response","336","221244","0.0-336.0","35K3O9HUACZ12LBV94MIDOEHTWCEFR","A235DXY5FJN0IW","3URJ6VVYUP9BUCT1SZOT2DFI02L4OC","","","null","","","","","","","","","",""
"1839.3000000044703","","image-keyboard-response","337","223085","0.0-337.0","35K3O9HUACZ12LBV94MIDOEHTWCEFR","A235DXY5FJN0IW","3URJ6VVYUP9BUCT1SZOT2DFI02L4OC","","img/set1/S2.jpg","72","2","structured_incentive","68","structured_incentive,structured_normal,structured_load,random","2,3,1,2,4,2","2,3,4,1","false","","",""
"null","","html-keyboard-response","338","223443","0.0-338.0","35K3O9HUACZ12LBV94MIDOEHTWCEFR","A235DXY5FJN0IW","3URJ6VVYUP9BUCT1SZOT2DFI02L4OC","","<img src=""img/set1/S2.jpg"" width=""540"" height = ""360"">","null","","","","","","","","","",""
"null","","html-keyboard-response","339","223669","0.0-339.0","35K3O9HUACZ12LBV94MIDOEHTWCEFR","A235DXY5FJN0IW","3URJ6VVYUP9BUCT1SZOT2DFI02L4OC","","","null","","","","","","","","","",""
"47","","image-keyboard-response","340","223719","0.0-340.0","35K3O9HUACZ12LBV94MIDOEHTWCEFR","A235DXY5FJN0IW","3URJ6VVYUP9BUCT1SZOT2DFI02L4OC","","img/set1/S3.jpg","74","3","structured_incentive","72","structured_incentive,structured_normal,structured_load,random","2,3,1,2,4,2","2,3,4,1","false","","",""
"null","","html-keyboard-response","341","224082","0.0-341.0","35K3O9HUACZ12LBV94MIDOEHTWCEFR","A235DXY5FJN0IW","3URJ6VVYUP9BUCT1SZOT2DFI02L4OC","","<img src=""img/set1/S3.jpg"" width=""540"" height = ""360"">","null","","","","","","","","","",""
"null","","html-keyboard-response","342","224294","0.0-342.0","35K3O9HUACZ12LBV94MIDOEHTWCEFR","A235DXY5FJN0IW","3URJ6VVYUP9BUCT1SZOT2DFI02L4OC","","","null","","","","","","","","","",""
"5.699999995529652","","image-keyboard-response","343","224301","0.0-343.0","35K3O9HUACZ12LBV94MIDOEHTWCEFR","A235DXY5FJN0IW","3URJ6VVYUP9BUCT1SZOT2DFI02L4OC","","img/set1/S3.jpg","72","3","structured_incentive","72","structured_incentive,structured_normal,structured_load,random","2,3,1,2,4,2","2,3,4,1","true","","",""
"null","","html-keyboard-response","344","224661","0.0-344.0","35K3O9HUACZ12LBV94MIDOEHTWCEFR","A235DXY5FJN0IW","3URJ6VVYUP9BUCT1SZOT2DFI02L4OC","","<img src=""img/set1/S3.jpg"" width=""540"" height = ""360"" style=""border:16px solid orange"">","null","","","","","","","","","",""
"null","","html-keyboard-response","345","224864","0.0-345.0","35K3O9HUACZ12LBV94MIDOEHTWCEFR","A235DXY5FJN0IW","3URJ6VVYUP9BUCT1SZOT2DFI02L4OC","","","null","","","","","","","","","",""
"49.600000001490116","","image-keyboard-response","346","224915","0.0-346.0","35K3O9HUACZ12LBV94MIDOEHTWCEFR","A235DXY5FJN0IW","3URJ6VVYUP9BUCT1SZOT2DFI02L4OC","","img/set1/S4.jpg","74","4","structured_incentive","74","structured_incentive,structured_normal,structured_load,random","2,3,1,2,4,2","2,3,4,1","true","","",""
"null","","html-keyboard-response","347","225272","0.0-347.0","35K3O9HUACZ12LBV94MIDOEHTWCEFR","A235DXY5FJN0IW","3URJ6VVYUP9BUCT1SZOT2DFI02L4OC","","<img src=""img/set1/S4.jpg"" width=""540"" height = ""360"" style=""border:16px solid Violet"">","null","","","","","","","","","",""
"null","","html-keyboard-response","348","225475","0.0-348.0","35K3O9HUACZ12LBV94MIDOEHTWCEFR","A235DXY5FJN0IW","3URJ6VVYUP9BUCT1SZOT2DFI02L4OC","","","null","","","","","","","","","",""
"180.39999999850988","","image-keyboard-response","349","225658","0.0-349.0","35K3O9HUACZ12LBV94MIDOEHTWCEFR","A235DXY5FJN0IW","3URJ6VVYUP9BUCT1SZOT2DFI02L4OC","","img/set1/S4.jpg","74","4","structured_incentive","74","structured_incentive,structured_normal,structured_load,random","2,3,1,2,4,2","2,3,4,1","true","","",""
"null","","html-keyboard-response","350","226018","0.0-350.0","35K3O9HUACZ12LBV94MIDOEHTWCEFR","A235DXY5FJN0IW","3URJ6VVYUP9BUCT1SZOT2DFI02L4OC","","<img src=""img/set1/S4.jpg"" width=""540"" height = ""360"" style=""border:16px solid Violet"">","null","","","","","","","","","",""
"null","","html-keyboard-response","351","226220","0.0-351.0","35K3O9HUACZ12LBV94MIDOEHTWCEFR","A235DXY5FJN0IW","3URJ6VVYUP9BUCT1SZOT2DFI02L4OC","","","null","","","","","","","","","",""
"199.5","","image-keyboard-response","352","226421","0.0-352.0","35K3O9HUACZ12LBV94MIDOEHTWCEFR","A235DXY5FJN0IW","3URJ6VVYUP9BUCT1SZOT2DFI02L4OC","","img/set1/S4.jpg","74","4","structured_incentive","74","structured_incentive,structured_normal,structured_load,random","2,3,1,2,4,2","2,3,4,1","true","","",""
"null","","html-keyboard-response","353","226776","0.0-353.0","35K3O9HUACZ12LBV94MIDOEHTWCEFR","A235DXY5FJN0IW","3URJ6VVYUP9BUCT1SZOT2DFI02L4OC","","<img src=""img/set1/S4.jpg"" width=""540"" height = ""360"" style=""border:16px solid Violet"">","null","","","","","","","","","",""
"null","","html-keyboard-response","354","226982","0.0-354.0","35K3O9HUACZ12LBV94MIDOEHTWCEFR","A235DXY5FJN0IW","3URJ6VVYUP9BUCT1SZOT2DFI02L4OC","","","null","","","","","","","","","",""
"20.200000002980232","","image-keyboard-response","355","227004","0.0-355.0","35K3O9HUACZ12LBV94MIDOEHTWCEFR","A235DXY5FJN0IW","3URJ6VVYUP9BUCT1SZOT2DFI02L4OC","","img/set1/S4.jpg","72","4","structured_incentive","74","structured_incentive,structured_normal,structured_load,random","2,3,1,2,4,2","2,3,4,1","false","","",""
"null","","html-keyboard-response","356","227372","0.0-356.0","35K3O9HUACZ12LBV94MIDOEHTWCEFR","A235DXY5FJN0IW","3URJ6VVYUP9BUCT1SZOT2DFI02L4OC","","<img src=""img/set1/S4.jpg"" width=""540"" height = ""360"">","null","","","","","","","","","",""
"null","","html-keyboard-response","357","227585","0.0-357.0","35K3O9HUACZ12LBV94MIDOEHTWCEFR","A235DXY5FJN0IW","3URJ6VVYUP9BUCT1SZOT2DFI02L4OC","","","null","","","","","","","","","",""
"111.89999999850988","","image-keyboard-response","358","227699","0.0-358.0","35K3O9HUACZ12LBV94MIDOEHTWCEFR","A235DXY5FJN0IW","3URJ6VVYUP9BUCT1SZOT2DFI02L4OC","","img/set1/S4.jpg","72","4","structured_incentive","74","structured_incentive,structured_normal,structured_load,random","2,3,1,2,4,2","2,3,4,1","false","","",""
"null","","html-keyboard-response","359","228056","0.0-359.0","35K3O9HUACZ12LBV94MIDOEHTWCEFR","A235DXY5FJN0IW","3URJ6VVYUP9BUCT1SZOT2DFI02L4OC","","<img src=""img/set1/S4.jpg"" width=""540"" height = ""360"">","null","","","","","","","","","",""
"null","","html-keyboard-response","360","228259","0.0-360.0","35K3O9HUACZ12LBV94MIDOEHTWCEFR","A235DXY5FJN0IW","3URJ6VVYUP9BUCT1SZOT2DFI02L4OC","","","null","","","","","","","","","",""
"407.59999999403954","","image-keyboard-response","361","228669","0.0-361.0","35K3O9HUACZ12LBV94MIDOEHTWCEFR","A235DXY5FJN0IW","3URJ6VVYUP9BUCT1SZOT2DFI02L4OC","","img/set1/S2.jpg","74","2","structured_incentive","68","structured_incentive,structured_normal,structured_load,random","2,3,1,2,4,2","2,3,4,1","false","","",""
"null","","html-keyboard-response","362","229027","0.0-362.0","35K3O9HUACZ12LBV94MIDOEHTWCEFR","A235DXY5FJN0IW","3URJ6VVYUP9BUCT1SZOT2DFI02L4OC","","<img src=""img/set1/S2.jpg"" width=""540"" height = ""360"">","null","","","","","","","","","",""
"null","","html-keyboard-response","363","229230","0.0-363.0","35K3O9HUACZ12LBV94MIDOEHTWCEFR","A235DXY5FJN0IW","3URJ6VVYUP9BUCT1SZOT2DFI02L4OC","","","null","","","","","","","","","",""
"83.89999999850988","","image-keyboard-response","364","229316","0.0-364.0","35K3O9HUACZ12LBV94MIDOEHTWCEFR","A235DXY5FJN0IW","3URJ6VVYUP9BUCT1SZOT2DFI02L4OC","","img/set1/S3.jpg","72","3","structured_incentive","72","structured_incentive,structured_normal,structured_load,random","2,3,1,2,4,2","2,3,4,1","true","","",""
"null","","html-keyboard-response","365","229683","0.0-365.0","35K3O9HUACZ12LBV94MIDOEHTWCEFR","A235DXY5FJN0IW","3URJ6VVYUP9BUCT1SZOT2DFI02L4OC","","<img src=""img/set1/S3.jpg"" width=""540"" height = ""360"" style=""border:16px solid orange"">","null","","","","","","","","","",""
"null","","html-keyboard-response","366","229885","0.0-366.0","35K3O9HUACZ12LBV94MIDOEHTWCEFR","A235DXY5FJN0IW","3URJ6VVYUP9BUCT1SZOT2DFI02L4OC","","","null","","","","","","","","","",""
"8.399999998509884","","image-keyboard-response","367","229895","0.0-367.0","35K3O9HUACZ12LBV94MIDOEHTWCEFR","A235DXY5FJN0IW","3URJ6VVYUP9BUCT1SZOT2DFI02L4OC","","img/set1/S1.jpg","72","1","structured_incentive","83","structured_incentive,structured_normal,structured_load,random","2,3,1,2,4,2","2,3,4,1","false","","",""
"null","","html-keyboard-response","368","230249","0.0-368.0","35K3O9HUACZ12LBV94MIDOEHTWCEFR","A235DXY5FJN0IW","3URJ6VVYUP9BUCT1SZOT2DFI02L4OC","","<img src=""img/set1/S1.jpg"" width=""540"" height = ""360"">","null","","","","","","","","","",""
"null","","html-keyboard-response","369","230473","0.0-369.0","35K3O9HUACZ12LBV94MIDOEHTWCEFR","A235DXY5FJN0IW","3URJ6VVYUP9BUCT1SZOT2DFI02L4OC","","","null","","","","","","","","","",""
"37.899999998509884","","image-keyboard-response","370","230513","0.0-370.0","35K3O9HUACZ12LBV94MIDOEHTWCEFR","A235DXY5FJN0IW","3URJ6VVYUP9BUCT1SZOT2DFI02L4OC","","img/set1/S4.jpg","74","4","structured_incentive","74","structured_incentive,structured_normal,structured_load,random","2,3,1,2,4,2","2,3,4,1","true","","",""
"null","","html-keyboard-response","371","230866","0.0-371.0","35K3O9HUACZ12LBV94MIDOEHTWCEFR","A235DXY5FJN0IW","3URJ6VVYUP9BUCT1SZOT2DFI02L4OC","","<img src=""img/set1/S4.jpg"" width=""540"" height = ""360"" style=""border:16px solid Violet"">","null","","","","","","","","","",""
"null","","html-keyboard-response","372","231077","0.0-372.0","35K3O9HUACZ12LBV94MIDOEHTWCEFR","A235DXY5FJN0IW","3URJ6VVYUP9BUCT1SZOT2DFI02L4OC","","","null","","","","","","","","","",""
"823.2000000029802","","image-keyboard-response","373","231902","0.0-373.0","35K3O9HUACZ12LBV94MIDOEHTWCEFR","A235DXY5FJN0IW","3URJ6VVYUP9BUCT1SZOT2DFI02L4OC","","img/set1/S4.jpg","68","4","structured_incentive","74","structured_incentive,structured_normal,structured_load,random","2,3,1,2,4,2","2,3,4,1","false","","",""
"null","","html-keyboard-response","374","232269","0.0-374.0","35K3O9HUACZ12LBV94MIDOEHTWCEFR","A235DXY5FJN0IW","3URJ6VVYUP9BUCT1SZOT2DFI02L4OC","","<img src=""img/set1/S4.jpg"" width=""540"" height = ""360"">","null","","","","","","","","","",""
"null","","html-keyboard-response","375","232472","0.0-375.0","35K3O9HUACZ12LBV94MIDOEHTWCEFR","A235DXY5FJN0IW","3URJ6VVYUP9BUCT1SZOT2DFI02L4OC","","","null","","","","","","","","","",""
"2.100000001490116","","image-keyboard-response","376","232476","0.0-376.0","35K3O9HUACZ12LBV94MIDOEHTWCEFR","A235DXY5FJN0IW","3URJ6VVYUP9BUCT1SZOT2DFI02L4OC","","img/set1/S1.jpg","72","1","structured_incentive","83","structured_incentive,structured_normal,structured_load,random","2,3,1,2,4,2","2,3,4,1","false","","",""
"null","","html-keyboard-response","377","232832","0.0-377.0","35K3O9HUACZ12LBV94MIDOEHTWCEFR","A235DXY5FJN0IW","3URJ6VVYUP9BUCT1SZOT2DFI02L4OC","","<img src=""img/set1/S1.jpg"" width=""540"" height = ""360"">","null","","","","","","","","","",""
"null","","html-keyboard-response","378","233035","0.0-378.0","35K3O9HUACZ12LBV94MIDOEHTWCEFR","A235DXY5FJN0IW","3URJ6VVYUP9BUCT1SZOT2DFI02L4OC","","","null","","","","","","","","","",""
"118","","image-keyboard-response","379","233155","0.0-379.0","35K3O9HUACZ12LBV94MIDOEHTWCEFR","A235DXY5FJN0IW","3URJ6VVYUP9BUCT1SZOT2DFI02L4OC","","img/set1/S1.jpg","74","1","structured_incentive","83","structured_incentive,structured_normal,structured_load,random","2,3,1,2,4,2","2,3,4,1","false","","",""
"null","","html-keyboard-response","380","233516","0.0-380.0","35K3O9HUACZ12LBV94MIDOEHTWCEFR","A235DXY5FJN0IW","3URJ6VVYUP9BUCT1SZOT2DFI02L4OC","","<img src=""img/set1/S1.jpg"" width=""540"" height = ""360"">","null","","","","","","","","","",""
"null","","html-keyboard-response","381","233719","0.0-381.0","35K3O9HUACZ12LBV94MIDOEHTWCEFR","A235DXY5FJN0IW","3URJ6VVYUP9BUCT1SZOT2DFI02L4OC","","","null","","","","","","","","","",""
"170","","image-keyboard-response","382","233891","0.0-382.0","35K3O9HUACZ12LBV94MIDOEHTWCEFR","A235DXY5FJN0IW","3URJ6VVYUP9BUCT1SZOT2DFI02L4OC","","img/set1/S1.jpg","72","1","structured_incentive","83","structured_incentive,structured_normal,structured_load,random","2,3,1,2,4,2","2,3,4,1","false","","",""
"null","","html-keyboard-response","383","234254","0.0-383.0","35K3O9HUACZ12LBV94MIDOEHTWCEFR","A235DXY5FJN0IW","3URJ6VVYUP9BUCT1SZOT2DFI02L4OC","","<img src=""img/set1/S1.jpg"" width=""540"" height = ""360"">","null","","","","","","","","","",""
"null","","html-keyboard-response","384","234460","0.0-384.0","35K3O9HUACZ12LBV94MIDOEHTWCEFR","A235DXY5FJN0IW","3URJ6VVYUP9BUCT1SZOT2DFI02L4OC","","","null","","","","","","","","","",""
"330.30000000447035","","image-keyboard-response","385","234792","0.0-385.0","35K3O9HUACZ12LBV94MIDOEHTWCEFR","A235DXY5FJN0IW","3URJ6VVYUP9BUCT1SZOT2DFI02L4OC","","img/set1/S1.jpg","72","1","structured_incentive","83","structured_incentive,structured_normal,structured_load,random","2,3,1,2,4,2","2,3,4,1","false","","",""
"null","","html-keyboard-response","386","235157","0.0-386.0","35K3O9HUACZ12LBV94MIDOEHTWCEFR","A235DXY5FJN0IW","3URJ6VVYUP9BUCT1SZOT2DFI02L4OC","","<img src=""img/set1/S1.jpg"" width=""540"" height = ""360"">","null","","","","","","","","","",""
"null","","html-keyboard-response","387","235360","0.0-387.0","35K3O9HUACZ12LBV94MIDOEHTWCEFR","A235DXY5FJN0IW","3URJ6VVYUP9BUCT1SZOT2DFI02L4OC","","","null","","","","","","","","","",""
"1270","","image-keyboard-response","388","236632","0.0-388.0","35K3O9HUACZ12LBV94MIDOEHTWCEFR","A235DXY5FJN0IW","3URJ6VVYUP9BUCT1SZOT2DFI02L4OC","","img/set1/S2.jpg","68","2","structured_incentive","68","structured_incentive,structured_normal,structured_load,random","2,3,1,2,4,2","2,3,4,1","true","","",""
