"rt","url","trial_type","trial_index","time_elapsed","internal_node_id","assignmentID","mturkID","hitID","view_history","stimulus","key_press","state","test_part","correct_response","order_block","order_chunk","order_freq","correct","responses","question_order","bonus"
"7141.0999999940395","consent.html","external-html","0","7281","0.0-0.0","33L7PJKHCHKUCPJ5RL572IXW92M8TU","A23KAJRDVCVGOE","3ZXV7Q5FJBAKJ3TNMBBLYHIS0EBCFB","","","","","","","","","","","","",""
"53330","","instructions","1","60616","0.0-1.0","33L7PJKHCHKUCPJ5RL572IXW92M8TU","A23KAJRDVCVGOE","3ZXV7Q5FJBAKJ3TNMBBLYHIS0EBCFB","[{""page_index"":0,""viewing_time"":3638.5999999940395},{""page_index"":1,""viewing_time"":7356.100000023842},{""page_index"":2,""viewing_time"":4748.0999999940395},{""page_index"":3,""viewing_time"":8951.90000000596},{""page_index"":4,""viewing_time"":4177.299999982119},{""page_index"":5,""viewing_time"":17405.59999999404},{""page_index"":6,""viewing_time"":7050}]","","","","","","","","","","","",""
"7888.800000011921","","instructions","2","68507","0.0-2.0","33L7PJKHCHKUCPJ5RL572IXW92M8TU","A23KAJRDVCVGOE","3ZXV7Q5FJBAKJ3TNMBBLYHIS0EBCFB","[{""page_index"":0,""viewing_time"":7888.4000000059605}]","","","","","","","","","","","",""
"4711.5","","instructions","3","73221","0.0-3.0","33L7PJKHCHKUCPJ5RL572IXW92M8TU","A23KAJRDVCVGOE","3ZXV7Q5FJBAKJ3TNMBBLYHIS0EBCFB","[{""page_index"":0,""viewing_time"":4711}]","","","","","","","","","","","",""
"null","","image-keyboard-response","4","75730","0.0-4.0","33L7PJKHCHKUCPJ5RL572IXW92M8TU","A23KAJRDVCVGOE","3ZXV7Q5FJBAKJ3TNMBBLYHIS0EBCFB","","img/set1/S3.jpg","null","3","structured_normal","72","structured_normal,structured_load,random,structured_incentive","1,2,4,2,2,3","1,2,4,3","false","","",""
"null","","html-keyboard-response","5","76086","0.0-5.0","33L7PJKHCHKUCPJ5RL572IXW92M8TU","A23KAJRDVCVGOE","3ZXV7Q5FJBAKJ3TNMBBLYHIS0EBCFB","","<img src=""img/set1/S3.jpg"" width=""540"" height = ""360"">","null","","","","","","","","","",""
"null","","html-keyboard-response","6","76296","0.0-6.0","33L7PJKHCHKUCPJ5RL572IXW92M8TU","A23KAJRDVCVGOE","3ZXV7Q5FJBAKJ3TNMBBLYHIS0EBCFB","","","null","","","","","","","","","",""
"null","","image-keyboard-response","7","78801","0.0-7.0","33L7PJKHCHKUCPJ5RL572IXW92M8TU","A23KAJRDVCVGOE","3ZXV7Q5FJBAKJ3TNMBBLYHIS0EBCFB","","img/set1/S3.jpg","null","3","structured_normal","72","structured_normal,structured_load,random,structured_incentive","1,2,4,2,2,3","1,2,4,3","false","","",""
"null","","html-keyboard-response","8","79154","0.0-8.0","33L7PJKHCHKUCPJ5RL572IXW92M8TU","A23KAJRDVCVGOE","3ZXV7Q5FJBAKJ3TNMBBLYHIS0EBCFB","","<img src=""img/set1/S3.jpg"" width=""540"" height = ""360"">","null","","","","","","","","","",""
"null","","html-keyboard-response","9","79356","0.0-9.0","33L7PJKHCHKUCPJ5RL572IXW92M8TU","A23KAJRDVCVGOE","3ZXV7Q5FJBAKJ3TNMBBLYHIS0EBCFB","","","null","","","","","","","","","",""
"null","","image-keyboard-response","10","81859","0.0-10.0","33L7PJKHCHKUCPJ5RL572IXW92M8TU","A23KAJRDVCVGOE","3ZXV7Q5FJBAKJ3TNMBBLYHIS0EBCFB","","img/set1/S3.jpg","null","3","structured_normal","72","structured_normal,structured_load,random,structured_incentive","1,2,4,2,2,3","1,2,4,3","false","","",""
"null","","html-keyboard-response","11","82213","0.0-11.0","33L7PJKHCHKUCPJ5RL572IXW92M8TU","A23KAJRDVCVGOE","3ZXV7Q5FJBAKJ3TNMBBLYHIS0EBCFB","","<img src=""img/set1/S3.jpg"" width=""540"" height = ""360"">","null","","","","","","","","","",""
"null","","html-keyboard-response","12","82415","0.0-12.0","33L7PJKHCHKUCPJ5RL572IXW92M8TU","A23KAJRDVCVGOE","3ZXV7Q5FJBAKJ3TNMBBLYHIS0EBCFB","","","null","","","","","","","","","",""
"null","","image-keyboard-response","13","84918","0.0-13.0","33L7PJKHCHKUCPJ5RL572IXW92M8TU","A23KAJRDVCVGOE","3ZXV7Q5FJBAKJ3TNMBBLYHIS0EBCFB","","img/set1/S3.jpg","null","3","structured_normal","72","structured_normal,structured_load,random,structured_incentive","1,2,4,2,2,3","1,2,4,3","false","","",""
"null","","html-keyboard-response","14","85271","0.0-14.0","33L7PJKHCHKUCPJ5RL572IXW92M8TU","A23KAJRDVCVGOE","3ZXV7Q5FJBAKJ3TNMBBLYHIS0EBCFB","","<img src=""img/set1/S3.jpg"" width=""540"" height = ""360"">","null","","","","","","","","","",""
"null","","html-keyboard-response","15","85472","0.0-15.0","33L7PJKHCHKUCPJ5RL572IXW92M8TU","A23KAJRDVCVGOE","3ZXV7Q5FJBAKJ3TNMBBLYHIS0EBCFB","","","null","","","","","","","","","",""
"1126.7000000178814","","image-keyboard-response","16","86600","0.0-16.0","33L7PJKHCHKUCPJ5RL572IXW92M8TU","A23KAJRDVCVGOE","3ZXV7Q5FJBAKJ3TNMBBLYHIS0EBCFB","","img/set1/S3.jpg","72","3","structured_normal","72","structured_normal,structured_load,random,structured_incentive","1,2,4,2,2,3","1,2,4,3","true","","",""
"null","","html-keyboard-response","17","86952","0.0-17.0","33L7PJKHCHKUCPJ5RL572IXW92M8TU","A23KAJRDVCVGOE","3ZXV7Q5FJBAKJ3TNMBBLYHIS0EBCFB","","<img src=""img/set1/S3.jpg"" width=""540"" height = ""360"" style=""border:16px solid orange"">","null","","","","","","","","","",""
"null","","html-keyboard-response","18","87154","0.0-18.0","33L7PJKHCHKUCPJ5RL572IXW92M8TU","A23KAJRDVCVGOE","3ZXV7Q5FJBAKJ3TNMBBLYHIS0EBCFB","","","null","","","","","","","","","",""
"974.2999999821186","","image-keyboard-response","19","88132","0.0-19.0","33L7PJKHCHKUCPJ5RL572IXW92M8TU","A23KAJRDVCVGOE","3ZXV7Q5FJBAKJ3TNMBBLYHIS0EBCFB","","img/set1/S2.jpg","72","2","structured_normal","68","structured_normal,structured_load,random,structured_incentive","1,2,4,2,2,3","1,2,4,3","false","","",""
"null","","html-keyboard-response","20","88485","0.0-20.0","33L7PJKHCHKUCPJ5RL572IXW92M8TU","A23KAJRDVCVGOE","3ZXV7Q5FJBAKJ3TNMBBLYHIS0EBCFB","","<img src=""img/set1/S2.jpg"" width=""540"" height = ""360"">","null","","","","","","","","","",""
"null","","html-keyboard-response","21","88688","0.0-21.0","33L7PJKHCHKUCPJ5RL572IXW92M8TU","A23KAJRDVCVGOE","3ZXV7Q5FJBAKJ3TNMBBLYHIS0EBCFB","","","null","","","","","","","","","",""
"997.9000000059605","","image-keyboard-response","22","89688","0.0-22.0","33L7PJKHCHKUCPJ5RL572IXW92M8TU","A23KAJRDVCVGOE","3ZXV7Q5FJBAKJ3TNMBBLYHIS0EBCFB","","img/set1/S4.jpg","72","4","structured_normal","74","structured_normal,structured_load,random,structured_incentive","1,2,4,2,2,3","1,2,4,3","false","","",""
"null","","html-keyboard-response","23","90041","0.0-23.0","33L7PJKHCHKUCPJ5RL572IXW92M8TU","A23KAJRDVCVGOE","3ZXV7Q5FJBAKJ3TNMBBLYHIS0EBCFB","","<img src=""img/set1/S4.jpg"" width=""540"" height = ""360"">","null","","","","","","","","","",""
"null","","html-keyboard-response","24","90243","0.0-24.0","33L7PJKHCHKUCPJ5RL572IXW92M8TU","A23KAJRDVCVGOE","3ZXV7Q5FJBAKJ3TNMBBLYHIS0EBCFB","","","null","","","","","","","","","",""
"null","","image-keyboard-response","25","92746","0.0-25.0","33L7PJKHCHKUCPJ5RL572IXW92M8TU","A23KAJRDVCVGOE","3ZXV7Q5FJBAKJ3TNMBBLYHIS0EBCFB","","img/set1/S2.jpg","null","2","structured_normal","68","structured_normal,structured_load,random,structured_incentive","1,2,4,2,2,3","1,2,4,3","false","","",""
"null","","html-keyboard-response","26","93102","0.0-26.0","33L7PJKHCHKUCPJ5RL572IXW92M8TU","A23KAJRDVCVGOE","3ZXV7Q5FJBAKJ3TNMBBLYHIS0EBCFB","","<img src=""img/set1/S2.jpg"" width=""540"" height = ""360"">","null","","","","","","","","","",""
"null","","html-keyboard-response","27","93303","0.0-27.0","33L7PJKHCHKUCPJ5RL572IXW92M8TU","A23KAJRDVCVGOE","3ZXV7Q5FJBAKJ3TNMBBLYHIS0EBCFB","","","null","","","","","","","","","",""
"305.90000000596046","","image-keyboard-response","28","93611","0.0-28.0","33L7PJKHCHKUCPJ5RL572IXW92M8TU","A23KAJRDVCVGOE","3ZXV7Q5FJBAKJ3TNMBBLYHIS0EBCFB","","img/set1/S3.jpg","68","3","structured_normal","72","structured_normal,structured_load,random,structured_incentive","1,2,4,2,2,3","1,2,4,3","false","","",""
"null","","html-keyboard-response","29","93966","0.0-29.0","33L7PJKHCHKUCPJ5RL572IXW92M8TU","A23KAJRDVCVGOE","3ZXV7Q5FJBAKJ3TNMBBLYHIS0EBCFB","","<img src=""img/set1/S3.jpg"" width=""540"" height = ""360"">","null","","","","","","","","","",""
"null","","html-keyboard-response","30","94168","0.0-30.0","33L7PJKHCHKUCPJ5RL572IXW92M8TU","A23KAJRDVCVGOE","3ZXV7Q5FJBAKJ3TNMBBLYHIS0EBCFB","","","null","","","","","","","","","",""
"1.300000011920929","","image-keyboard-response","31","94172","0.0-31.0","33L7PJKHCHKUCPJ5RL572IXW92M8TU","A23KAJRDVCVGOE","3ZXV7Q5FJBAKJ3TNMBBLYHIS0EBCFB","","img/set1/S3.jpg","83","3","structured_normal","72","structured_normal,structured_load,random,structured_incentive","1,2,4,2,2,3","1,2,4,3","false","","",""
"null","","html-keyboard-response","32","94525","0.0-32.0","33L7PJKHCHKUCPJ5RL572IXW92M8TU","A23KAJRDVCVGOE","3ZXV7Q5FJBAKJ3TNMBBLYHIS0EBCFB","","<img src=""img/set1/S3.jpg"" width=""540"" height = ""360"">","null","","","","","","","","","",""
"null","","html-keyboard-response","33","94727","0.0-33.0","33L7PJKHCHKUCPJ5RL572IXW92M8TU","A23KAJRDVCVGOE","3ZXV7Q5FJBAKJ3TNMBBLYHIS0EBCFB","","","null","","","","","","","","","",""
"533.1999999880791","","image-keyboard-response","34","95264","0.0-34.0","33L7PJKHCHKUCPJ5RL572IXW92M8TU","A23KAJRDVCVGOE","3ZXV7Q5FJBAKJ3TNMBBLYHIS0EBCFB","","img/set1/S3.jpg","72","3","structured_normal","72","structured_normal,structured_load,random,structured_incentive","1,2,4,2,2,3","1,2,4,3","true","","",""
"null","","html-keyboard-response","35","95618","0.0-35.0","33L7PJKHCHKUCPJ5RL572IXW92M8TU","A23KAJRDVCVGOE","3ZXV7Q5FJBAKJ3TNMBBLYHIS0EBCFB","","<img src=""img/set1/S3.jpg"" width=""540"" height = ""360"" style=""border:16px solid orange"">","null","","","","","","","","","",""
"null","","html-keyboard-response","36","95820","0.0-36.0","33L7PJKHCHKUCPJ5RL572IXW92M8TU","A23KAJRDVCVGOE","3ZXV7Q5FJBAKJ3TNMBBLYHIS0EBCFB","","","null","","","","","","","","","",""
"867.6999999880791","","image-keyboard-response","37","96691","0.0-37.0","33L7PJKHCHKUCPJ5RL572IXW92M8TU","A23KAJRDVCVGOE","3ZXV7Q5FJBAKJ3TNMBBLYHIS0EBCFB","","img/set1/S1.jpg","72","1","structured_normal","83","structured_normal,structured_load,random,structured_incentive","1,2,4,2,2,3","1,2,4,3","false","","",""
"null","","html-keyboard-response","38","97045","0.0-38.0","33L7PJKHCHKUCPJ5RL572IXW92M8TU","A23KAJRDVCVGOE","3ZXV7Q5FJBAKJ3TNMBBLYHIS0EBCFB","","<img src=""img/set1/S1.jpg"" width=""540"" height = ""360"">","null","","","","","","","","","",""
"null","","html-keyboard-response","39","97247","0.0-39.0","33L7PJKHCHKUCPJ5RL572IXW92M8TU","A23KAJRDVCVGOE","3ZXV7Q5FJBAKJ3TNMBBLYHIS0EBCFB","","","null","","","","","","","","","",""
"1828.7999999821186","","image-keyboard-response","40","99078","0.0-40.0","33L7PJKHCHKUCPJ5RL572IXW92M8TU","A23KAJRDVCVGOE","3ZXV7Q5FJBAKJ3TNMBBLYHIS0EBCFB","","img/set1/S2.jpg","72","2","structured_normal","68","structured_normal,structured_load,random,structured_incentive","1,2,4,2,2,3","1,2,4,3","false","","",""
"null","","html-keyboard-response","41","99432","0.0-41.0","33L7PJKHCHKUCPJ5RL572IXW92M8TU","A23KAJRDVCVGOE","3ZXV7Q5FJBAKJ3TNMBBLYHIS0EBCFB","","<img src=""img/set1/S2.jpg"" width=""540"" height = ""360"">","null","","","","","","","","","",""
"null","","html-keyboard-response","42","99635","0.0-42.0","33L7PJKHCHKUCPJ5RL572IXW92M8TU","A23KAJRDVCVGOE","3ZXV7Q5FJBAKJ3TNMBBLYHIS0EBCFB","","","null","","","","","","","","","",""
"932.5999999940395","","image-keyboard-response","43","100569","0.0-43.0","33L7PJKHCHKUCPJ5RL572IXW92M8TU","A23KAJRDVCVGOE","3ZXV7Q5FJBAKJ3TNMBBLYHIS0EBCFB","","img/set1/S3.jpg","72","3","structured_normal","72","structured_normal,structured_load,random,structured_incentive","1,2,4,2,2,3","1,2,4,3","true","","",""
"null","","html-keyboard-response","44","100921","0.0-44.0","33L7PJKHCHKUCPJ5RL572IXW92M8TU","A23KAJRDVCVGOE","3ZXV7Q5FJBAKJ3TNMBBLYHIS0EBCFB","","<img src=""img/set1/S3.jpg"" width=""540"" height = ""360"" style=""border:16px solid orange"">","null","","","","","","","","","",""
"null","","html-keyboard-response","45","101123","0.0-45.0","33L7PJKHCHKUCPJ5RL572IXW92M8TU","A23KAJRDVCVGOE","3ZXV7Q5FJBAKJ3TNMBBLYHIS0EBCFB","","","null","","","","","","","","","",""
"null","","image-keyboard-response","46","103626","0.0-46.0","33L7PJKHCHKUCPJ5RL572IXW92M8TU","A23KAJRDVCVGOE","3ZXV7Q5FJBAKJ3TNMBBLYHIS0EBCFB","","img/set1/S1.jpg","null","1","structured_normal","83","structured_normal,structured_load,random,structured_incentive","1,2,4,2,2,3","1,2,4,3","false","","",""
"null","","html-keyboard-response","47","103979","0.0-47.0","33L7PJKHCHKUCPJ5RL572IXW92M8TU","A23KAJRDVCVGOE","3ZXV7Q5FJBAKJ3TNMBBLYHIS0EBCFB","","<img src=""img/set1/S1.jpg"" width=""540"" height = ""360"">","null","","","","","","","","","",""
"null","","html-keyboard-response","48","104181","0.0-48.0","33L7PJKHCHKUCPJ5RL572IXW92M8TU","A23KAJRDVCVGOE","3ZXV7Q5FJBAKJ3TNMBBLYHIS0EBCFB","","","null","","","","","","","","","",""
"null","","image-keyboard-response","49","106683","0.0-49.0","33L7PJKHCHKUCPJ5RL572IXW92M8TU","A23KAJRDVCVGOE","3ZXV7Q5FJBAKJ3TNMBBLYHIS0EBCFB","","img/set1/S2.jpg","null","2","structured_normal","68","structured_normal,structured_load,random,structured_incentive","1,2,4,2,2,3","1,2,4,3","false","","",""
"null","","html-keyboard-response","50","107037","0.0-50.0","33L7PJKHCHKUCPJ5RL572IXW92M8TU","A23KAJRDVCVGOE","3ZXV7Q5FJBAKJ3TNMBBLYHIS0EBCFB","","<img src=""img/set1/S2.jpg"" width=""540"" height = ""360"">","null","","","","","","","","","",""
"null","","html-keyboard-response","51","107239","0.0-51.0","33L7PJKHCHKUCPJ5RL572IXW92M8TU","A23KAJRDVCVGOE","3ZXV7Q5FJBAKJ3TNMBBLYHIS0EBCFB","","","null","","","","","","","","","",""
"480.7000000178814","","image-keyboard-response","52","107723","0.0-52.0","33L7PJKHCHKUCPJ5RL572IXW92M8TU","A23KAJRDVCVGOE","3ZXV7Q5FJBAKJ3TNMBBLYHIS0EBCFB","","img/set1/S3.jpg","72","3","structured_normal","72","structured_normal,structured_load,random,structured_incentive","1,2,4,2,2,3","1,2,4,3","true","","",""
"null","","html-keyboard-response","53","108076","0.0-53.0","33L7PJKHCHKUCPJ5RL572IXW92M8TU","A23KAJRDVCVGOE","3ZXV7Q5FJBAKJ3TNMBBLYHIS0EBCFB","","<img src=""img/set1/S3.jpg"" width=""540"" height = ""360"" style=""border:16px solid orange"">","null","","","","","","","","","",""
"null","","html-keyboard-response","54","108277","0.0-54.0","33L7PJKHCHKUCPJ5RL572IXW92M8TU","A23KAJRDVCVGOE","3ZXV7Q5FJBAKJ3TNMBBLYHIS0EBCFB","","","null","","","","","","","","","",""
"1020.9000000059605","","image-keyboard-response","55","109302","0.0-55.0","33L7PJKHCHKUCPJ5RL572IXW92M8TU","A23KAJRDVCVGOE","3ZXV7Q5FJBAKJ3TNMBBLYHIS0EBCFB","","img/set1/S3.jpg","72","3","structured_normal","72","structured_normal,structured_load,random,structured_incentive","1,2,4,2,2,3","1,2,4,3","true","","",""
"null","","html-keyboard-response","56","109657","0.0-56.0","33L7PJKHCHKUCPJ5RL572IXW92M8TU","A23KAJRDVCVGOE","3ZXV7Q5FJBAKJ3TNMBBLYHIS0EBCFB","","<img src=""img/set1/S3.jpg"" width=""540"" height = ""360"" style=""border:16px solid orange"">","null","","","","","","","","","",""
"null","","html-keyboard-response","57","109859","0.0-57.0","33L7PJKHCHKUCPJ5RL572IXW92M8TU","A23KAJRDVCVGOE","3ZXV7Q5FJBAKJ3TNMBBLYHIS0EBCFB","","","null","","","","","","","","","",""
"540.6999999880791","","image-keyboard-response","58","110402","0.0-58.0","33L7PJKHCHKUCPJ5RL572IXW92M8TU","A23KAJRDVCVGOE","3ZXV7Q5FJBAKJ3TNMBBLYHIS0EBCFB","","img/set1/S3.jpg","72","3","structured_normal","72","structured_normal,structured_load,random,structured_incentive","1,2,4,2,2,3","1,2,4,3","true","","",""
"null","","html-keyboard-response","59","110755","0.0-59.0","33L7PJKHCHKUCPJ5RL572IXW92M8TU","A23KAJRDVCVGOE","3ZXV7Q5FJBAKJ3TNMBBLYHIS0EBCFB","","<img src=""img/set1/S3.jpg"" width=""540"" height = ""360"" style=""border:16px solid orange"">","null","","","","","","","","","",""
"null","","html-keyboard-response","60","110957","0.0-60.0","33L7PJKHCHKUCPJ5RL572IXW92M8TU","A23KAJRDVCVGOE","3ZXV7Q5FJBAKJ3TNMBBLYHIS0EBCFB","","","null","","","","","","","","","",""
"801.8999999761581","","image-keyboard-response","61","111761","0.0-61.0","33L7PJKHCHKUCPJ5RL572IXW92M8TU","A23KAJRDVCVGOE","3ZXV7Q5FJBAKJ3TNMBBLYHIS0EBCFB","","img/set1/S4.jpg","72","4","structured_normal","74","structured_normal,structured_load,random,structured_incentive","1,2,4,2,2,3","1,2,4,3","false","","",""
"null","","html-keyboard-response","62","112114","0.0-62.0","33L7PJKHCHKUCPJ5RL572IXW92M8TU","A23KAJRDVCVGOE","3ZXV7Q5FJBAKJ3TNMBBLYHIS0EBCFB","","<img src=""img/set1/S4.jpg"" width=""540"" height = ""360"">","null","","","","","","","","","",""
"null","","html-keyboard-response","63","112317","0.0-63.0","33L7PJKHCHKUCPJ5RL572IXW92M8TU","A23KAJRDVCVGOE","3ZXV7Q5FJBAKJ3TNMBBLYHIS0EBCFB","","","null","","","","","","","","","",""
"439.09999999403954","","image-keyboard-response","64","112760","0.0-64.0","33L7PJKHCHKUCPJ5RL572IXW92M8TU","A23KAJRDVCVGOE","3ZXV7Q5FJBAKJ3TNMBBLYHIS0EBCFB","","img/set1/S3.jpg","83","3","structured_normal","72","structured_normal,structured_load,random,structured_incentive","1,2,4,2,2,3","1,2,4,3","false","","",""
"null","","html-keyboard-response","65","113113","0.0-65.0","33L7PJKHCHKUCPJ5RL572IXW92M8TU","A23KAJRDVCVGOE","3ZXV7Q5FJBAKJ3TNMBBLYHIS0EBCFB","","<img src=""img/set1/S3.jpg"" width=""540"" height = ""360"">","null","","","","","","","","","",""
"null","","html-keyboard-response","66","113315","0.0-66.0","33L7PJKHCHKUCPJ5RL572IXW92M8TU","A23KAJRDVCVGOE","3ZXV7Q5FJBAKJ3TNMBBLYHIS0EBCFB","","","null","","","","","","","","","",""
"null","","image-keyboard-response","67","115817","0.0-67.0","33L7PJKHCHKUCPJ5RL572IXW92M8TU","A23KAJRDVCVGOE","3ZXV7Q5FJBAKJ3TNMBBLYHIS0EBCFB","","img/set1/S1.jpg","null","1","structured_normal","83","structured_normal,structured_load,random,structured_incentive","1,2,4,2,2,3","1,2,4,3","false","","",""
"null","","html-keyboard-response","68","116171","0.0-68.0","33L7PJKHCHKUCPJ5RL572IXW92M8TU","A23KAJRDVCVGOE","3ZXV7Q5FJBAKJ3TNMBBLYHIS0EBCFB","","<img src=""img/set1/S1.jpg"" width=""540"" height = ""360"">","null","","","","","","","","","",""
"null","","html-keyboard-response","69","116372","0.0-69.0","33L7PJKHCHKUCPJ5RL572IXW92M8TU","A23KAJRDVCVGOE","3ZXV7Q5FJBAKJ3TNMBBLYHIS0EBCFB","","","null","","","","","","","","","",""
"2360.5","","image-keyboard-response","70","118738","0.0-70.0","33L7PJKHCHKUCPJ5RL572IXW92M8TU","A23KAJRDVCVGOE","3ZXV7Q5FJBAKJ3TNMBBLYHIS0EBCFB","","img/set1/S2.jpg","72","2","structured_normal","68","structured_normal,structured_load,random,structured_incentive","1,2,4,2,2,3","1,2,4,3","false","","",""
"null","","html-keyboard-response","71","119092","0.0-71.0","33L7PJKHCHKUCPJ5RL572IXW92M8TU","A23KAJRDVCVGOE","3ZXV7Q5FJBAKJ3TNMBBLYHIS0EBCFB","","<img src=""img/set1/S2.jpg"" width=""540"" height = ""360"">","null","","","","","","","","","",""
"null","","html-keyboard-response","72","119294","0.0-72.0","33L7PJKHCHKUCPJ5RL572IXW92M8TU","A23KAJRDVCVGOE","3ZXV7Q5FJBAKJ3TNMBBLYHIS0EBCFB","","","null","","","","","","","","","",""
"1141.800000011921","","image-keyboard-response","73","120438","0.0-73.0","33L7PJKHCHKUCPJ5RL572IXW92M8TU","A23KAJRDVCVGOE","3ZXV7Q5FJBAKJ3TNMBBLYHIS0EBCFB","","img/set1/S1.jpg","68","1","structured_normal","83","structured_normal,structured_load,random,structured_incentive","1,2,4,2,2,3","1,2,4,3","false","","",""
"null","","html-keyboard-response","74","120792","0.0-74.0","33L7PJKHCHKUCPJ5RL572IXW92M8TU","A23KAJRDVCVGOE","3ZXV7Q5FJBAKJ3TNMBBLYHIS0EBCFB","","<img src=""img/set1/S1.jpg"" width=""540"" height = ""360"">","null","","","","","","","","","",""
"null","","html-keyboard-response","75","120993","0.0-75.0","33L7PJKHCHKUCPJ5RL572IXW92M8TU","A23KAJRDVCVGOE","3ZXV7Q5FJBAKJ3TNMBBLYHIS0EBCFB","","","null","","","","","","","","","",""
"null","","image-keyboard-response","76","123495","0.0-76.0","33L7PJKHCHKUCPJ5RL572IXW92M8TU","A23KAJRDVCVGOE","3ZXV7Q5FJBAKJ3TNMBBLYHIS0EBCFB","","img/set1/S2.jpg","null","2","structured_normal","68","structured_normal,structured_load,random,structured_incentive","1,2,4,2,2,3","1,2,4,3","false","","",""
"null","","html-keyboard-response","77","123848","0.0-77.0","33L7PJKHCHKUCPJ5RL572IXW92M8TU","A23KAJRDVCVGOE","3ZXV7Q5FJBAKJ3TNMBBLYHIS0EBCFB","","<img src=""img/set1/S2.jpg"" width=""540"" height = ""360"">","null","","","","","","","","","",""
"null","","html-keyboard-response","78","124050","0.0-78.0","33L7PJKHCHKUCPJ5RL572IXW92M8TU","A23KAJRDVCVGOE","3ZXV7Q5FJBAKJ3TNMBBLYHIS0EBCFB","","","null","","","","","","","","","",""
"919.8999999761581","","image-keyboard-response","79","124972","0.0-79.0","33L7PJKHCHKUCPJ5RL572IXW92M8TU","A23KAJRDVCVGOE","3ZXV7Q5FJBAKJ3TNMBBLYHIS0EBCFB","","img/set1/S4.jpg","72","4","structured_normal","74","structured_normal,structured_load,random,structured_incentive","1,2,4,2,2,3","1,2,4,3","false","","",""
"null","","html-keyboard-response","80","125324","0.0-80.0","33L7PJKHCHKUCPJ5RL572IXW92M8TU","A23KAJRDVCVGOE","3ZXV7Q5FJBAKJ3TNMBBLYHIS0EBCFB","","<img src=""img/set1/S4.jpg"" width=""540"" height = ""360"">","null","","","","","","","","","",""
"null","","html-keyboard-response","81","125526","0.0-81.0","33L7PJKHCHKUCPJ5RL572IXW92M8TU","A23KAJRDVCVGOE","3ZXV7Q5FJBAKJ3TNMBBLYHIS0EBCFB","","","null","","","","","","","","","",""
"518.1999999880791","","image-keyboard-response","82","126047","0.0-82.0","33L7PJKHCHKUCPJ5RL572IXW92M8TU","A23KAJRDVCVGOE","3ZXV7Q5FJBAKJ3TNMBBLYHIS0EBCFB","","img/set1/S3.jpg","72","3","structured_normal","72","structured_normal,structured_load,random,structured_incentive","1,2,4,2,2,3","1,2,4,3","true","","",""
"null","","html-keyboard-response","83","126400","0.0-83.0","33L7PJKHCHKUCPJ5RL572IXW92M8TU","A23KAJRDVCVGOE","3ZXV7Q5FJBAKJ3TNMBBLYHIS0EBCFB","","<img src=""img/set1/S3.jpg"" width=""540"" height = ""360"" style=""border:16px solid orange"">","null","","","","","","","","","",""
"null","","html-keyboard-response","84","126602","0.0-84.0","33L7PJKHCHKUCPJ5RL572IXW92M8TU","A23KAJRDVCVGOE","3ZXV7Q5FJBAKJ3TNMBBLYHIS0EBCFB","","","null","","","","","","","","","",""
"null","","image-keyboard-response","85","129104","0.0-85.0","33L7PJKHCHKUCPJ5RL572IXW92M8TU","A23KAJRDVCVGOE","3ZXV7Q5FJBAKJ3TNMBBLYHIS0EBCFB","","img/set1/S1.jpg","null","1","structured_normal","83","structured_normal,structured_load,random,structured_incentive","1,2,4,2,2,3","1,2,4,3","false","","",""
"null","","html-keyboard-response","86","129458","0.0-86.0","33L7PJKHCHKUCPJ5RL572IXW92M8TU","A23KAJRDVCVGOE","3ZXV7Q5FJBAKJ3TNMBBLYHIS0EBCFB","","<img src=""img/set1/S1.jpg"" width=""540"" height = ""360"">","null","","","","","","","","","",""
"null","","html-keyboard-response","87","129661","0.0-87.0","33L7PJKHCHKUCPJ5RL572IXW92M8TU","A23KAJRDVCVGOE","3ZXV7Q5FJBAKJ3TNMBBLYHIS0EBCFB","","","null","","","","","","","","","",""
"null","","image-keyboard-response","88","132163","0.0-88.0","33L7PJKHCHKUCPJ5RL572IXW92M8TU","A23KAJRDVCVGOE","3ZXV7Q5FJBAKJ3TNMBBLYHIS0EBCFB","","img/set1/S2.jpg","null","2","structured_normal","68","structured_normal,structured_load,random,structured_incentive","1,2,4,2,2,3","1,2,4,3","false","","",""
"null","","html-keyboard-response","89","132516","0.0-89.0","33L7PJKHCHKUCPJ5RL572IXW92M8TU","A23KAJRDVCVGOE","3ZXV7Q5FJBAKJ3TNMBBLYHIS0EBCFB","","<img src=""img/set1/S2.jpg"" width=""540"" height = ""360"">","null","","","","","","","","","",""
"null","","html-keyboard-response","90","132717","0.0-90.0","33L7PJKHCHKUCPJ5RL572IXW92M8TU","A23KAJRDVCVGOE","3ZXV7Q5FJBAKJ3TNMBBLYHIS0EBCFB","","","null","","","","","","","","","",""
"null","","image-keyboard-response","91","135220","0.0-91.0","33L7PJKHCHKUCPJ5RL572IXW92M8TU","A23KAJRDVCVGOE","3ZXV7Q5FJBAKJ3TNMBBLYHIS0EBCFB","","img/set1/S1.jpg","null","1","structured_normal","83","structured_normal,structured_load,random,structured_incentive","1,2,4,2,2,3","1,2,4,3","false","","",""
"null","","html-keyboard-response","92","135572","0.0-92.0","33L7PJKHCHKUCPJ5RL572IXW92M8TU","A23KAJRDVCVGOE","3ZXV7Q5FJBAKJ3TNMBBLYHIS0EBCFB","","<img src=""img/set1/S1.jpg"" width=""540"" height = ""360"">","null","","","","","","","","","",""
"null","","html-keyboard-response","93","135774","0.0-93.0","33L7PJKHCHKUCPJ5RL572IXW92M8TU","A23KAJRDVCVGOE","3ZXV7Q5FJBAKJ3TNMBBLYHIS0EBCFB","","","null","","","","","","","","","",""
"null","","image-keyboard-response","94","138277","0.0-94.0","33L7PJKHCHKUCPJ5RL572IXW92M8TU","A23KAJRDVCVGOE","3ZXV7Q5FJBAKJ3TNMBBLYHIS0EBCFB","","img/set1/S2.jpg","null","2","structured_normal","68","structured_normal,structured_load,random,structured_incentive","1,2,4,2,2,3","1,2,4,3","false","","",""
"null","","html-keyboard-response","95","138632","0.0-95.0","33L7PJKHCHKUCPJ5RL572IXW92M8TU","A23KAJRDVCVGOE","3ZXV7Q5FJBAKJ3TNMBBLYHIS0EBCFB","","<img src=""img/set1/S2.jpg"" width=""540"" height = ""360"">","null","","","","","","","","","",""
"null","","html-keyboard-response","96","138834","0.0-96.0","33L7PJKHCHKUCPJ5RL572IXW92M8TU","A23KAJRDVCVGOE","3ZXV7Q5FJBAKJ3TNMBBLYHIS0EBCFB","","","null","","","","","","","","","",""
"null","","image-keyboard-response","97","141337","0.0-97.0","33L7PJKHCHKUCPJ5RL572IXW92M8TU","A23KAJRDVCVGOE","3ZXV7Q5FJBAKJ3TNMBBLYHIS0EBCFB","","img/set1/S4.jpg","null","4","structured_normal","74","structured_normal,structured_load,random,structured_incentive","1,2,4,2,2,3","1,2,4,3","false","","",""
"null","","html-keyboard-response","98","141690","0.0-98.0","33L7PJKHCHKUCPJ5RL572IXW92M8TU","A23KAJRDVCVGOE","3ZXV7Q5FJBAKJ3TNMBBLYHIS0EBCFB","","<img src=""img/set1/S4.jpg"" width=""540"" height = ""360"">","null","","","","","","","","","",""
"null","","html-keyboard-response","99","141891","0.0-99.0","33L7PJKHCHKUCPJ5RL572IXW92M8TU","A23KAJRDVCVGOE","3ZXV7Q5FJBAKJ3TNMBBLYHIS0EBCFB","","","null","","","","","","","","","",""
"518.4000000059605","","image-keyboard-response","100","142412","0.0-100.0","33L7PJKHCHKUCPJ5RL572IXW92M8TU","A23KAJRDVCVGOE","3ZXV7Q5FJBAKJ3TNMBBLYHIS0EBCFB","","img/set1/S1.jpg","83","1","structured_normal","83","structured_normal,structured_load,random,structured_incentive","1,2,4,2,2,3","1,2,4,3","true","","",""
"null","","html-keyboard-response","101","142765","0.0-101.0","33L7PJKHCHKUCPJ5RL572IXW92M8TU","A23KAJRDVCVGOE","3ZXV7Q5FJBAKJ3TNMBBLYHIS0EBCFB","","<img src=""img/set1/S1.jpg"" width=""540"" height = ""360"" style=""border:16px solid orange"">","null","","","","","","","","","",""
"null","","html-keyboard-response","102","142967","0.0-102.0","33L7PJKHCHKUCPJ5RL572IXW92M8TU","A23KAJRDVCVGOE","3ZXV7Q5FJBAKJ3TNMBBLYHIS0EBCFB","","","null","","","","","","","","","",""
"867.5","","image-keyboard-response","103","143837","0.0-103.0","33L7PJKHCHKUCPJ5RL572IXW92M8TU","A23KAJRDVCVGOE","3ZXV7Q5FJBAKJ3TNMBBLYHIS0EBCFB","","img/set1/S2.jpg","68","2","structured_normal","68","structured_normal,structured_load,random,structured_incentive","1,2,4,2,2,3","1,2,4,3","true","","",""
"null","","html-keyboard-response","104","144192","0.0-104.0","33L7PJKHCHKUCPJ5RL572IXW92M8TU","A23KAJRDVCVGOE","3ZXV7Q5FJBAKJ3TNMBBLYHIS0EBCFB","","<img src=""img/set1/S2.jpg"" width=""540"" height = ""360"" style=""border:16px solid orange"">","null","","","","","","","","","",""
"null","","html-keyboard-response","105","144395","0.0-105.0","33L7PJKHCHKUCPJ5RL572IXW92M8TU","A23KAJRDVCVGOE","3ZXV7Q5FJBAKJ3TNMBBLYHIS0EBCFB","","","null","","","","","","","","","",""
"904.3000000119209","","image-keyboard-response","106","145302","0.0-106.0","33L7PJKHCHKUCPJ5RL572IXW92M8TU","A23KAJRDVCVGOE","3ZXV7Q5FJBAKJ3TNMBBLYHIS0EBCFB","","img/set1/S4.jpg","83","4","structured_normal","74","structured_normal,structured_load,random,structured_incentive","1,2,4,2,2,3","1,2,4,3","false","","",""
"null","","html-keyboard-response","107","145656","0.0-107.0","33L7PJKHCHKUCPJ5RL572IXW92M8TU","A23KAJRDVCVGOE","3ZXV7Q5FJBAKJ3TNMBBLYHIS0EBCFB","","<img src=""img/set1/S4.jpg"" width=""540"" height = ""360"">","null","","","","","","","","","",""
"null","","html-keyboard-response","108","145858","0.0-108.0","33L7PJKHCHKUCPJ5RL572IXW92M8TU","A23KAJRDVCVGOE","3ZXV7Q5FJBAKJ3TNMBBLYHIS0EBCFB","","","null","","","","","","","","","",""
"697.2000000178814","","image-keyboard-response","109","146558","0.0-109.0","33L7PJKHCHKUCPJ5RL572IXW92M8TU","A23KAJRDVCVGOE","3ZXV7Q5FJBAKJ3TNMBBLYHIS0EBCFB","","img/set1/S2.jpg","72","2","structured_normal","68","structured_normal,structured_load,random,structured_incentive","1,2,4,2,2,3","1,2,4,3","false","","",""
"null","","html-keyboard-response","110","146911","0.0-110.0","33L7PJKHCHKUCPJ5RL572IXW92M8TU","A23KAJRDVCVGOE","3ZXV7Q5FJBAKJ3TNMBBLYHIS0EBCFB","","<img src=""img/set1/S2.jpg"" width=""540"" height = ""360"">","null","","","","","","","","","",""
"null","","html-keyboard-response","111","147112","0.0-111.0","33L7PJKHCHKUCPJ5RL572IXW92M8TU","A23KAJRDVCVGOE","3ZXV7Q5FJBAKJ3TNMBBLYHIS0EBCFB","","","null","","","","","","","","","",""
"781.8000000119209","","image-keyboard-response","112","147897","0.0-112.0","33L7PJKHCHKUCPJ5RL572IXW92M8TU","A23KAJRDVCVGOE","3ZXV7Q5FJBAKJ3TNMBBLYHIS0EBCFB","","img/set1/S1.jpg","83","1","structured_normal","83","structured_normal,structured_load,random,structured_incentive","1,2,4,2,2,3","1,2,4,3","true","","",""
"null","","html-keyboard-response","113","148250","0.0-113.0","33L7PJKHCHKUCPJ5RL572IXW92M8TU","A23KAJRDVCVGOE","3ZXV7Q5FJBAKJ3TNMBBLYHIS0EBCFB","","<img src=""img/set1/S1.jpg"" width=""540"" height = ""360"" style=""border:16px solid orange"">","null","","","","","","","","","",""
"null","","html-keyboard-response","114","148452","0.0-114.0","33L7PJKHCHKUCPJ5RL572IXW92M8TU","A23KAJRDVCVGOE","3ZXV7Q5FJBAKJ3TNMBBLYHIS0EBCFB","","","null","","","","","","","","","",""
"701","","image-keyboard-response","115","149156","0.0-115.0","33L7PJKHCHKUCPJ5RL572IXW92M8TU","A23KAJRDVCVGOE","3ZXV7Q5FJBAKJ3TNMBBLYHIS0EBCFB","","img/set1/S4.jpg","68","4","structured_normal","74","structured_normal,structured_load,random,structured_incentive","1,2,4,2,2,3","1,2,4,3","false","","",""
"null","","html-keyboard-response","116","149510","0.0-116.0","33L7PJKHCHKUCPJ5RL572IXW92M8TU","A23KAJRDVCVGOE","3ZXV7Q5FJBAKJ3TNMBBLYHIS0EBCFB","","<img src=""img/set1/S4.jpg"" width=""540"" height = ""360"">","null","","","","","","","","","",""
"null","","html-keyboard-response","117","149711","0.0-117.0","33L7PJKHCHKUCPJ5RL572IXW92M8TU","A23KAJRDVCVGOE","3ZXV7Q5FJBAKJ3TNMBBLYHIS0EBCFB","","","null","","","","","","","","","",""
"453.5","","image-keyboard-response","118","150166","0.0-118.0","33L7PJKHCHKUCPJ5RL572IXW92M8TU","A23KAJRDVCVGOE","3ZXV7Q5FJBAKJ3TNMBBLYHIS0EBCFB","","img/set1/S3.jpg","83","3","structured_normal","72","structured_normal,structured_load,random,structured_incentive","1,2,4,2,2,3","1,2,4,3","false","","",""
"null","","html-keyboard-response","119","150519","0.0-119.0","33L7PJKHCHKUCPJ5RL572IXW92M8TU","A23KAJRDVCVGOE","3ZXV7Q5FJBAKJ3TNMBBLYHIS0EBCFB","","<img src=""img/set1/S3.jpg"" width=""540"" height = ""360"">","null","","","","","","","","","",""
"null","","html-keyboard-response","120","150721","0.0-120.0","33L7PJKHCHKUCPJ5RL572IXW92M8TU","A23KAJRDVCVGOE","3ZXV7Q5FJBAKJ3TNMBBLYHIS0EBCFB","","","null","","","","","","","","","",""
"692.8000000119209","","image-keyboard-response","121","151416","0.0-121.0","33L7PJKHCHKUCPJ5RL572IXW92M8TU","A23KAJRDVCVGOE","3ZXV7Q5FJBAKJ3TNMBBLYHIS0EBCFB","","img/set1/S1.jpg","72","1","structured_normal","83","structured_normal,structured_load,random,structured_incentive","1,2,4,2,2,3","1,2,4,3","false","","",""
"null","","html-keyboard-response","122","151769","0.0-122.0","33L7PJKHCHKUCPJ5RL572IXW92M8TU","A23KAJRDVCVGOE","3ZXV7Q5FJBAKJ3TNMBBLYHIS0EBCFB","","<img src=""img/set1/S1.jpg"" width=""540"" height = ""360"">","null","","","","","","","","","",""
"null","","html-keyboard-response","123","151970","0.0-123.0","33L7PJKHCHKUCPJ5RL572IXW92M8TU","A23KAJRDVCVGOE","3ZXV7Q5FJBAKJ3TNMBBLYHIS0EBCFB","","","null","","","","","","","","","",""
"723.5","","image-keyboard-response","124","152695","0.0-124.0","33L7PJKHCHKUCPJ5RL572IXW92M8TU","A23KAJRDVCVGOE","3ZXV7Q5FJBAKJ3TNMBBLYHIS0EBCFB","","img/set1/S2.jpg","83","2","structured_normal","68","structured_normal,structured_load,random,structured_incentive","1,2,4,2,2,3","1,2,4,3","false","","",""
"null","","html-keyboard-response","125","153048","0.0-125.0","33L7PJKHCHKUCPJ5RL572IXW92M8TU","A23KAJRDVCVGOE","3ZXV7Q5FJBAKJ3TNMBBLYHIS0EBCFB","","<img src=""img/set1/S2.jpg"" width=""540"" height = ""360"">","null","","","","","","","","","",""
"null","","html-keyboard-response","126","153251","0.0-126.0","33L7PJKHCHKUCPJ5RL572IXW92M8TU","A23KAJRDVCVGOE","3ZXV7Q5FJBAKJ3TNMBBLYHIS0EBCFB","","","null","","","","","","","","","",""
"468.30000001192093","","image-keyboard-response","127","153722","0.0-127.0","33L7PJKHCHKUCPJ5RL572IXW92M8TU","A23KAJRDVCVGOE","3ZXV7Q5FJBAKJ3TNMBBLYHIS0EBCFB","","img/set1/S4.jpg","68","4","structured_normal","74","structured_normal,structured_load,random,structured_incentive","1,2,4,2,2,3","1,2,4,3","false","","",""
"null","","html-keyboard-response","128","154075","0.0-128.0","33L7PJKHCHKUCPJ5RL572IXW92M8TU","A23KAJRDVCVGOE","3ZXV7Q5FJBAKJ3TNMBBLYHIS0EBCFB","","<img src=""img/set1/S4.jpg"" width=""540"" height = ""360"">","null","","","","","","","","","",""
"null","","html-keyboard-response","129","154276","0.0-129.0","33L7PJKHCHKUCPJ5RL572IXW92M8TU","A23KAJRDVCVGOE","3ZXV7Q5FJBAKJ3TNMBBLYHIS0EBCFB","","","null","","","","","","","","","",""
"852.4000000059605","","image-keyboard-response","130","155130","0.0-130.0","33L7PJKHCHKUCPJ5RL572IXW92M8TU","A23KAJRDVCVGOE","3ZXV7Q5FJBAKJ3TNMBBLYHIS0EBCFB","","img/set1/S3.jpg","72","3","structured_normal","72","structured_normal,structured_load,random,structured_incentive","1,2,4,2,2,3","1,2,4,3","true","","",""
"null","","html-keyboard-response","131","155484","0.0-131.0","33L7PJKHCHKUCPJ5RL572IXW92M8TU","A23KAJRDVCVGOE","3ZXV7Q5FJBAKJ3TNMBBLYHIS0EBCFB","","<img src=""img/set1/S3.jpg"" width=""540"" height = ""360"" style=""border:16px solid orange"">","null","","","","","","","","","",""
"null","","html-keyboard-response","132","155685","0.0-132.0","33L7PJKHCHKUCPJ5RL572IXW92M8TU","A23KAJRDVCVGOE","3ZXV7Q5FJBAKJ3TNMBBLYHIS0EBCFB","","","null","","","","","","","","","",""
"766.8999999761581","","image-keyboard-response","133","156453","0.0-133.0","33L7PJKHCHKUCPJ5RL572IXW92M8TU","A23KAJRDVCVGOE","3ZXV7Q5FJBAKJ3TNMBBLYHIS0EBCFB","","img/set1/S2.jpg","83","2","structured_normal","68","structured_normal,structured_load,random,structured_incentive","1,2,4,2,2,3","1,2,4,3","false","","",""
"null","","html-keyboard-response","134","156806","0.0-134.0","33L7PJKHCHKUCPJ5RL572IXW92M8TU","A23KAJRDVCVGOE","3ZXV7Q5FJBAKJ3TNMBBLYHIS0EBCFB","","<img src=""img/set1/S2.jpg"" width=""540"" height = ""360"">","null","","","","","","","","","",""
"null","","html-keyboard-response","135","157007","0.0-135.0","33L7PJKHCHKUCPJ5RL572IXW92M8TU","A23KAJRDVCVGOE","3ZXV7Q5FJBAKJ3TNMBBLYHIS0EBCFB","","","null","","","","","","","","","",""
"626.7999999821186","","image-keyboard-response","136","157637","0.0-136.0","33L7PJKHCHKUCPJ5RL572IXW92M8TU","A23KAJRDVCVGOE","3ZXV7Q5FJBAKJ3TNMBBLYHIS0EBCFB","","img/set1/S3.jpg","72","3","structured_normal","72","structured_normal,structured_load,random,structured_incentive","1,2,4,2,2,3","1,2,4,3","true","","",""
"null","","html-keyboard-response","137","157991","0.0-137.0","33L7PJKHCHKUCPJ5RL572IXW92M8TU","A23KAJRDVCVGOE","3ZXV7Q5FJBAKJ3TNMBBLYHIS0EBCFB","","<img src=""img/set1/S3.jpg"" width=""540"" height = ""360"" style=""border:16px solid orange"">","null","","","","","","","","","",""
"null","","html-keyboard-response","138","158193","0.0-138.0","33L7PJKHCHKUCPJ5RL572IXW92M8TU","A23KAJRDVCVGOE","3ZXV7Q5FJBAKJ3TNMBBLYHIS0EBCFB","","","null","","","","","","","","","",""
"657.2999999821186","","image-keyboard-response","139","158854","0.0-139.0","33L7PJKHCHKUCPJ5RL572IXW92M8TU","A23KAJRDVCVGOE","3ZXV7Q5FJBAKJ3TNMBBLYHIS0EBCFB","","img/set1/S4.jpg","68","4","structured_normal","74","structured_normal,structured_load,random,structured_incentive","1,2,4,2,2,3","1,2,4,3","false","","",""
"null","","html-keyboard-response","140","159207","0.0-140.0","33L7PJKHCHKUCPJ5RL572IXW92M8TU","A23KAJRDVCVGOE","3ZXV7Q5FJBAKJ3TNMBBLYHIS0EBCFB","","<img src=""img/set1/S4.jpg"" width=""540"" height = ""360"">","null","","","","","","","","","",""
"null","","html-keyboard-response","141","159409","0.0-141.0","33L7PJKHCHKUCPJ5RL572IXW92M8TU","A23KAJRDVCVGOE","3ZXV7Q5FJBAKJ3TNMBBLYHIS0EBCFB","","","null","","","","","","","","","",""
"633.3000000119209","","image-keyboard-response","142","160045","0.0-142.0","33L7PJKHCHKUCPJ5RL572IXW92M8TU","A23KAJRDVCVGOE","3ZXV7Q5FJBAKJ3TNMBBLYHIS0EBCFB","","img/set1/S1.jpg","83","1","structured_normal","83","structured_normal,structured_load,random,structured_incentive","1,2,4,2,2,3","1,2,4,3","true","","",""
"null","","html-keyboard-response","143","160397","0.0-143.0","33L7PJKHCHKUCPJ5RL572IXW92M8TU","A23KAJRDVCVGOE","3ZXV7Q5FJBAKJ3TNMBBLYHIS0EBCFB","","<img src=""img/set1/S1.jpg"" width=""540"" height = ""360"" style=""border:16px solid orange"">","null","","","","","","","","","",""
"null","","html-keyboard-response","144","160598","0.0-144.0","33L7PJKHCHKUCPJ5RL572IXW92M8TU","A23KAJRDVCVGOE","3ZXV7Q5FJBAKJ3TNMBBLYHIS0EBCFB","","","null","","","","","","","","","",""
"979","","image-keyboard-response","145","161579","0.0-145.0","33L7PJKHCHKUCPJ5RL572IXW92M8TU","A23KAJRDVCVGOE","3ZXV7Q5FJBAKJ3TNMBBLYHIS0EBCFB","","img/set1/S4.jpg","74","4","structured_normal","74","structured_normal,structured_load,random,structured_incentive","1,2,4,2,2,3","1,2,4,3","true","","",""
"null","","html-keyboard-response","146","161932","0.0-146.0","33L7PJKHCHKUCPJ5RL572IXW92M8TU","A23KAJRDVCVGOE","3ZXV7Q5FJBAKJ3TNMBBLYHIS0EBCFB","","<img src=""img/set1/S4.jpg"" width=""540"" height = ""360"" style=""border:16px solid orange"">","null","","","","","","","","","",""
"null","","html-keyboard-response","147","162134","0.0-147.0","33L7PJKHCHKUCPJ5RL572IXW92M8TU","A23KAJRDVCVGOE","3ZXV7Q5FJBAKJ3TNMBBLYHIS0EBCFB","","","null","","","","","","","","","",""
"558","","image-keyboard-response","148","162694","0.0-148.0","33L7PJKHCHKUCPJ5RL572IXW92M8TU","A23KAJRDVCVGOE","3ZXV7Q5FJBAKJ3TNMBBLYHIS0EBCFB","","img/set1/S4.jpg","74","4","structured_normal","74","structured_normal,structured_load,random,structured_incentive","1,2,4,2,2,3","1,2,4,3","true","","",""
"null","","html-keyboard-response","149","163047","0.0-149.0","33L7PJKHCHKUCPJ5RL572IXW92M8TU","A23KAJRDVCVGOE","3ZXV7Q5FJBAKJ3TNMBBLYHIS0EBCFB","","<img src=""img/set1/S4.jpg"" width=""540"" height = ""360"" style=""border:16px solid orange"">","null","","","","","","","","","",""
"null","","html-keyboard-response","150","163248","0.0-150.0","33L7PJKHCHKUCPJ5RL572IXW92M8TU","A23KAJRDVCVGOE","3ZXV7Q5FJBAKJ3TNMBBLYHIS0EBCFB","","","null","","","","","","","","","",""
"602.3000000119209","","image-keyboard-response","151","163853","0.0-151.0","33L7PJKHCHKUCPJ5RL572IXW92M8TU","A23KAJRDVCVGOE","3ZXV7Q5FJBAKJ3TNMBBLYHIS0EBCFB","","img/set1/S3.jpg","72","3","structured_normal","72","structured_normal,structured_load,random,structured_incentive","1,2,4,2,2,3","1,2,4,3","true","","",""
"null","","html-keyboard-response","152","164207","0.0-152.0","33L7PJKHCHKUCPJ5RL572IXW92M8TU","A23KAJRDVCVGOE","3ZXV7Q5FJBAKJ3TNMBBLYHIS0EBCFB","","<img src=""img/set1/S3.jpg"" width=""540"" height = ""360"" style=""border:16px solid orange"">","null","","","","","","","","","",""
"null","","html-keyboard-response","153","164408","0.0-153.0","33L7PJKHCHKUCPJ5RL572IXW92M8TU","A23KAJRDVCVGOE","3ZXV7Q5FJBAKJ3TNMBBLYHIS0EBCFB","","","null","","","","","","","","","",""
"776.5","","image-keyboard-response","154","165188","0.0-154.0","33L7PJKHCHKUCPJ5RL572IXW92M8TU","A23KAJRDVCVGOE","3ZXV7Q5FJBAKJ3TNMBBLYHIS0EBCFB","","img/set1/S1.jpg","68","1","structured_normal","83","structured_normal,structured_load,random,structured_incentive","1,2,4,2,2,3","1,2,4,3","false","","",""
"null","","html-keyboard-response","155","165545","0.0-155.0","33L7PJKHCHKUCPJ5RL572IXW92M8TU","A23KAJRDVCVGOE","3ZXV7Q5FJBAKJ3TNMBBLYHIS0EBCFB","","<img src=""img/set1/S1.jpg"" width=""540"" height = ""360"">","null","","","","","","","","","",""
"null","","html-keyboard-response","156","165747","0.0-156.0","33L7PJKHCHKUCPJ5RL572IXW92M8TU","A23KAJRDVCVGOE","3ZXV7Q5FJBAKJ3TNMBBLYHIS0EBCFB","","","null","","","","","","","","","",""
"546.9000000059605","","image-keyboard-response","157","166296","0.0-157.0","33L7PJKHCHKUCPJ5RL572IXW92M8TU","A23KAJRDVCVGOE","3ZXV7Q5FJBAKJ3TNMBBLYHIS0EBCFB","","img/set1/S2.jpg","83","2","structured_normal","68","structured_normal,structured_load,random,structured_incentive","1,2,4,2,2,3","1,2,4,3","false","","",""
"null","","html-keyboard-response","158","166648","0.0-158.0","33L7PJKHCHKUCPJ5RL572IXW92M8TU","A23KAJRDVCVGOE","3ZXV7Q5FJBAKJ3TNMBBLYHIS0EBCFB","","<img src=""img/set1/S2.jpg"" width=""540"" height = ""360"">","null","","","","","","","","","",""
"null","","html-keyboard-response","159","166850","0.0-159.0","33L7PJKHCHKUCPJ5RL572IXW92M8TU","A23KAJRDVCVGOE","3ZXV7Q5FJBAKJ3TNMBBLYHIS0EBCFB","","","null","","","","","","","","","",""
"623.9000000059605","","image-keyboard-response","160","167476","0.0-160.0","33L7PJKHCHKUCPJ5RL572IXW92M8TU","A23KAJRDVCVGOE","3ZXV7Q5FJBAKJ3TNMBBLYHIS0EBCFB","","img/set1/S1.jpg","68","1","structured_normal","83","structured_normal,structured_load,random,structured_incentive","1,2,4,2,2,3","1,2,4,3","false","","",""
"null","","html-keyboard-response","161","167829","0.0-161.0","33L7PJKHCHKUCPJ5RL572IXW92M8TU","A23KAJRDVCVGOE","3ZXV7Q5FJBAKJ3TNMBBLYHIS0EBCFB","","<img src=""img/set1/S1.jpg"" width=""540"" height = ""360"">","null","","","","","","","","","",""
"null","","html-keyboard-response","162","168031","0.0-162.0","33L7PJKHCHKUCPJ5RL572IXW92M8TU","A23KAJRDVCVGOE","3ZXV7Q5FJBAKJ3TNMBBLYHIS0EBCFB","","","null","","","","","","","","","",""
"949.3000000119209","","image-keyboard-response","163","168983","0.0-163.0","33L7PJKHCHKUCPJ5RL572IXW92M8TU","A23KAJRDVCVGOE","3ZXV7Q5FJBAKJ3TNMBBLYHIS0EBCFB","","img/set1/S2.jpg","68","2","structured_normal","68","structured_normal,structured_load,random,structured_incentive","1,2,4,2,2,3","1,2,4,3","true","","",""
"null","","html-keyboard-response","164","169337","0.0-164.0","33L7PJKHCHKUCPJ5RL572IXW92M8TU","A23KAJRDVCVGOE","3ZXV7Q5FJBAKJ3TNMBBLYHIS0EBCFB","","<img src=""img/set1/S2.jpg"" width=""540"" height = ""360"" style=""border:16px solid orange"">","null","","","","","","","","","",""
"null","","html-keyboard-response","165","169538","0.0-165.0","33L7PJKHCHKUCPJ5RL572IXW92M8TU","A23KAJRDVCVGOE","3ZXV7Q5FJBAKJ3TNMBBLYHIS0EBCFB","","","null","","","","","","","","","",""
"764.7999999821186","","image-keyboard-response","166","170305","0.0-166.0","33L7PJKHCHKUCPJ5RL572IXW92M8TU","A23KAJRDVCVGOE","3ZXV7Q5FJBAKJ3TNMBBLYHIS0EBCFB","","img/set1/S3.jpg","72","3","structured_normal","72","structured_normal,structured_load,random,structured_incentive","1,2,4,2,2,3","1,2,4,3","true","","",""
"null","","html-keyboard-response","167","170658","0.0-167.0","33L7PJKHCHKUCPJ5RL572IXW92M8TU","A23KAJRDVCVGOE","3ZXV7Q5FJBAKJ3TNMBBLYHIS0EBCFB","","<img src=""img/set1/S3.jpg"" width=""540"" height = ""360"" style=""border:16px solid orange"">","null","","","","","","","","","",""
"null","","html-keyboard-response","168","170860","0.0-168.0","33L7PJKHCHKUCPJ5RL572IXW92M8TU","A23KAJRDVCVGOE","3ZXV7Q5FJBAKJ3TNMBBLYHIS0EBCFB","","","null","","","","","","","","","",""
"1078.800000011921","","image-keyboard-response","169","171941","0.0-169.0","33L7PJKHCHKUCPJ5RL572IXW92M8TU","A23KAJRDVCVGOE","3ZXV7Q5FJBAKJ3TNMBBLYHIS0EBCFB","","img/set1/S1.jpg","83","1","structured_normal","83","structured_normal,structured_load,random,structured_incentive","1,2,4,2,2,3","1,2,4,3","true","","",""
"null","","html-keyboard-response","170","172294","0.0-170.0","33L7PJKHCHKUCPJ5RL572IXW92M8TU","A23KAJRDVCVGOE","3ZXV7Q5FJBAKJ3TNMBBLYHIS0EBCFB","","<img src=""img/set1/S1.jpg"" width=""540"" height = ""360"" style=""border:16px solid orange"">","null","","","","","","","","","",""
"null","","html-keyboard-response","171","172496","0.0-171.0","33L7PJKHCHKUCPJ5RL572IXW92M8TU","A23KAJRDVCVGOE","3ZXV7Q5FJBAKJ3TNMBBLYHIS0EBCFB","","","null","","","","","","","","","",""
"763.5","","image-keyboard-response","172","173262","0.0-172.0","33L7PJKHCHKUCPJ5RL572IXW92M8TU","A23KAJRDVCVGOE","3ZXV7Q5FJBAKJ3TNMBBLYHIS0EBCFB","","img/set1/S2.jpg","68","2","structured_normal","68","structured_normal,structured_load,random,structured_incentive","1,2,4,2,2,3","1,2,4,3","true","","",""
"null","","html-keyboard-response","173","173615","0.0-173.0","33L7PJKHCHKUCPJ5RL572IXW92M8TU","A23KAJRDVCVGOE","3ZXV7Q5FJBAKJ3TNMBBLYHIS0EBCFB","","<img src=""img/set1/S2.jpg"" width=""540"" height = ""360"" style=""border:16px solid orange"">","null","","","","","","","","","",""
"null","","html-keyboard-response","174","173817","0.0-174.0","33L7PJKHCHKUCPJ5RL572IXW92M8TU","A23KAJRDVCVGOE","3ZXV7Q5FJBAKJ3TNMBBLYHIS0EBCFB","","","null","","","","","","","","","",""
"705.6999999880791","","image-keyboard-response","175","174525","0.0-175.0","33L7PJKHCHKUCPJ5RL572IXW92M8TU","A23KAJRDVCVGOE","3ZXV7Q5FJBAKJ3TNMBBLYHIS0EBCFB","","img/set1/S3.jpg","72","3","structured_normal","72","structured_normal,structured_load,random,structured_incentive","1,2,4,2,2,3","1,2,4,3","true","","",""
"null","","html-keyboard-response","176","174878","0.0-176.0","33L7PJKHCHKUCPJ5RL572IXW92M8TU","A23KAJRDVCVGOE","3ZXV7Q5FJBAKJ3TNMBBLYHIS0EBCFB","","<img src=""img/set1/S3.jpg"" width=""540"" height = ""360"" style=""border:16px solid orange"">","null","","","","","","","","","",""
"null","","html-keyboard-response","177","175080","0.0-177.0","33L7PJKHCHKUCPJ5RL572IXW92M8TU","A23KAJRDVCVGOE","3ZXV7Q5FJBAKJ3TNMBBLYHIS0EBCFB","","","null","","","","","","","","","",""
"754.3000000119209","","image-keyboard-response","178","175837","0.0-178.0","33L7PJKHCHKUCPJ5RL572IXW92M8TU","A23KAJRDVCVGOE","3ZXV7Q5FJBAKJ3TNMBBLYHIS0EBCFB","","img/set1/S1.jpg","83","1","structured_normal","83","structured_normal,structured_load,random,structured_incentive","1,2,4,2,2,3","1,2,4,3","true","","",""
"null","","html-keyboard-response","179","176190","0.0-179.0","33L7PJKHCHKUCPJ5RL572IXW92M8TU","A23KAJRDVCVGOE","3ZXV7Q5FJBAKJ3TNMBBLYHIS0EBCFB","","<img src=""img/set1/S1.jpg"" width=""540"" height = ""360"" style=""border:16px solid orange"">","null","","","","","","","","","",""
"null","","html-keyboard-response","180","176392","0.0-180.0","33L7PJKHCHKUCPJ5RL572IXW92M8TU","A23KAJRDVCVGOE","3ZXV7Q5FJBAKJ3TNMBBLYHIS0EBCFB","","","null","","","","","","","","","",""
"859.3000000119209","","image-keyboard-response","181","177253","0.0-181.0","33L7PJKHCHKUCPJ5RL572IXW92M8TU","A23KAJRDVCVGOE","3ZXV7Q5FJBAKJ3TNMBBLYHIS0EBCFB","","img/set1/S2.jpg","68","2","structured_normal","68","structured_normal,structured_load,random,structured_incentive","1,2,4,2,2,3","1,2,4,3","true","","",""
"null","","html-keyboard-response","182","177607","0.0-182.0","33L7PJKHCHKUCPJ5RL572IXW92M8TU","A23KAJRDVCVGOE","3ZXV7Q5FJBAKJ3TNMBBLYHIS0EBCFB","","<img src=""img/set1/S2.jpg"" width=""540"" height = ""360"" style=""border:16px solid orange"">","null","","","","","","","","","",""
"null","","html-keyboard-response","183","177809","0.0-183.0","33L7PJKHCHKUCPJ5RL572IXW92M8TU","A23KAJRDVCVGOE","3ZXV7Q5FJBAKJ3TNMBBLYHIS0EBCFB","","","null","","","","","","","","","",""
"928.5999999940395","","image-keyboard-response","184","178740","0.0-184.0","33L7PJKHCHKUCPJ5RL572IXW92M8TU","A23KAJRDVCVGOE","3ZXV7Q5FJBAKJ3TNMBBLYHIS0EBCFB","","img/set1/S4.jpg","74","4","structured_normal","74","structured_normal,structured_load,random,structured_incentive","1,2,4,2,2,3","1,2,4,3","true","","",""
"null","","html-keyboard-response","185","179094","0.0-185.0","33L7PJKHCHKUCPJ5RL572IXW92M8TU","A23KAJRDVCVGOE","3ZXV7Q5FJBAKJ3TNMBBLYHIS0EBCFB","","<img src=""img/set1/S4.jpg"" width=""540"" height = ""360"" style=""border:16px solid orange"">","null","","","","","","","","","",""
"null","","html-keyboard-response","186","179296","0.0-186.0","33L7PJKHCHKUCPJ5RL572IXW92M8TU","A23KAJRDVCVGOE","3ZXV7Q5FJBAKJ3TNMBBLYHIS0EBCFB","","","null","","","","","","","","","",""
"517.1999999880791","","image-keyboard-response","187","179816","0.0-187.0","33L7PJKHCHKUCPJ5RL572IXW92M8TU","A23KAJRDVCVGOE","3ZXV7Q5FJBAKJ3TNMBBLYHIS0EBCFB","","img/set1/S4.jpg","74","4","structured_normal","74","structured_normal,structured_load,random,structured_incentive","1,2,4,2,2,3","1,2,4,3","true","","",""
"null","","html-keyboard-response","188","180170","0.0-188.0","33L7PJKHCHKUCPJ5RL572IXW92M8TU","A23KAJRDVCVGOE","3ZXV7Q5FJBAKJ3TNMBBLYHIS0EBCFB","","<img src=""img/set1/S4.jpg"" width=""540"" height = ""360"" style=""border:16px solid orange"">","null","","","","","","","","","",""
"null","","html-keyboard-response","189","180371","0.0-189.0","33L7PJKHCHKUCPJ5RL572IXW92M8TU","A23KAJRDVCVGOE","3ZXV7Q5FJBAKJ3TNMBBLYHIS0EBCFB","","","null","","","","","","","","","",""
"963.8999999761581","","image-keyboard-response","190","181338","0.0-190.0","33L7PJKHCHKUCPJ5RL572IXW92M8TU","A23KAJRDVCVGOE","3ZXV7Q5FJBAKJ3TNMBBLYHIS0EBCFB","","img/set1/S2.jpg","68","2","structured_normal","68","structured_normal,structured_load,random,structured_incentive","1,2,4,2,2,3","1,2,4,3","true","","",""
"null","","html-keyboard-response","191","181691","0.0-191.0","33L7PJKHCHKUCPJ5RL572IXW92M8TU","A23KAJRDVCVGOE","3ZXV7Q5FJBAKJ3TNMBBLYHIS0EBCFB","","<img src=""img/set1/S2.jpg"" width=""540"" height = ""360"" style=""border:16px solid orange"">","null","","","","","","","","","",""
"null","","html-keyboard-response","192","181898","0.0-192.0","33L7PJKHCHKUCPJ5RL572IXW92M8TU","A23KAJRDVCVGOE","3ZXV7Q5FJBAKJ3TNMBBLYHIS0EBCFB","","","null","","","","","","","","","",""
"832.1999999880791","","image-keyboard-response","193","182734","0.0-193.0","33L7PJKHCHKUCPJ5RL572IXW92M8TU","A23KAJRDVCVGOE","3ZXV7Q5FJBAKJ3TNMBBLYHIS0EBCFB","","img/set1/S4.jpg","74","4","structured_normal","74","structured_normal,structured_load,random,structured_incentive","1,2,4,2,2,3","1,2,4,3","true","","",""
"null","","html-keyboard-response","194","183087","0.0-194.0","33L7PJKHCHKUCPJ5RL572IXW92M8TU","A23KAJRDVCVGOE","3ZXV7Q5FJBAKJ3TNMBBLYHIS0EBCFB","","<img src=""img/set1/S4.jpg"" width=""540"" height = ""360"" style=""border:16px solid orange"">","null","","","","","","","","","",""
"null","","html-keyboard-response","195","183288","0.0-195.0","33L7PJKHCHKUCPJ5RL572IXW92M8TU","A23KAJRDVCVGOE","3ZXV7Q5FJBAKJ3TNMBBLYHIS0EBCFB","","","null","","","","","","","","","",""
"984.5","","image-keyboard-response","196","184275","0.0-196.0","33L7PJKHCHKUCPJ5RL572IXW92M8TU","A23KAJRDVCVGOE","3ZXV7Q5FJBAKJ3TNMBBLYHIS0EBCFB","","img/set1/S1.jpg","83","1","structured_normal","83","structured_normal,structured_load,random,structured_incentive","1,2,4,2,2,3","1,2,4,3","true","","",""
"null","","html-keyboard-response","197","184630","0.0-197.0","33L7PJKHCHKUCPJ5RL572IXW92M8TU","A23KAJRDVCVGOE","3ZXV7Q5FJBAKJ3TNMBBLYHIS0EBCFB","","<img src=""img/set1/S1.jpg"" width=""540"" height = ""360"" style=""border:16px solid orange"">","null","","","","","","","","","",""
"null","","html-keyboard-response","198","184832","0.0-198.0","33L7PJKHCHKUCPJ5RL572IXW92M8TU","A23KAJRDVCVGOE","3ZXV7Q5FJBAKJ3TNMBBLYHIS0EBCFB","","","null","","","","","","","","","",""
"860.2000000178814","","image-keyboard-response","199","185695","0.0-199.0","33L7PJKHCHKUCPJ5RL572IXW92M8TU","A23KAJRDVCVGOE","3ZXV7Q5FJBAKJ3TNMBBLYHIS0EBCFB","","img/set1/S2.jpg","68","2","structured_normal","68","structured_normal,structured_load,random,structured_incentive","1,2,4,2,2,3","1,2,4,3","true","","",""
"null","","html-keyboard-response","200","186048","0.0-200.0","33L7PJKHCHKUCPJ5RL572IXW92M8TU","A23KAJRDVCVGOE","3ZXV7Q5FJBAKJ3TNMBBLYHIS0EBCFB","","<img src=""img/set1/S2.jpg"" width=""540"" height = ""360"" style=""border:16px solid orange"">","null","","","","","","","","","",""
"null","","html-keyboard-response","201","186250","0.0-201.0","33L7PJKHCHKUCPJ5RL572IXW92M8TU","A23KAJRDVCVGOE","3ZXV7Q5FJBAKJ3TNMBBLYHIS0EBCFB","","","null","","","","","","","","","",""
"654.4000000059605","","image-keyboard-response","202","186907","0.0-202.0","33L7PJKHCHKUCPJ5RL572IXW92M8TU","A23KAJRDVCVGOE","3ZXV7Q5FJBAKJ3TNMBBLYHIS0EBCFB","","img/set1/S3.jpg","72","3","structured_normal","72","structured_normal,structured_load,random,structured_incentive","1,2,4,2,2,3","1,2,4,3","true","","",""
"null","","html-keyboard-response","203","187261","0.0-203.0","33L7PJKHCHKUCPJ5RL572IXW92M8TU","A23KAJRDVCVGOE","3ZXV7Q5FJBAKJ3TNMBBLYHIS0EBCFB","","<img src=""img/set1/S3.jpg"" width=""540"" height = ""360"" style=""border:16px solid orange"">","null","","","","","","","","","",""
"null","","html-keyboard-response","204","187463","0.0-204.0","33L7PJKHCHKUCPJ5RL572IXW92M8TU","A23KAJRDVCVGOE","3ZXV7Q5FJBAKJ3TNMBBLYHIS0EBCFB","","","null","","","","","","","","","",""
"459.89999997615814","","image-keyboard-response","205","187925","0.0-205.0","33L7PJKHCHKUCPJ5RL572IXW92M8TU","A23KAJRDVCVGOE","3ZXV7Q5FJBAKJ3TNMBBLYHIS0EBCFB","","img/set1/S4.jpg","74","4","structured_normal","74","structured_normal,structured_load,random,structured_incentive","1,2,4,2,2,3","1,2,4,3","true","","",""
"null","","html-keyboard-response","206","188279","0.0-206.0","33L7PJKHCHKUCPJ5RL572IXW92M8TU","A23KAJRDVCVGOE","3ZXV7Q5FJBAKJ3TNMBBLYHIS0EBCFB","","<img src=""img/set1/S4.jpg"" width=""540"" height = ""360"" style=""border:16px solid orange"">","null","","","","","","","","","",""
"null","","html-keyboard-response","207","188481","0.0-207.0","33L7PJKHCHKUCPJ5RL572IXW92M8TU","A23KAJRDVCVGOE","3ZXV7Q5FJBAKJ3TNMBBLYHIS0EBCFB","","","null","","","","","","","","","",""
"460.90000000596046","","image-keyboard-response","208","188945","0.0-208.0","33L7PJKHCHKUCPJ5RL572IXW92M8TU","A23KAJRDVCVGOE","3ZXV7Q5FJBAKJ3TNMBBLYHIS0EBCFB","","img/set1/S4.jpg","74","4","structured_normal","74","structured_normal,structured_load,random,structured_incentive","1,2,4,2,2,3","1,2,4,3","true","","",""
"null","","html-keyboard-response","209","189298","0.0-209.0","33L7PJKHCHKUCPJ5RL572IXW92M8TU","A23KAJRDVCVGOE","3ZXV7Q5FJBAKJ3TNMBBLYHIS0EBCFB","","<img src=""img/set1/S4.jpg"" width=""540"" height = ""360"" style=""border:16px solid orange"">","null","","","","","","","","","",""
"null","","html-keyboard-response","210","189500","0.0-210.0","33L7PJKHCHKUCPJ5RL572IXW92M8TU","A23KAJRDVCVGOE","3ZXV7Q5FJBAKJ3TNMBBLYHIS0EBCFB","","","null","","","","","","","","","",""
"428.80000001192093","","image-keyboard-response","211","189931","0.0-211.0","33L7PJKHCHKUCPJ5RL572IXW92M8TU","A23KAJRDVCVGOE","3ZXV7Q5FJBAKJ3TNMBBLYHIS0EBCFB","","img/set1/S4.jpg","74","4","structured_normal","74","structured_normal,structured_load,random,structured_incentive","1,2,4,2,2,3","1,2,4,3","true","","",""
"null","","html-keyboard-response","212","190285","0.0-212.0","33L7PJKHCHKUCPJ5RL572IXW92M8TU","A23KAJRDVCVGOE","3ZXV7Q5FJBAKJ3TNMBBLYHIS0EBCFB","","<img src=""img/set1/S4.jpg"" width=""540"" height = ""360"" style=""border:16px solid orange"">","null","","","","","","","","","",""
"null","","html-keyboard-response","213","190487","0.0-213.0","33L7PJKHCHKUCPJ5RL572IXW92M8TU","A23KAJRDVCVGOE","3ZXV7Q5FJBAKJ3TNMBBLYHIS0EBCFB","","","null","","","","","","","","","",""
"613","","image-keyboard-response","214","191103","0.0-214.0","33L7PJKHCHKUCPJ5RL572IXW92M8TU","A23KAJRDVCVGOE","3ZXV7Q5FJBAKJ3TNMBBLYHIS0EBCFB","","img/set1/S1.jpg","68","1","structured_normal","83","structured_normal,structured_load,random,structured_incentive","1,2,4,2,2,3","1,2,4,3","false","","",""
"null","","html-keyboard-response","215","191456","0.0-215.0","33L7PJKHCHKUCPJ5RL572IXW92M8TU","A23KAJRDVCVGOE","3ZXV7Q5FJBAKJ3TNMBBLYHIS0EBCFB","","<img src=""img/set1/S1.jpg"" width=""540"" height = ""360"">","null","","","","","","","","","",""
"null","","html-keyboard-response","216","191659","0.0-216.0","33L7PJKHCHKUCPJ5RL572IXW92M8TU","A23KAJRDVCVGOE","3ZXV7Q5FJBAKJ3TNMBBLYHIS0EBCFB","","","null","","","","","","","","","",""
"680","","image-keyboard-response","217","192342","0.0-217.0","33L7PJKHCHKUCPJ5RL572IXW92M8TU","A23KAJRDVCVGOE","3ZXV7Q5FJBAKJ3TNMBBLYHIS0EBCFB","","img/set1/S4.jpg","74","4","structured_normal","74","structured_normal,structured_load,random,structured_incentive","1,2,4,2,2,3","1,2,4,3","true","","",""
"null","","html-keyboard-response","218","192695","0.0-218.0","33L7PJKHCHKUCPJ5RL572IXW92M8TU","A23KAJRDVCVGOE","3ZXV7Q5FJBAKJ3TNMBBLYHIS0EBCFB","","<img src=""img/set1/S4.jpg"" width=""540"" height = ""360"" style=""border:16px solid orange"">","null","","","","","","","","","",""
"null","","html-keyboard-response","219","192897","0.0-219.0","33L7PJKHCHKUCPJ5RL572IXW92M8TU","A23KAJRDVCVGOE","3ZXV7Q5FJBAKJ3TNMBBLYHIS0EBCFB","","","null","","","","","","","","","",""
"365.5","","image-keyboard-response","220","193264","0.0-220.0","33L7PJKHCHKUCPJ5RL572IXW92M8TU","A23KAJRDVCVGOE","3ZXV7Q5FJBAKJ3TNMBBLYHIS0EBCFB","","img/set1/S4.jpg","74","4","structured_normal","74","structured_normal,structured_load,random,structured_incentive","1,2,4,2,2,3","1,2,4,3","true","","",""
"null","","html-keyboard-response","221","193618","0.0-221.0","33L7PJKHCHKUCPJ5RL572IXW92M8TU","A23KAJRDVCVGOE","3ZXV7Q5FJBAKJ3TNMBBLYHIS0EBCFB","","<img src=""img/set1/S4.jpg"" width=""540"" height = ""360"" style=""border:16px solid orange"">","null","","","","","","","","","",""
"null","","html-keyboard-response","222","193820","0.0-222.0","33L7PJKHCHKUCPJ5RL572IXW92M8TU","A23KAJRDVCVGOE","3ZXV7Q5FJBAKJ3TNMBBLYHIS0EBCFB","","","null","","","","","","","","","",""
"675.4000000059605","","image-keyboard-response","223","194498","0.0-223.0","33L7PJKHCHKUCPJ5RL572IXW92M8TU","A23KAJRDVCVGOE","3ZXV7Q5FJBAKJ3TNMBBLYHIS0EBCFB","","img/set1/S1.jpg","83","1","structured_normal","83","structured_normal,structured_load,random,structured_incentive","1,2,4,2,2,3","1,2,4,3","true","","",""
"null","","html-keyboard-response","224","194852","0.0-224.0","33L7PJKHCHKUCPJ5RL572IXW92M8TU","A23KAJRDVCVGOE","3ZXV7Q5FJBAKJ3TNMBBLYHIS0EBCFB","","<img src=""img/set1/S1.jpg"" width=""540"" height = ""360"" style=""border:16px solid orange"">","null","","","","","","","","","",""
"null","","html-keyboard-response","225","195054","0.0-225.0","33L7PJKHCHKUCPJ5RL572IXW92M8TU","A23KAJRDVCVGOE","3ZXV7Q5FJBAKJ3TNMBBLYHIS0EBCFB","","","null","","","","","","","","","",""
"665.0999999940395","","image-keyboard-response","226","195721","0.0-226.0","33L7PJKHCHKUCPJ5RL572IXW92M8TU","A23KAJRDVCVGOE","3ZXV7Q5FJBAKJ3TNMBBLYHIS0EBCFB","","img/set1/S2.jpg","68","2","structured_normal","68","structured_normal,structured_load,random,structured_incentive","1,2,4,2,2,3","1,2,4,3","true","","",""
"null","","html-keyboard-response","227","196075","0.0-227.0","33L7PJKHCHKUCPJ5RL572IXW92M8TU","A23KAJRDVCVGOE","3ZXV7Q5FJBAKJ3TNMBBLYHIS0EBCFB","","<img src=""img/set1/S2.jpg"" width=""540"" height = ""360"" style=""border:16px solid orange"">","null","","","","","","","","","",""
"null","","html-keyboard-response","228","196277","0.0-228.0","33L7PJKHCHKUCPJ5RL572IXW92M8TU","A23KAJRDVCVGOE","3ZXV7Q5FJBAKJ3TNMBBLYHIS0EBCFB","","","null","","","","","","","","","",""
"575.6999999880791","","image-keyboard-response","229","196855","0.0-229.0","33L7PJKHCHKUCPJ5RL572IXW92M8TU","A23KAJRDVCVGOE","3ZXV7Q5FJBAKJ3TNMBBLYHIS0EBCFB","","img/set1/S4.jpg","74","4","structured_normal","74","structured_normal,structured_load,random,structured_incentive","1,2,4,2,2,3","1,2,4,3","true","","",""
"null","","html-keyboard-response","230","197209","0.0-230.0","33L7PJKHCHKUCPJ5RL572IXW92M8TU","A23KAJRDVCVGOE","3ZXV7Q5FJBAKJ3TNMBBLYHIS0EBCFB","","<img src=""img/set1/S4.jpg"" width=""540"" height = ""360"" style=""border:16px solid orange"">","null","","","","","","","","","",""
"null","","html-keyboard-response","231","197410","0.0-231.0","33L7PJKHCHKUCPJ5RL572IXW92M8TU","A23KAJRDVCVGOE","3ZXV7Q5FJBAKJ3TNMBBLYHIS0EBCFB","","","null","","","","","","","","","",""
"641","","image-keyboard-response","232","198054","0.0-232.0","33L7PJKHCHKUCPJ5RL572IXW92M8TU","A23KAJRDVCVGOE","3ZXV7Q5FJBAKJ3TNMBBLYHIS0EBCFB","","img/set1/S3.jpg","72","3","structured_normal","72","structured_normal,structured_load,random,structured_incentive","1,2,4,2,2,3","1,2,4,3","true","","",""
"null","","html-keyboard-response","233","198408","0.0-233.0","33L7PJKHCHKUCPJ5RL572IXW92M8TU","A23KAJRDVCVGOE","3ZXV7Q5FJBAKJ3TNMBBLYHIS0EBCFB","","<img src=""img/set1/S3.jpg"" width=""540"" height = ""360"" style=""border:16px solid orange"">","null","","","","","","","","","",""
"null","","html-keyboard-response","234","198610","0.0-234.0","33L7PJKHCHKUCPJ5RL572IXW92M8TU","A23KAJRDVCVGOE","3ZXV7Q5FJBAKJ3TNMBBLYHIS0EBCFB","","","null","","","","","","","","","",""
"584","","image-keyboard-response","235","199196","0.0-235.0","33L7PJKHCHKUCPJ5RL572IXW92M8TU","A23KAJRDVCVGOE","3ZXV7Q5FJBAKJ3TNMBBLYHIS0EBCFB","","img/set1/S4.jpg","74","4","structured_normal","74","structured_normal,structured_load,random,structured_incentive","1,2,4,2,2,3","1,2,4,3","true","","",""
"null","","html-keyboard-response","236","199550","0.0-236.0","33L7PJKHCHKUCPJ5RL572IXW92M8TU","A23KAJRDVCVGOE","3ZXV7Q5FJBAKJ3TNMBBLYHIS0EBCFB","","<img src=""img/set1/S4.jpg"" width=""540"" height = ""360"" style=""border:16px solid orange"">","null","","","","","","","","","",""
"null","","html-keyboard-response","237","199752","0.0-237.0","33L7PJKHCHKUCPJ5RL572IXW92M8TU","A23KAJRDVCVGOE","3ZXV7Q5FJBAKJ3TNMBBLYHIS0EBCFB","","","null","","","","","","","","","",""
"644.3000000119209","","image-keyboard-response","238","200399","0.0-238.0","33L7PJKHCHKUCPJ5RL572IXW92M8TU","A23KAJRDVCVGOE","3ZXV7Q5FJBAKJ3TNMBBLYHIS0EBCFB","","img/set1/S3.jpg","72","3","structured_normal","72","structured_normal,structured_load,random,structured_incentive","1,2,4,2,2,3","1,2,4,3","true","","",""
"null","","html-keyboard-response","239","200752","0.0-239.0","33L7PJKHCHKUCPJ5RL572IXW92M8TU","A23KAJRDVCVGOE","3ZXV7Q5FJBAKJ3TNMBBLYHIS0EBCFB","","<img src=""img/set1/S3.jpg"" width=""540"" height = ""360"" style=""border:16px solid orange"">","null","","","","","","","","","",""
"null","","html-keyboard-response","240","200953","0.0-240.0","33L7PJKHCHKUCPJ5RL572IXW92M8TU","A23KAJRDVCVGOE","3ZXV7Q5FJBAKJ3TNMBBLYHIS0EBCFB","","","null","","","","","","","","","",""
"736.7999999821186","","image-keyboard-response","241","201692","0.0-241.0","33L7PJKHCHKUCPJ5RL572IXW92M8TU","A23KAJRDVCVGOE","3ZXV7Q5FJBAKJ3TNMBBLYHIS0EBCFB","","img/set1/S1.jpg","68","1","structured_normal","83","structured_normal,structured_load,random,structured_incentive","1,2,4,2,2,3","1,2,4,3","false","","",""
"null","","html-keyboard-response","242","202045","0.0-242.0","33L7PJKHCHKUCPJ5RL572IXW92M8TU","A23KAJRDVCVGOE","3ZXV7Q5FJBAKJ3TNMBBLYHIS0EBCFB","","<img src=""img/set1/S1.jpg"" width=""540"" height = ""360"">","null","","","","","","","","","",""
"null","","html-keyboard-response","243","202247","0.0-243.0","33L7PJKHCHKUCPJ5RL572IXW92M8TU","A23KAJRDVCVGOE","3ZXV7Q5FJBAKJ3TNMBBLYHIS0EBCFB","","","null","","","","","","","","","",""
"614.9000000059605","","image-keyboard-response","244","202864","0.0-244.0","33L7PJKHCHKUCPJ5RL572IXW92M8TU","A23KAJRDVCVGOE","3ZXV7Q5FJBAKJ3TNMBBLYHIS0EBCFB","","img/set1/S2.jpg","68","2","structured_normal","68","structured_normal,structured_load,random,structured_incentive","1,2,4,2,2,3","1,2,4,3","true","","",""
"null","","html-keyboard-response","245","203217","0.0-245.0","33L7PJKHCHKUCPJ5RL572IXW92M8TU","A23KAJRDVCVGOE","3ZXV7Q5FJBAKJ3TNMBBLYHIS0EBCFB","","<img src=""img/set1/S2.jpg"" width=""540"" height = ""360"" style=""border:16px solid orange"">","null","","","","","","","","","",""
"null","","html-keyboard-response","246","203419","0.0-246.0","33L7PJKHCHKUCPJ5RL572IXW92M8TU","A23KAJRDVCVGOE","3ZXV7Q5FJBAKJ3TNMBBLYHIS0EBCFB","","","null","","","","","","","","","",""
"1146.5","","image-keyboard-response","247","204568","0.0-247.0","33L7PJKHCHKUCPJ5RL572IXW92M8TU","A23KAJRDVCVGOE","3ZXV7Q5FJBAKJ3TNMBBLYHIS0EBCFB","","img/set1/S1.jpg","83","1","structured_normal","83","structured_normal,structured_load,random,structured_incentive","1,2,4,2,2,3","1,2,4,3","true","","",""
"null","","html-keyboard-response","248","204920","0.0-248.0","33L7PJKHCHKUCPJ5RL572IXW92M8TU","A23KAJRDVCVGOE","3ZXV7Q5FJBAKJ3TNMBBLYHIS0EBCFB","","<img src=""img/set1/S1.jpg"" width=""540"" height = ""360"" style=""border:16px solid orange"">","null","","","","","","","","","",""
"null","","html-keyboard-response","249","205122","0.0-249.0","33L7PJKHCHKUCPJ5RL572IXW92M8TU","A23KAJRDVCVGOE","3ZXV7Q5FJBAKJ3TNMBBLYHIS0EBCFB","","","null","","","","","","","","","",""
"729.9000000059605","","image-keyboard-response","250","205854","0.0-250.0","33L7PJKHCHKUCPJ5RL572IXW92M8TU","A23KAJRDVCVGOE","3ZXV7Q5FJBAKJ3TNMBBLYHIS0EBCFB","","img/set1/S2.jpg","68","2","structured_normal","68","structured_normal,structured_load,random,structured_incentive","1,2,4,2,2,3","1,2,4,3","true","","",""
"null","","html-keyboard-response","251","206207","0.0-251.0","33L7PJKHCHKUCPJ5RL572IXW92M8TU","A23KAJRDVCVGOE","3ZXV7Q5FJBAKJ3TNMBBLYHIS0EBCFB","","<img src=""img/set1/S2.jpg"" width=""540"" height = ""360"" style=""border:16px solid orange"">","null","","","","","","","","","",""
"null","","html-keyboard-response","252","206409","0.0-252.0","33L7PJKHCHKUCPJ5RL572IXW92M8TU","A23KAJRDVCVGOE","3ZXV7Q5FJBAKJ3TNMBBLYHIS0EBCFB","","","null","","","","","","","","","",""
"554.2999999821186","","image-keyboard-response","253","206967","0.0-253.0","33L7PJKHCHKUCPJ5RL572IXW92M8TU","A23KAJRDVCVGOE","3ZXV7Q5FJBAKJ3TNMBBLYHIS0EBCFB","","img/set1/S1.jpg","68","1","structured_normal","83","structured_normal,structured_load,random,structured_incentive","1,2,4,2,2,3","1,2,4,3","false","","",""
"null","","html-keyboard-response","254","207320","0.0-254.0","33L7PJKHCHKUCPJ5RL572IXW92M8TU","A23KAJRDVCVGOE","3ZXV7Q5FJBAKJ3TNMBBLYHIS0EBCFB","","<img src=""img/set1/S1.jpg"" width=""540"" height = ""360"">","null","","","","","","","","","",""
"null","","html-keyboard-response","255","207522","0.0-255.0","33L7PJKHCHKUCPJ5RL572IXW92M8TU","A23KAJRDVCVGOE","3ZXV7Q5FJBAKJ3TNMBBLYHIS0EBCFB","","","null","","","","","","","","","",""
"660.7999999821186","","image-keyboard-response","256","208185","0.0-256.0","33L7PJKHCHKUCPJ5RL572IXW92M8TU","A23KAJRDVCVGOE","3ZXV7Q5FJBAKJ3TNMBBLYHIS0EBCFB","","img/set1/S4.jpg","74","4","structured_normal","74","structured_normal,structured_load,random,structured_incentive","1,2,4,2,2,3","1,2,4,3","true","","",""
"null","","html-keyboard-response","257","208538","0.0-257.0","33L7PJKHCHKUCPJ5RL572IXW92M8TU","A23KAJRDVCVGOE","3ZXV7Q5FJBAKJ3TNMBBLYHIS0EBCFB","","<img src=""img/set1/S4.jpg"" width=""540"" height = ""360"" style=""border:16px solid orange"">","null","","","","","","","","","",""
"null","","html-keyboard-response","258","208740","0.0-258.0","33L7PJKHCHKUCPJ5RL572IXW92M8TU","A23KAJRDVCVGOE","3ZXV7Q5FJBAKJ3TNMBBLYHIS0EBCFB","","","null","","","","","","","","","",""
"601.9000000059605","","image-keyboard-response","259","209344","0.0-259.0","33L7PJKHCHKUCPJ5RL572IXW92M8TU","A23KAJRDVCVGOE","3ZXV7Q5FJBAKJ3TNMBBLYHIS0EBCFB","","img/set1/S3.jpg","68","3","structured_normal","72","structured_normal,structured_load,random,structured_incentive","1,2,4,2,2,3","1,2,4,3","false","","",""
"null","","html-keyboard-response","260","209697","0.0-260.0","33L7PJKHCHKUCPJ5RL572IXW92M8TU","A23KAJRDVCVGOE","3ZXV7Q5FJBAKJ3TNMBBLYHIS0EBCFB","","<img src=""img/set1/S3.jpg"" width=""540"" height = ""360"">","null","","","","","","","","","",""
"null","","html-keyboard-response","261","209898","0.0-261.0","33L7PJKHCHKUCPJ5RL572IXW92M8TU","A23KAJRDVCVGOE","3ZXV7Q5FJBAKJ3TNMBBLYHIS0EBCFB","","","null","","","","","","","","","",""
"665.7000000178814","","image-keyboard-response","262","210565","0.0-262.0","33L7PJKHCHKUCPJ5RL572IXW92M8TU","A23KAJRDVCVGOE","3ZXV7Q5FJBAKJ3TNMBBLYHIS0EBCFB","","img/set1/S1.jpg","68","1","structured_normal","83","structured_normal,structured_load,random,structured_incentive","1,2,4,2,2,3","1,2,4,3","false","","",""
"null","","html-keyboard-response","263","210919","0.0-263.0","33L7PJKHCHKUCPJ5RL572IXW92M8TU","A23KAJRDVCVGOE","3ZXV7Q5FJBAKJ3TNMBBLYHIS0EBCFB","","<img src=""img/set1/S1.jpg"" width=""540"" height = ""360"">","null","","","","","","","","","",""
"null","","html-keyboard-response","264","211120","0.0-264.0","33L7PJKHCHKUCPJ5RL572IXW92M8TU","A23KAJRDVCVGOE","3ZXV7Q5FJBAKJ3TNMBBLYHIS0EBCFB","","","null","","","","","","","","","",""
"737.4000000059605","","image-keyboard-response","265","211859","0.0-265.0","33L7PJKHCHKUCPJ5RL572IXW92M8TU","A23KAJRDVCVGOE","3ZXV7Q5FJBAKJ3TNMBBLYHIS0EBCFB","","img/set1/S2.jpg","68","2","structured_normal","68","structured_normal,structured_load,random,structured_incentive","1,2,4,2,2,3","1,2,4,3","true","","",""
"null","","html-keyboard-response","266","212213","0.0-266.0","33L7PJKHCHKUCPJ5RL572IXW92M8TU","A23KAJRDVCVGOE","3ZXV7Q5FJBAKJ3TNMBBLYHIS0EBCFB","","<img src=""img/set1/S2.jpg"" width=""540"" height = ""360"" style=""border:16px solid orange"">","null","","","","","","","","","",""
"null","","html-keyboard-response","267","212415","0.0-267.0","33L7PJKHCHKUCPJ5RL572IXW92M8TU","A23KAJRDVCVGOE","3ZXV7Q5FJBAKJ3TNMBBLYHIS0EBCFB","","","null","","","","","","","","","",""
"660.9000000059605","","image-keyboard-response","268","213079","0.0-268.0","33L7PJKHCHKUCPJ5RL572IXW92M8TU","A23KAJRDVCVGOE","3ZXV7Q5FJBAKJ3TNMBBLYHIS0EBCFB","","img/set1/S1.jpg","83","1","structured_normal","83","structured_normal,structured_load,random,structured_incentive","1,2,4,2,2,3","1,2,4,3","true","","",""
"null","","html-keyboard-response","269","213433","0.0-269.0","33L7PJKHCHKUCPJ5RL572IXW92M8TU","A23KAJRDVCVGOE","3ZXV7Q5FJBAKJ3TNMBBLYHIS0EBCFB","","<img src=""img/set1/S1.jpg"" width=""540"" height = ""360"" style=""border:16px solid orange"">","null","","","","","","","","","",""
"null","","html-keyboard-response","270","213634","0.0-270.0","33L7PJKHCHKUCPJ5RL572IXW92M8TU","A23KAJRDVCVGOE","3ZXV7Q5FJBAKJ3TNMBBLYHIS0EBCFB","","","null","","","","","","","","","",""
"600.0999999940395","","image-keyboard-response","271","214238","0.0-271.0","33L7PJKHCHKUCPJ5RL572IXW92M8TU","A23KAJRDVCVGOE","3ZXV7Q5FJBAKJ3TNMBBLYHIS0EBCFB","","img/set1/S2.jpg","68","2","structured_normal","68","structured_normal,structured_load,random,structured_incentive","1,2,4,2,2,3","1,2,4,3","true","","",""
"null","","html-keyboard-response","272","214591","0.0-272.0","33L7PJKHCHKUCPJ5RL572IXW92M8TU","A23KAJRDVCVGOE","3ZXV7Q5FJBAKJ3TNMBBLYHIS0EBCFB","","<img src=""img/set1/S2.jpg"" width=""540"" height = ""360"" style=""border:16px solid orange"">","null","","","","","","","","","",""
"null","","html-keyboard-response","273","214792","0.0-273.0","33L7PJKHCHKUCPJ5RL572IXW92M8TU","A23KAJRDVCVGOE","3ZXV7Q5FJBAKJ3TNMBBLYHIS0EBCFB","","","null","","","","","","","","","",""
"580.4000000059605","","image-keyboard-response","274","215375","0.0-274.0","33L7PJKHCHKUCPJ5RL572IXW92M8TU","A23KAJRDVCVGOE","3ZXV7Q5FJBAKJ3TNMBBLYHIS0EBCFB","","img/set1/S3.jpg","72","3","structured_normal","72","structured_normal,structured_load,random,structured_incentive","1,2,4,2,2,3","1,2,4,3","true","","",""
"null","","html-keyboard-response","275","215728","0.0-275.0","33L7PJKHCHKUCPJ5RL572IXW92M8TU","A23KAJRDVCVGOE","3ZXV7Q5FJBAKJ3TNMBBLYHIS0EBCFB","","<img src=""img/set1/S3.jpg"" width=""540"" height = ""360"" style=""border:16px solid orange"">","null","","","","","","","","","",""
"null","","html-keyboard-response","276","215930","0.0-276.0","33L7PJKHCHKUCPJ5RL572IXW92M8TU","A23KAJRDVCVGOE","3ZXV7Q5FJBAKJ3TNMBBLYHIS0EBCFB","","","null","","","","","","","","","",""
"736","","image-keyboard-response","277","216668","0.0-277.0","33L7PJKHCHKUCPJ5RL572IXW92M8TU","A23KAJRDVCVGOE","3ZXV7Q5FJBAKJ3TNMBBLYHIS0EBCFB","","img/set1/S1.jpg","83","1","structured_normal","83","structured_normal,structured_load,random,structured_incentive","1,2,4,2,2,3","1,2,4,3","true","","",""
"null","","html-keyboard-response","278","217019","0.0-278.0","33L7PJKHCHKUCPJ5RL572IXW92M8TU","A23KAJRDVCVGOE","3ZXV7Q5FJBAKJ3TNMBBLYHIS0EBCFB","","<img src=""img/set1/S1.jpg"" width=""540"" height = ""360"" style=""border:16px solid orange"">","null","","","","","","","","","",""
"null","","html-keyboard-response","279","217221","0.0-279.0","33L7PJKHCHKUCPJ5RL572IXW92M8TU","A23KAJRDVCVGOE","3ZXV7Q5FJBAKJ3TNMBBLYHIS0EBCFB","","","null","","","","","","","","","",""
"606.1999999880791","","image-keyboard-response","280","217830","0.0-280.0","33L7PJKHCHKUCPJ5RL572IXW92M8TU","A23KAJRDVCVGOE","3ZXV7Q5FJBAKJ3TNMBBLYHIS0EBCFB","","img/set1/S2.jpg","68","2","structured_normal","68","structured_normal,structured_load,random,structured_incentive","1,2,4,2,2,3","1,2,4,3","true","","",""
"null","","html-keyboard-response","281","218184","0.0-281.0","33L7PJKHCHKUCPJ5RL572IXW92M8TU","A23KAJRDVCVGOE","3ZXV7Q5FJBAKJ3TNMBBLYHIS0EBCFB","","<img src=""img/set1/S2.jpg"" width=""540"" height = ""360"" style=""border:16px solid orange"">","null","","","","","","","","","",""
"null","","html-keyboard-response","282","218386","0.0-282.0","33L7PJKHCHKUCPJ5RL572IXW92M8TU","A23KAJRDVCVGOE","3ZXV7Q5FJBAKJ3TNMBBLYHIS0EBCFB","","","null","","","","","","","","","",""
"686.6999999880791","","image-keyboard-response","283","219075","0.0-283.0","33L7PJKHCHKUCPJ5RL572IXW92M8TU","A23KAJRDVCVGOE","3ZXV7Q5FJBAKJ3TNMBBLYHIS0EBCFB","","img/set1/S3.jpg","72","3","structured_normal","72","structured_normal,structured_load,random,structured_incentive","1,2,4,2,2,3","1,2,4,3","true","","",""
"null","","html-keyboard-response","284","219428","0.0-284.0","33L7PJKHCHKUCPJ5RL572IXW92M8TU","A23KAJRDVCVGOE","3ZXV7Q5FJBAKJ3TNMBBLYHIS0EBCFB","","<img src=""img/set1/S3.jpg"" width=""540"" height = ""360"" style=""border:16px solid orange"">","null","","","","","","","","","",""
"null","","html-keyboard-response","285","219630","0.0-285.0","33L7PJKHCHKUCPJ5RL572IXW92M8TU","A23KAJRDVCVGOE","3ZXV7Q5FJBAKJ3TNMBBLYHIS0EBCFB","","","null","","","","","","","","","",""
"906","","image-keyboard-response","286","220540","0.0-286.0","33L7PJKHCHKUCPJ5RL572IXW92M8TU","A23KAJRDVCVGOE","3ZXV7Q5FJBAKJ3TNMBBLYHIS0EBCFB","","img/set1/S1.jpg","83","1","structured_normal","83","structured_normal,structured_load,random,structured_incentive","1,2,4,2,2,3","1,2,4,3","true","","",""
"null","","html-keyboard-response","287","220894","0.0-287.0","33L7PJKHCHKUCPJ5RL572IXW92M8TU","A23KAJRDVCVGOE","3ZXV7Q5FJBAKJ3TNMBBLYHIS0EBCFB","","<img src=""img/set1/S1.jpg"" width=""540"" height = ""360"" style=""border:16px solid orange"">","null","","","","","","","","","",""
"null","","html-keyboard-response","288","221096","0.0-288.0","33L7PJKHCHKUCPJ5RL572IXW92M8TU","A23KAJRDVCVGOE","3ZXV7Q5FJBAKJ3TNMBBLYHIS0EBCFB","","","null","","","","","","","","","",""
"530.3000000119209","","image-keyboard-response","289","221629","0.0-289.0","33L7PJKHCHKUCPJ5RL572IXW92M8TU","A23KAJRDVCVGOE","3ZXV7Q5FJBAKJ3TNMBBLYHIS0EBCFB","","img/set1/S2.jpg","68","2","structured_normal","68","structured_normal,structured_load,random,structured_incentive","1,2,4,2,2,3","1,2,4,3","true","","",""
"null","","html-keyboard-response","290","221982","0.0-290.0","33L7PJKHCHKUCPJ5RL572IXW92M8TU","A23KAJRDVCVGOE","3ZXV7Q5FJBAKJ3TNMBBLYHIS0EBCFB","","<img src=""img/set1/S2.jpg"" width=""540"" height = ""360"" style=""border:16px solid orange"">","null","","","","","","","","","",""
"null","","html-keyboard-response","291","222183","0.0-291.0","33L7PJKHCHKUCPJ5RL572IXW92M8TU","A23KAJRDVCVGOE","3ZXV7Q5FJBAKJ3TNMBBLYHIS0EBCFB","","","null","","","","","","","","","",""
"587.8000000119209","","image-keyboard-response","292","222773","0.0-292.0","33L7PJKHCHKUCPJ5RL572IXW92M8TU","A23KAJRDVCVGOE","3ZXV7Q5FJBAKJ3TNMBBLYHIS0EBCFB","","img/set1/S4.jpg","74","4","structured_normal","74","structured_normal,structured_load,random,structured_incentive","1,2,4,2,2,3","1,2,4,3","true","","",""
"null","","html-keyboard-response","293","223126","0.0-293.0","33L7PJKHCHKUCPJ5RL572IXW92M8TU","A23KAJRDVCVGOE","3ZXV7Q5FJBAKJ3TNMBBLYHIS0EBCFB","","<img src=""img/set1/S4.jpg"" width=""540"" height = ""360"" style=""border:16px solid orange"">","null","","","","","","","","","",""
"null","","html-keyboard-response","294","223328","0.0-294.0","33L7PJKHCHKUCPJ5RL572IXW92M8TU","A23KAJRDVCVGOE","3ZXV7Q5FJBAKJ3TNMBBLYHIS0EBCFB","","","null","","","","","","","","","",""
"847.5999999940395","","image-keyboard-response","295","224178","0.0-295.0","33L7PJKHCHKUCPJ5RL572IXW92M8TU","A23KAJRDVCVGOE","3ZXV7Q5FJBAKJ3TNMBBLYHIS0EBCFB","","img/set1/S3.jpg","72","3","structured_normal","72","structured_normal,structured_load,random,structured_incentive","1,2,4,2,2,3","1,2,4,3","true","","",""
"null","","html-keyboard-response","296","224531","0.0-296.0","33L7PJKHCHKUCPJ5RL572IXW92M8TU","A23KAJRDVCVGOE","3ZXV7Q5FJBAKJ3TNMBBLYHIS0EBCFB","","<img src=""img/set1/S3.jpg"" width=""540"" height = ""360"" style=""border:16px solid orange"">","null","","","","","","","","","",""
"null","","html-keyboard-response","297","224733","0.0-297.0","33L7PJKHCHKUCPJ5RL572IXW92M8TU","A23KAJRDVCVGOE","3ZXV7Q5FJBAKJ3TNMBBLYHIS0EBCFB","","","null","","","","","","","","","",""
"833.0999999940395","","image-keyboard-response","298","225570","0.0-298.0","33L7PJKHCHKUCPJ5RL572IXW92M8TU","A23KAJRDVCVGOE","3ZXV7Q5FJBAKJ3TNMBBLYHIS0EBCFB","","img/set1/S4.jpg","74","4","structured_normal","74","structured_normal,structured_load,random,structured_incentive","1,2,4,2,2,3","1,2,4,3","true","","",""
"null","","html-keyboard-response","299","225924","0.0-299.0","33L7PJKHCHKUCPJ5RL572IXW92M8TU","A23KAJRDVCVGOE","3ZXV7Q5FJBAKJ3TNMBBLYHIS0EBCFB","","<img src=""img/set1/S4.jpg"" width=""540"" height = ""360"" style=""border:16px solid orange"">","null","","","","","","","","","",""
"null","","html-keyboard-response","300","226125","0.0-300.0","33L7PJKHCHKUCPJ5RL572IXW92M8TU","A23KAJRDVCVGOE","3ZXV7Q5FJBAKJ3TNMBBLYHIS0EBCFB","","","null","","","","","","","","","",""
"431.09999999403954","","image-keyboard-response","301","226559","0.0-301.0","33L7PJKHCHKUCPJ5RL572IXW92M8TU","A23KAJRDVCVGOE","3ZXV7Q5FJBAKJ3TNMBBLYHIS0EBCFB","","img/set1/S4.jpg","74","4","structured_normal","74","structured_normal,structured_load,random,structured_incentive","1,2,4,2,2,3","1,2,4,3","true","","",""
"null","","html-keyboard-response","302","226913","0.0-302.0","33L7PJKHCHKUCPJ5RL572IXW92M8TU","A23KAJRDVCVGOE","3ZXV7Q5FJBAKJ3TNMBBLYHIS0EBCFB","","<img src=""img/set1/S4.jpg"" width=""540"" height = ""360"" style=""border:16px solid orange"">","null","","","","","","","","","",""
"null","","html-keyboard-response","303","227114","0.0-303.0","33L7PJKHCHKUCPJ5RL572IXW92M8TU","A23KAJRDVCVGOE","3ZXV7Q5FJBAKJ3TNMBBLYHIS0EBCFB","","","null","","","","","","","","","",""
"401.90000000596046","","image-keyboard-response","304","227519","0.0-304.0","33L7PJKHCHKUCPJ5RL572IXW92M8TU","A23KAJRDVCVGOE","3ZXV7Q5FJBAKJ3TNMBBLYHIS0EBCFB","","img/set1/S4.jpg","74","4","structured_normal","74","structured_normal,structured_load,random,structured_incentive","1,2,4,2,2,3","1,2,4,3","true","","",""
"null","","html-keyboard-response","305","227872","0.0-305.0","33L7PJKHCHKUCPJ5RL572IXW92M8TU","A23KAJRDVCVGOE","3ZXV7Q5FJBAKJ3TNMBBLYHIS0EBCFB","","<img src=""img/set1/S4.jpg"" width=""540"" height = ""360"" style=""border:16px solid orange"">","null","","","","","","","","","",""
"null","","html-keyboard-response","306","228073","0.0-306.0","33L7PJKHCHKUCPJ5RL572IXW92M8TU","A23KAJRDVCVGOE","3ZXV7Q5FJBAKJ3TNMBBLYHIS0EBCFB","","","null","","","","","","","","","",""
"544.0999999940395","","image-keyboard-response","307","228619","0.0-307.0","33L7PJKHCHKUCPJ5RL572IXW92M8TU","A23KAJRDVCVGOE","3ZXV7Q5FJBAKJ3TNMBBLYHIS0EBCFB","","img/set1/S2.jpg","68","2","structured_normal","68","structured_normal,structured_load,random,structured_incentive","1,2,4,2,2,3","1,2,4,3","true","","",""
"null","","html-keyboard-response","308","228973","0.0-308.0","33L7PJKHCHKUCPJ5RL572IXW92M8TU","A23KAJRDVCVGOE","3ZXV7Q5FJBAKJ3TNMBBLYHIS0EBCFB","","<img src=""img/set1/S2.jpg"" width=""540"" height = ""360"" style=""border:16px solid orange"">","null","","","","","","","","","",""
"null","","html-keyboard-response","309","229174","0.0-309.0","33L7PJKHCHKUCPJ5RL572IXW92M8TU","A23KAJRDVCVGOE","3ZXV7Q5FJBAKJ3TNMBBLYHIS0EBCFB","","","null","","","","","","","","","",""
"605.5","","image-keyboard-response","310","229783","0.0-310.0","33L7PJKHCHKUCPJ5RL572IXW92M8TU","A23KAJRDVCVGOE","3ZXV7Q5FJBAKJ3TNMBBLYHIS0EBCFB","","img/set1/S1.jpg","83","1","structured_normal","83","structured_normal,structured_load,random,structured_incentive","1,2,4,2,2,3","1,2,4,3","true","","",""
"null","","html-keyboard-response","311","230135","0.0-311.0","33L7PJKHCHKUCPJ5RL572IXW92M8TU","A23KAJRDVCVGOE","3ZXV7Q5FJBAKJ3TNMBBLYHIS0EBCFB","","<img src=""img/set1/S1.jpg"" width=""540"" height = ""360"" style=""border:16px solid orange"">","null","","","","","","","","","",""
"null","","html-keyboard-response","312","230337","0.0-312.0","33L7PJKHCHKUCPJ5RL572IXW92M8TU","A23KAJRDVCVGOE","3ZXV7Q5FJBAKJ3TNMBBLYHIS0EBCFB","","","null","","","","","","","","","",""
"553.5999999940395","","image-keyboard-response","313","230894","0.0-313.0","33L7PJKHCHKUCPJ5RL572IXW92M8TU","A23KAJRDVCVGOE","3ZXV7Q5FJBAKJ3TNMBBLYHIS0EBCFB","","img/set1/S4.jpg","74","4","structured_normal","74","structured_normal,structured_load,random,structured_incentive","1,2,4,2,2,3","1,2,4,3","true","","",""
"null","","html-keyboard-response","314","231247","0.0-314.0","33L7PJKHCHKUCPJ5RL572IXW92M8TU","A23KAJRDVCVGOE","3ZXV7Q5FJBAKJ3TNMBBLYHIS0EBCFB","","<img src=""img/set1/S4.jpg"" width=""540"" height = ""360"" style=""border:16px solid orange"">","null","","","","","","","","","",""
"null","","html-keyboard-response","315","231449","0.0-315.0","33L7PJKHCHKUCPJ5RL572IXW92M8TU","A23KAJRDVCVGOE","3ZXV7Q5FJBAKJ3TNMBBLYHIS0EBCFB","","","null","","","","","","","","","",""
"571.0999999940395","","image-keyboard-response","316","232022","0.0-316.0","33L7PJKHCHKUCPJ5RL572IXW92M8TU","A23KAJRDVCVGOE","3ZXV7Q5FJBAKJ3TNMBBLYHIS0EBCFB","","img/set1/S3.jpg","72","3","structured_normal","72","structured_normal,structured_load,random,structured_incentive","1,2,4,2,2,3","1,2,4,3","true","","",""
"null","","html-keyboard-response","317","232375","0.0-317.0","33L7PJKHCHKUCPJ5RL572IXW92M8TU","A23KAJRDVCVGOE","3ZXV7Q5FJBAKJ3TNMBBLYHIS0EBCFB","","<img src=""img/set1/S3.jpg"" width=""540"" height = ""360"" style=""border:16px solid orange"">","null","","","","","","","","","",""
"null","","html-keyboard-response","318","232577","0.0-318.0","33L7PJKHCHKUCPJ5RL572IXW92M8TU","A23KAJRDVCVGOE","3ZXV7Q5FJBAKJ3TNMBBLYHIS0EBCFB","","","null","","","","","","","","","",""
"416.39999997615814","","image-keyboard-response","319","232998","0.0-319.0","33L7PJKHCHKUCPJ5RL572IXW92M8TU","A23KAJRDVCVGOE","3ZXV7Q5FJBAKJ3TNMBBLYHIS0EBCFB","","img/set1/S3.jpg","72","3","structured_normal","72","structured_normal,structured_load,random,structured_incentive","1,2,4,2,2,3","1,2,4,3","true","","",""
"null","","html-keyboard-response","320","233352","0.0-320.0","33L7PJKHCHKUCPJ5RL572IXW92M8TU","A23KAJRDVCVGOE","3ZXV7Q5FJBAKJ3TNMBBLYHIS0EBCFB","","<img src=""img/set1/S3.jpg"" width=""540"" height = ""360"" style=""border:16px solid orange"">","null","","","","","","","","","",""
"null","","html-keyboard-response","321","233554","0.0-321.0","33L7PJKHCHKUCPJ5RL572IXW92M8TU","A23KAJRDVCVGOE","3ZXV7Q5FJBAKJ3TNMBBLYHIS0EBCFB","","","null","","","","","","","","","",""
"465.5","","image-keyboard-response","322","234022","0.0-322.0","33L7PJKHCHKUCPJ5RL572IXW92M8TU","A23KAJRDVCVGOE","3ZXV7Q5FJBAKJ3TNMBBLYHIS0EBCFB","","img/set1/S3.jpg","72","3","structured_normal","72","structured_normal,structured_load,random,structured_incentive","1,2,4,2,2,3","1,2,4,3","true","","",""
"null","","html-keyboard-response","323","234375","0.0-323.0","33L7PJKHCHKUCPJ5RL572IXW92M8TU","A23KAJRDVCVGOE","3ZXV7Q5FJBAKJ3TNMBBLYHIS0EBCFB","","<img src=""img/set1/S3.jpg"" width=""540"" height = ""360"" style=""border:16px solid orange"">","null","","","","","","","","","",""
"null","","html-keyboard-response","324","234576","0.0-324.0","33L7PJKHCHKUCPJ5RL572IXW92M8TU","A23KAJRDVCVGOE","3ZXV7Q5FJBAKJ3TNMBBLYHIS0EBCFB","","","null","","","","","","","","","",""
"617.8000000119209","","image-keyboard-response","325","235197","0.0-325.0","33L7PJKHCHKUCPJ5RL572IXW92M8TU","A23KAJRDVCVGOE","3ZXV7Q5FJBAKJ3TNMBBLYHIS0EBCFB","","img/set1/S4.jpg","74","4","structured_normal","74","structured_normal,structured_load,random,structured_incentive","1,2,4,2,2,3","1,2,4,3","true","","",""
"null","","html-keyboard-response","326","235550","0.0-326.0","33L7PJKHCHKUCPJ5RL572IXW92M8TU","A23KAJRDVCVGOE","3ZXV7Q5FJBAKJ3TNMBBLYHIS0EBCFB","","<img src=""img/set1/S4.jpg"" width=""540"" height = ""360"" style=""border:16px solid orange"">","null","","","","","","","","","",""
"null","","html-keyboard-response","327","235752","0.0-327.0","33L7PJKHCHKUCPJ5RL572IXW92M8TU","A23KAJRDVCVGOE","3ZXV7Q5FJBAKJ3TNMBBLYHIS0EBCFB","","","null","","","","","","","","","",""
"484.89999997615814","","image-keyboard-response","328","236240","0.0-328.0","33L7PJKHCHKUCPJ5RL572IXW92M8TU","A23KAJRDVCVGOE","3ZXV7Q5FJBAKJ3TNMBBLYHIS0EBCFB","","img/set1/S3.jpg","74","3","structured_normal","72","structured_normal,structured_load,random,structured_incentive","1,2,4,2,2,3","1,2,4,3","false","","",""
"null","","html-keyboard-response","329","236593","0.0-329.0","33L7PJKHCHKUCPJ5RL572IXW92M8TU","A23KAJRDVCVGOE","3ZXV7Q5FJBAKJ3TNMBBLYHIS0EBCFB","","<img src=""img/set1/S3.jpg"" width=""540"" height = ""360"">","null","","","","","","","","","",""
"null","","html-keyboard-response","330","236795","0.0-330.0","33L7PJKHCHKUCPJ5RL572IXW92M8TU","A23KAJRDVCVGOE","3ZXV7Q5FJBAKJ3TNMBBLYHIS0EBCFB","","","null","","","","","","","","","",""
"408.59999999403954","","image-keyboard-response","331","237206","0.0-331.0","33L7PJKHCHKUCPJ5RL572IXW92M8TU","A23KAJRDVCVGOE","3ZXV7Q5FJBAKJ3TNMBBLYHIS0EBCFB","","img/set1/S3.jpg","72","3","structured_normal","72","structured_normal,structured_load,random,structured_incentive","1,2,4,2,2,3","1,2,4,3","true","","",""
"null","","html-keyboard-response","332","237559","0.0-332.0","33L7PJKHCHKUCPJ5RL572IXW92M8TU","A23KAJRDVCVGOE","3ZXV7Q5FJBAKJ3TNMBBLYHIS0EBCFB","","<img src=""img/set1/S3.jpg"" width=""540"" height = ""360"" style=""border:16px solid orange"">","null","","","","","","","","","",""
"null","","html-keyboard-response","333","237761","0.0-333.0","33L7PJKHCHKUCPJ5RL572IXW92M8TU","A23KAJRDVCVGOE","3ZXV7Q5FJBAKJ3TNMBBLYHIS0EBCFB","","","null","","","","","","","","","",""
"320.69999998807907","","image-keyboard-response","334","238084","0.0-334.0","33L7PJKHCHKUCPJ5RL572IXW92M8TU","A23KAJRDVCVGOE","3ZXV7Q5FJBAKJ3TNMBBLYHIS0EBCFB","","img/set1/S3.jpg","72","3","structured_normal","72","structured_normal,structured_load,random,structured_incentive","1,2,4,2,2,3","1,2,4,3","true","","",""
"null","","html-keyboard-response","335","238438","0.0-335.0","33L7PJKHCHKUCPJ5RL572IXW92M8TU","A23KAJRDVCVGOE","3ZXV7Q5FJBAKJ3TNMBBLYHIS0EBCFB","","<img src=""img/set1/S3.jpg"" width=""540"" height = ""360"" style=""border:16px solid orange"">","null","","","","","","","","","",""
"null","","html-keyboard-response","336","238644","0.0-336.0","33L7PJKHCHKUCPJ5RL572IXW92M8TU","A23KAJRDVCVGOE","3ZXV7Q5FJBAKJ3TNMBBLYHIS0EBCFB","","","null","","","","","","","","","",""
"694.0999999940395","","image-keyboard-response","337","239344","0.0-337.0","33L7PJKHCHKUCPJ5RL572IXW92M8TU","A23KAJRDVCVGOE","3ZXV7Q5FJBAKJ3TNMBBLYHIS0EBCFB","","img/set1/S4.jpg","74","4","structured_normal","74","structured_normal,structured_load,random,structured_incentive","1,2,4,2,2,3","1,2,4,3","true","","",""
"null","","html-keyboard-response","338","239697","0.0-338.0","33L7PJKHCHKUCPJ5RL572IXW92M8TU","A23KAJRDVCVGOE","3ZXV7Q5FJBAKJ3TNMBBLYHIS0EBCFB","","<img src=""img/set1/S4.jpg"" width=""540"" height = ""360"" style=""border:16px solid orange"">","null","","","","","","","","","",""
"null","","html-keyboard-response","339","239898","0.0-339.0","33L7PJKHCHKUCPJ5RL572IXW92M8TU","A23KAJRDVCVGOE","3ZXV7Q5FJBAKJ3TNMBBLYHIS0EBCFB","","","null","","","","","","","","","",""
"370.2999999821186","","image-keyboard-response","340","240270","0.0-340.0","33L7PJKHCHKUCPJ5RL572IXW92M8TU","A23KAJRDVCVGOE","3ZXV7Q5FJBAKJ3TNMBBLYHIS0EBCFB","","img/set1/S4.jpg","74","4","structured_normal","74","structured_normal,structured_load,random,structured_incentive","1,2,4,2,2,3","1,2,4,3","true","","",""
"null","","html-keyboard-response","341","240623","0.0-341.0","33L7PJKHCHKUCPJ5RL572IXW92M8TU","A23KAJRDVCVGOE","3ZXV7Q5FJBAKJ3TNMBBLYHIS0EBCFB","","<img src=""img/set1/S4.jpg"" width=""540"" height = ""360"" style=""border:16px solid orange"">","null","","","","","","","","","",""
"null","","html-keyboard-response","342","240825","0.0-342.0","33L7PJKHCHKUCPJ5RL572IXW92M8TU","A23KAJRDVCVGOE","3ZXV7Q5FJBAKJ3TNMBBLYHIS0EBCFB","","","null","","","","","","","","","",""
"756.7999999821186","","image-keyboard-response","343","241585","0.0-343.0","33L7PJKHCHKUCPJ5RL572IXW92M8TU","A23KAJRDVCVGOE","3ZXV7Q5FJBAKJ3TNMBBLYHIS0EBCFB","","img/set1/S2.jpg","83","2","structured_normal","68","structured_normal,structured_load,random,structured_incentive","1,2,4,2,2,3","1,2,4,3","false","","",""
"null","","html-keyboard-response","344","241938","0.0-344.0","33L7PJKHCHKUCPJ5RL572IXW92M8TU","A23KAJRDVCVGOE","3ZXV7Q5FJBAKJ3TNMBBLYHIS0EBCFB","","<img src=""img/set1/S2.jpg"" width=""540"" height = ""360"">","null","","","","","","","","","",""
"null","","html-keyboard-response","345","242140","0.0-345.0","33L7PJKHCHKUCPJ5RL572IXW92M8TU","A23KAJRDVCVGOE","3ZXV7Q5FJBAKJ3TNMBBLYHIS0EBCFB","","","null","","","","","","","","","",""
"722","","image-keyboard-response","346","242864","0.0-346.0","33L7PJKHCHKUCPJ5RL572IXW92M8TU","A23KAJRDVCVGOE","3ZXV7Q5FJBAKJ3TNMBBLYHIS0EBCFB","","img/set1/S1.jpg","83","1","structured_normal","83","structured_normal,structured_load,random,structured_incentive","1,2,4,2,2,3","1,2,4,3","true","","",""
"null","","html-keyboard-response","347","243218","0.0-347.0","33L7PJKHCHKUCPJ5RL572IXW92M8TU","A23KAJRDVCVGOE","3ZXV7Q5FJBAKJ3TNMBBLYHIS0EBCFB","","<img src=""img/set1/S1.jpg"" width=""540"" height = ""360"" style=""border:16px solid orange"">","null","","","","","","","","","",""
"null","","html-keyboard-response","348","243420","0.0-348.0","33L7PJKHCHKUCPJ5RL572IXW92M8TU","A23KAJRDVCVGOE","3ZXV7Q5FJBAKJ3TNMBBLYHIS0EBCFB","","","null","","","","","","","","","",""
"592.4000000059605","","image-keyboard-response","349","244014","0.0-349.0","33L7PJKHCHKUCPJ5RL572IXW92M8TU","A23KAJRDVCVGOE","3ZXV7Q5FJBAKJ3TNMBBLYHIS0EBCFB","","img/set1/S2.jpg","68","2","structured_normal","68","structured_normal,structured_load,random,structured_incentive","1,2,4,2,2,3","1,2,4,3","true","","",""
"null","","html-keyboard-response","350","244367","0.0-350.0","33L7PJKHCHKUCPJ5RL572IXW92M8TU","A23KAJRDVCVGOE","3ZXV7Q5FJBAKJ3TNMBBLYHIS0EBCFB","","<img src=""img/set1/S2.jpg"" width=""540"" height = ""360"" style=""border:16px solid orange"">","null","","","","","","","","","",""
"null","","html-keyboard-response","351","244569","0.0-351.0","33L7PJKHCHKUCPJ5RL572IXW92M8TU","A23KAJRDVCVGOE","3ZXV7Q5FJBAKJ3TNMBBLYHIS0EBCFB","","","null","","","","","","","","","",""
"554","","image-keyboard-response","352","245125","0.0-352.0","33L7PJKHCHKUCPJ5RL572IXW92M8TU","A23KAJRDVCVGOE","3ZXV7Q5FJBAKJ3TNMBBLYHIS0EBCFB","","img/set1/S4.jpg","83","4","structured_normal","74","structured_normal,structured_load,random,structured_incentive","1,2,4,2,2,3","1,2,4,3","false","","",""
"null","","html-keyboard-response","353","245477","0.0-353.0","33L7PJKHCHKUCPJ5RL572IXW92M8TU","A23KAJRDVCVGOE","3ZXV7Q5FJBAKJ3TNMBBLYHIS0EBCFB","","<img src=""img/set1/S4.jpg"" width=""540"" height = ""360"">","null","","","","","","","","","",""
"null","","html-keyboard-response","354","245679","0.0-354.0","33L7PJKHCHKUCPJ5RL572IXW92M8TU","A23KAJRDVCVGOE","3ZXV7Q5FJBAKJ3TNMBBLYHIS0EBCFB","","","null","","","","","","","","","",""
"717.2999999821186","","image-keyboard-response","355","246398","0.0-355.0","33L7PJKHCHKUCPJ5RL572IXW92M8TU","A23KAJRDVCVGOE","3ZXV7Q5FJBAKJ3TNMBBLYHIS0EBCFB","","img/set1/S1.jpg","68","1","structured_normal","83","structured_normal,structured_load,random,structured_incentive","1,2,4,2,2,3","1,2,4,3","false","","",""
"null","","html-keyboard-response","356","246751","0.0-356.0","33L7PJKHCHKUCPJ5RL572IXW92M8TU","A23KAJRDVCVGOE","3ZXV7Q5FJBAKJ3TNMBBLYHIS0EBCFB","","<img src=""img/set1/S1.jpg"" width=""540"" height = ""360"">","null","","","","","","","","","",""
"null","","html-keyboard-response","357","246953","0.0-357.0","33L7PJKHCHKUCPJ5RL572IXW92M8TU","A23KAJRDVCVGOE","3ZXV7Q5FJBAKJ3TNMBBLYHIS0EBCFB","","","null","","","","","","","","","",""
"714.5","","image-keyboard-response","358","247669","0.0-358.0","33L7PJKHCHKUCPJ5RL572IXW92M8TU","A23KAJRDVCVGOE","3ZXV7Q5FJBAKJ3TNMBBLYHIS0EBCFB","","img/set1/S2.jpg","68","2","structured_normal","68","structured_normal,structured_load,random,structured_incentive","1,2,4,2,2,3","1,2,4,3","true","","",""
"null","","html-keyboard-response","359","248022","0.0-359.0","33L7PJKHCHKUCPJ5RL572IXW92M8TU","A23KAJRDVCVGOE","3ZXV7Q5FJBAKJ3TNMBBLYHIS0EBCFB","","<img src=""img/set1/S2.jpg"" width=""540"" height = ""360"" style=""border:16px solid orange"">","null","","","","","","","","","",""
"null","","html-keyboard-response","360","248223","0.0-360.0","33L7PJKHCHKUCPJ5RL572IXW92M8TU","A23KAJRDVCVGOE","3ZXV7Q5FJBAKJ3TNMBBLYHIS0EBCFB","","","null","","","","","","","","","",""
"492.30000001192093","","image-keyboard-response","361","248719","0.0-361.0","33L7PJKHCHKUCPJ5RL572IXW92M8TU","A23KAJRDVCVGOE","3ZXV7Q5FJBAKJ3TNMBBLYHIS0EBCFB","","img/set1/S1.jpg","83","1","structured_normal","83","structured_normal,structured_load,random,structured_incentive","1,2,4,2,2,3","1,2,4,3","true","","",""
"null","","html-keyboard-response","362","249072","0.0-362.0","33L7PJKHCHKUCPJ5RL572IXW92M8TU","A23KAJRDVCVGOE","3ZXV7Q5FJBAKJ3TNMBBLYHIS0EBCFB","","<img src=""img/set1/S1.jpg"" width=""540"" height = ""360"" style=""border:16px solid orange"">","null","","","","","","","","","",""
"null","","html-keyboard-response","363","249273","0.0-363.0","33L7PJKHCHKUCPJ5RL572IXW92M8TU","A23KAJRDVCVGOE","3ZXV7Q5FJBAKJ3TNMBBLYHIS0EBCFB","","","null","","","","","","","","","",""
"771.5999999940395","","image-keyboard-response","364","250048","0.0-364.0","33L7PJKHCHKUCPJ5RL572IXW92M8TU","A23KAJRDVCVGOE","3ZXV7Q5FJBAKJ3TNMBBLYHIS0EBCFB","","img/set1/S2.jpg","68","2","structured_normal","68","structured_normal,structured_load,random,structured_incentive","1,2,4,2,2,3","1,2,4,3","true","","",""
"null","","html-keyboard-response","365","250401","0.0-365.0","33L7PJKHCHKUCPJ5RL572IXW92M8TU","A23KAJRDVCVGOE","3ZXV7Q5FJBAKJ3TNMBBLYHIS0EBCFB","","<img src=""img/set1/S2.jpg"" width=""540"" height = ""360"" style=""border:16px solid orange"">","null","","","","","","","","","",""
"null","","html-keyboard-response","366","250602","0.0-366.0","33L7PJKHCHKUCPJ5RL572IXW92M8TU","A23KAJRDVCVGOE","3ZXV7Q5FJBAKJ3TNMBBLYHIS0EBCFB","","","null","","","","","","","","","",""
"1094.2999999821186","","image-keyboard-response","367","251699","0.0-367.0","33L7PJKHCHKUCPJ5RL572IXW92M8TU","A23KAJRDVCVGOE","3ZXV7Q5FJBAKJ3TNMBBLYHIS0EBCFB","","img/set1/S1.jpg","68","1","structured_normal","83","structured_normal,structured_load,random,structured_incentive","1,2,4,2,2,3","1,2,4,3","false","","",""
"null","","html-keyboard-response","368","252051","0.0-368.0","33L7PJKHCHKUCPJ5RL572IXW92M8TU","A23KAJRDVCVGOE","3ZXV7Q5FJBAKJ3TNMBBLYHIS0EBCFB","","<img src=""img/set1/S1.jpg"" width=""540"" height = ""360"">","null","","","","","","","","","",""
"null","","html-keyboard-response","369","252253","0.0-369.0","33L7PJKHCHKUCPJ5RL572IXW92M8TU","A23KAJRDVCVGOE","3ZXV7Q5FJBAKJ3TNMBBLYHIS0EBCFB","","","null","","","","","","","","","",""
"702.6999999880791","","image-keyboard-response","370","252958","0.0-370.0","33L7PJKHCHKUCPJ5RL572IXW92M8TU","A23KAJRDVCVGOE","3ZXV7Q5FJBAKJ3TNMBBLYHIS0EBCFB","","img/set1/S4.jpg","74","4","structured_normal","74","structured_normal,structured_load,random,structured_incentive","1,2,4,2,2,3","1,2,4,3","true","","",""
"null","","html-keyboard-response","371","253311","0.0-371.0","33L7PJKHCHKUCPJ5RL572IXW92M8TU","A23KAJRDVCVGOE","3ZXV7Q5FJBAKJ3TNMBBLYHIS0EBCFB","","<img src=""img/set1/S4.jpg"" width=""540"" height = ""360"" style=""border:16px solid orange"">","null","","","","","","","","","",""
"null","","html-keyboard-response","372","253513","0.0-372.0","33L7PJKHCHKUCPJ5RL572IXW92M8TU","A23KAJRDVCVGOE","3ZXV7Q5FJBAKJ3TNMBBLYHIS0EBCFB","","","null","","","","","","","","","",""
"793.9000000059605","","image-keyboard-response","373","254309","0.0-373.0","33L7PJKHCHKUCPJ5RL572IXW92M8TU","A23KAJRDVCVGOE","3ZXV7Q5FJBAKJ3TNMBBLYHIS0EBCFB","","img/set1/S1.jpg","83","1","structured_normal","83","structured_normal,structured_load,random,structured_incentive","1,2,4,2,2,3","1,2,4,3","true","","",""
"null","","html-keyboard-response","374","254663","0.0-374.0","33L7PJKHCHKUCPJ5RL572IXW92M8TU","A23KAJRDVCVGOE","3ZXV7Q5FJBAKJ3TNMBBLYHIS0EBCFB","","<img src=""img/set1/S1.jpg"" width=""540"" height = ""360"" style=""border:16px solid orange"">","null","","","","","","","","","",""
"null","","html-keyboard-response","375","254864","0.0-375.0","33L7PJKHCHKUCPJ5RL572IXW92M8TU","A23KAJRDVCVGOE","3ZXV7Q5FJBAKJ3TNMBBLYHIS0EBCFB","","","null","","","","","","","","","",""
"626.2999999821186","","image-keyboard-response","376","255493","0.0-376.0","33L7PJKHCHKUCPJ5RL572IXW92M8TU","A23KAJRDVCVGOE","3ZXV7Q5FJBAKJ3TNMBBLYHIS0EBCFB","","img/set1/S2.jpg","68","2","structured_normal","68","structured_normal,structured_load,random,structured_incentive","1,2,4,2,2,3","1,2,4,3","true","","",""
"null","","html-keyboard-response","377","255847","0.0-377.0","33L7PJKHCHKUCPJ5RL572IXW92M8TU","A23KAJRDVCVGOE","3ZXV7Q5FJBAKJ3TNMBBLYHIS0EBCFB","","<img src=""img/set1/S2.jpg"" width=""540"" height = ""360"" style=""border:16px solid orange"">","null","","","","","","","","","",""
"null","","html-keyboard-response","378","256048","0.0-378.0","33L7PJKHCHKUCPJ5RL572IXW92M8TU","A23KAJRDVCVGOE","3ZXV7Q5FJBAKJ3TNMBBLYHIS0EBCFB","","","null","","","","","","","","","",""
"896.2999999821186","","image-keyboard-response","379","256947","0.0-379.0","33L7PJKHCHKUCPJ5RL572IXW92M8TU","A23KAJRDVCVGOE","3ZXV7Q5FJBAKJ3TNMBBLYHIS0EBCFB","","img/set1/S1.jpg","83","1","structured_normal","83","structured_normal,structured_load,random,structured_incentive","1,2,4,2,2,3","1,2,4,3","true","","",""
"null","","html-keyboard-response","380","257301","0.0-380.0","33L7PJKHCHKUCPJ5RL572IXW92M8TU","A23KAJRDVCVGOE","3ZXV7Q5FJBAKJ3TNMBBLYHIS0EBCFB","","<img src=""img/set1/S1.jpg"" width=""540"" height = ""360"" style=""border:16px solid orange"">","null","","","","","","","","","",""
"null","","html-keyboard-response","381","257503","0.0-381.0","33L7PJKHCHKUCPJ5RL572IXW92M8TU","A23KAJRDVCVGOE","3ZXV7Q5FJBAKJ3TNMBBLYHIS0EBCFB","","","null","","","","","","","","","",""
"446.5","","image-keyboard-response","382","257953","0.0-382.0","33L7PJKHCHKUCPJ5RL572IXW92M8TU","A23KAJRDVCVGOE","3ZXV7Q5FJBAKJ3TNMBBLYHIS0EBCFB","","img/set1/S2.jpg","68","2","structured_normal","68","structured_normal,structured_load,random,structured_incentive","1,2,4,2,2,3","1,2,4,3","true","","",""
"null","","html-keyboard-response","383","258306","0.0-383.0","33L7PJKHCHKUCPJ5RL572IXW92M8TU","A23KAJRDVCVGOE","3ZXV7Q5FJBAKJ3TNMBBLYHIS0EBCFB","","<img src=""img/set1/S2.jpg"" width=""540"" height = ""360"" style=""border:16px solid orange"">","null","","","","","","","","","",""
"null","","html-keyboard-response","384","258508","0.0-384.0","33L7PJKHCHKUCPJ5RL572IXW92M8TU","A23KAJRDVCVGOE","3ZXV7Q5FJBAKJ3TNMBBLYHIS0EBCFB","","","null","","","","","","","","","",""
