"rt","url","trial_type","trial_index","time_elapsed","internal_node_id","view_history","stimulus","key_press","state","test_part","correct_response","order_block","order_chunk","correct","responses","bonus"
"186487.19999998808","consent.html","external-html","0","186659","0.0-0.0","","","","","","","","","","",""
"1527948.5","","instructions","1","1714610","0.0-1.0","[{""page_index"":0,""viewing_time"":4820.199999988079},{""page_index"":1,""viewing_time"":28304},{""page_index"":2,""viewing_time"":1408887.199999988},{""page_index"":3,""viewing_time"":14848.100000023842},{""page_index"":4,""viewing_time"":47991.89999997616},{""page_index"":5,""viewing_time"":13112.399999976158},{""page_index"":6,""viewing_time"":9983.700000047684}]","","","","","","","","","",""
"14493.900000035763","","instructions","2","1729105","0.0-2.0","[{""page_index"":0,""viewing_time"":14493.699999988079}]","","","","","","","","","",""
"6414.800000011921","","instructions","3","1735521","0.0-3.0","[{""page_index"":0,""viewing_time"":6414.600000023842}]","","","","","","","","","",""
"581.5","","image-keyboard-response","4","1736105","0.0-4.0","","img/set1/S3.jpg","68","3","random","72","random,structured_load,structured_normal,structured_incentive","2,1,3,4,2,3","false","",""
"null","","html-keyboard-response","5","1736479","0.0-5.0","","<img src=""img/set1/S3.jpg"" width=""540"" height = ""360"">","null","","","","","","","",""
"null","","html-keyboard-response","6","1736697","0.0-6.0","","","null","","","","","","","",""
"1451.699999988079","","image-keyboard-response","7","1738152","0.0-7.0","","img/set1/S1.jpg","72","1","random","83","random,structured_load,structured_normal,structured_incentive","2,1,3,4,2,3","false","",""
"null","","html-keyboard-response","8","1738505","0.0-8.0","","<img src=""img/set1/S1.jpg"" width=""540"" height = ""360"">","null","","","","","","","",""
"null","","html-keyboard-response","9","1738724","0.0-9.0","","","null","","","","","","","",""
"225.0999999642372","","image-keyboard-response","10","1738951","0.0-10.0","","img/set1/S1.jpg","83","1","random","83","random,structured_load,structured_normal,structured_incentive","2,1,3,4,2,3","true","",""
"null","","html-keyboard-response","11","1739304","0.0-11.0","","<img src=""img/set1/S1.jpg"" width=""540"" height = ""360"" style=""border:16px solid orange"">","null","","","","","","","",""
"null","","html-keyboard-response","12","1739514","0.0-12.0","","","null","","","","","","","",""
"556","","image-keyboard-response","13","1740072","0.0-13.0","","img/set1/S1.jpg","83","1","random","83","random,structured_load,structured_normal,structured_incentive","2,1,3,4,2,3","true","",""
"null","","html-keyboard-response","14","1740437","0.0-14.0","","<img src=""img/set1/S1.jpg"" width=""540"" height = ""360"" style=""border:16px solid orange"">","null","","","","","","","",""
"null","","html-keyboard-response","15","1740648","0.0-15.0","","","null","","","","","","","",""
"734.6000000238419","","image-keyboard-response","16","1741384","0.0-16.0","","img/set1/S4.jpg","68","4","random","74","random,structured_load,structured_normal,structured_incentive","2,1,3,4,2,3","false","",""
"null","","html-keyboard-response","17","1741738","0.0-17.0","","<img src=""img/set1/S4.jpg"" width=""540"" height = ""360"">","null","","","","","","","",""
"null","","html-keyboard-response","18","1741953","0.0-18.0","","","null","","","","","","","",""
"405.4000000357628","","image-keyboard-response","19","1742360","0.0-19.0","","img/set1/S1.jpg","83","1","random","83","random,structured_load,structured_normal,structured_incentive","2,1,3,4,2,3","true","",""
"null","","html-keyboard-response","20","1742723","0.0-20.0","","<img src=""img/set1/S1.jpg"" width=""540"" height = ""360"" style=""border:16px solid orange"">","null","","","","","","","",""
"null","","html-keyboard-response","21","1742937","0.0-21.0","","","null","","","","","","","",""
"590.3000000119209","","image-keyboard-response","22","1743529","0.0-22.0","","img/set1/S1.jpg","83","1","random","83","random,structured_load,structured_normal,structured_incentive","2,1,3,4,2,3","true","",""
"null","","html-keyboard-response","23","1743891","0.0-23.0","","<img src=""img/set1/S1.jpg"" width=""540"" height = ""360"" style=""border:16px solid orange"">","null","","","","","","","",""
"null","","html-keyboard-response","24","1744098","0.0-24.0","","","null","","","","","","","",""
"516.6999999880791","","image-keyboard-response","25","1744616","0.0-25.0","","img/set1/S4.jpg","74","4","random","74","random,structured_load,structured_normal,structured_incentive","2,1,3,4,2,3","true","",""
"null","","html-keyboard-response","26","1744985","0.0-26.0","","<img src=""img/set1/S4.jpg"" width=""540"" height = ""360"" style=""border:16px solid orange"">","null","","","","","","","",""
"null","","html-keyboard-response","27","1745198","0.0-27.0","","","null","","","","","","","",""
"615.8999999761581","","image-keyboard-response","28","1745816","0.0-28.0","","img/set1/S1.jpg","83","1","random","83","random,structured_load,structured_normal,structured_incentive","2,1,3,4,2,3","true","",""
"null","","html-keyboard-response","29","1746172","0.0-29.0","","<img src=""img/set1/S1.jpg"" width=""540"" height = ""360"" style=""border:16px solid orange"">","null","","","","","","","",""
"null","","html-keyboard-response","30","1746383","0.0-30.0","","","null","","","","","","","",""
"519.5","","image-keyboard-response","31","1746904","0.0-31.0","","img/set1/S1.jpg","74","1","random","83","random,structured_load,structured_normal,structured_incentive","2,1,3,4,2,3","false","",""
"null","","html-keyboard-response","32","1747270","0.0-32.0","","<img src=""img/set1/S1.jpg"" width=""540"" height = ""360"">","null","","","","","","","",""
"null","","html-keyboard-response","33","1747479","0.0-33.0","","","null","","","","","","","",""
"767.7999999523163","","image-keyboard-response","34","1748249","0.0-34.0","","img/set1/S4.jpg","68","4","random","74","random,structured_load,structured_normal,structured_incentive","2,1,3,4,2,3","false","",""
"null","","html-keyboard-response","35","1748605","0.0-35.0","","<img src=""img/set1/S4.jpg"" width=""540"" height = ""360"">","null","","","","","","","",""
"null","","html-keyboard-response","36","1748816","0.0-36.0","","","null","","","","","","","",""
"551.5","","image-keyboard-response","37","1749369","0.0-37.0","","img/set1/S1.jpg","83","1","random","83","random,structured_load,structured_normal,structured_incentive","2,1,3,4,2,3","true","",""
"null","","html-keyboard-response","38","1749723","0.0-38.0","","<img src=""img/set1/S1.jpg"" width=""540"" height = ""360"" style=""border:16px solid orange"">","null","","","","","","","",""
"null","","html-keyboard-response","39","1749938","0.0-39.0","","","null","","","","","","","",""
"708.7000000476837","","image-keyboard-response","40","1750648","0.0-40.0","","img/set1/S2.jpg","74","2","random","68","random,structured_load,structured_normal,structured_incentive","2,1,3,4,2,3","false","",""
"null","","html-keyboard-response","41","1751000","0.0-41.0","","<img src=""img/set1/S2.jpg"" width=""540"" height = ""360"">","null","","","","","","","",""
"null","","html-keyboard-response","42","1751209","0.0-42.0","","","null","","","","","","","",""
"846.2999999523163","","image-keyboard-response","43","1752056","0.0-43.0","","img/set1/S4.jpg","68","4","random","74","random,structured_load,structured_normal,structured_incentive","2,1,3,4,2,3","false","",""
"null","","html-keyboard-response","44","1752421","0.0-44.0","","<img src=""img/set1/S4.jpg"" width=""540"" height = ""360"">","null","","","","","","","",""
"null","","html-keyboard-response","45","1752630","0.0-45.0","","","null","","","","","","","",""
"528.7000000476837","","image-keyboard-response","46","1753161","0.0-46.0","","img/set1/S2.jpg","83","2","random","68","random,structured_load,structured_normal,structured_incentive","2,1,3,4,2,3","false","",""
"null","","html-keyboard-response","47","1753521","0.0-47.0","","<img src=""img/set1/S2.jpg"" width=""540"" height = ""360"">","null","","","","","","","",""
"null","","html-keyboard-response","48","1753724","0.0-48.0","","","null","","","","","","","",""
"347.5","","image-keyboard-response","49","1754073","0.0-49.0","","img/set1/S2.jpg","68","2","random","68","random,structured_load,structured_normal,structured_incentive","2,1,3,4,2,3","true","",""
"null","","html-keyboard-response","50","1754438","0.0-50.0","","<img src=""img/set1/S2.jpg"" width=""540"" height = ""360"" style=""border:16px solid orange"">","null","","","","","","","",""
"null","","html-keyboard-response","51","1754647","0.0-51.0","","","null","","","","","","","",""
"703.6999999880791","","image-keyboard-response","52","1755353","0.0-52.0","","img/set1/S2.jpg","68","2","random","68","random,structured_load,structured_normal,structured_incentive","2,1,3,4,2,3","true","",""
"null","","html-keyboard-response","53","1755706","0.0-53.0","","<img src=""img/set1/S2.jpg"" width=""540"" height = ""360"" style=""border:16px solid orange"">","null","","","","","","","",""
"null","","html-keyboard-response","54","1755920","0.0-54.0","","","null","","","","","","","",""
"790","","image-keyboard-response","55","1756712","0.0-55.0","","img/set1/S4.jpg","72","4","random","74","random,structured_load,structured_normal,structured_incentive","2,1,3,4,2,3","false","",""
"null","","html-keyboard-response","56","1757078","0.0-56.0","","<img src=""img/set1/S4.jpg"" width=""540"" height = ""360"">","null","","","","","","","",""
"null","","html-keyboard-response","57","1757281","0.0-57.0","","","null","","","","","","","",""
"712.8000000119209","","image-keyboard-response","58","1757996","0.0-58.0","","img/set1/S4.jpg","74","4","random","74","random,structured_load,structured_normal,structured_incentive","2,1,3,4,2,3","true","",""
"null","","html-keyboard-response","59","1758354","0.0-59.0","","<img src=""img/set1/S4.jpg"" width=""540"" height = ""360"" style=""border:16px solid orange"">","null","","","","","","","",""
"null","","html-keyboard-response","60","1758563","0.0-60.0","","","null","","","","","","","",""
"708.4000000357628","","image-keyboard-response","61","1759273","0.0-61.0","","img/set1/S1.jpg","83","1","random","83","random,structured_load,structured_normal,structured_incentive","2,1,3,4,2,3","true","",""
"null","","html-keyboard-response","62","1759636","0.0-62.0","","<img src=""img/set1/S1.jpg"" width=""540"" height = ""360"" style=""border:16px solid orange"">","null","","","","","","","",""
"null","","html-keyboard-response","63","1759846","0.0-63.0","","","null","","","","","","","",""
"864.1999999880791","","image-keyboard-response","64","1760712","0.0-64.0","","img/set1/S2.jpg","68","2","random","68","random,structured_load,structured_normal,structured_incentive","2,1,3,4,2,3","true","",""
"null","","html-keyboard-response","65","1761077","0.0-65.0","","<img src=""img/set1/S2.jpg"" width=""540"" height = ""360"" style=""border:16px solid orange"">","null","","","","","","","",""
"null","","html-keyboard-response","66","1761281","0.0-66.0","","","null","","","","","","","",""
"713.6999999880791","","image-keyboard-response","67","1761997","0.0-67.0","","img/set1/S3.jpg","72","3","random","72","random,structured_load,structured_normal,structured_incentive","2,1,3,4,2,3","true","",""
"null","","html-keyboard-response","68","1762354","0.0-68.0","","<img src=""img/set1/S3.jpg"" width=""540"" height = ""360"" style=""border:16px solid orange"">","null","","","","","","","",""
"null","","html-keyboard-response","69","1762563","0.0-69.0","","","null","","","","","","","",""
"688.3000000119209","","image-keyboard-response","70","1763256","0.0-70.0","","img/set1/S1.jpg","83","1","random","83","random,structured_load,structured_normal,structured_incentive","2,1,3,4,2,3","true","",""
"null","","html-keyboard-response","71","1763620","0.0-71.0","","<img src=""img/set1/S1.jpg"" width=""540"" height = ""360"" style=""border:16px solid orange"">","null","","","","","","","",""
"null","","html-keyboard-response","72","1763832","0.0-72.0","","","null","","","","","","","",""
"558.8999999761581","","image-keyboard-response","73","1764392","0.0-73.0","","img/set1/S1.jpg","83","1","random","83","random,structured_load,structured_normal,structured_incentive","2,1,3,4,2,3","true","",""
"null","","html-keyboard-response","74","1764757","0.0-74.0","","<img src=""img/set1/S1.jpg"" width=""540"" height = ""360"" style=""border:16px solid orange"">","null","","","","","","","",""
"null","","html-keyboard-response","75","1764968","0.0-75.0","","","null","","","","","","","",""
"878.6999999880791","","image-keyboard-response","76","1765848","0.0-76.0","","img/set1/S2.jpg","74","2","random","68","random,structured_load,structured_normal,structured_incentive","2,1,3,4,2,3","false","",""
"null","","html-keyboard-response","77","1766204","0.0-77.0","","<img src=""img/set1/S2.jpg"" width=""540"" height = ""360"">","null","","","","","","","",""
"null","","html-keyboard-response","78","1766414","0.0-78.0","","","null","","","","","","","",""
"505.5","","image-keyboard-response","79","1766921","0.0-79.0","","img/set1/S2.jpg","72","2","random","68","random,structured_load,structured_normal,structured_incentive","2,1,3,4,2,3","false","",""
"null","","html-keyboard-response","80","1767287","0.0-80.0","","<img src=""img/set1/S2.jpg"" width=""540"" height = ""360"">","null","","","","","","","",""
"null","","html-keyboard-response","81","1767497","0.0-81.0","","","null","","","","","","","",""
"846.5","","image-keyboard-response","82","1768345","0.0-82.0","","img/set1/S3.jpg","68","3","random","72","random,structured_load,structured_normal,structured_incentive","2,1,3,4,2,3","false","",""
"null","","html-keyboard-response","83","1768705","0.0-83.0","","<img src=""img/set1/S3.jpg"" width=""540"" height = ""360"">","null","","","","","","","",""
"null","","html-keyboard-response","84","1768920","0.0-84.0","","","null","","","","","","","",""
"750.8999999761581","","image-keyboard-response","85","1769672","0.0-85.0","","img/set1/S3.jpg","72","3","random","72","random,structured_load,structured_normal,structured_incentive","2,1,3,4,2,3","true","",""
"null","","html-keyboard-response","86","1770029","0.0-86.0","","<img src=""img/set1/S3.jpg"" width=""540"" height = ""360"" style=""border:16px solid orange"">","null","","","","","","","",""
"null","","html-keyboard-response","87","1770245","0.0-87.0","","","null","","","","","","","",""
"627.3000000119209","","image-keyboard-response","88","1770873","0.0-88.0","","img/set1/S1.jpg","83","1","random","83","random,structured_load,structured_normal,structured_incentive","2,1,3,4,2,3","true","",""
"null","","html-keyboard-response","89","1771235","0.0-89.0","","<img src=""img/set1/S1.jpg"" width=""540"" height = ""360"" style=""border:16px solid orange"">","null","","","","","","","",""
"null","","html-keyboard-response","90","1771446","0.0-90.0","","","null","","","","","","","",""
"657.6000000238419","","image-keyboard-response","91","1772105","0.0-91.0","","img/set1/S1.jpg","83","1","random","83","random,structured_load,structured_normal,structured_incentive","2,1,3,4,2,3","true","",""
"null","","html-keyboard-response","92","1772468","0.0-92.0","","<img src=""img/set1/S1.jpg"" width=""540"" height = ""360"" style=""border:16px solid orange"">","null","","","","","","","",""
"null","","html-keyboard-response","93","1772680","0.0-93.0","","","null","","","","","","","",""
"989.3999999761581","","image-keyboard-response","94","1773671","0.0-94.0","","img/set1/S4.jpg","74","4","random","74","random,structured_load,structured_normal,structured_incentive","2,1,3,4,2,3","true","",""
"null","","html-keyboard-response","95","1774030","0.0-95.0","","<img src=""img/set1/S4.jpg"" width=""540"" height = ""360"" style=""border:16px solid orange"">","null","","","","","","","",""
"null","","html-keyboard-response","96","1774245","0.0-96.0","","","null","","","","","","","",""
"545.9000000357628","","image-keyboard-response","97","1774792","0.0-97.0","","img/set1/S1.jpg","83","1","random","83","random,structured_load,structured_normal,structured_incentive","2,1,3,4,2,3","true","",""
"null","","html-keyboard-response","98","1775156","0.0-98.0","","<img src=""img/set1/S1.jpg"" width=""540"" height = ""360"" style=""border:16px solid orange"">","null","","","","","","","",""
"null","","html-keyboard-response","99","1775362","0.0-99.0","","","null","","","","","","","",""
"485.10000002384186","","image-keyboard-response","100","1775849","0.0-100.0","","img/set1/S4.jpg","74","4","random","74","random,structured_load,structured_normal,structured_incentive","2,1,3,4,2,3","true","",""
"null","","html-keyboard-response","101","1776202","0.0-101.0","","<img src=""img/set1/S4.jpg"" width=""540"" height = ""360"" style=""border:16px solid orange"">","null","","","","","","","",""
"null","","html-keyboard-response","102","1776412","0.0-102.0","","","null","","","","","","","",""
"1211.300000011921","","image-keyboard-response","103","1777625","0.0-103.0","","img/set1/S2.jpg","68","2","random","68","random,structured_load,structured_normal,structured_incentive","2,1,3,4,2,3","true","",""
"null","","html-keyboard-response","104","1777984","0.0-104.0","","<img src=""img/set1/S2.jpg"" width=""540"" height = ""360"" style=""border:16px solid orange"">","null","","","","","","","",""
"null","","html-keyboard-response","105","1778194","0.0-105.0","","","null","","","","","","","",""
"853","","image-keyboard-response","106","1779049","0.0-106.0","","img/set1/S4.jpg","74","4","random","74","random,structured_load,structured_normal,structured_incentive","2,1,3,4,2,3","true","",""
"null","","html-keyboard-response","107","1779404","0.0-107.0","","<img src=""img/set1/S4.jpg"" width=""540"" height = ""360"" style=""border:16px solid orange"">","null","","","","","","","",""
"null","","html-keyboard-response","108","1779612","0.0-108.0","","","null","","","","","","","",""
"906.9000000357628","","image-keyboard-response","109","1780520","0.0-109.0","","img/set1/S3.jpg","72","3","random","72","random,structured_load,structured_normal,structured_incentive","2,1,3,4,2,3","true","",""
"null","","html-keyboard-response","110","1780888","0.0-110.0","","<img src=""img/set1/S3.jpg"" width=""540"" height = ""360"" style=""border:16px solid orange"">","null","","","","","","","",""
"null","","html-keyboard-response","111","1781095","0.0-111.0","","","null","","","","","","","",""
"543.8000000119209","","image-keyboard-response","112","1781640","0.0-112.0","","img/set1/S3.jpg","72","3","random","72","random,structured_load,structured_normal,structured_incentive","2,1,3,4,2,3","true","",""
"null","","html-keyboard-response","113","1781997","0.0-113.0","","<img src=""img/set1/S3.jpg"" width=""540"" height = ""360"" style=""border:16px solid orange"">","null","","","","","","","",""
"null","","html-keyboard-response","114","1782212","0.0-114.0","","","null","","","","","","","",""
"801.5","","image-keyboard-response","115","1783015","0.0-115.0","","img/set1/S2.jpg","68","2","random","68","random,structured_load,structured_normal,structured_incentive","2,1,3,4,2,3","true","",""
"null","","html-keyboard-response","116","1783369","0.0-116.0","","<img src=""img/set1/S2.jpg"" width=""540"" height = ""360"" style=""border:16px solid orange"">","null","","","","","","","",""
"null","","html-keyboard-response","117","1783578","0.0-117.0","","","null","","","","","","","",""
"620.6000000238419","","image-keyboard-response","118","1784200","0.0-118.0","","img/set1/S2.jpg","68","2","random","68","random,structured_load,structured_normal,structured_incentive","2,1,3,4,2,3","true","",""
"null","","html-keyboard-response","119","1784552","0.0-119.0","","<img src=""img/set1/S2.jpg"" width=""540"" height = ""360"" style=""border:16px solid orange"">","null","","","","","","","",""
"null","","html-keyboard-response","120","1784769","0.0-120.0","","","null","","","","","","","",""
"517.3000000119209","","image-keyboard-response","121","1785288","0.0-121.0","","img/set1/S2.jpg","68","2","random","68","random,structured_load,structured_normal,structured_incentive","2,1,3,4,2,3","true","",""
"null","","html-keyboard-response","122","1785652","0.0-122.0","","<img src=""img/set1/S2.jpg"" width=""540"" height = ""360"" style=""border:16px solid orange"">","null","","","","","","","",""
"null","","html-keyboard-response","123","1785862","0.0-123.0","","","null","","","","","","","",""
"497.69999998807907","","image-keyboard-response","124","1786360","0.0-124.0","","img/set1/S2.jpg","68","2","random","68","random,structured_load,structured_normal,structured_incentive","2,1,3,4,2,3","true","",""
"null","","html-keyboard-response","125","1786720","0.0-125.0","","<img src=""img/set1/S2.jpg"" width=""540"" height = ""360"" style=""border:16px solid orange"">","null","","","","","","","",""
"null","","html-keyboard-response","126","1786935","0.0-126.0","","","null","","","","","","","",""
"718.6000000238419","","image-keyboard-response","127","1787655","0.0-127.0","","img/set1/S1.jpg","83","1","random","83","random,structured_load,structured_normal,structured_incentive","2,1,3,4,2,3","true","",""
"null","","html-keyboard-response","128","1788012","0.0-128.0","","<img src=""img/set1/S1.jpg"" width=""540"" height = ""360"" style=""border:16px solid orange"">","null","","","","","","","",""
"null","","html-keyboard-response","129","1788229","0.0-129.0","","","null","","","","","","","",""
"803.3999999761581","","image-keyboard-response","130","1789034","0.0-130.0","","img/set1/S2.jpg","68","2","random","68","random,structured_load,structured_normal,structured_incentive","2,1,3,4,2,3","true","",""
"null","","html-keyboard-response","131","1789402","0.0-131.0","","<img src=""img/set1/S2.jpg"" width=""540"" height = ""360"" style=""border:16px solid orange"">","null","","","","","","","",""
"null","","html-keyboard-response","132","1789612","0.0-132.0","","","null","","","","","","","",""
"1082.3999999761581","","image-keyboard-response","133","1790696","0.0-133.0","","img/set1/S4.jpg","74","4","random","74","random,structured_load,structured_normal,structured_incentive","2,1,3,4,2,3","true","",""
"null","","html-keyboard-response","134","1791061","0.0-134.0","","<img src=""img/set1/S4.jpg"" width=""540"" height = ""360"" style=""border:16px solid orange"">","null","","","","","","","",""
"null","","html-keyboard-response","135","1791278","0.0-135.0","","","null","","","","","","","",""
"1209.699999988079","","image-keyboard-response","136","1792489","0.0-136.0","","img/set1/S3.jpg","68","3","random","72","random,structured_load,structured_normal,structured_incentive","2,1,3,4,2,3","false","",""
"null","","html-keyboard-response","137","1792845","0.0-137.0","","<img src=""img/set1/S3.jpg"" width=""540"" height = ""360"">","null","","","","","","","",""
"null","","html-keyboard-response","138","1793060","0.0-138.0","","","null","","","","","","","",""
"515.2000000476837","","image-keyboard-response","139","1793577","0.0-139.0","","img/set1/S3.jpg","72","3","random","72","random,structured_load,structured_normal,structured_incentive","2,1,3,4,2,3","true","",""
"null","","html-keyboard-response","140","1793934","0.0-140.0","","<img src=""img/set1/S3.jpg"" width=""540"" height = ""360"" style=""border:16px solid orange"">","null","","","","","","","",""
"null","","html-keyboard-response","141","1794144","0.0-141.0","","","null","","","","","","","",""
"582","","image-keyboard-response","142","1794728","0.0-142.0","","img/set1/S1.jpg","83","1","random","83","random,structured_load,structured_normal,structured_incentive","2,1,3,4,2,3","true","",""
"null","","html-keyboard-response","143","1795090","0.0-143.0","","<img src=""img/set1/S1.jpg"" width=""540"" height = ""360"" style=""border:16px solid orange"">","null","","","","","","","",""
"null","","html-keyboard-response","144","1795295","0.0-144.0","","","null","","","","","","","",""
"759.1000000238419","","image-keyboard-response","145","1796056","0.0-145.0","","img/set1/S4.jpg","68","4","random","74","random,structured_load,structured_normal,structured_incentive","2,1,3,4,2,3","false","",""
"null","","html-keyboard-response","146","1796417","0.0-146.0","","<img src=""img/set1/S4.jpg"" width=""540"" height = ""360"">","null","","","","","","","",""
"null","","html-keyboard-response","147","1796629","0.0-147.0","","","null","","","","","","","",""
"770","","image-keyboard-response","148","1797401","0.0-148.0","","img/set1/S2.jpg","83","2","random","68","random,structured_load,structured_normal,structured_incentive","2,1,3,4,2,3","false","",""
"null","","html-keyboard-response","149","1797766","0.0-149.0","","<img src=""img/set1/S2.jpg"" width=""540"" height = ""360"">","null","","","","","","","",""
"null","","html-keyboard-response","150","1797980","0.0-150.0","","","null","","","","","","","",""
"937.5","","image-keyboard-response","151","1798919","0.0-151.0","","img/set1/S4.jpg","74","4","random","74","random,structured_load,structured_normal,structured_incentive","2,1,3,4,2,3","true","",""
"null","","html-keyboard-response","152","1799284","0.0-152.0","","<img src=""img/set1/S4.jpg"" width=""540"" height = ""360"" style=""border:16px solid orange"">","null","","","","","","","",""
"null","","html-keyboard-response","153","1799495","0.0-153.0","","","null","","","","","","","",""
"640.6999999880791","","image-keyboard-response","154","1800137","0.0-154.0","","img/set1/S1.jpg","83","1","random","83","random,structured_load,structured_normal,structured_incentive","2,1,3,4,2,3","true","",""
"null","","html-keyboard-response","155","1800503","0.0-155.0","","<img src=""img/set1/S1.jpg"" width=""540"" height = ""360"" style=""border:16px solid orange"">","null","","","","","","","",""
"null","","html-keyboard-response","156","1800721","0.0-156.0","","","null","","","","","","","",""
"1334.5","","image-keyboard-response","157","1802057","0.0-157.0","","img/set1/S3.jpg","72","3","random","72","random,structured_load,structured_normal,structured_incentive","2,1,3,4,2,3","true","",""
"null","","html-keyboard-response","158","1802417","0.0-158.0","","<img src=""img/set1/S3.jpg"" width=""540"" height = ""360"" style=""border:16px solid orange"">","null","","","","","","","",""
"null","","html-keyboard-response","159","1802631","0.0-159.0","","","null","","","","","","","",""
"527.1999999880791","","image-keyboard-response","160","1803160","0.0-160.0","","img/set1/S3.jpg","72","3","random","72","random,structured_load,structured_normal,structured_incentive","2,1,3,4,2,3","true","",""
"null","","html-keyboard-response","161","1803517","0.0-161.0","","<img src=""img/set1/S3.jpg"" width=""540"" height = ""360"" style=""border:16px solid orange"">","null","","","","","","","",""
"null","","html-keyboard-response","162","1803720","0.0-162.0","","","null","","","","","","","",""
"1934.5","","image-keyboard-response","163","1805656","0.0-163.0","","img/set1/S2.jpg","83","2","random","68","random,structured_load,structured_normal,structured_incentive","2,1,3,4,2,3","false","",""
"null","","html-keyboard-response","164","1806012","0.0-164.0","","<img src=""img/set1/S2.jpg"" width=""540"" height = ""360"">","null","","","","","","","",""
"null","","html-keyboard-response","165","1806227","0.0-165.0","","","null","","","","","","","",""
"1044","","image-keyboard-response","166","1807272","0.0-166.0","","img/set1/S3.jpg","72","3","random","72","random,structured_load,structured_normal,structured_incentive","2,1,3,4,2,3","true","",""
"null","","html-keyboard-response","167","1807640","0.0-167.0","","<img src=""img/set1/S3.jpg"" width=""540"" height = ""360"" style=""border:16px solid orange"">","null","","","","","","","",""
"null","","html-keyboard-response","168","1807844","0.0-168.0","","","null","","","","","","","",""
"499.30000001192093","","image-keyboard-response","169","1808345","0.0-169.0","","img/set1/S3.jpg","72","3","random","72","random,structured_load,structured_normal,structured_incentive","2,1,3,4,2,3","true","",""
"null","","html-keyboard-response","170","1808704","0.0-170.0","","<img src=""img/set1/S3.jpg"" width=""540"" height = ""360"" style=""border:16px solid orange"">","null","","","","","","","",""
"null","","html-keyboard-response","171","1808919","0.0-171.0","","","null","","","","","","","",""
"915.5","","image-keyboard-response","172","1809836","0.0-172.0","","img/set1/S4.jpg","74","4","random","74","random,structured_load,structured_normal,structured_incentive","2,1,3,4,2,3","true","",""
"null","","html-keyboard-response","173","1810201","0.0-173.0","","<img src=""img/set1/S4.jpg"" width=""540"" height = ""360"" style=""border:16px solid orange"">","null","","","","","","","",""
"null","","html-keyboard-response","174","1810410","0.0-174.0","","","null","","","","","","","",""
"716.5","","image-keyboard-response","175","1811128","0.0-175.0","","img/set1/S2.jpg","83","2","random","68","random,structured_load,structured_normal,structured_incentive","2,1,3,4,2,3","false","",""
"null","","html-keyboard-response","176","1811484","0.0-176.0","","<img src=""img/set1/S2.jpg"" width=""540"" height = ""360"">","null","","","","","","","",""
"null","","html-keyboard-response","177","1811703","0.0-177.0","","","null","","","","","","","",""
"688.1999999880791","","image-keyboard-response","178","1812393","0.0-178.0","","img/set1/S1.jpg","83","1","random","83","random,structured_load,structured_normal,structured_incentive","2,1,3,4,2,3","true","",""
"null","","html-keyboard-response","179","1812750","0.0-179.0","","<img src=""img/set1/S1.jpg"" width=""540"" height = ""360"" style=""border:16px solid orange"">","null","","","","","","","",""
"null","","html-keyboard-response","180","1812965","0.0-180.0","","","null","","","","","","","",""
"450.69999998807907","","image-keyboard-response","181","1813417","0.0-181.0","","img/set1/S1.jpg","83","1","random","83","random,structured_load,structured_normal,structured_incentive","2,1,3,4,2,3","true","",""
"null","","html-keyboard-response","182","1813781","0.0-182.0","","<img src=""img/set1/S1.jpg"" width=""540"" height = ""360"" style=""border:16px solid orange"">","null","","","","","","","",""
"null","","html-keyboard-response","183","1813996","0.0-183.0","","","null","","","","","","","",""
"1034.5999999642372","","image-keyboard-response","184","1815032","0.0-184.0","","img/set1/S3.jpg","74","3","random","72","random,structured_load,structured_normal,structured_incentive","2,1,3,4,2,3","false","",""
"null","","html-keyboard-response","185","1815399","0.0-185.0","","<img src=""img/set1/S3.jpg"" width=""540"" height = ""360"">","null","","","","","","","",""
"null","","html-keyboard-response","186","1815610","0.0-186.0","","","null","","","","","","","",""
"668.1000000238419","","image-keyboard-response","187","1816280","0.0-187.0","","img/set1/S1.jpg","83","1","random","83","random,structured_load,structured_normal,structured_incentive","2,1,3,4,2,3","true","",""
"null","","html-keyboard-response","188","1816634","0.0-188.0","","<img src=""img/set1/S1.jpg"" width=""540"" height = ""360"" style=""border:16px solid orange"">","null","","","","","","","",""
"null","","html-keyboard-response","189","1816845","0.0-189.0","","","null","","","","","","","",""
"921.9000000357628","","image-keyboard-response","190","1817768","0.0-190.0","","img/set1/S4.jpg","74","4","random","74","random,structured_load,structured_normal,structured_incentive","2,1,3,4,2,3","true","",""
"null","","html-keyboard-response","191","1818121","0.0-191.0","","<img src=""img/set1/S4.jpg"" width=""540"" height = ""360"" style=""border:16px solid orange"">","null","","","","","","","",""
"null","","html-keyboard-response","192","1818326","0.0-192.0","","","null","","","","","","","",""
"1120.800000011921","","image-keyboard-response","193","1819448","0.0-193.0","","img/set1/S3.jpg","72","3","random","72","random,structured_load,structured_normal,structured_incentive","2,1,3,4,2,3","true","",""
"null","","html-keyboard-response","194","1819812","0.0-194.0","","<img src=""img/set1/S3.jpg"" width=""540"" height = ""360"" style=""border:16px solid orange"">","null","","","","","","","",""
"null","","html-keyboard-response","195","1820026","0.0-195.0","","","null","","","","","","","",""
"589.8999999761581","","image-keyboard-response","196","1820617","0.0-196.0","","img/set1/S1.jpg","83","1","random","83","random,structured_load,structured_normal,structured_incentive","2,1,3,4,2,3","true","",""
"null","","html-keyboard-response","197","1820981","0.0-197.0","","<img src=""img/set1/S1.jpg"" width=""540"" height = ""360"" style=""border:16px solid orange"">","null","","","","","","","",""
"null","","html-keyboard-response","198","1821192","0.0-198.0","","","null","","","","","","","",""
"799.5999999642372","","image-keyboard-response","199","1821993","0.0-199.0","","img/set1/S3.jpg","72","3","random","72","random,structured_load,structured_normal,structured_incentive","2,1,3,4,2,3","true","",""
"null","","html-keyboard-response","200","1822350","0.0-200.0","","<img src=""img/set1/S3.jpg"" width=""540"" height = ""360"" style=""border:16px solid orange"">","null","","","","","","","",""
"null","","html-keyboard-response","201","1822558","0.0-201.0","","","null","","","","","","","",""
"567.5","","image-keyboard-response","202","1823127","0.0-202.0","","img/set1/S1.jpg","83","1","random","83","random,structured_load,structured_normal,structured_incentive","2,1,3,4,2,3","true","",""
"null","","html-keyboard-response","203","1823483","0.0-203.0","","<img src=""img/set1/S1.jpg"" width=""540"" height = ""360"" style=""border:16px solid orange"">","null","","","","","","","",""
"null","","html-keyboard-response","204","1823701","0.0-204.0","","","null","","","","","","","",""
"976.4000000357628","","image-keyboard-response","205","1824679","0.0-205.0","","img/set1/S4.jpg","74","4","random","74","random,structured_load,structured_normal,structured_incentive","2,1,3,4,2,3","true","",""
"null","","html-keyboard-response","206","1825042","0.0-206.0","","<img src=""img/set1/S4.jpg"" width=""540"" height = ""360"" style=""border:16px solid orange"">","null","","","","","","","",""
"null","","html-keyboard-response","207","1825259","0.0-207.0","","","null","","","","","","","",""
"635.2000000476837","","image-keyboard-response","208","1825896","0.0-208.0","","img/set1/S4.jpg","74","4","random","74","random,structured_load,structured_normal,structured_incentive","2,1,3,4,2,3","true","",""
"null","","html-keyboard-response","209","1826250","0.0-209.0","","<img src=""img/set1/S4.jpg"" width=""540"" height = ""360"" style=""border:16px solid orange"">","null","","","","","","","",""
"null","","html-keyboard-response","210","1826460","0.0-210.0","","","null","","","","","","","",""
"475.2999999523163","","image-keyboard-response","211","1826937","0.0-211.0","","img/set1/S4.jpg","74","4","random","74","random,structured_load,structured_normal,structured_incentive","2,1,3,4,2,3","true","",""
"null","","html-keyboard-response","212","1827299","0.0-212.0","","<img src=""img/set1/S4.jpg"" width=""540"" height = ""360"" style=""border:16px solid orange"">","null","","","","","","","",""
"null","","html-keyboard-response","213","1827508","0.0-213.0","","","null","","","","","","","",""
"466.7999999523163","","image-keyboard-response","214","1827977","0.0-214.0","","img/set1/S4.jpg","74","4","random","74","random,structured_load,structured_normal,structured_incentive","2,1,3,4,2,3","true","",""
"null","","html-keyboard-response","215","1828333","0.0-215.0","","<img src=""img/set1/S4.jpg"" width=""540"" height = ""360"" style=""border:16px solid orange"">","null","","","","","","","",""
"null","","html-keyboard-response","216","1828542","0.0-216.0","","","null","","","","","","","",""
"632.7999999523163","","image-keyboard-response","217","1829177","0.0-217.0","","img/set1/S1.jpg","83","1","random","83","random,structured_load,structured_normal,structured_incentive","2,1,3,4,2,3","true","",""
"null","","html-keyboard-response","218","1829534","0.0-218.0","","<img src=""img/set1/S1.jpg"" width=""540"" height = ""360"" style=""border:16px solid orange"">","null","","","","","","","",""
"null","","html-keyboard-response","219","1829750","0.0-219.0","","","null","","","","","","","",""
"1136.0999999642372","","image-keyboard-response","220","1830887","0.0-220.0","","img/set1/S2.jpg","72","2","random","68","random,structured_load,structured_normal,structured_incentive","2,1,3,4,2,3","false","",""
"null","","html-keyboard-response","221","1831248","0.0-221.0","","<img src=""img/set1/S2.jpg"" width=""540"" height = ""360"">","null","","","","","","","",""
"null","","html-keyboard-response","222","1831458","0.0-222.0","","","null","","","","","","","",""
"836.2000000476837","","image-keyboard-response","223","1832296","0.0-223.0","","img/set1/S3.jpg","72","3","random","72","random,structured_load,structured_normal,structured_incentive","2,1,3,4,2,3","true","",""
"null","","html-keyboard-response","224","1832651","0.0-224.0","","<img src=""img/set1/S3.jpg"" width=""540"" height = ""360"" style=""border:16px solid orange"">","null","","","","","","","",""
"null","","html-keyboard-response","225","1832860","0.0-225.0","","","null","","","","","","","",""
"538.6999999880791","","image-keyboard-response","226","1833400","0.0-226.0","","img/set1/S3.jpg","72","3","random","72","random,structured_load,structured_normal,structured_incentive","2,1,3,4,2,3","true","",""
"null","","html-keyboard-response","227","1833764","0.0-227.0","","<img src=""img/set1/S3.jpg"" width=""540"" height = ""360"" style=""border:16px solid orange"">","null","","","","","","","",""
"null","","html-keyboard-response","228","1833979","0.0-228.0","","","null","","","","","","","",""
"699.1999999880791","","image-keyboard-response","229","1834679","0.0-229.0","","img/set1/S1.jpg","83","1","random","83","random,structured_load,structured_normal,structured_incentive","2,1,3,4,2,3","true","",""
"null","","html-keyboard-response","230","1835042","0.0-230.0","","<img src=""img/set1/S1.jpg"" width=""540"" height = ""360"" style=""border:16px solid orange"">","null","","","","","","","",""
"null","","html-keyboard-response","231","1835258","0.0-231.0","","","null","","","","","","","",""
"861.3999999761581","","image-keyboard-response","232","1836121","0.0-232.0","","img/set1/S2.jpg","68","2","random","68","random,structured_load,structured_normal,structured_incentive","2,1,3,4,2,3","true","",""
"null","","html-keyboard-response","233","1836499","0.0-233.0","","<img src=""img/set1/S2.jpg"" width=""540"" height = ""360"" style=""border:16px solid orange"">","null","","","","","","","",""
"null","","html-keyboard-response","234","1836718","0.0-234.0","","","null","","","","","","","",""
"569.7999999523163","","image-keyboard-response","235","1837289","0.0-235.0","","img/set1/S3.jpg","83","3","random","72","random,structured_load,structured_normal,structured_incentive","2,1,3,4,2,3","false","",""
"null","","html-keyboard-response","236","1837647","0.0-236.0","","<img src=""img/set1/S3.jpg"" width=""540"" height = ""360"">","null","","","","","","","",""
"null","","html-keyboard-response","237","1837863","0.0-237.0","","","null","","","","","","","",""
"912.1999999880791","","image-keyboard-response","238","1838778","0.0-238.0","","img/set1/S2.jpg","83","2","random","68","random,structured_load,structured_normal,structured_incentive","2,1,3,4,2,3","false","",""
"null","","html-keyboard-response","239","1839137","0.0-239.0","","<img src=""img/set1/S2.jpg"" width=""540"" height = ""360"">","null","","","","","","","",""
"null","","html-keyboard-response","240","1839342","0.0-240.0","","","null","","","","","","","",""
"696.8999999761581","","image-keyboard-response","241","1840041","0.0-241.0","","img/set1/S2.jpg","68","2","random","68","random,structured_load,structured_normal,structured_incentive","2,1,3,4,2,3","true","",""
"null","","html-keyboard-response","242","1840398","0.0-242.0","","<img src=""img/set1/S2.jpg"" width=""540"" height = ""360"" style=""border:16px solid orange"">","null","","","","","","","",""
"null","","html-keyboard-response","243","1840608","0.0-243.0","","","null","","","","","","","",""
"726.3000000119209","","image-keyboard-response","244","1841336","0.0-244.0","","img/set1/S4.jpg","74","4","random","74","random,structured_load,structured_normal,structured_incentive","2,1,3,4,2,3","true","",""
"null","","html-keyboard-response","245","1841698","0.0-245.0","","<img src=""img/set1/S4.jpg"" width=""540"" height = ""360"" style=""border:16px solid orange"">","null","","","","","","","",""
"null","","html-keyboard-response","246","1841900","0.0-246.0","","","null","","","","","","","",""
"777.6999999880791","","image-keyboard-response","247","1842679","0.0-247.0","","img/set1/S1.jpg","83","1","random","83","random,structured_load,structured_normal,structured_incentive","2,1,3,4,2,3","true","",""
"null","","html-keyboard-response","248","1843041","0.0-248.0","","<img src=""img/set1/S1.jpg"" width=""540"" height = ""360"" style=""border:16px solid orange"">","null","","","","","","","",""
"null","","html-keyboard-response","249","1843258","0.0-249.0","","","null","","","","","","","",""
"1068.6000000238419","","image-keyboard-response","250","1844328","0.0-250.0","","img/set1/S4.jpg","74","4","random","74","random,structured_load,structured_normal,structured_incentive","2,1,3,4,2,3","true","",""
"null","","html-keyboard-response","251","1844682","0.0-251.0","","<img src=""img/set1/S4.jpg"" width=""540"" height = ""360"" style=""border:16px solid orange"">","null","","","","","","","",""
"null","","html-keyboard-response","252","1844900","0.0-252.0","","","null","","","","","","","",""
"674.3000000119209","","image-keyboard-response","253","1845577","0.0-253.0","","img/set1/S1.jpg","83","1","random","83","random,structured_load,structured_normal,structured_incentive","2,1,3,4,2,3","true","",""
"null","","html-keyboard-response","254","1845931","0.0-254.0","","<img src=""img/set1/S1.jpg"" width=""540"" height = ""360"" style=""border:16px solid orange"">","null","","","","","","","",""
"null","","html-keyboard-response","255","1846140","0.0-255.0","","","null","","","","","","","",""
"618.5","","image-keyboard-response","256","1846760","0.0-256.0","","img/set1/S1.jpg","83","1","random","83","random,structured_load,structured_normal,structured_incentive","2,1,3,4,2,3","true","",""
"null","","html-keyboard-response","257","1847120","0.0-257.0","","<img src=""img/set1/S1.jpg"" width=""540"" height = ""360"" style=""border:16px solid orange"">","null","","","","","","","",""
"null","","html-keyboard-response","258","1847325","0.0-258.0","","","null","","","","","","","",""
"1321.800000011921","","image-keyboard-response","259","1848648","0.0-259.0","","img/set1/S3.jpg","72","3","random","72","random,structured_load,structured_normal,structured_incentive","2,1,3,4,2,3","true","",""
"null","","html-keyboard-response","260","1849010","0.0-260.0","","<img src=""img/set1/S3.jpg"" width=""540"" height = ""360"" style=""border:16px solid orange"">","null","","","","","","","",""
"null","","html-keyboard-response","261","1849223","0.0-261.0","","","null","","","","","","","",""
"496.10000002384186","","image-keyboard-response","262","1849720","0.0-262.0","","img/set1/S3.jpg","72","3","random","72","random,structured_load,structured_normal,structured_incentive","2,1,3,4,2,3","true","",""
"null","","html-keyboard-response","263","1850087","0.0-263.0","","<img src=""img/set1/S3.jpg"" width=""540"" height = ""360"" style=""border:16px solid orange"">","null","","","","","","","",""
"null","","html-keyboard-response","264","1850291","0.0-264.0","","","null","","","","","","","",""
"627.9000000357628","","image-keyboard-response","265","1850920","0.0-265.0","","img/set1/S4.jpg","74","4","random","74","random,structured_load,structured_normal,structured_incentive","2,1,3,4,2,3","true","",""
"null","","html-keyboard-response","266","1851280","0.0-266.0","","<img src=""img/set1/S4.jpg"" width=""540"" height = ""360"" style=""border:16px solid orange"">","null","","","","","","","",""
"null","","html-keyboard-response","267","1851490","0.0-267.0","","","null","","","","","","","",""
"693.6000000238419","","image-keyboard-response","268","1852185","0.0-268.0","","img/set1/S3.jpg","72","3","random","72","random,structured_load,structured_normal,structured_incentive","2,1,3,4,2,3","true","",""
"null","","html-keyboard-response","269","1852548","0.0-269.0","","<img src=""img/set1/S3.jpg"" width=""540"" height = ""360"" style=""border:16px solid orange"">","null","","","","","","","",""
"null","","html-keyboard-response","270","1852764","0.0-270.0","","","null","","","","","","","",""
"539.2000000476837","","image-keyboard-response","271","1853304","0.0-271.0","","img/set1/S3.jpg","72","3","random","72","random,structured_load,structured_normal,structured_incentive","2,1,3,4,2,3","true","",""
"null","","html-keyboard-response","272","1853664","0.0-272.0","","<img src=""img/set1/S3.jpg"" width=""540"" height = ""360"" style=""border:16px solid orange"">","null","","","","","","","",""
"null","","html-keyboard-response","273","1853886","0.0-273.0","","","null","","","","","","","",""
"648.1000000238419","","image-keyboard-response","274","1854537","0.0-274.0","","img/set1/S1.jpg","83","1","random","83","random,structured_load,structured_normal,structured_incentive","2,1,3,4,2,3","true","",""
"null","","html-keyboard-response","275","1854900","0.0-275.0","","<img src=""img/set1/S1.jpg"" width=""540"" height = ""360"" style=""border:16px solid orange"">","null","","","","","","","",""
"null","","html-keyboard-response","276","1855108","0.0-276.0","","","null","","","","","","","",""
"899.6000000238419","","image-keyboard-response","277","1856009","0.0-277.0","","img/set1/S4.jpg","74","4","random","74","random,structured_load,structured_normal,structured_incentive","2,1,3,4,2,3","true","",""
"null","","html-keyboard-response","278","1856364","0.0-278.0","","<img src=""img/set1/S4.jpg"" width=""540"" height = ""360"" style=""border:16px solid orange"">","null","","","","","","","",""
"null","","html-keyboard-response","279","1856574","0.0-279.0","","","null","","","","","","","",""
"777.6999999880791","","image-keyboard-response","280","1857353","0.0-280.0","","img/set1/S3.jpg","72","3","random","72","random,structured_load,structured_normal,structured_incentive","2,1,3,4,2,3","true","",""
"null","","html-keyboard-response","281","1857716","0.0-281.0","","<img src=""img/set1/S3.jpg"" width=""540"" height = ""360"" style=""border:16px solid orange"">","null","","","","","","","",""
"null","","html-keyboard-response","282","1857931","0.0-282.0","","","null","","","","","","","",""
"763.4000000357628","","image-keyboard-response","283","1858696","0.0-283.0","","img/set1/S4.jpg","74","4","random","74","random,structured_load,structured_normal,structured_incentive","2,1,3,4,2,3","true","",""
"null","","html-keyboard-response","284","1859055","0.0-284.0","","<img src=""img/set1/S4.jpg"" width=""540"" height = ""360"" style=""border:16px solid orange"">","null","","","","","","","",""
"null","","html-keyboard-response","285","1859258","0.0-285.0","","","null","","","","","","","",""
"460.4000000357628","","image-keyboard-response","286","1859720","0.0-286.0","","img/set1/S4.jpg","74","4","random","74","random,structured_load,structured_normal,structured_incentive","2,1,3,4,2,3","true","",""
"null","","html-keyboard-response","287","1860087","0.0-287.0","","<img src=""img/set1/S4.jpg"" width=""540"" height = ""360"" style=""border:16px solid orange"">","null","","","","","","","",""
"null","","html-keyboard-response","288","1860296","0.0-288.0","","","null","","","","","","","",""
"798.7999999523163","","image-keyboard-response","289","1861097","0.0-289.0","","img/set1/S2.jpg","68","2","random","68","random,structured_load,structured_normal,structured_incentive","2,1,3,4,2,3","true","",""
"null","","html-keyboard-response","290","1861464","0.0-290.0","","<img src=""img/set1/S2.jpg"" width=""540"" height = ""360"" style=""border:16px solid orange"">","null","","","","","","","",""
"null","","html-keyboard-response","291","1861674","0.0-291.0","","","null","","","","","","","",""
"829.5","","image-keyboard-response","292","1862505","0.0-292.0","","img/set1/S4.jpg","74","4","random","74","random,structured_load,structured_normal,structured_incentive","2,1,3,4,2,3","true","",""
"null","","html-keyboard-response","293","1862884","0.0-293.0","","<img src=""img/set1/S4.jpg"" width=""540"" height = ""360"" style=""border:16px solid orange"">","null","","","","","","","",""
"null","","html-keyboard-response","294","1863090","0.0-294.0","","","null","","","","","","","",""
"1558.0999999642372","","image-keyboard-response","295","1864649","0.0-295.0","","img/set1/S2.jpg","68","2","random","68","random,structured_load,structured_normal,structured_incentive","2,1,3,4,2,3","true","",""
"null","","html-keyboard-response","296","1865009","0.0-296.0","","<img src=""img/set1/S2.jpg"" width=""540"" height = ""360"" style=""border:16px solid orange"">","null","","","","","","","",""
"null","","html-keyboard-response","297","1865222","0.0-297.0","","","null","","","","","","","",""
"833.1999999880791","","image-keyboard-response","298","1866055","0.0-298.0","","img/set1/S4.jpg","74","4","random","74","random,structured_load,structured_normal,structured_incentive","2,1,3,4,2,3","true","",""
"null","","html-keyboard-response","299","1866412","0.0-299.0","","<img src=""img/set1/S4.jpg"" width=""540"" height = ""360"" style=""border:16px solid orange"">","null","","","","","","","",""
"null","","html-keyboard-response","300","1866621","0.0-300.0","","","null","","","","","","","",""
"855.6999999880791","","image-keyboard-response","301","1867479","0.0-301.0","","img/set1/S2.jpg","68","2","random","68","random,structured_load,structured_normal,structured_incentive","2,1,3,4,2,3","true","",""
"null","","html-keyboard-response","302","1867838","0.0-302.0","","<img src=""img/set1/S2.jpg"" width=""540"" height = ""360"" style=""border:16px solid orange"">","null","","","","","","","",""
"null","","html-keyboard-response","303","1868053","0.0-303.0","","","null","","","","","","","",""
"1153","","image-keyboard-response","304","1869207","0.0-304.0","","img/set1/S3.jpg","74","3","random","72","random,structured_load,structured_normal,structured_incentive","2,1,3,4,2,3","false","",""
"null","","html-keyboard-response","305","1869562","0.0-305.0","","<img src=""img/set1/S3.jpg"" width=""540"" height = ""360"">","null","","","","","","","",""
"null","","html-keyboard-response","306","1869775","0.0-306.0","","","null","","","","","","","",""
"549.6999999880791","","image-keyboard-response","307","1870326","0.0-307.0","","img/set1/S3.jpg","72","3","random","72","random,structured_load,structured_normal,structured_incentive","2,1,3,4,2,3","true","",""
"null","","html-keyboard-response","308","1870678","0.0-308.0","","<img src=""img/set1/S3.jpg"" width=""540"" height = ""360"" style=""border:16px solid orange"">","null","","","","","","","",""
"null","","html-keyboard-response","309","1870898","0.0-309.0","","","null","","","","","","","",""
"915","","image-keyboard-response","310","1871814","0.0-310.0","","img/set1/S2.jpg","68","2","random","68","random,structured_load,structured_normal,structured_incentive","2,1,3,4,2,3","true","",""
"null","","html-keyboard-response","311","1872178","0.0-311.0","","<img src=""img/set1/S2.jpg"" width=""540"" height = ""360"" style=""border:16px solid orange"">","null","","","","","","","",""
"null","","html-keyboard-response","312","1872388","0.0-312.0","","","null","","","","","","","",""
"577.8000000119209","","image-keyboard-response","313","1872967","0.0-313.0","","img/set1/S3.jpg","72","3","random","72","random,structured_load,structured_normal,structured_incentive","2,1,3,4,2,3","true","",""
"null","","html-keyboard-response","314","1873327","0.0-314.0","","<img src=""img/set1/S3.jpg"" width=""540"" height = ""360"" style=""border:16px solid orange"">","null","","","","","","","",""
"null","","html-keyboard-response","315","1873536","0.0-315.0","","","null","","","","","","","",""
"820.1000000238419","","image-keyboard-response","316","1874358","0.0-316.0","","img/set1/S4.jpg","74","4","random","74","random,structured_load,structured_normal,structured_incentive","2,1,3,4,2,3","true","",""
"null","","html-keyboard-response","317","1874712","0.0-317.0","","<img src=""img/set1/S4.jpg"" width=""540"" height = ""360"" style=""border:16px solid orange"">","null","","","","","","","",""
"null","","html-keyboard-response","318","1874929","0.0-318.0","","","null","","","","","","","",""
"979","","image-keyboard-response","319","1875910","0.0-319.0","","img/set1/S3.jpg","72","3","random","72","random,structured_load,structured_normal,structured_incentive","2,1,3,4,2,3","true","",""
"null","","html-keyboard-response","320","1876278","0.0-320.0","","<img src=""img/set1/S3.jpg"" width=""540"" height = ""360"" style=""border:16px solid orange"">","null","","","","","","","",""
"null","","html-keyboard-response","321","1876487","0.0-321.0","","","null","","","","","","","",""
"701.8999999761581","","image-keyboard-response","322","1877191","0.0-322.0","","img/set1/S1.jpg","83","1","random","83","random,structured_load,structured_normal,structured_incentive","2,1,3,4,2,3","true","",""
"null","","html-keyboard-response","323","1877544","0.0-323.0","","<img src=""img/set1/S1.jpg"" width=""540"" height = ""360"" style=""border:16px solid orange"">","null","","","","","","","",""
"null","","html-keyboard-response","324","1877760","0.0-324.0","","","null","","","","","","","",""
"822.0999999642372","","image-keyboard-response","325","1878584","0.0-325.0","","img/set1/S4.jpg","74","4","random","74","random,structured_load,structured_normal,structured_incentive","2,1,3,4,2,3","true","",""
"null","","html-keyboard-response","326","1878942","0.0-326.0","","<img src=""img/set1/S4.jpg"" width=""540"" height = ""360"" style=""border:16px solid orange"">","null","","","","","","","",""
"null","","html-keyboard-response","327","1879154","0.0-327.0","","","null","","","","","","","",""
"754.7000000476837","","image-keyboard-response","328","1879910","0.0-328.0","","img/set1/S2.jpg","68","2","random","68","random,structured_load,structured_normal,structured_incentive","2,1,3,4,2,3","true","",""
"null","","html-keyboard-response","329","1880278","0.0-329.0","","<img src=""img/set1/S2.jpg"" width=""540"" height = ""360"" style=""border:16px solid orange"">","null","","","","","","","",""
"null","","html-keyboard-response","330","1880488","0.0-330.0","","","null","","","","","","","",""
"717","","image-keyboard-response","331","1881209","0.0-331.0","","img/set1/S4.jpg","74","4","random","74","random,structured_load,structured_normal,structured_incentive","2,1,3,4,2,3","true","",""
"null","","html-keyboard-response","332","1881577","0.0-332.0","","<img src=""img/set1/S4.jpg"" width=""540"" height = ""360"" style=""border:16px solid orange"">","null","","","","","","","",""
"null","","html-keyboard-response","333","1881791","0.0-333.0","","","null","","","","","","","",""
"693.5","","image-keyboard-response","334","1882486","0.0-334.0","","img/set1/S1.jpg","83","1","random","83","random,structured_load,structured_normal,structured_incentive","2,1,3,4,2,3","true","",""
"null","","html-keyboard-response","335","1882864","0.0-335.0","","<img src=""img/set1/S1.jpg"" width=""540"" height = ""360"" style=""border:16px solid orange"">","null","","","","","","","",""
"null","","html-keyboard-response","336","1883071","0.0-336.0","","","null","","","","","","","",""
"645.3999999761581","","image-keyboard-response","337","1883718","0.0-337.0","","img/set1/S3.jpg","72","3","random","72","random,structured_load,structured_normal,structured_incentive","2,1,3,4,2,3","true","",""
"null","","html-keyboard-response","338","1884083","0.0-338.0","","<img src=""img/set1/S3.jpg"" width=""540"" height = ""360"" style=""border:16px solid orange"">","null","","","","","","","",""
"null","","html-keyboard-response","339","1884287","0.0-339.0","","","null","","","","","","","",""
"870.8000000119209","","image-keyboard-response","340","1885159","0.0-340.0","","img/set1/S2.jpg","68","2","random","68","random,structured_load,structured_normal,structured_incentive","2,1,3,4,2,3","true","",""
"null","","html-keyboard-response","341","1885527","0.0-341.0","","<img src=""img/set1/S2.jpg"" width=""540"" height = ""360"" style=""border:16px solid orange"">","null","","","","","","","",""
"null","","html-keyboard-response","342","1885750","0.0-342.0","","","null","","","","","","","",""
"799.4000000357628","","image-keyboard-response","343","1886551","0.0-343.0","","img/set1/S3.jpg","74","3","random","72","random,structured_load,structured_normal,structured_incentive","2,1,3,4,2,3","false","",""
"null","","html-keyboard-response","344","1886910","0.0-344.0","","<img src=""img/set1/S3.jpg"" width=""540"" height = ""360"">","null","","","","","","","",""
"null","","html-keyboard-response","345","1887120","0.0-345.0","","","null","","","","","","","",""
"917.5","","image-keyboard-response","346","1888039","0.0-346.0","","img/set1/S2.jpg","68","2","random","68","random,structured_load,structured_normal,structured_incentive","2,1,3,4,2,3","true","",""
"null","","html-keyboard-response","347","1888394","0.0-347.0","","<img src=""img/set1/S2.jpg"" width=""540"" height = ""360"" style=""border:16px solid orange"">","null","","","","","","","",""
"null","","html-keyboard-response","348","1888604","0.0-348.0","","","null","","","","","","","",""
"632.3000000119209","","image-keyboard-response","349","1889238","0.0-349.0","","img/set1/S2.jpg","68","2","random","68","random,structured_load,structured_normal,structured_incentive","2,1,3,4,2,3","true","",""
"null","","html-keyboard-response","350","1889593","0.0-350.0","","<img src=""img/set1/S2.jpg"" width=""540"" height = ""360"" style=""border:16px solid orange"">","null","","","","","","","",""
"null","","html-keyboard-response","351","1889804","0.0-351.0","","","null","","","","","","","",""
"697.8999999761581","","image-keyboard-response","352","1890503","0.0-352.0","","img/set1/S3.jpg","72","3","random","72","random,structured_load,structured_normal,structured_incentive","2,1,3,4,2,3","true","",""
"null","","html-keyboard-response","353","1890879","0.0-353.0","","<img src=""img/set1/S3.jpg"" width=""540"" height = ""360"" style=""border:16px solid orange"">","null","","","","","","","",""
"null","","html-keyboard-response","354","1891087","0.0-354.0","","","null","","","","","","","",""
"758.1000000238419","","image-keyboard-response","355","1891847","0.0-355.0","","img/set1/S2.jpg","68","2","random","68","random,structured_load,structured_normal,structured_incentive","2,1,3,4,2,3","true","",""
"null","","html-keyboard-response","356","1892211","0.0-356.0","","<img src=""img/set1/S2.jpg"" width=""540"" height = ""360"" style=""border:16px solid orange"">","null","","","","","","","",""
"null","","html-keyboard-response","357","1892419","0.0-357.0","","","null","","","","","","","",""
"753.3000000119209","","image-keyboard-response","358","1893174","0.0-358.0","","img/set1/S4.jpg","74","4","random","74","random,structured_load,structured_normal,structured_incentive","2,1,3,4,2,3","true","",""
"null","","html-keyboard-response","359","1893527","0.0-359.0","","<img src=""img/set1/S4.jpg"" width=""540"" height = ""360"" style=""border:16px solid orange"">","null","","","","","","","",""
"null","","html-keyboard-response","360","1893743","0.0-360.0","","","null","","","","","","","",""
"806.5999999642372","","image-keyboard-response","361","1894551","0.0-361.0","","img/set1/S2.jpg","68","2","random","68","random,structured_load,structured_normal,structured_incentive","2,1,3,4,2,3","true","",""
"null","","html-keyboard-response","362","1894910","0.0-362.0","","<img src=""img/set1/S2.jpg"" width=""540"" height = ""360"" style=""border:16px solid orange"">","null","","","","","","","",""
"null","","html-keyboard-response","363","1895121","0.0-363.0","","","null","","","","","","","",""
"21460.900000035763","","html-keyboard-response","364","1916583","0.0-364.0","","<p class=""center-content"">You have completed a block! </p><p class=""center-content"">Press any key on the keyboard to continue, </p><p class=""center-content"">or wait for the automatic progression to the next block after one minute.</p>","72","","","","","","","",""
"10807.600000023842","","instructions","365","1927393","0.0-365.0","[{""page_index"":0,""viewing_time"":10807.400000035763}]","","","","","","","","","",""
"35135.19999998808","","instructions","366","1962529","0.0-366.0","[{""page_index"":0,""viewing_time"":31575},{""page_index"":1,""viewing_time"":3560}]","","","","","","","","","",""
"1061.4000000357628","","image-keyboard-response","367","1963592","0.0-367.0","","img/set2/S2.jpg","83","2","structured_load","68","random,structured_load,structured_normal,structured_incentive","2,1,3,4,2,3","false","",""
"null","","html-keyboard-response","368","1963954","0.0-368.0","","<img src=""img/set2/S2.jpg"" width=""540"" height = ""360"">","null","","","","","","","",""
"null","","html-keyboard-response","369","1964165","0.0-369.0","","","null","","","","","","","",""
"1473","","image-keyboard-response","370","1965640","0.0-370.0","","img/set2/S1.jpg","74","1","structured_load","83","random,structured_load,structured_normal,structured_incentive","2,1,3,4,2,3","false","",""
"null","","html-keyboard-response","371","1966000","0.0-371.0","","<img src=""img/set2/S1.jpg"" width=""540"" height = ""360"">","null","","","","","","","",""
"null","","html-keyboard-response","372","1966216","0.0-372.0","","","null","","","","","","","",""
"718.3999999761581","","image-keyboard-response","373","1966936","0.0-373.0","","img/set2/S4.jpg","74","4","structured_load","74","random,structured_load,structured_normal,structured_incentive","2,1,3,4,2,3","true","",""
"null","","html-keyboard-response","374","1967289","0.0-374.0","","<img src=""img/set2/S4.jpg"" width=""540"" height = ""360"" style=""border:16px solid orange"">","null","","","","","","","",""
"null","","html-keyboard-response","375","1967499","0.0-375.0","","","null","","","","","","","",""
"651.2999999523163","","image-keyboard-response","376","1968152","0.0-376.0","","img/set2/S3.jpg","72","3","structured_load","72","random,structured_load,structured_normal,structured_incentive","2,1,3,4,2,3","true","",""
"null","","html-keyboard-response","377","1968508","0.0-377.0","","<img src=""img/set2/S3.jpg"" width=""540"" height = ""360"" style=""border:16px solid orange"">","null","","","","","","","",""
"null","","html-keyboard-response","378","1968727","0.0-378.0","","","null","","","","","","","",""
"656.7000000476837","","image-keyboard-response","379","1969385","0.0-379.0","","img/set2/S2.jpg","83","2","structured_load","68","random,structured_load,structured_normal,structured_incentive","2,1,3,4,2,3","false","",""
"null","","html-keyboard-response","380","1969741","0.0-380.0","","<img src=""img/set2/S2.jpg"" width=""540"" height = ""360"">","null","","","","","","","",""
"null","","html-keyboard-response","381","1969953","0.0-381.0","","","null","","","","","","","",""
"789.1000000238419","","image-keyboard-response","382","1970744","0.0-382.0","","img/set2/S1.jpg","68","1","structured_load","83","random,structured_load,structured_normal,structured_incentive","2,1,3,4,2,3","false","",""
"null","","html-keyboard-response","383","1971097","0.0-383.0","","<img src=""img/set2/S1.jpg"" width=""540"" height = ""360"">","null","","","","","","","",""
"null","","html-keyboard-response","384","1971299","0.0-384.0","","","null","","","","","","","",""
"803.1999999880791","","image-keyboard-response","385","1972104","0.0-385.0","","img/set2/S2.jpg","74","2","structured_load","68","random,structured_load,structured_normal,structured_incentive","2,1,3,4,2,3","false","",""
"null","","html-keyboard-response","386","1972457","0.0-386.0","","<img src=""img/set2/S2.jpg"" width=""540"" height = ""360"">","null","","","","","","","",""
"null","","html-keyboard-response","387","1972663","0.0-387.0","","","null","","","","","","","",""
"623.2000000476837","","image-keyboard-response","388","1973288","0.0-388.0","","img/set2/S1.jpg","72","1","structured_load","83","random,structured_load,structured_normal,structured_incentive","2,1,3,4,2,3","false","",""
"null","","html-keyboard-response","389","1973640","0.0-389.0","","<img src=""img/set2/S1.jpg"" width=""540"" height = ""360"">","null","","","","","","","",""
"null","","html-keyboard-response","390","1973848","0.0-390.0","","","null","","","","","","","",""
"190.69999998807907","","image-keyboard-response","391","1974041","0.0-391.0","","img/set2/S3.jpg","68","3","structured_load","72","random,structured_load,structured_normal,structured_incentive","2,1,3,4,2,3","false","",""
"null","","html-keyboard-response","392","1974405","0.0-392.0","","<img src=""img/set2/S3.jpg"" width=""540"" height = ""360"">","null","","","","","","","",""
"null","","html-keyboard-response","393","1974615","0.0-393.0","","","null","","","","","","","",""
"447.19999998807907","","image-keyboard-response","394","1975064","0.0-394.0","","img/set2/S3.jpg","72","3","structured_load","72","random,structured_load,structured_normal,structured_incentive","2,1,3,4,2,3","true","",""
"null","","html-keyboard-response","395","1975423","0.0-395.0","","<img src=""img/set2/S3.jpg"" width=""540"" height = ""360"" style=""border:16px solid orange"">","null","","","","","","","",""
"null","","html-keyboard-response","396","1975634","0.0-396.0","","","null","","","","","","","",""
"773.0999999642372","","image-keyboard-response","397","1976409","0.0-397.0","","img/set2/S4.jpg","74","4","structured_load","74","random,structured_load,structured_normal,structured_incentive","2,1,3,4,2,3","true","",""
"null","","html-keyboard-response","398","1976772","0.0-398.0","","<img src=""img/set2/S4.jpg"" width=""540"" height = ""360"" style=""border:16px solid orange"">","null","","","","","","","",""
"null","","html-keyboard-response","399","1976985","0.0-399.0","","","null","","","","","","","",""
"958.1999999880791","","image-keyboard-response","400","1977944","0.0-400.0","","img/set2/S2.jpg","68","2","structured_load","68","random,structured_load,structured_normal,structured_incentive","2,1,3,4,2,3","true","",""
"null","","html-keyboard-response","401","1978305","0.0-401.0","","<img src=""img/set2/S2.jpg"" width=""540"" height = ""360"" style=""border:16px solid orange"">","null","","","","","","","",""
"null","","html-keyboard-response","402","1978515","0.0-402.0","","","null","","","","","","","",""
"564.7000000476837","","image-keyboard-response","403","1979081","0.0-403.0","","img/set2/S1.jpg","83","1","structured_load","83","random,structured_load,structured_normal,structured_incentive","2,1,3,4,2,3","true","",""
"null","","html-keyboard-response","404","1979439","0.0-404.0","","<img src=""img/set2/S1.jpg"" width=""540"" height = ""360"" style=""border:16px solid orange"">","null","","","","","","","",""
"null","","html-keyboard-response","405","1979649","0.0-405.0","","","null","","","","","","","",""
"935.1999999880791","","image-keyboard-response","406","1980585","0.0-406.0","","img/set2/S3.jpg","74","3","structured_load","72","random,structured_load,structured_normal,structured_incentive","2,1,3,4,2,3","false","",""
"null","","html-keyboard-response","407","1980953","0.0-407.0","","<img src=""img/set2/S3.jpg"" width=""540"" height = ""360"">","null","","","","","","","",""
"null","","html-keyboard-response","408","1981165","0.0-408.0","","","null","","","","","","","",""
"715","","image-keyboard-response","409","1981882","0.0-409.0","","img/set2/S2.jpg","68","2","structured_load","68","random,structured_load,structured_normal,structured_incentive","2,1,3,4,2,3","true","",""
"null","","html-keyboard-response","410","1982239","0.0-410.0","","<img src=""img/set2/S2.jpg"" width=""540"" height = ""360"" style=""border:16px solid orange"">","null","","","","","","","",""
"null","","html-keyboard-response","411","1982448","0.0-411.0","","","null","","","","","","","",""
"1286.2000000476837","","image-keyboard-response","412","1983736","0.0-412.0","","img/set2/S1.jpg","83","1","structured_load","83","random,structured_load,structured_normal,structured_incentive","2,1,3,4,2,3","true","",""
"null","","html-keyboard-response","413","1984095","0.0-413.0","","<img src=""img/set2/S1.jpg"" width=""540"" height = ""360"" style=""border:16px solid orange"">","null","","","","","","","",""
"null","","html-keyboard-response","414","1984298","0.0-414.0","","","null","","","","","","","",""
"1723","","image-keyboard-response","415","1986023","0.0-415.0","","img/set2/S4.jpg","74","4","structured_load","74","random,structured_load,structured_normal,structured_incentive","2,1,3,4,2,3","true","",""
"null","","html-keyboard-response","416","1986389","0.0-416.0","","<img src=""img/set2/S4.jpg"" width=""540"" height = ""360"" style=""border:16px solid orange"">","null","","","","","","","",""
"null","","html-keyboard-response","417","1986599","0.0-417.0","","","null","","","","","","","",""
"1055.6000000238419","","image-keyboard-response","418","1987656","0.0-418.0","","img/set2/S2.jpg","72","2","structured_load","68","random,structured_load,structured_normal,structured_incentive","2,1,3,4,2,3","false","",""
"null","","html-keyboard-response","419","1988021","0.0-419.0","","<img src=""img/set2/S2.jpg"" width=""540"" height = ""360"">","null","","","","","","","",""
"null","","html-keyboard-response","420","1988233","0.0-420.0","","","null","","","","","","","",""
"1261.7000000476837","","image-keyboard-response","421","1989496","0.0-421.0","","img/set2/S1.jpg","83","1","structured_load","83","random,structured_load,structured_normal,structured_incentive","2,1,3,4,2,3","true","",""
"null","","html-keyboard-response","422","1989855","0.0-422.0","","<img src=""img/set2/S1.jpg"" width=""540"" height = ""360"" style=""border:16px solid orange"">","null","","","","","","","",""
"null","","html-keyboard-response","423","1990065","0.0-423.0","","","null","","","","","","","",""
"1685.5999999642372","","image-keyboard-response","424","1991752","0.0-424.0","","img/set2/S3.jpg","68","3","structured_load","72","random,structured_load,structured_normal,structured_incentive","2,1,3,4,2,3","false","",""
"null","","html-keyboard-response","425","1992106","0.0-425.0","","<img src=""img/set2/S3.jpg"" width=""540"" height = ""360"">","null","","","","","","","",""
"null","","html-keyboard-response","426","1992315","0.0-426.0","","","null","","","","","","","",""
"875.8000000119209","","image-keyboard-response","427","1993193","0.0-427.0","","img/set2/S4.jpg","74","4","structured_load","74","random,structured_load,structured_normal,structured_incentive","2,1,3,4,2,3","true","",""
"null","","html-keyboard-response","428","1993555","0.0-428.0","","<img src=""img/set2/S4.jpg"" width=""540"" height = ""360"" style=""border:16px solid orange"">","null","","","","","","","",""
"null","","html-keyboard-response","429","1993765","0.0-429.0","","","null","","","","","","","",""
"1121.699999988079","","image-keyboard-response","430","1994888","0.0-430.0","","img/set2/S3.jpg","72","3","structured_load","72","random,structured_load,structured_normal,structured_incentive","2,1,3,4,2,3","true","",""
"null","","html-keyboard-response","431","1995255","0.0-431.0","","<img src=""img/set2/S3.jpg"" width=""540"" height = ""360"" style=""border:16px solid orange"">","null","","","","","","","",""
"null","","html-keyboard-response","432","1995465","0.0-432.0","","","null","","","","","","","",""
"717.9000000357628","","image-keyboard-response","433","1996185","0.0-433.0","","img/set2/S4.jpg","74","4","structured_load","74","random,structured_load,structured_normal,structured_incentive","2,1,3,4,2,3","true","",""
"null","","html-keyboard-response","434","1996539","0.0-434.0","","<img src=""img/set2/S4.jpg"" width=""540"" height = ""360"" style=""border:16px solid orange"">","null","","","","","","","",""
"null","","html-keyboard-response","435","1996748","0.0-435.0","","","null","","","","","","","",""
"1470.2999999523163","","image-keyboard-response","436","1998220","0.0-436.0","","img/set2/S2.jpg","83","2","structured_load","68","random,structured_load,structured_normal,structured_incentive","2,1,3,4,2,3","false","",""
"null","","html-keyboard-response","437","1998587","0.0-437.0","","<img src=""img/set2/S2.jpg"" width=""540"" height = ""360"">","null","","","","","","","",""
"null","","html-keyboard-response","438","1998799","0.0-438.0","","","null","","","","","","","",""
"760.6999999880791","","image-keyboard-response","439","1999561","0.0-439.0","","img/set2/S1.jpg","83","1","structured_load","83","random,structured_load,structured_normal,structured_incentive","2,1,3,4,2,3","true","",""
"null","","html-keyboard-response","440","1999921","0.0-440.0","","<img src=""img/set2/S1.jpg"" width=""540"" height = ""360"" style=""border:16px solid orange"">","null","","","","","","","",""
"null","","html-keyboard-response","441","2000132","0.0-441.0","","","null","","","","","","","",""
"1459.699999988079","","image-keyboard-response","442","2001593","0.0-442.0","","img/set2/S4.jpg","68","4","structured_load","74","random,structured_load,structured_normal,structured_incentive","2,1,3,4,2,3","false","",""
"null","","html-keyboard-response","443","2001954","0.0-443.0","","<img src=""img/set2/S4.jpg"" width=""540"" height = ""360"">","null","","","","","","","",""
"null","","html-keyboard-response","444","2002164","0.0-444.0","","","null","","","","","","","",""
"499.80000001192093","","image-keyboard-response","445","2002665","0.0-445.0","","img/set2/S4.jpg","72","4","structured_load","74","random,structured_load,structured_normal,structured_incentive","2,1,3,4,2,3","false","",""
"null","","html-keyboard-response","446","2003021","0.0-446.0","","<img src=""img/set2/S4.jpg"" width=""540"" height = ""360"">","null","","","","","","","",""
"null","","html-keyboard-response","447","2003232","0.0-447.0","","","null","","","","","","","",""
"87.10000002384186","","image-keyboard-response","448","2003321","0.0-448.0","","img/set2/S4.jpg","74","4","structured_load","74","random,structured_load,structured_normal,structured_incentive","2,1,3,4,2,3","true","",""
"null","","html-keyboard-response","449","2003687","0.0-449.0","","<img src=""img/set2/S4.jpg"" width=""540"" height = ""360"" style=""border:16px solid orange"">","null","","","","","","","",""
"null","","html-keyboard-response","450","2003897","0.0-450.0","","","null","","","","","","","",""
"1661.7999999523163","","image-keyboard-response","451","2005561","0.0-451.0","","img/set2/S2.jpg","72","2","structured_load","68","random,structured_load,structured_normal,structured_incentive","2,1,3,4,2,3","false","",""
"null","","html-keyboard-response","452","2005921","0.0-452.0","","<img src=""img/set2/S2.jpg"" width=""540"" height = ""360"">","null","","","","","","","",""
"null","","html-keyboard-response","453","2006130","0.0-453.0","","","null","","","","","","","",""
"740.5","","image-keyboard-response","454","2006873","0.0-454.0","","img/set2/S1.jpg","83","1","structured_load","83","random,structured_load,structured_normal,structured_incentive","2,1,3,4,2,3","true","",""
"null","","html-keyboard-response","455","2007238","0.0-455.0","","<img src=""img/set2/S1.jpg"" width=""540"" height = ""360"" style=""border:16px solid orange"">","null","","","","","","","",""
"null","","html-keyboard-response","456","2007448","0.0-456.0","","","null","","","","","","","",""
"815.3999999761581","","image-keyboard-response","457","2008265","0.0-457.0","","img/set2/S4.jpg","74","4","structured_load","74","random,structured_load,structured_normal,structured_incentive","2,1,3,4,2,3","true","",""
"null","","html-keyboard-response","458","2008622","0.0-458.0","","<img src=""img/set2/S4.jpg"" width=""540"" height = ""360"" style=""border:16px solid orange"">","null","","","","","","","",""
"null","","html-keyboard-response","459","2008831","0.0-459.0","","","null","","","","","","","",""
"1255","","image-keyboard-response","460","2010088","0.0-460.0","","img/set2/S3.jpg","68","3","structured_load","72","random,structured_load,structured_normal,structured_incentive","2,1,3,4,2,3","false","",""
"null","","html-keyboard-response","461","2010454","0.0-461.0","","<img src=""img/set2/S3.jpg"" width=""540"" height = ""360"">","null","","","","","","","",""
"null","","html-keyboard-response","462","2010664","0.0-462.0","","","null","","","","","","","",""
"815.3999999761581","","image-keyboard-response","463","2011481","0.0-463.0","","img/set2/S4.jpg","74","4","structured_load","74","random,structured_load,structured_normal,structured_incentive","2,1,3,4,2,3","true","",""
"null","","html-keyboard-response","464","2011838","0.0-464.0","","<img src=""img/set2/S4.jpg"" width=""540"" height = ""360"" style=""border:16px solid orange"">","null","","","","","","","",""
"null","","html-keyboard-response","465","2012047","0.0-465.0","","","null","","","","","","","",""
"1016.9000000357628","","image-keyboard-response","466","2013065","0.0-466.0","","img/set2/S4.jpg","74","4","structured_load","74","random,structured_load,structured_normal,structured_incentive","2,1,3,4,2,3","true","",""
"null","","html-keyboard-response","467","2013421","0.0-467.0","","<img src=""img/set2/S4.jpg"" width=""540"" height = ""360"" style=""border:16px solid orange"">","null","","","","","","","",""
"null","","html-keyboard-response","468","2013631","0.0-468.0","","","null","","","","","","","",""
"935.8999999761581","","image-keyboard-response","469","2014569","0.0-469.0","","img/set2/S2.jpg","83","2","structured_load","68","random,structured_load,structured_normal,structured_incentive","2,1,3,4,2,3","false","",""
"null","","html-keyboard-response","470","2014937","0.0-470.0","","<img src=""img/set2/S2.jpg"" width=""540"" height = ""360"">","null","","","","","","","",""
"null","","html-keyboard-response","471","2015146","0.0-471.0","","","null","","","","","","","",""
"1756.1000000238419","","image-keyboard-response","472","2016904","0.0-472.0","","img/set2/S1.jpg","83","1","structured_load","83","random,structured_load,structured_normal,structured_incentive","2,1,3,4,2,3","true","",""
"null","","html-keyboard-response","473","2017270","0.0-473.0","","<img src=""img/set2/S1.jpg"" width=""540"" height = ""360"" style=""border:16px solid orange"">","null","","","","","","","",""
"null","","html-keyboard-response","474","2017480","0.0-474.0","","","null","","","","","","","",""
"895.1000000238419","","image-keyboard-response","475","2018377","0.0-475.0","","img/set2/S3.jpg","68","3","structured_load","72","random,structured_load,structured_normal,structured_incentive","2,1,3,4,2,3","false","",""
"null","","html-keyboard-response","476","2018738","0.0-476.0","","<img src=""img/set2/S3.jpg"" width=""540"" height = ""360"">","null","","","","","","","",""
"null","","html-keyboard-response","477","2018946","0.0-477.0","","","null","","","","","","","",""
"1252.699999988079","","image-keyboard-response","478","2020201","0.0-478.0","","img/set2/S3.jpg","72","3","structured_load","72","random,structured_load,structured_normal,structured_incentive","2,1,3,4,2,3","true","",""
"null","","html-keyboard-response","479","2020554","0.0-479.0","","<img src=""img/set2/S3.jpg"" width=""540"" height = ""360"" style=""border:16px solid orange"">","null","","","","","","","",""
"null","","html-keyboard-response","480","2020764","0.0-480.0","","","null","","","","","","","",""
"938.3999999761581","","image-keyboard-response","481","2021704","0.0-481.0","","img/set2/S2.jpg","83","2","structured_load","68","random,structured_load,structured_normal,structured_incentive","2,1,3,4,2,3","false","",""
"null","","html-keyboard-response","482","2022069","0.0-482.0","","<img src=""img/set2/S2.jpg"" width=""540"" height = ""360"">","null","","","","","","","",""
"null","","html-keyboard-response","483","2022279","0.0-483.0","","","null","","","","","","","",""
"799.5","","image-keyboard-response","484","2023080","0.0-484.0","","img/set2/S1.jpg","83","1","structured_load","83","random,structured_load,structured_normal,structured_incentive","2,1,3,4,2,3","true","",""
"null","","html-keyboard-response","485","2023436","0.0-485.0","","<img src=""img/set2/S1.jpg"" width=""540"" height = ""360"" style=""border:16px solid orange"">","null","","","","","","","",""
"null","","html-keyboard-response","486","2023648","0.0-486.0","","","null","","","","","","","",""
"1303.199999988079","","image-keyboard-response","487","2024953","0.0-487.0","","img/set2/S4.jpg","74","4","structured_load","74","random,structured_load,structured_normal,structured_incentive","2,1,3,4,2,3","true","",""
"null","","html-keyboard-response","488","2025319","0.0-488.0","","<img src=""img/set2/S4.jpg"" width=""540"" height = ""360"" style=""border:16px solid orange"">","null","","","","","","","",""
"null","","html-keyboard-response","489","2025530","0.0-489.0","","","null","","","","","","","",""
"1088.6000000238419","","image-keyboard-response","490","2026620","0.0-490.0","","img/set2/S2.jpg","83","2","structured_load","68","random,structured_load,structured_normal,structured_incentive","2,1,3,4,2,3","false","",""
"null","","html-keyboard-response","491","2026981","0.0-491.0","","<img src=""img/set2/S2.jpg"" width=""540"" height = ""360"">","null","","","","","","","",""
"null","","html-keyboard-response","492","2027195","0.0-492.0","","","null","","","","","","","",""
"731.5","","image-keyboard-response","493","2027928","0.0-493.0","","img/set2/S1.jpg","83","1","structured_load","83","random,structured_load,structured_normal,structured_incentive","2,1,3,4,2,3","true","",""
"null","","html-keyboard-response","494","2028286","0.0-494.0","","<img src=""img/set2/S1.jpg"" width=""540"" height = ""360"" style=""border:16px solid orange"">","null","","","","","","","",""
"null","","html-keyboard-response","495","2028495","0.0-495.0","","","null","","","","","","","",""
"758.8000000119209","","image-keyboard-response","496","2029255","0.0-496.0","","img/set2/S3.jpg","72","3","structured_load","72","random,structured_load,structured_normal,structured_incentive","2,1,3,4,2,3","true","",""
"null","","html-keyboard-response","497","2029619","0.0-497.0","","<img src=""img/set2/S3.jpg"" width=""540"" height = ""360"" style=""border:16px solid orange"">","null","","","","","","","",""
"null","","html-keyboard-response","498","2029831","0.0-498.0","","","null","","","","","","","",""
"2335.199999988079","","image-keyboard-response","499","2032168","0.0-499.0","","img/set2/S2.jpg","72","2","structured_load","68","random,structured_load,structured_normal,structured_incentive","2,1,3,4,2,3","false","",""
"null","","html-keyboard-response","500","2032535","0.0-500.0","","<img src=""img/set2/S2.jpg"" width=""540"" height = ""360"">","null","","","","","","","",""
"null","","html-keyboard-response","501","2032737","0.0-501.0","","","null","","","","","","","",""
"758.6000000238419","","image-keyboard-response","502","2033497","0.0-502.0","","img/set2/S1.jpg","83","1","structured_load","83","random,structured_load,structured_normal,structured_incentive","2,1,3,4,2,3","true","",""
"null","","html-keyboard-response","503","2033861","0.0-503.0","","<img src=""img/set2/S1.jpg"" width=""540"" height = ""360"" style=""border:16px solid orange"">","null","","","","","","","",""
"null","","html-keyboard-response","504","2034077","0.0-504.0","","","null","","","","","","","",""
"792.6000000238419","","image-keyboard-response","505","2034871","0.0-505.0","","img/set2/S3.jpg","72","3","structured_load","72","random,structured_load,structured_normal,structured_incentive","2,1,3,4,2,3","true","",""
"null","","html-keyboard-response","506","2035236","0.0-506.0","","<img src=""img/set2/S3.jpg"" width=""540"" height = ""360"" style=""border:16px solid orange"">","null","","","","","","","",""
"null","","html-keyboard-response","507","2035445","0.0-507.0","","","null","","","","","","","",""
"802.1999999880791","","image-keyboard-response","508","2036249","0.0-508.0","","img/set2/S3.jpg","72","3","structured_load","72","random,structured_load,structured_normal,structured_incentive","2,1,3,4,2,3","true","",""
"null","","html-keyboard-response","509","2036603","0.0-509.0","","<img src=""img/set2/S3.jpg"" width=""540"" height = ""360"" style=""border:16px solid orange"">","null","","","","","","","",""
"null","","html-keyboard-response","510","2036815","0.0-510.0","","","null","","","","","","","",""
"485.7999999523163","","image-keyboard-response","511","2037305","0.0-511.0","","img/set2/S3.jpg","72","3","structured_load","72","random,structured_load,structured_normal,structured_incentive","2,1,3,4,2,3","true","",""
"null","","html-keyboard-response","512","2037668","0.0-512.0","","<img src=""img/set2/S3.jpg"" width=""540"" height = ""360"" style=""border:16px solid orange"">","null","","","","","","","",""
"null","","html-keyboard-response","513","2037878","0.0-513.0","","","null","","","","","","","",""
"1024.3999999761581","","image-keyboard-response","514","2038904","0.0-514.0","","img/set2/S2.jpg","83","2","structured_load","68","random,structured_load,structured_normal,structured_incentive","2,1,3,4,2,3","false","",""
"null","","html-keyboard-response","515","2039268","0.0-515.0","","<img src=""img/set2/S2.jpg"" width=""540"" height = ""360"">","null","","","","","","","",""
"null","","html-keyboard-response","516","2039479","0.0-516.0","","","null","","","","","","","",""
"752.6000000238419","","image-keyboard-response","517","2040234","0.0-517.0","","img/set2/S1.jpg","83","1","structured_load","83","random,structured_load,structured_normal,structured_incentive","2,1,3,4,2,3","true","",""
"null","","html-keyboard-response","518","2040601","0.0-518.0","","<img src=""img/set2/S1.jpg"" width=""540"" height = ""360"" style=""border:16px solid orange"">","null","","","","","","","",""
"null","","html-keyboard-response","519","2040814","0.0-519.0","","","null","","","","","","","",""
"569.5","","image-keyboard-response","520","2041385","0.0-520.0","","img/set2/S2.jpg","68","2","structured_load","68","random,structured_load,structured_normal,structured_incentive","2,1,3,4,2,3","true","",""
"null","","html-keyboard-response","521","2041753","0.0-521.0","","<img src=""img/set2/S2.jpg"" width=""540"" height = ""360"" style=""border:16px solid orange"">","null","","","","","","","",""
"null","","html-keyboard-response","522","2041966","0.0-522.0","","","null","","","","","","","",""
"1273.5","","image-keyboard-response","523","2043241","0.0-523.0","","img/set2/S1.jpg","83","1","structured_load","83","random,structured_load,structured_normal,structured_incentive","2,1,3,4,2,3","true","",""
"null","","html-keyboard-response","524","2043601","0.0-524.0","","<img src=""img/set2/S1.jpg"" width=""540"" height = ""360"" style=""border:16px solid orange"">","null","","","","","","","",""
"null","","html-keyboard-response","525","2043813","0.0-525.0","","","null","","","","","","","",""
"754.3000000119209","","image-keyboard-response","526","2044569","0.0-526.0","","img/set2/S2.jpg","68","2","structured_load","68","random,structured_load,structured_normal,structured_incentive","2,1,3,4,2,3","true","",""
"null","","html-keyboard-response","527","2044935","0.0-527.0","","<img src=""img/set2/S2.jpg"" width=""540"" height = ""360"" style=""border:16px solid orange"">","null","","","","","","","",""
"null","","html-keyboard-response","528","2045145","0.0-528.0","","","null","","","","","","","",""
"701.2000000476837","","image-keyboard-response","529","2045848","0.0-529.0","","img/set2/S1.jpg","83","1","structured_load","83","random,structured_load,structured_normal,structured_incentive","2,1,3,4,2,3","true","",""
"null","","html-keyboard-response","530","2046201","0.0-530.0","","<img src=""img/set2/S1.jpg"" width=""540"" height = ""360"" style=""border:16px solid orange"">","null","","","","","","","",""
"null","","html-keyboard-response","531","2046413","0.0-531.0","","","null","","","","","","","",""
"843","","image-keyboard-response","532","2047257","0.0-532.0","","img/set2/S2.jpg","68","2","structured_load","68","random,structured_load,structured_normal,structured_incentive","2,1,3,4,2,3","true","",""
"null","","html-keyboard-response","533","2047618","0.0-533.0","","<img src=""img/set2/S2.jpg"" width=""540"" height = ""360"" style=""border:16px solid orange"">","null","","","","","","","",""
"null","","html-keyboard-response","534","2047830","0.0-534.0","","","null","","","","","","","",""
"657","","image-keyboard-response","535","2048489","0.0-535.0","","img/set2/S1.jpg","83","1","structured_load","83","random,structured_load,structured_normal,structured_incentive","2,1,3,4,2,3","true","",""
"null","","html-keyboard-response","536","2048845","0.0-536.0","","<img src=""img/set2/S1.jpg"" width=""540"" height = ""360"" style=""border:16px solid orange"">","null","","","","","","","",""
"null","","html-keyboard-response","537","2049060","0.0-537.0","","","null","","","","","","","",""
"818.4000000357628","","image-keyboard-response","538","2049881","0.0-538.0","","img/set2/S3.jpg","72","3","structured_load","72","random,structured_load,structured_normal,structured_incentive","2,1,3,4,2,3","true","",""
"null","","html-keyboard-response","539","2050236","0.0-539.0","","<img src=""img/set2/S3.jpg"" width=""540"" height = ""360"" style=""border:16px solid orange"">","null","","","","","","","",""
"null","","html-keyboard-response","540","2050445","0.0-540.0","","","null","","","","","","","",""
"490.80000001192093","","image-keyboard-response","541","2050937","0.0-541.0","","img/set2/S3.jpg","72","3","structured_load","72","random,structured_load,structured_normal,structured_incentive","2,1,3,4,2,3","true","",""
"null","","html-keyboard-response","542","2051301","0.0-542.0","","<img src=""img/set2/S3.jpg"" width=""540"" height = ""360"" style=""border:16px solid orange"">","null","","","","","","","",""
"null","","html-keyboard-response","543","2051512","0.0-543.0","","","null","","","","","","","",""
"479.4000000357628","","image-keyboard-response","544","2051993","0.0-544.0","","img/set2/S3.jpg","72","3","structured_load","72","random,structured_load,structured_normal,structured_incentive","2,1,3,4,2,3","true","",""
"null","","html-keyboard-response","545","2052352","0.0-545.0","","<img src=""img/set2/S3.jpg"" width=""540"" height = ""360"" style=""border:16px solid orange"">","null","","","","","","","",""
"null","","html-keyboard-response","546","2052561","0.0-546.0","","","null","","","","","","","",""
"1462.1000000238419","","image-keyboard-response","547","2054025","0.0-547.0","","img/set2/S2.jpg","83","2","structured_load","68","random,structured_load,structured_normal,structured_incentive","2,1,3,4,2,3","false","",""
"null","","html-keyboard-response","548","2054385","0.0-548.0","","<img src=""img/set2/S2.jpg"" width=""540"" height = ""360"">","null","","","","","","","",""
"null","","html-keyboard-response","549","2054595","0.0-549.0","","","null","","","","","","","",""
"613.1000000238419","","image-keyboard-response","550","2055209","0.0-550.0","","img/set2/S1.jpg","83","1","structured_load","83","random,structured_load,structured_normal,structured_incentive","2,1,3,4,2,3","true","",""
"null","","html-keyboard-response","551","2055568","0.0-551.0","","<img src=""img/set2/S1.jpg"" width=""540"" height = ""360"" style=""border:16px solid orange"">","null","","","","","","","",""
"null","","html-keyboard-response","552","2055782","0.0-552.0","","","null","","","","","","","",""
"721.8999999761581","","image-keyboard-response","553","2056505","0.0-553.0","","img/set2/S3.jpg","72","3","structured_load","72","random,structured_load,structured_normal,structured_incentive","2,1,3,4,2,3","true","",""
"null","","html-keyboard-response","554","2056861","0.0-554.0","","<img src=""img/set2/S3.jpg"" width=""540"" height = ""360"" style=""border:16px solid orange"">","null","","","","","","","",""
"null","","html-keyboard-response","555","2057077","0.0-555.0","","","null","","","","","","","",""
"1250.300000011921","","image-keyboard-response","556","2058329","0.0-556.0","","img/set2/S4.jpg","74","4","structured_load","74","random,structured_load,structured_normal,structured_incentive","2,1,3,4,2,3","true","",""
"null","","html-keyboard-response","557","2058685","0.0-557.0","","<img src=""img/set2/S4.jpg"" width=""540"" height = ""360"" style=""border:16px solid orange"">","null","","","","","","","",""
"null","","html-keyboard-response","558","2058888","0.0-558.0","","","null","","","","","","","",""
"1279.0999999642372","","image-keyboard-response","559","2060169","0.0-559.0","","img/set2/S2.jpg","68","2","structured_load","68","random,structured_load,structured_normal,structured_incentive","2,1,3,4,2,3","true","",""
"null","","html-keyboard-response","560","2060534","0.0-560.0","","<img src=""img/set2/S2.jpg"" width=""540"" height = ""360"" style=""border:16px solid orange"">","null","","","","","","","",""
"null","","html-keyboard-response","561","2060751","0.0-561.0","","","null","","","","","","","",""
"791.8000000119209","","image-keyboard-response","562","2061544","0.0-562.0","","img/set2/S1.jpg","83","1","structured_load","83","random,structured_load,structured_normal,structured_incentive","2,1,3,4,2,3","true","",""
"null","","html-keyboard-response","563","2061903","0.0-563.0","","<img src=""img/set2/S1.jpg"" width=""540"" height = ""360"" style=""border:16px solid orange"">","null","","","","","","","",""
"null","","html-keyboard-response","564","2062111","0.0-564.0","","","null","","","","","","","",""
"839.3000000119209","","image-keyboard-response","565","2062953","0.0-565.0","","img/set2/S3.jpg","72","3","structured_load","72","random,structured_load,structured_normal,structured_incentive","2,1,3,4,2,3","true","",""
"null","","html-keyboard-response","566","2063318","0.0-566.0","","<img src=""img/set2/S3.jpg"" width=""540"" height = ""360"" style=""border:16px solid orange"">","null","","","","","","","",""
"null","","html-keyboard-response","567","2063526","0.0-567.0","","","null","","","","","","","",""
"1136.9000000357628","","image-keyboard-response","568","2064664","0.0-568.0","","img/set2/S4.jpg","74","4","structured_load","74","random,structured_load,structured_normal,structured_incentive","2,1,3,4,2,3","true","",""
"null","","html-keyboard-response","569","2065027","0.0-569.0","","<img src=""img/set2/S4.jpg"" width=""540"" height = ""360"" style=""border:16px solid orange"">","null","","","","","","","",""
"null","","html-keyboard-response","570","2065243","0.0-570.0","","","null","","","","","","","",""
"924.1000000238419","","image-keyboard-response","571","2066169","0.0-571.0","","img/set2/S2.jpg","83","2","structured_load","68","random,structured_load,structured_normal,structured_incentive","2,1,3,4,2,3","false","",""
"null","","html-keyboard-response","572","2066535","0.0-572.0","","<img src=""img/set2/S2.jpg"" width=""540"" height = ""360"">","null","","","","","","","",""
"null","","html-keyboard-response","573","2066751","0.0-573.0","","","null","","","","","","","",""
"1096.2000000476837","","image-keyboard-response","574","2067848","0.0-574.0","","img/set2/S1.jpg","83","1","structured_load","83","random,structured_load,structured_normal,structured_incentive","2,1,3,4,2,3","true","",""
"null","","html-keyboard-response","575","2068201","0.0-575.0","","<img src=""img/set2/S1.jpg"" width=""540"" height = ""360"" style=""border:16px solid orange"">","null","","","","","","","",""
"null","","html-keyboard-response","576","2068410","0.0-576.0","","","null","","","","","","","",""
"876.5","","image-keyboard-response","577","2069288","0.0-577.0","","img/set2/S2.jpg","68","2","structured_load","68","random,structured_load,structured_normal,structured_incentive","2,1,3,4,2,3","true","",""
"null","","html-keyboard-response","578","2069651","0.0-578.0","","<img src=""img/set2/S2.jpg"" width=""540"" height = ""360"" style=""border:16px solid orange"">","null","","","","","","","",""
"null","","html-keyboard-response","579","2069861","0.0-579.0","","","null","","","","","","","",""
"658.5","","image-keyboard-response","580","2070521","0.0-580.0","","img/set2/S1.jpg","83","1","structured_load","83","random,structured_load,structured_normal,structured_incentive","2,1,3,4,2,3","true","",""
"null","","html-keyboard-response","581","2070887","0.0-581.0","","<img src=""img/set2/S1.jpg"" width=""540"" height = ""360"" style=""border:16px solid orange"">","null","","","","","","","",""
"null","","html-keyboard-response","582","2071094","0.0-582.0","","","null","","","","","","","",""
"1649.1000000238419","","image-keyboard-response","583","2072744","0.0-583.0","","img/set2/S2.jpg","68","2","structured_load","68","random,structured_load,structured_normal,structured_incentive","2,1,3,4,2,3","true","",""
"null","","html-keyboard-response","584","2073107","0.0-584.0","","<img src=""img/set2/S2.jpg"" width=""540"" height = ""360"" style=""border:16px solid orange"">","null","","","","","","","",""
"null","","html-keyboard-response","585","2073310","0.0-585.0","","","null","","","","","","","",""
"1384.300000011921","","image-keyboard-response","586","2074695","0.0-586.0","","img/set2/S1.jpg","83","1","structured_load","83","random,structured_load,structured_normal,structured_incentive","2,1,3,4,2,3","true","",""
"null","","html-keyboard-response","587","2075059","0.0-587.0","","<img src=""img/set2/S1.jpg"" width=""540"" height = ""360"" style=""border:16px solid orange"">","null","","","","","","","",""
"null","","html-keyboard-response","588","2075276","0.0-588.0","","","null","","","","","","","",""
"891.5999999642372","","image-keyboard-response","589","2076169","0.0-589.0","","img/set2/S3.jpg","72","3","structured_load","72","random,structured_load,structured_normal,structured_incentive","2,1,3,4,2,3","true","",""
"null","","html-keyboard-response","590","2076533","0.0-590.0","","<img src=""img/set2/S3.jpg"" width=""540"" height = ""360"" style=""border:16px solid orange"">","null","","","","","","","",""
"null","","html-keyboard-response","591","2076751","0.0-591.0","","","null","","","","","","","",""
"null","","image-keyboard-response","592","2079262","0.0-592.0","","img/set2/S3.jpg","null","3","structured_load","72","random,structured_load,structured_normal,structured_incentive","2,1,3,4,2,3","false","",""
