"rt","url","trial_type","trial_index","time_elapsed","internal_node_id","assignmentID","mturkID","hitID","view_history","stimulus","key_press","state","test_part","correct_response","order_block","order_chunk","order_freq","correct","responses","question_order","bonus"
"43606","consent.html","external-html","0","43683","0.0-0.0","333U7HK6IA1CFHJRWZ2JM4OOMRSJD6","A2ATBS6XTIZE89","3GVPRXWRPHGYHD0HW29VLS36FVC7I4","","","","","","","","","","","","",""
"106205","","instructions","1","149891","0.0-1.0","333U7HK6IA1CFHJRWZ2JM4OOMRSJD6","A2ATBS6XTIZE89","3GVPRXWRPHGYHD0HW29VLS36FVC7I4","[{""page_index"":0,""viewing_time"":7533},{""page_index"":1,""viewing_time"":14904},{""page_index"":2,""viewing_time"":25711},{""page_index"":3,""viewing_time"":14161},{""page_index"":4,""viewing_time"":12840},{""page_index"":5,""viewing_time"":17879},{""page_index"":4,""viewing_time"":1504},{""page_index"":5,""viewing_time"":1105},{""page_index"":6,""viewing_time"":10568}]","","","","","","","","","","","",""
"13902","","instructions","2","163794","0.0-2.0","333U7HK6IA1CFHJRWZ2JM4OOMRSJD6","A2ATBS6XTIZE89","3GVPRXWRPHGYHD0HW29VLS36FVC7I4","[{""page_index"":0,""viewing_time"":13902}]","","","","","","","","","","","",""
"8255","","instructions","3","172050","0.0-3.0","333U7HK6IA1CFHJRWZ2JM4OOMRSJD6","A2ATBS6XTIZE89","3GVPRXWRPHGYHD0HW29VLS36FVC7I4","[{""page_index"":0,""viewing_time"":8254}]","","","","","","","","","","","",""
"569","","image-keyboard-response","4","172621","0.0-4.0","333U7HK6IA1CFHJRWZ2JM4OOMRSJD6","A2ATBS6XTIZE89","3GVPRXWRPHGYHD0HW29VLS36FVC7I4","","img/set1/S1.jpg","83","1","structured_normal","83","structured_normal,structured_incentive,structured_load,random","2,3,4,2,1,2","4,1,2,3","true","","",""
"null","","html-keyboard-response","5","172976","0.0-5.0","333U7HK6IA1CFHJRWZ2JM4OOMRSJD6","A2ATBS6XTIZE89","3GVPRXWRPHGYHD0HW29VLS36FVC7I4","","<img src=""img/set1/S1.jpg"" width=""540"" height = ""360"" style=""border:16px solid orange"">","null","","","","","","","","","",""
"null","","html-keyboard-response","6","173198","0.0-6.0","333U7HK6IA1CFHJRWZ2JM4OOMRSJD6","A2ATBS6XTIZE89","3GVPRXWRPHGYHD0HW29VLS36FVC7I4","","","null","","","","","","","","","",""
"962","","image-keyboard-response","7","174162","0.0-7.0","333U7HK6IA1CFHJRWZ2JM4OOMRSJD6","A2ATBS6XTIZE89","3GVPRXWRPHGYHD0HW29VLS36FVC7I4","","img/set1/S1.jpg","83","1","structured_normal","83","structured_normal,structured_incentive,structured_load,random","2,3,4,2,1,2","4,1,2,3","true","","",""
"null","","html-keyboard-response","8","174517","0.0-8.0","333U7HK6IA1CFHJRWZ2JM4OOMRSJD6","A2ATBS6XTIZE89","3GVPRXWRPHGYHD0HW29VLS36FVC7I4","","<img src=""img/set1/S1.jpg"" width=""540"" height = ""360"" style=""border:16px solid orange"">","null","","","","","","","","","",""
"null","","html-keyboard-response","9","174737","0.0-9.0","333U7HK6IA1CFHJRWZ2JM4OOMRSJD6","A2ATBS6XTIZE89","3GVPRXWRPHGYHD0HW29VLS36FVC7I4","","","null","","","","","","","","","",""
"672","","image-keyboard-response","10","175413","0.0-10.0","333U7HK6IA1CFHJRWZ2JM4OOMRSJD6","A2ATBS6XTIZE89","3GVPRXWRPHGYHD0HW29VLS36FVC7I4","","img/set1/S2.jpg","68","2","structured_normal","68","structured_normal,structured_incentive,structured_load,random","2,3,4,2,1,2","4,1,2,3","true","","",""
"null","","html-keyboard-response","11","175776","0.0-11.0","333U7HK6IA1CFHJRWZ2JM4OOMRSJD6","A2ATBS6XTIZE89","3GVPRXWRPHGYHD0HW29VLS36FVC7I4","","<img src=""img/set1/S2.jpg"" width=""540"" height = ""360"" style=""border:16px solid orange"">","null","","","","","","","","","",""
"null","","html-keyboard-response","12","175998","0.0-12.0","333U7HK6IA1CFHJRWZ2JM4OOMRSJD6","A2ATBS6XTIZE89","3GVPRXWRPHGYHD0HW29VLS36FVC7I4","","","null","","","","","","","","","",""
"755","","image-keyboard-response","13","176754","0.0-13.0","333U7HK6IA1CFHJRWZ2JM4OOMRSJD6","A2ATBS6XTIZE89","3GVPRXWRPHGYHD0HW29VLS36FVC7I4","","img/set1/S3.jpg","74","3","structured_normal","72","structured_normal,structured_incentive,structured_load,random","2,3,4,2,1,2","4,1,2,3","false","","",""
"null","","html-keyboard-response","14","177118","0.0-14.0","333U7HK6IA1CFHJRWZ2JM4OOMRSJD6","A2ATBS6XTIZE89","3GVPRXWRPHGYHD0HW29VLS36FVC7I4","","<img src=""img/set1/S3.jpg"" width=""540"" height = ""360"">","null","","","","","","","","","",""
"null","","html-keyboard-response","15","177338","0.0-15.0","333U7HK6IA1CFHJRWZ2JM4OOMRSJD6","A2ATBS6XTIZE89","3GVPRXWRPHGYHD0HW29VLS36FVC7I4","","","null","","","","","","","","","",""
"1800","","image-keyboard-response","16","179141","0.0-16.0","333U7HK6IA1CFHJRWZ2JM4OOMRSJD6","A2ATBS6XTIZE89","3GVPRXWRPHGYHD0HW29VLS36FVC7I4","","img/set1/S3.jpg","83","3","structured_normal","72","structured_normal,structured_incentive,structured_load,random","2,3,4,2,1,2","4,1,2,3","false","","",""
"null","","html-keyboard-response","17","179496","0.0-17.0","333U7HK6IA1CFHJRWZ2JM4OOMRSJD6","A2ATBS6XTIZE89","3GVPRXWRPHGYHD0HW29VLS36FVC7I4","","<img src=""img/set1/S3.jpg"" width=""540"" height = ""360"">","null","","","","","","","","","",""
"null","","html-keyboard-response","18","179718","0.0-18.0","333U7HK6IA1CFHJRWZ2JM4OOMRSJD6","A2ATBS6XTIZE89","3GVPRXWRPHGYHD0HW29VLS36FVC7I4","","","null","","","","","","","","","",""
"763","","image-keyboard-response","19","180483","0.0-19.0","333U7HK6IA1CFHJRWZ2JM4OOMRSJD6","A2ATBS6XTIZE89","3GVPRXWRPHGYHD0HW29VLS36FVC7I4","","img/set1/S1.jpg","83","1","structured_normal","83","structured_normal,structured_incentive,structured_load,random","2,3,4,2,1,2","4,1,2,3","true","","",""
"null","","html-keyboard-response","20","180837","0.0-20.0","333U7HK6IA1CFHJRWZ2JM4OOMRSJD6","A2ATBS6XTIZE89","3GVPRXWRPHGYHD0HW29VLS36FVC7I4","","<img src=""img/set1/S1.jpg"" width=""540"" height = ""360"" style=""border:16px solid orange"">","null","","","","","","","","","",""
"null","","html-keyboard-response","21","181056","0.0-21.0","333U7HK6IA1CFHJRWZ2JM4OOMRSJD6","A2ATBS6XTIZE89","3GVPRXWRPHGYHD0HW29VLS36FVC7I4","","","null","","","","","","","","","",""
"570","","image-keyboard-response","22","181628","0.0-22.0","333U7HK6IA1CFHJRWZ2JM4OOMRSJD6","A2ATBS6XTIZE89","3GVPRXWRPHGYHD0HW29VLS36FVC7I4","","img/set1/S1.jpg","83","1","structured_normal","83","structured_normal,structured_incentive,structured_load,random","2,3,4,2,1,2","4,1,2,3","true","","",""
"null","","html-keyboard-response","23","181987","0.0-23.0","333U7HK6IA1CFHJRWZ2JM4OOMRSJD6","A2ATBS6XTIZE89","3GVPRXWRPHGYHD0HW29VLS36FVC7I4","","<img src=""img/set1/S1.jpg"" width=""540"" height = ""360"" style=""border:16px solid orange"">","null","","","","","","","","","",""
"null","","html-keyboard-response","24","182208","0.0-24.0","333U7HK6IA1CFHJRWZ2JM4OOMRSJD6","A2ATBS6XTIZE89","3GVPRXWRPHGYHD0HW29VLS36FVC7I4","","","null","","","","","","","","","",""
"625","","image-keyboard-response","25","182837","0.0-25.0","333U7HK6IA1CFHJRWZ2JM4OOMRSJD6","A2ATBS6XTIZE89","3GVPRXWRPHGYHD0HW29VLS36FVC7I4","","img/set1/S2.jpg","68","2","structured_normal","68","structured_normal,structured_incentive,structured_load,random","2,3,4,2,1,2","4,1,2,3","true","","",""
"null","","html-keyboard-response","26","183208","0.0-26.0","333U7HK6IA1CFHJRWZ2JM4OOMRSJD6","A2ATBS6XTIZE89","3GVPRXWRPHGYHD0HW29VLS36FVC7I4","","<img src=""img/set1/S2.jpg"" width=""540"" height = ""360"" style=""border:16px solid orange"">","null","","","","","","","","","",""
"null","","html-keyboard-response","27","183428","0.0-27.0","333U7HK6IA1CFHJRWZ2JM4OOMRSJD6","A2ATBS6XTIZE89","3GVPRXWRPHGYHD0HW29VLS36FVC7I4","","","null","","","","","","","","","",""
"676","","image-keyboard-response","28","184106","0.0-28.0","333U7HK6IA1CFHJRWZ2JM4OOMRSJD6","A2ATBS6XTIZE89","3GVPRXWRPHGYHD0HW29VLS36FVC7I4","","img/set1/S3.jpg","83","3","structured_normal","72","structured_normal,structured_incentive,structured_load,random","2,3,4,2,1,2","4,1,2,3","false","","",""
"null","","html-keyboard-response","29","184466","0.0-29.0","333U7HK6IA1CFHJRWZ2JM4OOMRSJD6","A2ATBS6XTIZE89","3GVPRXWRPHGYHD0HW29VLS36FVC7I4","","<img src=""img/set1/S3.jpg"" width=""540"" height = ""360"">","null","","","","","","","","","",""
"null","","html-keyboard-response","30","184668","0.0-30.0","333U7HK6IA1CFHJRWZ2JM4OOMRSJD6","A2ATBS6XTIZE89","3GVPRXWRPHGYHD0HW29VLS36FVC7I4","","","null","","","","","","","","","",""
"998","","image-keyboard-response","31","185669","0.0-31.0","333U7HK6IA1CFHJRWZ2JM4OOMRSJD6","A2ATBS6XTIZE89","3GVPRXWRPHGYHD0HW29VLS36FVC7I4","","img/set1/S4.jpg","74","4","structured_normal","74","structured_normal,structured_incentive,structured_load,random","2,3,4,2,1,2","4,1,2,3","true","","",""
"null","","html-keyboard-response","32","186028","0.0-32.0","333U7HK6IA1CFHJRWZ2JM4OOMRSJD6","A2ATBS6XTIZE89","3GVPRXWRPHGYHD0HW29VLS36FVC7I4","","<img src=""img/set1/S4.jpg"" width=""540"" height = ""360"" style=""border:16px solid orange"">","null","","","","","","","","","",""
"null","","html-keyboard-response","33","186246","0.0-33.0","333U7HK6IA1CFHJRWZ2JM4OOMRSJD6","A2ATBS6XTIZE89","3GVPRXWRPHGYHD0HW29VLS36FVC7I4","","","null","","","","","","","","","",""
"669","","image-keyboard-response","34","186916","0.0-34.0","333U7HK6IA1CFHJRWZ2JM4OOMRSJD6","A2ATBS6XTIZE89","3GVPRXWRPHGYHD0HW29VLS36FVC7I4","","img/set1/S1.jpg","83","1","structured_normal","83","structured_normal,structured_incentive,structured_load,random","2,3,4,2,1,2","4,1,2,3","true","","",""
"null","","html-keyboard-response","35","187287","0.0-35.0","333U7HK6IA1CFHJRWZ2JM4OOMRSJD6","A2ATBS6XTIZE89","3GVPRXWRPHGYHD0HW29VLS36FVC7I4","","<img src=""img/set1/S1.jpg"" width=""540"" height = ""360"" style=""border:16px solid orange"">","null","","","","","","","","","",""
"null","","html-keyboard-response","36","187508","0.0-36.0","333U7HK6IA1CFHJRWZ2JM4OOMRSJD6","A2ATBS6XTIZE89","3GVPRXWRPHGYHD0HW29VLS36FVC7I4","","","null","","","","","","","","","",""
"1245","","image-keyboard-response","37","188754","0.0-37.0","333U7HK6IA1CFHJRWZ2JM4OOMRSJD6","A2ATBS6XTIZE89","3GVPRXWRPHGYHD0HW29VLS36FVC7I4","","img/set1/S4.jpg","74","4","structured_normal","74","structured_normal,structured_incentive,structured_load,random","2,3,4,2,1,2","4,1,2,3","true","","",""
"null","","html-keyboard-response","38","189115","0.0-38.0","333U7HK6IA1CFHJRWZ2JM4OOMRSJD6","A2ATBS6XTIZE89","3GVPRXWRPHGYHD0HW29VLS36FVC7I4","","<img src=""img/set1/S4.jpg"" width=""540"" height = ""360"" style=""border:16px solid orange"">","null","","","","","","","","","",""
"null","","html-keyboard-response","39","189336","0.0-39.0","333U7HK6IA1CFHJRWZ2JM4OOMRSJD6","A2ATBS6XTIZE89","3GVPRXWRPHGYHD0HW29VLS36FVC7I4","","","null","","","","","","","","","",""
"603","","image-keyboard-response","40","189941","0.0-40.0","333U7HK6IA1CFHJRWZ2JM4OOMRSJD6","A2ATBS6XTIZE89","3GVPRXWRPHGYHD0HW29VLS36FVC7I4","","img/set1/S1.jpg","83","1","structured_normal","83","structured_normal,structured_incentive,structured_load,random","2,3,4,2,1,2","4,1,2,3","true","","",""
"null","","html-keyboard-response","41","190299","0.0-41.0","333U7HK6IA1CFHJRWZ2JM4OOMRSJD6","A2ATBS6XTIZE89","3GVPRXWRPHGYHD0HW29VLS36FVC7I4","","<img src=""img/set1/S1.jpg"" width=""540"" height = ""360"" style=""border:16px solid orange"">","null","","","","","","","","","",""
"null","","html-keyboard-response","42","190517","0.0-42.0","333U7HK6IA1CFHJRWZ2JM4OOMRSJD6","A2ATBS6XTIZE89","3GVPRXWRPHGYHD0HW29VLS36FVC7I4","","","null","","","","","","","","","",""
"549","","image-keyboard-response","43","191068","0.0-43.0","333U7HK6IA1CFHJRWZ2JM4OOMRSJD6","A2ATBS6XTIZE89","3GVPRXWRPHGYHD0HW29VLS36FVC7I4","","img/set1/S2.jpg","68","2","structured_normal","68","structured_normal,structured_incentive,structured_load,random","2,3,4,2,1,2","4,1,2,3","true","","",""
"null","","html-keyboard-response","44","191438","0.0-44.0","333U7HK6IA1CFHJRWZ2JM4OOMRSJD6","A2ATBS6XTIZE89","3GVPRXWRPHGYHD0HW29VLS36FVC7I4","","<img src=""img/set1/S2.jpg"" width=""540"" height = ""360"" style=""border:16px solid orange"">","null","","","","","","","","","",""
"null","","html-keyboard-response","45","191658","0.0-45.0","333U7HK6IA1CFHJRWZ2JM4OOMRSJD6","A2ATBS6XTIZE89","3GVPRXWRPHGYHD0HW29VLS36FVC7I4","","","null","","","","","","","","","",""
"624","","image-keyboard-response","46","192285","0.0-46.0","333U7HK6IA1CFHJRWZ2JM4OOMRSJD6","A2ATBS6XTIZE89","3GVPRXWRPHGYHD0HW29VLS36FVC7I4","","img/set1/S3.jpg","68","3","structured_normal","72","structured_normal,structured_incentive,structured_load,random","2,3,4,2,1,2","4,1,2,3","false","","",""
"null","","html-keyboard-response","47","192658","0.0-47.0","333U7HK6IA1CFHJRWZ2JM4OOMRSJD6","A2ATBS6XTIZE89","3GVPRXWRPHGYHD0HW29VLS36FVC7I4","","<img src=""img/set1/S3.jpg"" width=""540"" height = ""360"">","null","","","","","","","","","",""
"null","","html-keyboard-response","48","192879","0.0-48.0","333U7HK6IA1CFHJRWZ2JM4OOMRSJD6","A2ATBS6XTIZE89","3GVPRXWRPHGYHD0HW29VLS36FVC7I4","","","null","","","","","","","","","",""
"906","","image-keyboard-response","49","193791","0.0-49.0","333U7HK6IA1CFHJRWZ2JM4OOMRSJD6","A2ATBS6XTIZE89","3GVPRXWRPHGYHD0HW29VLS36FVC7I4","","img/set1/S1.jpg","83","1","structured_normal","83","structured_normal,structured_incentive,structured_load,random","2,3,4,2,1,2","4,1,2,3","true","","",""
"null","","html-keyboard-response","50","194156","0.0-50.0","333U7HK6IA1CFHJRWZ2JM4OOMRSJD6","A2ATBS6XTIZE89","3GVPRXWRPHGYHD0HW29VLS36FVC7I4","","<img src=""img/set1/S1.jpg"" width=""540"" height = ""360"" style=""border:16px solid orange"">","null","","","","","","","","","",""
"null","","html-keyboard-response","51","194379","0.0-51.0","333U7HK6IA1CFHJRWZ2JM4OOMRSJD6","A2ATBS6XTIZE89","3GVPRXWRPHGYHD0HW29VLS36FVC7I4","","","null","","","","","","","","","",""
"702","","image-keyboard-response","52","195084","0.0-52.0","333U7HK6IA1CFHJRWZ2JM4OOMRSJD6","A2ATBS6XTIZE89","3GVPRXWRPHGYHD0HW29VLS36FVC7I4","","img/set1/S2.jpg","68","2","structured_normal","68","structured_normal,structured_incentive,structured_load,random","2,3,4,2,1,2","4,1,2,3","true","","",""
"null","","html-keyboard-response","53","195459","0.0-53.0","333U7HK6IA1CFHJRWZ2JM4OOMRSJD6","A2ATBS6XTIZE89","3GVPRXWRPHGYHD0HW29VLS36FVC7I4","","<img src=""img/set1/S2.jpg"" width=""540"" height = ""360"" style=""border:16px solid orange"">","null","","","","","","","","","",""
"null","","html-keyboard-response","54","195677","0.0-54.0","333U7HK6IA1CFHJRWZ2JM4OOMRSJD6","A2ATBS6XTIZE89","3GVPRXWRPHGYHD0HW29VLS36FVC7I4","","","null","","","","","","","","","",""
"1213","","image-keyboard-response","55","196892","0.0-55.0","333U7HK6IA1CFHJRWZ2JM4OOMRSJD6","A2ATBS6XTIZE89","3GVPRXWRPHGYHD0HW29VLS36FVC7I4","","img/set1/S4.jpg","74","4","structured_normal","74","structured_normal,structured_incentive,structured_load,random","2,3,4,2,1,2","4,1,2,3","true","","",""
"null","","html-keyboard-response","56","197257","0.0-56.0","333U7HK6IA1CFHJRWZ2JM4OOMRSJD6","A2ATBS6XTIZE89","3GVPRXWRPHGYHD0HW29VLS36FVC7I4","","<img src=""img/set1/S4.jpg"" width=""540"" height = ""360"" style=""border:16px solid orange"">","null","","","","","","","","","",""
"null","","html-keyboard-response","57","197477","0.0-57.0","333U7HK6IA1CFHJRWZ2JM4OOMRSJD6","A2ATBS6XTIZE89","3GVPRXWRPHGYHD0HW29VLS36FVC7I4","","","null","","","","","","","","","",""
"989","","image-keyboard-response","58","198469","0.0-58.0","333U7HK6IA1CFHJRWZ2JM4OOMRSJD6","A2ATBS6XTIZE89","3GVPRXWRPHGYHD0HW29VLS36FVC7I4","","img/set1/S1.jpg","83","1","structured_normal","83","structured_normal,structured_incentive,structured_load,random","2,3,4,2,1,2","4,1,2,3","true","","",""
"null","","html-keyboard-response","59","198837","0.0-59.0","333U7HK6IA1CFHJRWZ2JM4OOMRSJD6","A2ATBS6XTIZE89","3GVPRXWRPHGYHD0HW29VLS36FVC7I4","","<img src=""img/set1/S1.jpg"" width=""540"" height = ""360"" style=""border:16px solid orange"">","null","","","","","","","","","",""
"null","","html-keyboard-response","60","199056","0.0-60.0","333U7HK6IA1CFHJRWZ2JM4OOMRSJD6","A2ATBS6XTIZE89","3GVPRXWRPHGYHD0HW29VLS36FVC7I4","","","null","","","","","","","","","",""
"795","","image-keyboard-response","61","199852","0.0-61.0","333U7HK6IA1CFHJRWZ2JM4OOMRSJD6","A2ATBS6XTIZE89","3GVPRXWRPHGYHD0HW29VLS36FVC7I4","","img/set1/S4.jpg","74","4","structured_normal","74","structured_normal,structured_incentive,structured_load,random","2,3,4,2,1,2","4,1,2,3","true","","",""
"null","","html-keyboard-response","62","200217","0.0-62.0","333U7HK6IA1CFHJRWZ2JM4OOMRSJD6","A2ATBS6XTIZE89","3GVPRXWRPHGYHD0HW29VLS36FVC7I4","","<img src=""img/set1/S4.jpg"" width=""540"" height = ""360"" style=""border:16px solid orange"">","null","","","","","","","","","",""
"null","","html-keyboard-response","63","200435","0.0-63.0","333U7HK6IA1CFHJRWZ2JM4OOMRSJD6","A2ATBS6XTIZE89","3GVPRXWRPHGYHD0HW29VLS36FVC7I4","","","null","","","","","","","","","",""
"509","","image-keyboard-response","64","200947","0.0-64.0","333U7HK6IA1CFHJRWZ2JM4OOMRSJD6","A2ATBS6XTIZE89","3GVPRXWRPHGYHD0HW29VLS36FVC7I4","","img/set1/S4.jpg","74","4","structured_normal","74","structured_normal,structured_incentive,structured_load,random","2,3,4,2,1,2","4,1,2,3","true","","",""
"null","","html-keyboard-response","65","201308","0.0-65.0","333U7HK6IA1CFHJRWZ2JM4OOMRSJD6","A2ATBS6XTIZE89","3GVPRXWRPHGYHD0HW29VLS36FVC7I4","","<img src=""img/set1/S4.jpg"" width=""540"" height = ""360"" style=""border:16px solid orange"">","null","","","","","","","","","",""
"null","","html-keyboard-response","66","201527","0.0-66.0","333U7HK6IA1CFHJRWZ2JM4OOMRSJD6","A2ATBS6XTIZE89","3GVPRXWRPHGYHD0HW29VLS36FVC7I4","","","null","","","","","","","","","",""
"651","","image-keyboard-response","67","202181","0.0-67.0","333U7HK6IA1CFHJRWZ2JM4OOMRSJD6","A2ATBS6XTIZE89","3GVPRXWRPHGYHD0HW29VLS36FVC7I4","","img/set1/S2.jpg","68","2","structured_normal","68","structured_normal,structured_incentive,structured_load,random","2,3,4,2,1,2","4,1,2,3","true","","",""
"null","","html-keyboard-response","68","202548","0.0-68.0","333U7HK6IA1CFHJRWZ2JM4OOMRSJD6","A2ATBS6XTIZE89","3GVPRXWRPHGYHD0HW29VLS36FVC7I4","","<img src=""img/set1/S2.jpg"" width=""540"" height = ""360"" style=""border:16px solid orange"">","null","","","","","","","","","",""
"null","","html-keyboard-response","69","202769","0.0-69.0","333U7HK6IA1CFHJRWZ2JM4OOMRSJD6","A2ATBS6XTIZE89","3GVPRXWRPHGYHD0HW29VLS36FVC7I4","","","null","","","","","","","","","",""
"1831","","image-keyboard-response","70","204605","0.0-70.0","333U7HK6IA1CFHJRWZ2JM4OOMRSJD6","A2ATBS6XTIZE89","3GVPRXWRPHGYHD0HW29VLS36FVC7I4","","img/set1/S3.jpg","74","3","structured_normal","72","structured_normal,structured_incentive,structured_load,random","2,3,4,2,1,2","4,1,2,3","false","","",""
"null","","html-keyboard-response","71","204967","0.0-71.0","333U7HK6IA1CFHJRWZ2JM4OOMRSJD6","A2ATBS6XTIZE89","3GVPRXWRPHGYHD0HW29VLS36FVC7I4","","<img src=""img/set1/S3.jpg"" width=""540"" height = ""360"">","null","","","","","","","","","",""
"null","","html-keyboard-response","72","205188","0.0-72.0","333U7HK6IA1CFHJRWZ2JM4OOMRSJD6","A2ATBS6XTIZE89","3GVPRXWRPHGYHD0HW29VLS36FVC7I4","","","null","","","","","","","","","",""
"725","","image-keyboard-response","73","205916","0.0-73.0","333U7HK6IA1CFHJRWZ2JM4OOMRSJD6","A2ATBS6XTIZE89","3GVPRXWRPHGYHD0HW29VLS36FVC7I4","","img/set1/S2.jpg","68","2","structured_normal","68","structured_normal,structured_incentive,structured_load,random","2,3,4,2,1,2","4,1,2,3","true","","",""
"null","","html-keyboard-response","74","206279","0.0-74.0","333U7HK6IA1CFHJRWZ2JM4OOMRSJD6","A2ATBS6XTIZE89","3GVPRXWRPHGYHD0HW29VLS36FVC7I4","","<img src=""img/set1/S2.jpg"" width=""540"" height = ""360"" style=""border:16px solid orange"">","null","","","","","","","","","",""
"null","","html-keyboard-response","75","206498","0.0-75.0","333U7HK6IA1CFHJRWZ2JM4OOMRSJD6","A2ATBS6XTIZE89","3GVPRXWRPHGYHD0HW29VLS36FVC7I4","","","null","","","","","","","","","",""
"736","","image-keyboard-response","76","207238","0.0-76.0","333U7HK6IA1CFHJRWZ2JM4OOMRSJD6","A2ATBS6XTIZE89","3GVPRXWRPHGYHD0HW29VLS36FVC7I4","","img/set1/S4.jpg","74","4","structured_normal","74","structured_normal,structured_incentive,structured_load,random","2,3,4,2,1,2","4,1,2,3","true","","",""
"null","","html-keyboard-response","77","207608","0.0-77.0","333U7HK6IA1CFHJRWZ2JM4OOMRSJD6","A2ATBS6XTIZE89","3GVPRXWRPHGYHD0HW29VLS36FVC7I4","","<img src=""img/set1/S4.jpg"" width=""540"" height = ""360"" style=""border:16px solid orange"">","null","","","","","","","","","",""
"null","","html-keyboard-response","78","207828","0.0-78.0","333U7HK6IA1CFHJRWZ2JM4OOMRSJD6","A2ATBS6XTIZE89","3GVPRXWRPHGYHD0HW29VLS36FVC7I4","","","null","","","","","","","","","",""
"591","","image-keyboard-response","79","208421","0.0-79.0","333U7HK6IA1CFHJRWZ2JM4OOMRSJD6","A2ATBS6XTIZE89","3GVPRXWRPHGYHD0HW29VLS36FVC7I4","","img/set1/S1.jpg","83","1","structured_normal","83","structured_normal,structured_incentive,structured_load,random","2,3,4,2,1,2","4,1,2,3","true","","",""
"null","","html-keyboard-response","80","208788","0.0-80.0","333U7HK6IA1CFHJRWZ2JM4OOMRSJD6","A2ATBS6XTIZE89","3GVPRXWRPHGYHD0HW29VLS36FVC7I4","","<img src=""img/set1/S1.jpg"" width=""540"" height = ""360"" style=""border:16px solid orange"">","null","","","","","","","","","",""
"null","","html-keyboard-response","81","209008","0.0-81.0","333U7HK6IA1CFHJRWZ2JM4OOMRSJD6","A2ATBS6XTIZE89","3GVPRXWRPHGYHD0HW29VLS36FVC7I4","","","null","","","","","","","","","",""
"722","","image-keyboard-response","82","209732","0.0-82.0","333U7HK6IA1CFHJRWZ2JM4OOMRSJD6","A2ATBS6XTIZE89","3GVPRXWRPHGYHD0HW29VLS36FVC7I4","","img/set1/S2.jpg","68","2","structured_normal","68","structured_normal,structured_incentive,structured_load,random","2,3,4,2,1,2","4,1,2,3","true","","",""
"null","","html-keyboard-response","83","210088","0.0-83.0","333U7HK6IA1CFHJRWZ2JM4OOMRSJD6","A2ATBS6XTIZE89","3GVPRXWRPHGYHD0HW29VLS36FVC7I4","","<img src=""img/set1/S2.jpg"" width=""540"" height = ""360"" style=""border:16px solid orange"">","null","","","","","","","","","",""
"null","","html-keyboard-response","84","210307","0.0-84.0","333U7HK6IA1CFHJRWZ2JM4OOMRSJD6","A2ATBS6XTIZE89","3GVPRXWRPHGYHD0HW29VLS36FVC7I4","","","null","","","","","","","","","",""
"616","","image-keyboard-response","85","210924","0.0-85.0","333U7HK6IA1CFHJRWZ2JM4OOMRSJD6","A2ATBS6XTIZE89","3GVPRXWRPHGYHD0HW29VLS36FVC7I4","","img/set1/S3.jpg","83","3","structured_normal","72","structured_normal,structured_incentive,structured_load,random","2,3,4,2,1,2","4,1,2,3","false","","",""
"null","","html-keyboard-response","86","211286","0.0-86.0","333U7HK6IA1CFHJRWZ2JM4OOMRSJD6","A2ATBS6XTIZE89","3GVPRXWRPHGYHD0HW29VLS36FVC7I4","","<img src=""img/set1/S3.jpg"" width=""540"" height = ""360"">","null","","","","","","","","","",""
"null","","html-keyboard-response","87","211508","0.0-87.0","333U7HK6IA1CFHJRWZ2JM4OOMRSJD6","A2ATBS6XTIZE89","3GVPRXWRPHGYHD0HW29VLS36FVC7I4","","","null","","","","","","","","","",""
"832","","image-keyboard-response","88","212342","0.0-88.0","333U7HK6IA1CFHJRWZ2JM4OOMRSJD6","A2ATBS6XTIZE89","3GVPRXWRPHGYHD0HW29VLS36FVC7I4","","img/set1/S4.jpg","74","4","structured_normal","74","structured_normal,structured_incentive,structured_load,random","2,3,4,2,1,2","4,1,2,3","true","","",""
"null","","html-keyboard-response","89","212708","0.0-89.0","333U7HK6IA1CFHJRWZ2JM4OOMRSJD6","A2ATBS6XTIZE89","3GVPRXWRPHGYHD0HW29VLS36FVC7I4","","<img src=""img/set1/S4.jpg"" width=""540"" height = ""360"" style=""border:16px solid orange"">","null","","","","","","","","","",""
"null","","html-keyboard-response","90","212926","0.0-90.0","333U7HK6IA1CFHJRWZ2JM4OOMRSJD6","A2ATBS6XTIZE89","3GVPRXWRPHGYHD0HW29VLS36FVC7I4","","","null","","","","","","","","","",""
"541","","image-keyboard-response","91","213470","0.0-91.0","333U7HK6IA1CFHJRWZ2JM4OOMRSJD6","A2ATBS6XTIZE89","3GVPRXWRPHGYHD0HW29VLS36FVC7I4","","img/set1/S4.jpg","74","4","structured_normal","74","structured_normal,structured_incentive,structured_load,random","2,3,4,2,1,2","4,1,2,3","true","","",""
"null","","html-keyboard-response","92","213827","0.0-92.0","333U7HK6IA1CFHJRWZ2JM4OOMRSJD6","A2ATBS6XTIZE89","3GVPRXWRPHGYHD0HW29VLS36FVC7I4","","<img src=""img/set1/S4.jpg"" width=""540"" height = ""360"" style=""border:16px solid orange"">","null","","","","","","","","","",""
"null","","html-keyboard-response","93","214038","0.0-93.0","333U7HK6IA1CFHJRWZ2JM4OOMRSJD6","A2ATBS6XTIZE89","3GVPRXWRPHGYHD0HW29VLS36FVC7I4","","","null","","","","","","","","","",""
"451","","image-keyboard-response","94","214490","0.0-94.0","333U7HK6IA1CFHJRWZ2JM4OOMRSJD6","A2ATBS6XTIZE89","3GVPRXWRPHGYHD0HW29VLS36FVC7I4","","img/set1/S4.jpg","74","4","structured_normal","74","structured_normal,structured_incentive,structured_load,random","2,3,4,2,1,2","4,1,2,3","true","","",""
"null","","html-keyboard-response","95","214858","0.0-95.0","333U7HK6IA1CFHJRWZ2JM4OOMRSJD6","A2ATBS6XTIZE89","3GVPRXWRPHGYHD0HW29VLS36FVC7I4","","<img src=""img/set1/S4.jpg"" width=""540"" height = ""360"" style=""border:16px solid orange"">","null","","","","","","","","","",""
"null","","html-keyboard-response","96","215078","0.0-96.0","333U7HK6IA1CFHJRWZ2JM4OOMRSJD6","A2ATBS6XTIZE89","3GVPRXWRPHGYHD0HW29VLS36FVC7I4","","","null","","","","","","","","","",""
"605","","image-keyboard-response","97","215685","0.0-97.0","333U7HK6IA1CFHJRWZ2JM4OOMRSJD6","A2ATBS6XTIZE89","3GVPRXWRPHGYHD0HW29VLS36FVC7I4","","img/set1/S2.jpg","68","2","structured_normal","68","structured_normal,structured_incentive,structured_load,random","2,3,4,2,1,2","4,1,2,3","true","","",""
"null","","html-keyboard-response","98","216057","0.0-98.0","333U7HK6IA1CFHJRWZ2JM4OOMRSJD6","A2ATBS6XTIZE89","3GVPRXWRPHGYHD0HW29VLS36FVC7I4","","<img src=""img/set1/S2.jpg"" width=""540"" height = ""360"" style=""border:16px solid orange"">","null","","","","","","","","","",""
"null","","html-keyboard-response","99","216278","0.0-99.0","333U7HK6IA1CFHJRWZ2JM4OOMRSJD6","A2ATBS6XTIZE89","3GVPRXWRPHGYHD0HW29VLS36FVC7I4","","","null","","","","","","","","","",""
"668","","image-keyboard-response","100","216949","0.0-100.0","333U7HK6IA1CFHJRWZ2JM4OOMRSJD6","A2ATBS6XTIZE89","3GVPRXWRPHGYHD0HW29VLS36FVC7I4","","img/set1/S4.jpg","74","4","structured_normal","74","structured_normal,structured_incentive,structured_load,random","2,3,4,2,1,2","4,1,2,3","true","","",""
"null","","html-keyboard-response","101","217318","0.0-101.0","333U7HK6IA1CFHJRWZ2JM4OOMRSJD6","A2ATBS6XTIZE89","3GVPRXWRPHGYHD0HW29VLS36FVC7I4","","<img src=""img/set1/S4.jpg"" width=""540"" height = ""360"" style=""border:16px solid orange"">","null","","","","","","","","","",""
"null","","html-keyboard-response","102","217525","0.0-102.0","333U7HK6IA1CFHJRWZ2JM4OOMRSJD6","A2ATBS6XTIZE89","3GVPRXWRPHGYHD0HW29VLS36FVC7I4","","","null","","","","","","","","","",""
"685","","image-keyboard-response","103","218212","0.0-103.0","333U7HK6IA1CFHJRWZ2JM4OOMRSJD6","A2ATBS6XTIZE89","3GVPRXWRPHGYHD0HW29VLS36FVC7I4","","img/set1/S1.jpg","83","1","structured_normal","83","structured_normal,structured_incentive,structured_load,random","2,3,4,2,1,2","4,1,2,3","true","","",""
"null","","html-keyboard-response","104","218568","0.0-104.0","333U7HK6IA1CFHJRWZ2JM4OOMRSJD6","A2ATBS6XTIZE89","3GVPRXWRPHGYHD0HW29VLS36FVC7I4","","<img src=""img/set1/S1.jpg"" width=""540"" height = ""360"" style=""border:16px solid orange"">","null","","","","","","","","","",""
"null","","html-keyboard-response","105","218788","0.0-105.0","333U7HK6IA1CFHJRWZ2JM4OOMRSJD6","A2ATBS6XTIZE89","3GVPRXWRPHGYHD0HW29VLS36FVC7I4","","","null","","","","","","","","","",""
"710","","image-keyboard-response","106","219500","0.0-106.0","333U7HK6IA1CFHJRWZ2JM4OOMRSJD6","A2ATBS6XTIZE89","3GVPRXWRPHGYHD0HW29VLS36FVC7I4","","img/set1/S2.jpg","74","2","structured_normal","68","structured_normal,structured_incentive,structured_load,random","2,3,4,2,1,2","4,1,2,3","false","","",""
"null","","html-keyboard-response","107","219867","0.0-107.0","333U7HK6IA1CFHJRWZ2JM4OOMRSJD6","A2ATBS6XTIZE89","3GVPRXWRPHGYHD0HW29VLS36FVC7I4","","<img src=""img/set1/S2.jpg"" width=""540"" height = ""360"">","null","","","","","","","","","",""
"null","","html-keyboard-response","108","220086","0.0-108.0","333U7HK6IA1CFHJRWZ2JM4OOMRSJD6","A2ATBS6XTIZE89","3GVPRXWRPHGYHD0HW29VLS36FVC7I4","","","null","","","","","","","","","",""
"1853","","image-keyboard-response","109","221940","0.0-109.0","333U7HK6IA1CFHJRWZ2JM4OOMRSJD6","A2ATBS6XTIZE89","3GVPRXWRPHGYHD0HW29VLS36FVC7I4","","img/set1/S3.jpg","68","3","structured_normal","72","structured_normal,structured_incentive,structured_load,random","2,3,4,2,1,2","4,1,2,3","false","","",""
"null","","html-keyboard-response","110","222297","0.0-110.0","333U7HK6IA1CFHJRWZ2JM4OOMRSJD6","A2ATBS6XTIZE89","3GVPRXWRPHGYHD0HW29VLS36FVC7I4","","<img src=""img/set1/S3.jpg"" width=""540"" height = ""360"">","null","","","","","","","","","",""
"null","","html-keyboard-response","111","222520","0.0-111.0","333U7HK6IA1CFHJRWZ2JM4OOMRSJD6","A2ATBS6XTIZE89","3GVPRXWRPHGYHD0HW29VLS36FVC7I4","","","null","","","","","","","","","",""
"666","","image-keyboard-response","112","223188","0.0-112.0","333U7HK6IA1CFHJRWZ2JM4OOMRSJD6","A2ATBS6XTIZE89","3GVPRXWRPHGYHD0HW29VLS36FVC7I4","","img/set1/S4.jpg","74","4","structured_normal","74","structured_normal,structured_incentive,structured_load,random","2,3,4,2,1,2","4,1,2,3","true","","",""
"null","","html-keyboard-response","113","223555","0.0-113.0","333U7HK6IA1CFHJRWZ2JM4OOMRSJD6","A2ATBS6XTIZE89","3GVPRXWRPHGYHD0HW29VLS36FVC7I4","","<img src=""img/set1/S4.jpg"" width=""540"" height = ""360"" style=""border:16px solid orange"">","null","","","","","","","","","",""
"null","","html-keyboard-response","114","223776","0.0-114.0","333U7HK6IA1CFHJRWZ2JM4OOMRSJD6","A2ATBS6XTIZE89","3GVPRXWRPHGYHD0HW29VLS36FVC7I4","","","null","","","","","","","","","",""
"465","","image-keyboard-response","115","224243","0.0-115.0","333U7HK6IA1CFHJRWZ2JM4OOMRSJD6","A2ATBS6XTIZE89","3GVPRXWRPHGYHD0HW29VLS36FVC7I4","","img/set1/S4.jpg","74","4","structured_normal","74","structured_normal,structured_incentive,structured_load,random","2,3,4,2,1,2","4,1,2,3","true","","",""
"null","","html-keyboard-response","116","224597","0.0-116.0","333U7HK6IA1CFHJRWZ2JM4OOMRSJD6","A2ATBS6XTIZE89","3GVPRXWRPHGYHD0HW29VLS36FVC7I4","","<img src=""img/set1/S4.jpg"" width=""540"" height = ""360"" style=""border:16px solid orange"">","null","","","","","","","","","",""
"null","","html-keyboard-response","117","224816","0.0-117.0","333U7HK6IA1CFHJRWZ2JM4OOMRSJD6","A2ATBS6XTIZE89","3GVPRXWRPHGYHD0HW29VLS36FVC7I4","","","null","","","","","","","","","",""
"617","","image-keyboard-response","118","225434","0.0-118.0","333U7HK6IA1CFHJRWZ2JM4OOMRSJD6","A2ATBS6XTIZE89","3GVPRXWRPHGYHD0HW29VLS36FVC7I4","","img/set1/S2.jpg","68","2","structured_normal","68","structured_normal,structured_incentive,structured_load,random","2,3,4,2,1,2","4,1,2,3","true","","",""
"null","","html-keyboard-response","119","225795","0.0-119.0","333U7HK6IA1CFHJRWZ2JM4OOMRSJD6","A2ATBS6XTIZE89","3GVPRXWRPHGYHD0HW29VLS36FVC7I4","","<img src=""img/set1/S2.jpg"" width=""540"" height = ""360"" style=""border:16px solid orange"">","null","","","","","","","","","",""
"null","","html-keyboard-response","120","226017","0.0-120.0","333U7HK6IA1CFHJRWZ2JM4OOMRSJD6","A2ATBS6XTIZE89","3GVPRXWRPHGYHD0HW29VLS36FVC7I4","","","null","","","","","","","","","",""
"919","","image-keyboard-response","121","226940","0.0-121.0","333U7HK6IA1CFHJRWZ2JM4OOMRSJD6","A2ATBS6XTIZE89","3GVPRXWRPHGYHD0HW29VLS36FVC7I4","","img/set1/S3.jpg","83","3","structured_normal","72","structured_normal,structured_incentive,structured_load,random","2,3,4,2,1,2","4,1,2,3","false","","",""
"null","","html-keyboard-response","122","227297","0.0-122.0","333U7HK6IA1CFHJRWZ2JM4OOMRSJD6","A2ATBS6XTIZE89","3GVPRXWRPHGYHD0HW29VLS36FVC7I4","","<img src=""img/set1/S3.jpg"" width=""540"" height = ""360"">","null","","","","","","","","","",""
"null","","html-keyboard-response","123","227516","0.0-123.0","333U7HK6IA1CFHJRWZ2JM4OOMRSJD6","A2ATBS6XTIZE89","3GVPRXWRPHGYHD0HW29VLS36FVC7I4","","","null","","","","","","","","","",""
"734","","image-keyboard-response","124","228252","0.0-124.0","333U7HK6IA1CFHJRWZ2JM4OOMRSJD6","A2ATBS6XTIZE89","3GVPRXWRPHGYHD0HW29VLS36FVC7I4","","img/set1/S2.jpg","68","2","structured_normal","68","structured_normal,structured_incentive,structured_load,random","2,3,4,2,1,2","4,1,2,3","true","","",""
"null","","html-keyboard-response","125","228617","0.0-125.0","333U7HK6IA1CFHJRWZ2JM4OOMRSJD6","A2ATBS6XTIZE89","3GVPRXWRPHGYHD0HW29VLS36FVC7I4","","<img src=""img/set1/S2.jpg"" width=""540"" height = ""360"" style=""border:16px solid orange"">","null","","","","","","","","","",""
"null","","html-keyboard-response","126","228838","0.0-126.0","333U7HK6IA1CFHJRWZ2JM4OOMRSJD6","A2ATBS6XTIZE89","3GVPRXWRPHGYHD0HW29VLS36FVC7I4","","","null","","","","","","","","","",""
"620","","image-keyboard-response","127","229460","0.0-127.0","333U7HK6IA1CFHJRWZ2JM4OOMRSJD6","A2ATBS6XTIZE89","3GVPRXWRPHGYHD0HW29VLS36FVC7I4","","img/set1/S3.jpg","68","3","structured_normal","72","structured_normal,structured_incentive,structured_load,random","2,3,4,2,1,2","4,1,2,3","false","","",""
"null","","html-keyboard-response","128","229816","0.0-128.0","333U7HK6IA1CFHJRWZ2JM4OOMRSJD6","A2ATBS6XTIZE89","3GVPRXWRPHGYHD0HW29VLS36FVC7I4","","<img src=""img/set1/S3.jpg"" width=""540"" height = ""360"">","null","","","","","","","","","",""
"null","","html-keyboard-response","129","230038","0.0-129.0","333U7HK6IA1CFHJRWZ2JM4OOMRSJD6","A2ATBS6XTIZE89","3GVPRXWRPHGYHD0HW29VLS36FVC7I4","","","null","","","","","","","","","",""
"708","","image-keyboard-response","130","230750","0.0-130.0","333U7HK6IA1CFHJRWZ2JM4OOMRSJD6","A2ATBS6XTIZE89","3GVPRXWRPHGYHD0HW29VLS36FVC7I4","","img/set1/S4.jpg","74","4","structured_normal","74","structured_normal,structured_incentive,structured_load,random","2,3,4,2,1,2","4,1,2,3","true","","",""
"null","","html-keyboard-response","131","231118","0.0-131.0","333U7HK6IA1CFHJRWZ2JM4OOMRSJD6","A2ATBS6XTIZE89","3GVPRXWRPHGYHD0HW29VLS36FVC7I4","","<img src=""img/set1/S4.jpg"" width=""540"" height = ""360"" style=""border:16px solid orange"">","null","","","","","","","","","",""
"null","","html-keyboard-response","132","231338","0.0-132.0","333U7HK6IA1CFHJRWZ2JM4OOMRSJD6","A2ATBS6XTIZE89","3GVPRXWRPHGYHD0HW29VLS36FVC7I4","","","null","","","","","","","","","",""
"592","","image-keyboard-response","133","231932","0.0-133.0","333U7HK6IA1CFHJRWZ2JM4OOMRSJD6","A2ATBS6XTIZE89","3GVPRXWRPHGYHD0HW29VLS36FVC7I4","","img/set1/S4.jpg","74","4","structured_normal","74","structured_normal,structured_incentive,structured_load,random","2,3,4,2,1,2","4,1,2,3","true","","",""
"null","","html-keyboard-response","134","232287","0.0-134.0","333U7HK6IA1CFHJRWZ2JM4OOMRSJD6","A2ATBS6XTIZE89","3GVPRXWRPHGYHD0HW29VLS36FVC7I4","","<img src=""img/set1/S4.jpg"" width=""540"" height = ""360"" style=""border:16px solid orange"">","null","","","","","","","","","",""
"null","","html-keyboard-response","135","232508","0.0-135.0","333U7HK6IA1CFHJRWZ2JM4OOMRSJD6","A2ATBS6XTIZE89","3GVPRXWRPHGYHD0HW29VLS36FVC7I4","","","null","","","","","","","","","",""
"438","","image-keyboard-response","136","232950","0.0-136.0","333U7HK6IA1CFHJRWZ2JM4OOMRSJD6","A2ATBS6XTIZE89","3GVPRXWRPHGYHD0HW29VLS36FVC7I4","","img/set1/S4.jpg","74","4","structured_normal","74","structured_normal,structured_incentive,structured_load,random","2,3,4,2,1,2","4,1,2,3","true","","",""
"null","","html-keyboard-response","137","233307","0.0-137.0","333U7HK6IA1CFHJRWZ2JM4OOMRSJD6","A2ATBS6XTIZE89","3GVPRXWRPHGYHD0HW29VLS36FVC7I4","","<img src=""img/set1/S4.jpg"" width=""540"" height = ""360"" style=""border:16px solid orange"">","null","","","","","","","","","",""
"null","","html-keyboard-response","138","233526","0.0-138.0","333U7HK6IA1CFHJRWZ2JM4OOMRSJD6","A2ATBS6XTIZE89","3GVPRXWRPHGYHD0HW29VLS36FVC7I4","","","null","","","","","","","","","",""
"627","","image-keyboard-response","139","234154","0.0-139.0","333U7HK6IA1CFHJRWZ2JM4OOMRSJD6","A2ATBS6XTIZE89","3GVPRXWRPHGYHD0HW29VLS36FVC7I4","","img/set1/S1.jpg","83","1","structured_normal","83","structured_normal,structured_incentive,structured_load,random","2,3,4,2,1,2","4,1,2,3","true","","",""
"null","","html-keyboard-response","140","234526","0.0-140.0","333U7HK6IA1CFHJRWZ2JM4OOMRSJD6","A2ATBS6XTIZE89","3GVPRXWRPHGYHD0HW29VLS36FVC7I4","","<img src=""img/set1/S1.jpg"" width=""540"" height = ""360"" style=""border:16px solid orange"">","null","","","","","","","","","",""
"null","","html-keyboard-response","141","234754","0.0-141.0","333U7HK6IA1CFHJRWZ2JM4OOMRSJD6","A2ATBS6XTIZE89","3GVPRXWRPHGYHD0HW29VLS36FVC7I4","","","null","","","","","","","","","",""
"719","","image-keyboard-response","142","235476","0.0-142.0","333U7HK6IA1CFHJRWZ2JM4OOMRSJD6","A2ATBS6XTIZE89","3GVPRXWRPHGYHD0HW29VLS36FVC7I4","","img/set1/S4.jpg","74","4","structured_normal","74","structured_normal,structured_incentive,structured_load,random","2,3,4,2,1,2","4,1,2,3","true","","",""
"null","","html-keyboard-response","143","235836","0.0-143.0","333U7HK6IA1CFHJRWZ2JM4OOMRSJD6","A2ATBS6XTIZE89","3GVPRXWRPHGYHD0HW29VLS36FVC7I4","","<img src=""img/set1/S4.jpg"" width=""540"" height = ""360"" style=""border:16px solid orange"">","null","","","","","","","","","",""
"null","","html-keyboard-response","144","236056","0.0-144.0","333U7HK6IA1CFHJRWZ2JM4OOMRSJD6","A2ATBS6XTIZE89","3GVPRXWRPHGYHD0HW29VLS36FVC7I4","","","null","","","","","","","","","",""
"724","","image-keyboard-response","145","236783","0.0-145.0","333U7HK6IA1CFHJRWZ2JM4OOMRSJD6","A2ATBS6XTIZE89","3GVPRXWRPHGYHD0HW29VLS36FVC7I4","","img/set1/S1.jpg","83","1","structured_normal","83","structured_normal,structured_incentive,structured_load,random","2,3,4,2,1,2","4,1,2,3","true","","",""
"null","","html-keyboard-response","146","237143","0.0-146.0","333U7HK6IA1CFHJRWZ2JM4OOMRSJD6","A2ATBS6XTIZE89","3GVPRXWRPHGYHD0HW29VLS36FVC7I4","","<img src=""img/set1/S1.jpg"" width=""540"" height = ""360"" style=""border:16px solid orange"">","null","","","","","","","","","",""
"null","","html-keyboard-response","147","237357","0.0-147.0","333U7HK6IA1CFHJRWZ2JM4OOMRSJD6","A2ATBS6XTIZE89","3GVPRXWRPHGYHD0HW29VLS36FVC7I4","","","null","","","","","","","","","",""
"572","","image-keyboard-response","148","237930","0.0-148.0","333U7HK6IA1CFHJRWZ2JM4OOMRSJD6","A2ATBS6XTIZE89","3GVPRXWRPHGYHD0HW29VLS36FVC7I4","","img/set1/S1.jpg","83","1","structured_normal","83","structured_normal,structured_incentive,structured_load,random","2,3,4,2,1,2","4,1,2,3","true","","",""
"null","","html-keyboard-response","149","238296","0.0-149.0","333U7HK6IA1CFHJRWZ2JM4OOMRSJD6","A2ATBS6XTIZE89","3GVPRXWRPHGYHD0HW29VLS36FVC7I4","","<img src=""img/set1/S1.jpg"" width=""540"" height = ""360"" style=""border:16px solid orange"">","null","","","","","","","","","",""
"null","","html-keyboard-response","150","238517","0.0-150.0","333U7HK6IA1CFHJRWZ2JM4OOMRSJD6","A2ATBS6XTIZE89","3GVPRXWRPHGYHD0HW29VLS36FVC7I4","","","null","","","","","","","","","",""
"517","","image-keyboard-response","151","239038","0.0-151.0","333U7HK6IA1CFHJRWZ2JM4OOMRSJD6","A2ATBS6XTIZE89","3GVPRXWRPHGYHD0HW29VLS36FVC7I4","","img/set1/S2.jpg","68","2","structured_normal","68","structured_normal,structured_incentive,structured_load,random","2,3,4,2,1,2","4,1,2,3","true","","",""
"null","","html-keyboard-response","152","239396","0.0-152.0","333U7HK6IA1CFHJRWZ2JM4OOMRSJD6","A2ATBS6XTIZE89","3GVPRXWRPHGYHD0HW29VLS36FVC7I4","","<img src=""img/set1/S2.jpg"" width=""540"" height = ""360"" style=""border:16px solid orange"">","null","","","","","","","","","",""
"null","","html-keyboard-response","153","239618","0.0-153.0","333U7HK6IA1CFHJRWZ2JM4OOMRSJD6","A2ATBS6XTIZE89","3GVPRXWRPHGYHD0HW29VLS36FVC7I4","","","null","","","","","","","","","",""
"null","","image-keyboard-response","154","242137","0.0-154.0","333U7HK6IA1CFHJRWZ2JM4OOMRSJD6","A2ATBS6XTIZE89","3GVPRXWRPHGYHD0HW29VLS36FVC7I4","","img/set1/S3.jpg","null","3","structured_normal","72","structured_normal,structured_incentive,structured_load,random","2,3,4,2,1,2","4,1,2,3","false","","",""
"null","","html-keyboard-response","155","242496","0.0-155.0","333U7HK6IA1CFHJRWZ2JM4OOMRSJD6","A2ATBS6XTIZE89","3GVPRXWRPHGYHD0HW29VLS36FVC7I4","","<img src=""img/set1/S3.jpg"" width=""540"" height = ""360"">","null","","","","","","","","","",""
"null","","html-keyboard-response","156","242718","0.0-156.0","333U7HK6IA1CFHJRWZ2JM4OOMRSJD6","A2ATBS6XTIZE89","3GVPRXWRPHGYHD0HW29VLS36FVC7I4","","","null","","","","","","","","","",""
"628","","image-keyboard-response","157","243349","0.0-157.0","333U7HK6IA1CFHJRWZ2JM4OOMRSJD6","A2ATBS6XTIZE89","3GVPRXWRPHGYHD0HW29VLS36FVC7I4","","img/set1/S2.jpg","68","2","structured_normal","68","structured_normal,structured_incentive,structured_load,random","2,3,4,2,1,2","4,1,2,3","true","","",""
"null","","html-keyboard-response","158","243718","0.0-158.0","333U7HK6IA1CFHJRWZ2JM4OOMRSJD6","A2ATBS6XTIZE89","3GVPRXWRPHGYHD0HW29VLS36FVC7I4","","<img src=""img/set1/S2.jpg"" width=""540"" height = ""360"" style=""border:16px solid orange"">","null","","","","","","","","","",""
"null","","html-keyboard-response","159","243937","0.0-159.0","333U7HK6IA1CFHJRWZ2JM4OOMRSJD6","A2ATBS6XTIZE89","3GVPRXWRPHGYHD0HW29VLS36FVC7I4","","","null","","","","","","","","","",""
"720","","image-keyboard-response","160","244658","0.0-160.0","333U7HK6IA1CFHJRWZ2JM4OOMRSJD6","A2ATBS6XTIZE89","3GVPRXWRPHGYHD0HW29VLS36FVC7I4","","img/set1/S3.jpg","74","3","structured_normal","72","structured_normal,structured_incentive,structured_load,random","2,3,4,2,1,2","4,1,2,3","false","","",""
"null","","html-keyboard-response","161","245017","0.0-161.0","333U7HK6IA1CFHJRWZ2JM4OOMRSJD6","A2ATBS6XTIZE89","3GVPRXWRPHGYHD0HW29VLS36FVC7I4","","<img src=""img/set1/S3.jpg"" width=""540"" height = ""360"">","null","","","","","","","","","",""
"null","","html-keyboard-response","162","245237","0.0-162.0","333U7HK6IA1CFHJRWZ2JM4OOMRSJD6","A2ATBS6XTIZE89","3GVPRXWRPHGYHD0HW29VLS36FVC7I4","","","null","","","","","","","","","",""
"661","","image-keyboard-response","163","245900","0.0-163.0","333U7HK6IA1CFHJRWZ2JM4OOMRSJD6","A2ATBS6XTIZE89","3GVPRXWRPHGYHD0HW29VLS36FVC7I4","","img/set1/S2.jpg","68","2","structured_normal","68","structured_normal,structured_incentive,structured_load,random","2,3,4,2,1,2","4,1,2,3","true","","",""
"null","","html-keyboard-response","164","246258","0.0-164.0","333U7HK6IA1CFHJRWZ2JM4OOMRSJD6","A2ATBS6XTIZE89","3GVPRXWRPHGYHD0HW29VLS36FVC7I4","","<img src=""img/set1/S2.jpg"" width=""540"" height = ""360"" style=""border:16px solid orange"">","null","","","","","","","","","",""
"null","","html-keyboard-response","165","246477","0.0-165.0","333U7HK6IA1CFHJRWZ2JM4OOMRSJD6","A2ATBS6XTIZE89","3GVPRXWRPHGYHD0HW29VLS36FVC7I4","","","null","","","","","","","","","",""
"741","","image-keyboard-response","166","247221","0.0-166.0","333U7HK6IA1CFHJRWZ2JM4OOMRSJD6","A2ATBS6XTIZE89","3GVPRXWRPHGYHD0HW29VLS36FVC7I4","","img/set1/S3.jpg","68","3","structured_normal","72","structured_normal,structured_incentive,structured_load,random","2,3,4,2,1,2","4,1,2,3","false","","",""
"null","","html-keyboard-response","167","247577","0.0-167.0","333U7HK6IA1CFHJRWZ2JM4OOMRSJD6","A2ATBS6XTIZE89","3GVPRXWRPHGYHD0HW29VLS36FVC7I4","","<img src=""img/set1/S3.jpg"" width=""540"" height = ""360"">","null","","","","","","","","","",""
"null","","html-keyboard-response","168","247798","0.0-168.0","333U7HK6IA1CFHJRWZ2JM4OOMRSJD6","A2ATBS6XTIZE89","3GVPRXWRPHGYHD0HW29VLS36FVC7I4","","","null","","","","","","","","","",""
"773","","image-keyboard-response","169","248573","0.0-169.0","333U7HK6IA1CFHJRWZ2JM4OOMRSJD6","A2ATBS6XTIZE89","3GVPRXWRPHGYHD0HW29VLS36FVC7I4","","img/set1/S4.jpg","74","4","structured_normal","74","structured_normal,structured_incentive,structured_load,random","2,3,4,2,1,2","4,1,2,3","true","","",""
"null","","html-keyboard-response","170","248938","0.0-170.0","333U7HK6IA1CFHJRWZ2JM4OOMRSJD6","A2ATBS6XTIZE89","3GVPRXWRPHGYHD0HW29VLS36FVC7I4","","<img src=""img/set1/S4.jpg"" width=""540"" height = ""360"" style=""border:16px solid orange"">","null","","","","","","","","","",""
"null","","html-keyboard-response","171","249157","0.0-171.0","333U7HK6IA1CFHJRWZ2JM4OOMRSJD6","A2ATBS6XTIZE89","3GVPRXWRPHGYHD0HW29VLS36FVC7I4","","","null","","","","","","","","","",""
"741","","image-keyboard-response","172","249900","0.0-172.0","333U7HK6IA1CFHJRWZ2JM4OOMRSJD6","A2ATBS6XTIZE89","3GVPRXWRPHGYHD0HW29VLS36FVC7I4","","img/set1/S2.jpg","68","2","structured_normal","68","structured_normal,structured_incentive,structured_load,random","2,3,4,2,1,2","4,1,2,3","true","","",""
"null","","html-keyboard-response","173","250256","0.0-173.0","333U7HK6IA1CFHJRWZ2JM4OOMRSJD6","A2ATBS6XTIZE89","3GVPRXWRPHGYHD0HW29VLS36FVC7I4","","<img src=""img/set1/S2.jpg"" width=""540"" height = ""360"" style=""border:16px solid orange"">","null","","","","","","","","","",""
"null","","html-keyboard-response","174","250477","0.0-174.0","333U7HK6IA1CFHJRWZ2JM4OOMRSJD6","A2ATBS6XTIZE89","3GVPRXWRPHGYHD0HW29VLS36FVC7I4","","","null","","","","","","","","","",""
"1003","","image-keyboard-response","175","251482","0.0-175.0","333U7HK6IA1CFHJRWZ2JM4OOMRSJD6","A2ATBS6XTIZE89","3GVPRXWRPHGYHD0HW29VLS36FVC7I4","","img/set1/S3.jpg","83","3","structured_normal","72","structured_normal,structured_incentive,structured_load,random","2,3,4,2,1,2","4,1,2,3","false","","",""
"null","","html-keyboard-response","176","251837","0.0-176.0","333U7HK6IA1CFHJRWZ2JM4OOMRSJD6","A2ATBS6XTIZE89","3GVPRXWRPHGYHD0HW29VLS36FVC7I4","","<img src=""img/set1/S3.jpg"" width=""540"" height = ""360"">","null","","","","","","","","","",""
"null","","html-keyboard-response","177","252056","0.0-177.0","333U7HK6IA1CFHJRWZ2JM4OOMRSJD6","A2ATBS6XTIZE89","3GVPRXWRPHGYHD0HW29VLS36FVC7I4","","","null","","","","","","","","","",""
"779","","image-keyboard-response","178","252837","0.0-178.0","333U7HK6IA1CFHJRWZ2JM4OOMRSJD6","A2ATBS6XTIZE89","3GVPRXWRPHGYHD0HW29VLS36FVC7I4","","img/set1/S4.jpg","74","4","structured_normal","74","structured_normal,structured_incentive,structured_load,random","2,3,4,2,1,2","4,1,2,3","true","","",""
"null","","html-keyboard-response","179","253197","0.0-179.0","333U7HK6IA1CFHJRWZ2JM4OOMRSJD6","A2ATBS6XTIZE89","3GVPRXWRPHGYHD0HW29VLS36FVC7I4","","<img src=""img/set1/S4.jpg"" width=""540"" height = ""360"" style=""border:16px solid orange"">","null","","","","","","","","","",""
"null","","html-keyboard-response","180","253416","0.0-180.0","333U7HK6IA1CFHJRWZ2JM4OOMRSJD6","A2ATBS6XTIZE89","3GVPRXWRPHGYHD0HW29VLS36FVC7I4","","","null","","","","","","","","","",""
"640","","image-keyboard-response","181","254059","0.0-181.0","333U7HK6IA1CFHJRWZ2JM4OOMRSJD6","A2ATBS6XTIZE89","3GVPRXWRPHGYHD0HW29VLS36FVC7I4","","img/set1/S1.jpg","83","1","structured_normal","83","structured_normal,structured_incentive,structured_load,random","2,3,4,2,1,2","4,1,2,3","true","","",""
"null","","html-keyboard-response","182","254426","0.0-182.0","333U7HK6IA1CFHJRWZ2JM4OOMRSJD6","A2ATBS6XTIZE89","3GVPRXWRPHGYHD0HW29VLS36FVC7I4","","<img src=""img/set1/S1.jpg"" width=""540"" height = ""360"" style=""border:16px solid orange"">","null","","","","","","","","","",""
"null","","html-keyboard-response","183","254647","0.0-183.0","333U7HK6IA1CFHJRWZ2JM4OOMRSJD6","A2ATBS6XTIZE89","3GVPRXWRPHGYHD0HW29VLS36FVC7I4","","","null","","","","","","","","","",""
"701","","image-keyboard-response","184","255349","0.0-184.0","333U7HK6IA1CFHJRWZ2JM4OOMRSJD6","A2ATBS6XTIZE89","3GVPRXWRPHGYHD0HW29VLS36FVC7I4","","img/set1/S1.jpg","83","1","structured_normal","83","structured_normal,structured_incentive,structured_load,random","2,3,4,2,1,2","4,1,2,3","true","","",""
"null","","html-keyboard-response","185","255707","0.0-185.0","333U7HK6IA1CFHJRWZ2JM4OOMRSJD6","A2ATBS6XTIZE89","3GVPRXWRPHGYHD0HW29VLS36FVC7I4","","<img src=""img/set1/S1.jpg"" width=""540"" height = ""360"" style=""border:16px solid orange"">","null","","","","","","","","","",""
"null","","html-keyboard-response","186","255926","0.0-186.0","333U7HK6IA1CFHJRWZ2JM4OOMRSJD6","A2ATBS6XTIZE89","3GVPRXWRPHGYHD0HW29VLS36FVC7I4","","","null","","","","","","","","","",""
"867","","image-keyboard-response","187","256796","0.0-187.0","333U7HK6IA1CFHJRWZ2JM4OOMRSJD6","A2ATBS6XTIZE89","3GVPRXWRPHGYHD0HW29VLS36FVC7I4","","img/set1/S4.jpg","74","4","structured_normal","74","structured_normal,structured_incentive,structured_load,random","2,3,4,2,1,2","4,1,2,3","true","","",""
"null","","html-keyboard-response","188","257167","0.0-188.0","333U7HK6IA1CFHJRWZ2JM4OOMRSJD6","A2ATBS6XTIZE89","3GVPRXWRPHGYHD0HW29VLS36FVC7I4","","<img src=""img/set1/S4.jpg"" width=""540"" height = ""360"" style=""border:16px solid orange"">","null","","","","","","","","","",""
"null","","html-keyboard-response","189","257386","0.0-189.0","333U7HK6IA1CFHJRWZ2JM4OOMRSJD6","A2ATBS6XTIZE89","3GVPRXWRPHGYHD0HW29VLS36FVC7I4","","","null","","","","","","","","","",""
"601","","image-keyboard-response","190","257989","0.0-190.0","333U7HK6IA1CFHJRWZ2JM4OOMRSJD6","A2ATBS6XTIZE89","3GVPRXWRPHGYHD0HW29VLS36FVC7I4","","img/set1/S4.jpg","74","4","structured_normal","74","structured_normal,structured_incentive,structured_load,random","2,3,4,2,1,2","4,1,2,3","true","","",""
"null","","html-keyboard-response","191","258348","0.0-191.0","333U7HK6IA1CFHJRWZ2JM4OOMRSJD6","A2ATBS6XTIZE89","3GVPRXWRPHGYHD0HW29VLS36FVC7I4","","<img src=""img/set1/S4.jpg"" width=""540"" height = ""360"" style=""border:16px solid orange"">","null","","","","","","","","","",""
"null","","html-keyboard-response","192","258568","0.0-192.0","333U7HK6IA1CFHJRWZ2JM4OOMRSJD6","A2ATBS6XTIZE89","3GVPRXWRPHGYHD0HW29VLS36FVC7I4","","","null","","","","","","","","","",""
"849","","image-keyboard-response","193","259420","0.0-193.0","333U7HK6IA1CFHJRWZ2JM4OOMRSJD6","A2ATBS6XTIZE89","3GVPRXWRPHGYHD0HW29VLS36FVC7I4","","img/set1/S1.jpg","83","1","structured_normal","83","structured_normal,structured_incentive,structured_load,random","2,3,4,2,1,2","4,1,2,3","true","","",""
"null","","html-keyboard-response","194","259787","0.0-194.0","333U7HK6IA1CFHJRWZ2JM4OOMRSJD6","A2ATBS6XTIZE89","3GVPRXWRPHGYHD0HW29VLS36FVC7I4","","<img src=""img/set1/S1.jpg"" width=""540"" height = ""360"" style=""border:16px solid orange"">","null","","","","","","","","","",""
"null","","html-keyboard-response","195","260007","0.0-195.0","333U7HK6IA1CFHJRWZ2JM4OOMRSJD6","A2ATBS6XTIZE89","3GVPRXWRPHGYHD0HW29VLS36FVC7I4","","","null","","","","","","","","","",""
"594","","image-keyboard-response","196","260604","0.0-196.0","333U7HK6IA1CFHJRWZ2JM4OOMRSJD6","A2ATBS6XTIZE89","3GVPRXWRPHGYHD0HW29VLS36FVC7I4","","img/set1/S2.jpg","68","2","structured_normal","68","structured_normal,structured_incentive,structured_load,random","2,3,4,2,1,2","4,1,2,3","true","","",""
"null","","html-keyboard-response","197","260969","0.0-197.0","333U7HK6IA1CFHJRWZ2JM4OOMRSJD6","A2ATBS6XTIZE89","3GVPRXWRPHGYHD0HW29VLS36FVC7I4","","<img src=""img/set1/S2.jpg"" width=""540"" height = ""360"" style=""border:16px solid orange"">","null","","","","","","","","","",""
"null","","html-keyboard-response","198","261186","0.0-198.0","333U7HK6IA1CFHJRWZ2JM4OOMRSJD6","A2ATBS6XTIZE89","3GVPRXWRPHGYHD0HW29VLS36FVC7I4","","","null","","","","","","","","","",""
"2216","","image-keyboard-response","199","263405","0.0-199.0","333U7HK6IA1CFHJRWZ2JM4OOMRSJD6","A2ATBS6XTIZE89","3GVPRXWRPHGYHD0HW29VLS36FVC7I4","","img/set1/S3.jpg","74","3","structured_normal","72","structured_normal,structured_incentive,structured_load,random","2,3,4,2,1,2","4,1,2,3","false","","",""
"null","","html-keyboard-response","200","263769","0.0-200.0","333U7HK6IA1CFHJRWZ2JM4OOMRSJD6","A2ATBS6XTIZE89","3GVPRXWRPHGYHD0HW29VLS36FVC7I4","","<img src=""img/set1/S3.jpg"" width=""540"" height = ""360"">","null","","","","","","","","","",""
"null","","html-keyboard-response","201","263987","0.0-201.0","333U7HK6IA1CFHJRWZ2JM4OOMRSJD6","A2ATBS6XTIZE89","3GVPRXWRPHGYHD0HW29VLS36FVC7I4","","","null","","","","","","","","","",""
"null","","image-keyboard-response","202","266506","0.0-202.0","333U7HK6IA1CFHJRWZ2JM4OOMRSJD6","A2ATBS6XTIZE89","3GVPRXWRPHGYHD0HW29VLS36FVC7I4","","img/set1/S4.jpg","null","4","structured_normal","74","structured_normal,structured_incentive,structured_load,random","2,3,4,2,1,2","4,1,2,3","false","","",""
"null","","html-keyboard-response","203","266868","0.0-203.0","333U7HK6IA1CFHJRWZ2JM4OOMRSJD6","A2ATBS6XTIZE89","3GVPRXWRPHGYHD0HW29VLS36FVC7I4","","<img src=""img/set1/S4.jpg"" width=""540"" height = ""360"">","null","","","","","","","","","",""
"null","","html-keyboard-response","204","267081","0.0-204.0","333U7HK6IA1CFHJRWZ2JM4OOMRSJD6","A2ATBS6XTIZE89","3GVPRXWRPHGYHD0HW29VLS36FVC7I4","","","null","","","","","","","","","",""
"633","","image-keyboard-response","205","267717","0.0-205.0","333U7HK6IA1CFHJRWZ2JM4OOMRSJD6","A2ATBS6XTIZE89","3GVPRXWRPHGYHD0HW29VLS36FVC7I4","","img/set1/S4.jpg","74","4","structured_normal","74","structured_normal,structured_incentive,structured_load,random","2,3,4,2,1,2","4,1,2,3","true","","",""
"null","","html-keyboard-response","206","268079","0.0-206.0","333U7HK6IA1CFHJRWZ2JM4OOMRSJD6","A2ATBS6XTIZE89","3GVPRXWRPHGYHD0HW29VLS36FVC7I4","","<img src=""img/set1/S4.jpg"" width=""540"" height = ""360"" style=""border:16px solid orange"">","null","","","","","","","","","",""
"null","","html-keyboard-response","207","268298","0.0-207.0","333U7HK6IA1CFHJRWZ2JM4OOMRSJD6","A2ATBS6XTIZE89","3GVPRXWRPHGYHD0HW29VLS36FVC7I4","","","null","","","","","","","","","",""
"1215","","image-keyboard-response","208","269518","0.0-208.0","333U7HK6IA1CFHJRWZ2JM4OOMRSJD6","A2ATBS6XTIZE89","3GVPRXWRPHGYHD0HW29VLS36FVC7I4","","img/set1/S2.jpg","68","2","structured_normal","68","structured_normal,structured_incentive,structured_load,random","2,3,4,2,1,2","4,1,2,3","true","","",""
"null","","html-keyboard-response","209","269877","0.0-209.0","333U7HK6IA1CFHJRWZ2JM4OOMRSJD6","A2ATBS6XTIZE89","3GVPRXWRPHGYHD0HW29VLS36FVC7I4","","<img src=""img/set1/S2.jpg"" width=""540"" height = ""360"" style=""border:16px solid orange"">","null","","","","","","","","","",""
"null","","html-keyboard-response","210","270097","0.0-210.0","333U7HK6IA1CFHJRWZ2JM4OOMRSJD6","A2ATBS6XTIZE89","3GVPRXWRPHGYHD0HW29VLS36FVC7I4","","","null","","","","","","","","","",""
"810","","image-keyboard-response","211","270908","0.0-211.0","333U7HK6IA1CFHJRWZ2JM4OOMRSJD6","A2ATBS6XTIZE89","3GVPRXWRPHGYHD0HW29VLS36FVC7I4","","img/set1/S3.jpg","72","3","structured_normal","72","structured_normal,structured_incentive,structured_load,random","2,3,4,2,1,2","4,1,2,3","true","","",""
"null","","html-keyboard-response","212","271276","0.0-212.0","333U7HK6IA1CFHJRWZ2JM4OOMRSJD6","A2ATBS6XTIZE89","3GVPRXWRPHGYHD0HW29VLS36FVC7I4","","<img src=""img/set1/S3.jpg"" width=""540"" height = ""360"" style=""border:16px solid orange"">","null","","","","","","","","","",""
"null","","html-keyboard-response","213","271498","0.0-213.0","333U7HK6IA1CFHJRWZ2JM4OOMRSJD6","A2ATBS6XTIZE89","3GVPRXWRPHGYHD0HW29VLS36FVC7I4","","","null","","","","","","","","","",""
"616","","image-keyboard-response","214","272118","0.0-214.0","333U7HK6IA1CFHJRWZ2JM4OOMRSJD6","A2ATBS6XTIZE89","3GVPRXWRPHGYHD0HW29VLS36FVC7I4","","img/set1/S1.jpg","83","1","structured_normal","83","structured_normal,structured_incentive,structured_load,random","2,3,4,2,1,2","4,1,2,3","true","","",""
"null","","html-keyboard-response","215","272478","0.0-215.0","333U7HK6IA1CFHJRWZ2JM4OOMRSJD6","A2ATBS6XTIZE89","3GVPRXWRPHGYHD0HW29VLS36FVC7I4","","<img src=""img/set1/S1.jpg"" width=""540"" height = ""360"" style=""border:16px solid orange"">","null","","","","","","","","","",""
"null","","html-keyboard-response","216","272699","0.0-216.0","333U7HK6IA1CFHJRWZ2JM4OOMRSJD6","A2ATBS6XTIZE89","3GVPRXWRPHGYHD0HW29VLS36FVC7I4","","","null","","","","","","","","","",""
"998","","image-keyboard-response","217","273699","0.0-217.0","333U7HK6IA1CFHJRWZ2JM4OOMRSJD6","A2ATBS6XTIZE89","3GVPRXWRPHGYHD0HW29VLS36FVC7I4","","img/set1/S4.jpg","72","4","structured_normal","74","structured_normal,structured_incentive,structured_load,random","2,3,4,2,1,2","4,1,2,3","false","","",""
"null","","html-keyboard-response","218","274059","0.0-218.0","333U7HK6IA1CFHJRWZ2JM4OOMRSJD6","A2ATBS6XTIZE89","3GVPRXWRPHGYHD0HW29VLS36FVC7I4","","<img src=""img/set1/S4.jpg"" width=""540"" height = ""360"">","null","","","","","","","","","",""
"null","","html-keyboard-response","219","274277","0.0-219.0","333U7HK6IA1CFHJRWZ2JM4OOMRSJD6","A2ATBS6XTIZE89","3GVPRXWRPHGYHD0HW29VLS36FVC7I4","","","null","","","","","","","","","",""
"564","","image-keyboard-response","220","274843","0.0-220.0","333U7HK6IA1CFHJRWZ2JM4OOMRSJD6","A2ATBS6XTIZE89","3GVPRXWRPHGYHD0HW29VLS36FVC7I4","","img/set1/S4.jpg","74","4","structured_normal","74","structured_normal,structured_incentive,structured_load,random","2,3,4,2,1,2","4,1,2,3","true","","",""
"null","","html-keyboard-response","221","275198","0.0-221.0","333U7HK6IA1CFHJRWZ2JM4OOMRSJD6","A2ATBS6XTIZE89","3GVPRXWRPHGYHD0HW29VLS36FVC7I4","","<img src=""img/set1/S4.jpg"" width=""540"" height = ""360"" style=""border:16px solid orange"">","null","","","","","","","","","",""
"null","","html-keyboard-response","222","275416","0.0-222.0","333U7HK6IA1CFHJRWZ2JM4OOMRSJD6","A2ATBS6XTIZE89","3GVPRXWRPHGYHD0HW29VLS36FVC7I4","","","null","","","","","","","","","",""
"417","","image-keyboard-response","223","275836","0.0-223.0","333U7HK6IA1CFHJRWZ2JM4OOMRSJD6","A2ATBS6XTIZE89","3GVPRXWRPHGYHD0HW29VLS36FVC7I4","","img/set1/S4.jpg","74","4","structured_normal","74","structured_normal,structured_incentive,structured_load,random","2,3,4,2,1,2","4,1,2,3","true","","",""
"null","","html-keyboard-response","224","276196","0.0-224.0","333U7HK6IA1CFHJRWZ2JM4OOMRSJD6","A2ATBS6XTIZE89","3GVPRXWRPHGYHD0HW29VLS36FVC7I4","","<img src=""img/set1/S4.jpg"" width=""540"" height = ""360"" style=""border:16px solid orange"">","null","","","","","","","","","",""
"null","","html-keyboard-response","225","276416","0.0-225.0","333U7HK6IA1CFHJRWZ2JM4OOMRSJD6","A2ATBS6XTIZE89","3GVPRXWRPHGYHD0HW29VLS36FVC7I4","","","null","","","","","","","","","",""
"402","","image-keyboard-response","226","276822","0.0-226.0","333U7HK6IA1CFHJRWZ2JM4OOMRSJD6","A2ATBS6XTIZE89","3GVPRXWRPHGYHD0HW29VLS36FVC7I4","","img/set1/S4.jpg","74","4","structured_normal","74","structured_normal,structured_incentive,structured_load,random","2,3,4,2,1,2","4,1,2,3","true","","",""
"null","","html-keyboard-response","227","277177","0.0-227.0","333U7HK6IA1CFHJRWZ2JM4OOMRSJD6","A2ATBS6XTIZE89","3GVPRXWRPHGYHD0HW29VLS36FVC7I4","","<img src=""img/set1/S4.jpg"" width=""540"" height = ""360"" style=""border:16px solid orange"">","null","","","","","","","","","",""
"null","","html-keyboard-response","228","277398","0.0-228.0","333U7HK6IA1CFHJRWZ2JM4OOMRSJD6","A2ATBS6XTIZE89","3GVPRXWRPHGYHD0HW29VLS36FVC7I4","","","null","","","","","","","","","",""
"442","","image-keyboard-response","229","277843","0.0-229.0","333U7HK6IA1CFHJRWZ2JM4OOMRSJD6","A2ATBS6XTIZE89","3GVPRXWRPHGYHD0HW29VLS36FVC7I4","","img/set1/S4.jpg","74","4","structured_normal","74","structured_normal,structured_incentive,structured_load,random","2,3,4,2,1,2","4,1,2,3","true","","",""
"null","","html-keyboard-response","230","278198","0.0-230.0","333U7HK6IA1CFHJRWZ2JM4OOMRSJD6","A2ATBS6XTIZE89","3GVPRXWRPHGYHD0HW29VLS36FVC7I4","","<img src=""img/set1/S4.jpg"" width=""540"" height = ""360"" style=""border:16px solid orange"">","null","","","","","","","","","",""
"null","","html-keyboard-response","231","278408","0.0-231.0","333U7HK6IA1CFHJRWZ2JM4OOMRSJD6","A2ATBS6XTIZE89","3GVPRXWRPHGYHD0HW29VLS36FVC7I4","","","null","","","","","","","","","",""
"1459","","image-keyboard-response","232","279872","0.0-232.0","333U7HK6IA1CFHJRWZ2JM4OOMRSJD6","A2ATBS6XTIZE89","3GVPRXWRPHGYHD0HW29VLS36FVC7I4","","img/set1/S1.jpg","83","1","structured_normal","83","structured_normal,structured_incentive,structured_load,random","2,3,4,2,1,2","4,1,2,3","true","","",""
"null","","html-keyboard-response","233","280228","0.0-233.0","333U7HK6IA1CFHJRWZ2JM4OOMRSJD6","A2ATBS6XTIZE89","3GVPRXWRPHGYHD0HW29VLS36FVC7I4","","<img src=""img/set1/S1.jpg"" width=""540"" height = ""360"" style=""border:16px solid orange"">","null","","","","","","","","","",""
"null","","html-keyboard-response","234","280448","0.0-234.0","333U7HK6IA1CFHJRWZ2JM4OOMRSJD6","A2ATBS6XTIZE89","3GVPRXWRPHGYHD0HW29VLS36FVC7I4","","","null","","","","","","","","","",""
"884","","image-keyboard-response","235","281334","0.0-235.0","333U7HK6IA1CFHJRWZ2JM4OOMRSJD6","A2ATBS6XTIZE89","3GVPRXWRPHGYHD0HW29VLS36FVC7I4","","img/set1/S3.jpg","72","3","structured_normal","72","structured_normal,structured_incentive,structured_load,random","2,3,4,2,1,2","4,1,2,3","true","","",""
"null","","html-keyboard-response","236","281707","0.0-236.0","333U7HK6IA1CFHJRWZ2JM4OOMRSJD6","A2ATBS6XTIZE89","3GVPRXWRPHGYHD0HW29VLS36FVC7I4","","<img src=""img/set1/S3.jpg"" width=""540"" height = ""360"" style=""border:16px solid orange"">","null","","","","","","","","","",""
"null","","html-keyboard-response","237","281927","0.0-237.0","333U7HK6IA1CFHJRWZ2JM4OOMRSJD6","A2ATBS6XTIZE89","3GVPRXWRPHGYHD0HW29VLS36FVC7I4","","","null","","","","","","","","","",""
"1403","","image-keyboard-response","238","283332","0.0-238.0","333U7HK6IA1CFHJRWZ2JM4OOMRSJD6","A2ATBS6XTIZE89","3GVPRXWRPHGYHD0HW29VLS36FVC7I4","","img/set1/S2.jpg","68","2","structured_normal","68","structured_normal,structured_incentive,structured_load,random","2,3,4,2,1,2","4,1,2,3","true","","",""
"null","","html-keyboard-response","239","283697","0.0-239.0","333U7HK6IA1CFHJRWZ2JM4OOMRSJD6","A2ATBS6XTIZE89","3GVPRXWRPHGYHD0HW29VLS36FVC7I4","","<img src=""img/set1/S2.jpg"" width=""540"" height = ""360"" style=""border:16px solid orange"">","null","","","","","","","","","",""
"null","","html-keyboard-response","240","283916","0.0-240.0","333U7HK6IA1CFHJRWZ2JM4OOMRSJD6","A2ATBS6XTIZE89","3GVPRXWRPHGYHD0HW29VLS36FVC7I4","","","null","","","","","","","","","",""
"1143","","image-keyboard-response","241","285061","0.0-241.0","333U7HK6IA1CFHJRWZ2JM4OOMRSJD6","A2ATBS6XTIZE89","3GVPRXWRPHGYHD0HW29VLS36FVC7I4","","img/set1/S3.jpg","72","3","structured_normal","72","structured_normal,structured_incentive,structured_load,random","2,3,4,2,1,2","4,1,2,3","true","","",""
"null","","html-keyboard-response","242","285416","0.0-242.0","333U7HK6IA1CFHJRWZ2JM4OOMRSJD6","A2ATBS6XTIZE89","3GVPRXWRPHGYHD0HW29VLS36FVC7I4","","<img src=""img/set1/S3.jpg"" width=""540"" height = ""360"" style=""border:16px solid orange"">","null","","","","","","","","","",""
"null","","html-keyboard-response","243","285637","0.0-243.0","333U7HK6IA1CFHJRWZ2JM4OOMRSJD6","A2ATBS6XTIZE89","3GVPRXWRPHGYHD0HW29VLS36FVC7I4","","","null","","","","","","","","","",""
"611","","image-keyboard-response","244","286251","0.0-244.0","333U7HK6IA1CFHJRWZ2JM4OOMRSJD6","A2ATBS6XTIZE89","3GVPRXWRPHGYHD0HW29VLS36FVC7I4","","img/set1/S2.jpg","68","2","structured_normal","68","structured_normal,structured_incentive,structured_load,random","2,3,4,2,1,2","4,1,2,3","true","","",""
"null","","html-keyboard-response","245","286612","0.0-245.0","333U7HK6IA1CFHJRWZ2JM4OOMRSJD6","A2ATBS6XTIZE89","3GVPRXWRPHGYHD0HW29VLS36FVC7I4","","<img src=""img/set1/S2.jpg"" width=""540"" height = ""360"" style=""border:16px solid orange"">","null","","","","","","","","","",""
"null","","html-keyboard-response","246","286828","0.0-246.0","333U7HK6IA1CFHJRWZ2JM4OOMRSJD6","A2ATBS6XTIZE89","3GVPRXWRPHGYHD0HW29VLS36FVC7I4","","","null","","","","","","","","","",""
"750","","image-keyboard-response","247","287581","0.0-247.0","333U7HK6IA1CFHJRWZ2JM4OOMRSJD6","A2ATBS6XTIZE89","3GVPRXWRPHGYHD0HW29VLS36FVC7I4","","img/set1/S3.jpg","72","3","structured_normal","72","structured_normal,structured_incentive,structured_load,random","2,3,4,2,1,2","4,1,2,3","true","","",""
"null","","html-keyboard-response","248","287948","0.0-248.0","333U7HK6IA1CFHJRWZ2JM4OOMRSJD6","A2ATBS6XTIZE89","3GVPRXWRPHGYHD0HW29VLS36FVC7I4","","<img src=""img/set1/S3.jpg"" width=""540"" height = ""360"" style=""border:16px solid orange"">","null","","","","","","","","","",""
"null","","html-keyboard-response","249","288168","0.0-249.0","333U7HK6IA1CFHJRWZ2JM4OOMRSJD6","A2ATBS6XTIZE89","3GVPRXWRPHGYHD0HW29VLS36FVC7I4","","","null","","","","","","","","","",""
"866","","image-keyboard-response","250","289037","0.0-250.0","333U7HK6IA1CFHJRWZ2JM4OOMRSJD6","A2ATBS6XTIZE89","3GVPRXWRPHGYHD0HW29VLS36FVC7I4","","img/set1/S2.jpg","68","2","structured_normal","68","structured_normal,structured_incentive,structured_load,random","2,3,4,2,1,2","4,1,2,3","true","","",""
"null","","html-keyboard-response","251","289407","0.0-251.0","333U7HK6IA1CFHJRWZ2JM4OOMRSJD6","A2ATBS6XTIZE89","3GVPRXWRPHGYHD0HW29VLS36FVC7I4","","<img src=""img/set1/S2.jpg"" width=""540"" height = ""360"" style=""border:16px solid orange"">","null","","","","","","","","","",""
"null","","html-keyboard-response","252","289627","0.0-252.0","333U7HK6IA1CFHJRWZ2JM4OOMRSJD6","A2ATBS6XTIZE89","3GVPRXWRPHGYHD0HW29VLS36FVC7I4","","","null","","","","","","","","","",""
"704","","image-keyboard-response","253","290333","0.0-253.0","333U7HK6IA1CFHJRWZ2JM4OOMRSJD6","A2ATBS6XTIZE89","3GVPRXWRPHGYHD0HW29VLS36FVC7I4","","img/set1/S3.jpg","74","3","structured_normal","72","structured_normal,structured_incentive,structured_load,random","2,3,4,2,1,2","4,1,2,3","false","","",""
"null","","html-keyboard-response","254","290687","0.0-254.0","333U7HK6IA1CFHJRWZ2JM4OOMRSJD6","A2ATBS6XTIZE89","3GVPRXWRPHGYHD0HW29VLS36FVC7I4","","<img src=""img/set1/S3.jpg"" width=""540"" height = ""360"">","null","","","","","","","","","",""
"null","","html-keyboard-response","255","290908","0.0-255.0","333U7HK6IA1CFHJRWZ2JM4OOMRSJD6","A2ATBS6XTIZE89","3GVPRXWRPHGYHD0HW29VLS36FVC7I4","","","null","","","","","","","","","",""
"619","","image-keyboard-response","256","291530","0.0-256.0","333U7HK6IA1CFHJRWZ2JM4OOMRSJD6","A2ATBS6XTIZE89","3GVPRXWRPHGYHD0HW29VLS36FVC7I4","","img/set1/S2.jpg","68","2","structured_normal","68","structured_normal,structured_incentive,structured_load,random","2,3,4,2,1,2","4,1,2,3","true","","",""
"null","","html-keyboard-response","257","291897","0.0-257.0","333U7HK6IA1CFHJRWZ2JM4OOMRSJD6","A2ATBS6XTIZE89","3GVPRXWRPHGYHD0HW29VLS36FVC7I4","","<img src=""img/set1/S2.jpg"" width=""540"" height = ""360"" style=""border:16px solid orange"">","null","","","","","","","","","",""
"null","","html-keyboard-response","258","292117","0.0-258.0","333U7HK6IA1CFHJRWZ2JM4OOMRSJD6","A2ATBS6XTIZE89","3GVPRXWRPHGYHD0HW29VLS36FVC7I4","","","null","","","","","","","","","",""
"812","","image-keyboard-response","259","292931","0.0-259.0","333U7HK6IA1CFHJRWZ2JM4OOMRSJD6","A2ATBS6XTIZE89","3GVPRXWRPHGYHD0HW29VLS36FVC7I4","","img/set1/S3.jpg","72","3","structured_normal","72","structured_normal,structured_incentive,structured_load,random","2,3,4,2,1,2","4,1,2,3","true","","",""
"null","","html-keyboard-response","260","293288","0.0-260.0","333U7HK6IA1CFHJRWZ2JM4OOMRSJD6","A2ATBS6XTIZE89","3GVPRXWRPHGYHD0HW29VLS36FVC7I4","","<img src=""img/set1/S3.jpg"" width=""540"" height = ""360"" style=""border:16px solid orange"">","null","","","","","","","","","",""
"null","","html-keyboard-response","261","293510","0.0-261.0","333U7HK6IA1CFHJRWZ2JM4OOMRSJD6","A2ATBS6XTIZE89","3GVPRXWRPHGYHD0HW29VLS36FVC7I4","","","null","","","","","","","","","",""
"692","","image-keyboard-response","262","294204","0.0-262.0","333U7HK6IA1CFHJRWZ2JM4OOMRSJD6","A2ATBS6XTIZE89","3GVPRXWRPHGYHD0HW29VLS36FVC7I4","","img/set1/S4.jpg","74","4","structured_normal","74","structured_normal,structured_incentive,structured_load,random","2,3,4,2,1,2","4,1,2,3","true","","",""
"null","","html-keyboard-response","263","294576","0.0-263.0","333U7HK6IA1CFHJRWZ2JM4OOMRSJD6","A2ATBS6XTIZE89","3GVPRXWRPHGYHD0HW29VLS36FVC7I4","","<img src=""img/set1/S4.jpg"" width=""540"" height = ""360"" style=""border:16px solid orange"">","null","","","","","","","","","",""
"null","","html-keyboard-response","264","294797","0.0-264.0","333U7HK6IA1CFHJRWZ2JM4OOMRSJD6","A2ATBS6XTIZE89","3GVPRXWRPHGYHD0HW29VLS36FVC7I4","","","null","","","","","","","","","",""
"1224","","image-keyboard-response","265","296021","0.0-265.0","333U7HK6IA1CFHJRWZ2JM4OOMRSJD6","A2ATBS6XTIZE89","3GVPRXWRPHGYHD0HW29VLS36FVC7I4","","img/set1/S1.jpg","83","1","structured_normal","83","structured_normal,structured_incentive,structured_load,random","2,3,4,2,1,2","4,1,2,3","true","","",""
"null","","html-keyboard-response","266","296377","0.0-266.0","333U7HK6IA1CFHJRWZ2JM4OOMRSJD6","A2ATBS6XTIZE89","3GVPRXWRPHGYHD0HW29VLS36FVC7I4","","<img src=""img/set1/S1.jpg"" width=""540"" height = ""360"" style=""border:16px solid orange"">","null","","","","","","","","","",""
"null","","html-keyboard-response","267","296597","0.0-267.0","333U7HK6IA1CFHJRWZ2JM4OOMRSJD6","A2ATBS6XTIZE89","3GVPRXWRPHGYHD0HW29VLS36FVC7I4","","","null","","","","","","","","","",""
"605","","image-keyboard-response","268","297202","0.0-268.0","333U7HK6IA1CFHJRWZ2JM4OOMRSJD6","A2ATBS6XTIZE89","3GVPRXWRPHGYHD0HW29VLS36FVC7I4","","img/set1/S1.jpg","83","1","structured_normal","83","structured_normal,structured_incentive,structured_load,random","2,3,4,2,1,2","4,1,2,3","true","","",""
"null","","html-keyboard-response","269","297558","0.0-269.0","333U7HK6IA1CFHJRWZ2JM4OOMRSJD6","A2ATBS6XTIZE89","3GVPRXWRPHGYHD0HW29VLS36FVC7I4","","<img src=""img/set1/S1.jpg"" width=""540"" height = ""360"" style=""border:16px solid orange"">","null","","","","","","","","","",""
"null","","html-keyboard-response","270","297776","0.0-270.0","333U7HK6IA1CFHJRWZ2JM4OOMRSJD6","A2ATBS6XTIZE89","3GVPRXWRPHGYHD0HW29VLS36FVC7I4","","","null","","","","","","","","","",""
"658","","image-keyboard-response","271","298437","0.0-271.0","333U7HK6IA1CFHJRWZ2JM4OOMRSJD6","A2ATBS6XTIZE89","3GVPRXWRPHGYHD0HW29VLS36FVC7I4","","img/set1/S2.jpg","68","2","structured_normal","68","structured_normal,structured_incentive,structured_load,random","2,3,4,2,1,2","4,1,2,3","true","","",""
"null","","html-keyboard-response","272","298804","0.0-272.0","333U7HK6IA1CFHJRWZ2JM4OOMRSJD6","A2ATBS6XTIZE89","3GVPRXWRPHGYHD0HW29VLS36FVC7I4","","<img src=""img/set1/S2.jpg"" width=""540"" height = ""360"" style=""border:16px solid orange"">","null","","","","","","","","","",""
"null","","html-keyboard-response","273","299027","0.0-273.0","333U7HK6IA1CFHJRWZ2JM4OOMRSJD6","A2ATBS6XTIZE89","3GVPRXWRPHGYHD0HW29VLS36FVC7I4","","","null","","","","","","","","","",""
"759","","image-keyboard-response","274","299789","0.0-274.0","333U7HK6IA1CFHJRWZ2JM4OOMRSJD6","A2ATBS6XTIZE89","3GVPRXWRPHGYHD0HW29VLS36FVC7I4","","img/set1/S3.jpg","72","3","structured_normal","72","structured_normal,structured_incentive,structured_load,random","2,3,4,2,1,2","4,1,2,3","true","","",""
"null","","html-keyboard-response","275","300148","0.0-275.0","333U7HK6IA1CFHJRWZ2JM4OOMRSJD6","A2ATBS6XTIZE89","3GVPRXWRPHGYHD0HW29VLS36FVC7I4","","<img src=""img/set1/S3.jpg"" width=""540"" height = ""360"" style=""border:16px solid orange"">","null","","","","","","","","","",""
"null","","html-keyboard-response","276","300367","0.0-276.0","333U7HK6IA1CFHJRWZ2JM4OOMRSJD6","A2ATBS6XTIZE89","3GVPRXWRPHGYHD0HW29VLS36FVC7I4","","","null","","","","","","","","","",""
"542","","image-keyboard-response","277","300911","0.0-277.0","333U7HK6IA1CFHJRWZ2JM4OOMRSJD6","A2ATBS6XTIZE89","3GVPRXWRPHGYHD0HW29VLS36FVC7I4","","img/set1/S4.jpg","74","4","structured_normal","74","structured_normal,structured_incentive,structured_load,random","2,3,4,2,1,2","4,1,2,3","true","","",""
"null","","html-keyboard-response","278","301267","0.0-278.0","333U7HK6IA1CFHJRWZ2JM4OOMRSJD6","A2ATBS6XTIZE89","3GVPRXWRPHGYHD0HW29VLS36FVC7I4","","<img src=""img/set1/S4.jpg"" width=""540"" height = ""360"" style=""border:16px solid orange"">","null","","","","","","","","","",""
"null","","html-keyboard-response","279","301488","0.0-279.0","333U7HK6IA1CFHJRWZ2JM4OOMRSJD6","A2ATBS6XTIZE89","3GVPRXWRPHGYHD0HW29VLS36FVC7I4","","","null","","","","","","","","","",""
"866","","image-keyboard-response","280","302357","0.0-280.0","333U7HK6IA1CFHJRWZ2JM4OOMRSJD6","A2ATBS6XTIZE89","3GVPRXWRPHGYHD0HW29VLS36FVC7I4","","img/set1/S2.jpg","68","2","structured_normal","68","structured_normal,structured_incentive,structured_load,random","2,3,4,2,1,2","4,1,2,3","true","","",""
"null","","html-keyboard-response","281","302727","0.0-281.0","333U7HK6IA1CFHJRWZ2JM4OOMRSJD6","A2ATBS6XTIZE89","3GVPRXWRPHGYHD0HW29VLS36FVC7I4","","<img src=""img/set1/S2.jpg"" width=""540"" height = ""360"" style=""border:16px solid orange"">","null","","","","","","","","","",""
"null","","html-keyboard-response","282","302948","0.0-282.0","333U7HK6IA1CFHJRWZ2JM4OOMRSJD6","A2ATBS6XTIZE89","3GVPRXWRPHGYHD0HW29VLS36FVC7I4","","","null","","","","","","","","","",""
"1382","","image-keyboard-response","283","304334","0.0-283.0","333U7HK6IA1CFHJRWZ2JM4OOMRSJD6","A2ATBS6XTIZE89","3GVPRXWRPHGYHD0HW29VLS36FVC7I4","","img/set1/S3.jpg","72","3","structured_normal","72","structured_normal,structured_incentive,structured_load,random","2,3,4,2,1,2","4,1,2,3","true","","",""
"null","","html-keyboard-response","284","304706","0.0-284.0","333U7HK6IA1CFHJRWZ2JM4OOMRSJD6","A2ATBS6XTIZE89","3GVPRXWRPHGYHD0HW29VLS36FVC7I4","","<img src=""img/set1/S3.jpg"" width=""540"" height = ""360"" style=""border:16px solid orange"">","null","","","","","","","","","",""
"null","","html-keyboard-response","285","304928","0.0-285.0","333U7HK6IA1CFHJRWZ2JM4OOMRSJD6","A2ATBS6XTIZE89","3GVPRXWRPHGYHD0HW29VLS36FVC7I4","","","null","","","","","","","","","",""
"585","","image-keyboard-response","286","305514","0.0-286.0","333U7HK6IA1CFHJRWZ2JM4OOMRSJD6","A2ATBS6XTIZE89","3GVPRXWRPHGYHD0HW29VLS36FVC7I4","","img/set1/S1.jpg","83","1","structured_normal","83","structured_normal,structured_incentive,structured_load,random","2,3,4,2,1,2","4,1,2,3","true","","",""
"null","","html-keyboard-response","287","305877","0.0-287.0","333U7HK6IA1CFHJRWZ2JM4OOMRSJD6","A2ATBS6XTIZE89","3GVPRXWRPHGYHD0HW29VLS36FVC7I4","","<img src=""img/set1/S1.jpg"" width=""540"" height = ""360"" style=""border:16px solid orange"">","null","","","","","","","","","",""
"null","","html-keyboard-response","288","306088","0.0-288.0","333U7HK6IA1CFHJRWZ2JM4OOMRSJD6","A2ATBS6XTIZE89","3GVPRXWRPHGYHD0HW29VLS36FVC7I4","","","null","","","","","","","","","",""
"523","","image-keyboard-response","289","306612","0.0-289.0","333U7HK6IA1CFHJRWZ2JM4OOMRSJD6","A2ATBS6XTIZE89","3GVPRXWRPHGYHD0HW29VLS36FVC7I4","","img/set1/S1.jpg","68","1","structured_normal","83","structured_normal,structured_incentive,structured_load,random","2,3,4,2,1,2","4,1,2,3","false","","",""
"null","","html-keyboard-response","290","306968","0.0-290.0","333U7HK6IA1CFHJRWZ2JM4OOMRSJD6","A2ATBS6XTIZE89","3GVPRXWRPHGYHD0HW29VLS36FVC7I4","","<img src=""img/set1/S1.jpg"" width=""540"" height = ""360"">","null","","","","","","","","","",""
"null","","html-keyboard-response","291","307186","0.0-291.0","333U7HK6IA1CFHJRWZ2JM4OOMRSJD6","A2ATBS6XTIZE89","3GVPRXWRPHGYHD0HW29VLS36FVC7I4","","","null","","","","","","","","","",""
"552","","image-keyboard-response","292","307739","0.0-292.0","333U7HK6IA1CFHJRWZ2JM4OOMRSJD6","A2ATBS6XTIZE89","3GVPRXWRPHGYHD0HW29VLS36FVC7I4","","img/set1/S1.jpg","83","1","structured_normal","83","structured_normal,structured_incentive,structured_load,random","2,3,4,2,1,2","4,1,2,3","true","","",""
"null","","html-keyboard-response","293","308098","0.0-293.0","333U7HK6IA1CFHJRWZ2JM4OOMRSJD6","A2ATBS6XTIZE89","3GVPRXWRPHGYHD0HW29VLS36FVC7I4","","<img src=""img/set1/S1.jpg"" width=""540"" height = ""360"" style=""border:16px solid orange"">","null","","","","","","","","","",""
"null","","html-keyboard-response","294","308313","0.0-294.0","333U7HK6IA1CFHJRWZ2JM4OOMRSJD6","A2ATBS6XTIZE89","3GVPRXWRPHGYHD0HW29VLS36FVC7I4","","","null","","","","","","","","","",""
"506","","image-keyboard-response","295","308821","0.0-295.0","333U7HK6IA1CFHJRWZ2JM4OOMRSJD6","A2ATBS6XTIZE89","3GVPRXWRPHGYHD0HW29VLS36FVC7I4","","img/set1/S1.jpg","83","1","structured_normal","83","structured_normal,structured_incentive,structured_load,random","2,3,4,2,1,2","4,1,2,3","true","","",""
"null","","html-keyboard-response","296","309187","0.0-296.0","333U7HK6IA1CFHJRWZ2JM4OOMRSJD6","A2ATBS6XTIZE89","3GVPRXWRPHGYHD0HW29VLS36FVC7I4","","<img src=""img/set1/S1.jpg"" width=""540"" height = ""360"" style=""border:16px solid orange"">","null","","","","","","","","","",""
"null","","html-keyboard-response","297","309408","0.0-297.0","333U7HK6IA1CFHJRWZ2JM4OOMRSJD6","A2ATBS6XTIZE89","3GVPRXWRPHGYHD0HW29VLS36FVC7I4","","","null","","","","","","","","","",""
"763","","image-keyboard-response","298","310173","0.0-298.0","333U7HK6IA1CFHJRWZ2JM4OOMRSJD6","A2ATBS6XTIZE89","3GVPRXWRPHGYHD0HW29VLS36FVC7I4","","img/set1/S2.jpg","68","2","structured_normal","68","structured_normal,structured_incentive,structured_load,random","2,3,4,2,1,2","4,1,2,3","true","","",""
"null","","html-keyboard-response","299","310538","0.0-299.0","333U7HK6IA1CFHJRWZ2JM4OOMRSJD6","A2ATBS6XTIZE89","3GVPRXWRPHGYHD0HW29VLS36FVC7I4","","<img src=""img/set1/S2.jpg"" width=""540"" height = ""360"" style=""border:16px solid orange"">","null","","","","","","","","","",""
"null","","html-keyboard-response","300","310757","0.0-300.0","333U7HK6IA1CFHJRWZ2JM4OOMRSJD6","A2ATBS6XTIZE89","3GVPRXWRPHGYHD0HW29VLS36FVC7I4","","","null","","","","","","","","","",""
"1140","","image-keyboard-response","301","311899","0.0-301.0","333U7HK6IA1CFHJRWZ2JM4OOMRSJD6","A2ATBS6XTIZE89","3GVPRXWRPHGYHD0HW29VLS36FVC7I4","","img/set1/S4.jpg","74","4","structured_normal","74","structured_normal,structured_incentive,structured_load,random","2,3,4,2,1,2","4,1,2,3","true","","",""
"null","","html-keyboard-response","302","312258","0.0-302.0","333U7HK6IA1CFHJRWZ2JM4OOMRSJD6","A2ATBS6XTIZE89","3GVPRXWRPHGYHD0HW29VLS36FVC7I4","","<img src=""img/set1/S4.jpg"" width=""540"" height = ""360"" style=""border:16px solid orange"">","null","","","","","","","","","",""
"null","","html-keyboard-response","303","312478","0.0-303.0","333U7HK6IA1CFHJRWZ2JM4OOMRSJD6","A2ATBS6XTIZE89","3GVPRXWRPHGYHD0HW29VLS36FVC7I4","","","null","","","","","","","","","",""
"684","","image-keyboard-response","304","313165","0.0-304.0","333U7HK6IA1CFHJRWZ2JM4OOMRSJD6","A2ATBS6XTIZE89","3GVPRXWRPHGYHD0HW29VLS36FVC7I4","","img/set1/S3.jpg","72","3","structured_normal","72","structured_normal,structured_incentive,structured_load,random","2,3,4,2,1,2","4,1,2,3","true","","",""
"null","","html-keyboard-response","305","313536","0.0-305.0","333U7HK6IA1CFHJRWZ2JM4OOMRSJD6","A2ATBS6XTIZE89","3GVPRXWRPHGYHD0HW29VLS36FVC7I4","","<img src=""img/set1/S3.jpg"" width=""540"" height = ""360"" style=""border:16px solid orange"">","null","","","","","","","","","",""
"null","","html-keyboard-response","306","313758","0.0-306.0","333U7HK6IA1CFHJRWZ2JM4OOMRSJD6","A2ATBS6XTIZE89","3GVPRXWRPHGYHD0HW29VLS36FVC7I4","","","null","","","","","","","","","",""
"645","","image-keyboard-response","307","314404","0.0-307.0","333U7HK6IA1CFHJRWZ2JM4OOMRSJD6","A2ATBS6XTIZE89","3GVPRXWRPHGYHD0HW29VLS36FVC7I4","","img/set1/S2.jpg","68","2","structured_normal","68","structured_normal,structured_incentive,structured_load,random","2,3,4,2,1,2","4,1,2,3","true","","",""
"null","","html-keyboard-response","308","314758","0.0-308.0","333U7HK6IA1CFHJRWZ2JM4OOMRSJD6","A2ATBS6XTIZE89","3GVPRXWRPHGYHD0HW29VLS36FVC7I4","","<img src=""img/set1/S2.jpg"" width=""540"" height = ""360"" style=""border:16px solid orange"">","null","","","","","","","","","",""
"null","","html-keyboard-response","309","314979","0.0-309.0","333U7HK6IA1CFHJRWZ2JM4OOMRSJD6","A2ATBS6XTIZE89","3GVPRXWRPHGYHD0HW29VLS36FVC7I4","","","null","","","","","","","","","",""
"710","","image-keyboard-response","310","315692","0.0-310.0","333U7HK6IA1CFHJRWZ2JM4OOMRSJD6","A2ATBS6XTIZE89","3GVPRXWRPHGYHD0HW29VLS36FVC7I4","","img/set1/S3.jpg","72","3","structured_normal","72","structured_normal,structured_incentive,structured_load,random","2,3,4,2,1,2","4,1,2,3","true","","",""
"null","","html-keyboard-response","311","316058","0.0-311.0","333U7HK6IA1CFHJRWZ2JM4OOMRSJD6","A2ATBS6XTIZE89","3GVPRXWRPHGYHD0HW29VLS36FVC7I4","","<img src=""img/set1/S3.jpg"" width=""540"" height = ""360"" style=""border:16px solid orange"">","null","","","","","","","","","",""
"null","","html-keyboard-response","312","316278","0.0-312.0","333U7HK6IA1CFHJRWZ2JM4OOMRSJD6","A2ATBS6XTIZE89","3GVPRXWRPHGYHD0HW29VLS36FVC7I4","","","null","","","","","","","","","",""
"717","","image-keyboard-response","313","316998","0.0-313.0","333U7HK6IA1CFHJRWZ2JM4OOMRSJD6","A2ATBS6XTIZE89","3GVPRXWRPHGYHD0HW29VLS36FVC7I4","","img/set1/S4.jpg","74","4","structured_normal","74","structured_normal,structured_incentive,structured_load,random","2,3,4,2,1,2","4,1,2,3","true","","",""
"null","","html-keyboard-response","314","317368","0.0-314.0","333U7HK6IA1CFHJRWZ2JM4OOMRSJD6","A2ATBS6XTIZE89","3GVPRXWRPHGYHD0HW29VLS36FVC7I4","","<img src=""img/set1/S4.jpg"" width=""540"" height = ""360"" style=""border:16px solid orange"">","null","","","","","","","","","",""
"null","","html-keyboard-response","315","317588","0.0-315.0","333U7HK6IA1CFHJRWZ2JM4OOMRSJD6","A2ATBS6XTIZE89","3GVPRXWRPHGYHD0HW29VLS36FVC7I4","","","null","","","","","","","","","",""
"645","","image-keyboard-response","316","318235","0.0-316.0","333U7HK6IA1CFHJRWZ2JM4OOMRSJD6","A2ATBS6XTIZE89","3GVPRXWRPHGYHD0HW29VLS36FVC7I4","","img/set1/S1.jpg","83","1","structured_normal","83","structured_normal,structured_incentive,structured_load,random","2,3,4,2,1,2","4,1,2,3","true","","",""
"null","","html-keyboard-response","317","318588","0.0-317.0","333U7HK6IA1CFHJRWZ2JM4OOMRSJD6","A2ATBS6XTIZE89","3GVPRXWRPHGYHD0HW29VLS36FVC7I4","","<img src=""img/set1/S1.jpg"" width=""540"" height = ""360"" style=""border:16px solid orange"">","null","","","","","","","","","",""
"null","","html-keyboard-response","318","318807","0.0-318.0","333U7HK6IA1CFHJRWZ2JM4OOMRSJD6","A2ATBS6XTIZE89","3GVPRXWRPHGYHD0HW29VLS36FVC7I4","","","null","","","","","","","","","",""
"491","","image-keyboard-response","319","319299","0.0-319.0","333U7HK6IA1CFHJRWZ2JM4OOMRSJD6","A2ATBS6XTIZE89","3GVPRXWRPHGYHD0HW29VLS36FVC7I4","","img/set1/S1.jpg","83","1","structured_normal","83","structured_normal,structured_incentive,structured_load,random","2,3,4,2,1,2","4,1,2,3","true","","",""
"null","","html-keyboard-response","320","319660","0.0-320.0","333U7HK6IA1CFHJRWZ2JM4OOMRSJD6","A2ATBS6XTIZE89","3GVPRXWRPHGYHD0HW29VLS36FVC7I4","","<img src=""img/set1/S1.jpg"" width=""540"" height = ""360"" style=""border:16px solid orange"">","null","","","","","","","","","",""
"null","","html-keyboard-response","321","319877","0.0-321.0","333U7HK6IA1CFHJRWZ2JM4OOMRSJD6","A2ATBS6XTIZE89","3GVPRXWRPHGYHD0HW29VLS36FVC7I4","","","null","","","","","","","","","",""
"413","","image-keyboard-response","322","320292","0.0-322.0","333U7HK6IA1CFHJRWZ2JM4OOMRSJD6","A2ATBS6XTIZE89","3GVPRXWRPHGYHD0HW29VLS36FVC7I4","","img/set1/S1.jpg","83","1","structured_normal","83","structured_normal,structured_incentive,structured_load,random","2,3,4,2,1,2","4,1,2,3","true","","",""
"null","","html-keyboard-response","323","320658","0.0-323.0","333U7HK6IA1CFHJRWZ2JM4OOMRSJD6","A2ATBS6XTIZE89","3GVPRXWRPHGYHD0HW29VLS36FVC7I4","","<img src=""img/set1/S1.jpg"" width=""540"" height = ""360"" style=""border:16px solid orange"">","null","","","","","","","","","",""
"null","","html-keyboard-response","324","320877","0.0-324.0","333U7HK6IA1CFHJRWZ2JM4OOMRSJD6","A2ATBS6XTIZE89","3GVPRXWRPHGYHD0HW29VLS36FVC7I4","","","null","","","","","","","","","",""
"437","","image-keyboard-response","325","321317","0.0-325.0","333U7HK6IA1CFHJRWZ2JM4OOMRSJD6","A2ATBS6XTIZE89","3GVPRXWRPHGYHD0HW29VLS36FVC7I4","","img/set1/S1.jpg","83","1","structured_normal","83","structured_normal,structured_incentive,structured_load,random","2,3,4,2,1,2","4,1,2,3","true","","",""
"null","","html-keyboard-response","326","321678","0.0-326.0","333U7HK6IA1CFHJRWZ2JM4OOMRSJD6","A2ATBS6XTIZE89","3GVPRXWRPHGYHD0HW29VLS36FVC7I4","","<img src=""img/set1/S1.jpg"" width=""540"" height = ""360"" style=""border:16px solid orange"">","null","","","","","","","","","",""
"null","","html-keyboard-response","327","321896","0.0-327.0","333U7HK6IA1CFHJRWZ2JM4OOMRSJD6","A2ATBS6XTIZE89","3GVPRXWRPHGYHD0HW29VLS36FVC7I4","","","null","","","","","","","","","",""
"491","","image-keyboard-response","328","322389","0.0-328.0","333U7HK6IA1CFHJRWZ2JM4OOMRSJD6","A2ATBS6XTIZE89","3GVPRXWRPHGYHD0HW29VLS36FVC7I4","","img/set1/S2.jpg","68","2","structured_normal","68","structured_normal,structured_incentive,structured_load,random","2,3,4,2,1,2","4,1,2,3","true","","",""
"null","","html-keyboard-response","329","322748","0.0-329.0","333U7HK6IA1CFHJRWZ2JM4OOMRSJD6","A2ATBS6XTIZE89","3GVPRXWRPHGYHD0HW29VLS36FVC7I4","","<img src=""img/set1/S2.jpg"" width=""540"" height = ""360"" style=""border:16px solid orange"">","null","","","","","","","","","",""
"null","","html-keyboard-response","330","322967","0.0-330.0","333U7HK6IA1CFHJRWZ2JM4OOMRSJD6","A2ATBS6XTIZE89","3GVPRXWRPHGYHD0HW29VLS36FVC7I4","","","null","","","","","","","","","",""
"716","","image-keyboard-response","331","323685","0.0-331.0","333U7HK6IA1CFHJRWZ2JM4OOMRSJD6","A2ATBS6XTIZE89","3GVPRXWRPHGYHD0HW29VLS36FVC7I4","","img/set1/S3.jpg","72","3","structured_normal","72","structured_normal,structured_incentive,structured_load,random","2,3,4,2,1,2","4,1,2,3","true","","",""
"null","","html-keyboard-response","332","324049","0.0-332.0","333U7HK6IA1CFHJRWZ2JM4OOMRSJD6","A2ATBS6XTIZE89","3GVPRXWRPHGYHD0HW29VLS36FVC7I4","","<img src=""img/set1/S3.jpg"" width=""540"" height = ""360"" style=""border:16px solid orange"">","null","","","","","","","","","",""
"null","","html-keyboard-response","333","324268","0.0-333.0","333U7HK6IA1CFHJRWZ2JM4OOMRSJD6","A2ATBS6XTIZE89","3GVPRXWRPHGYHD0HW29VLS36FVC7I4","","","null","","","","","","","","","",""
"723","","image-keyboard-response","334","324994","0.0-334.0","333U7HK6IA1CFHJRWZ2JM4OOMRSJD6","A2ATBS6XTIZE89","3GVPRXWRPHGYHD0HW29VLS36FVC7I4","","img/set1/S1.jpg","83","1","structured_normal","83","structured_normal,structured_incentive,structured_load,random","2,3,4,2,1,2","4,1,2,3","true","","",""
"null","","html-keyboard-response","335","325358","0.0-335.0","333U7HK6IA1CFHJRWZ2JM4OOMRSJD6","A2ATBS6XTIZE89","3GVPRXWRPHGYHD0HW29VLS36FVC7I4","","<img src=""img/set1/S1.jpg"" width=""540"" height = ""360"" style=""border:16px solid orange"">","null","","","","","","","","","",""
"null","","html-keyboard-response","336","325577","0.0-336.0","333U7HK6IA1CFHJRWZ2JM4OOMRSJD6","A2ATBS6XTIZE89","3GVPRXWRPHGYHD0HW29VLS36FVC7I4","","","null","","","","","","","","","",""
"683","","image-keyboard-response","337","326260","0.0-337.0","333U7HK6IA1CFHJRWZ2JM4OOMRSJD6","A2ATBS6XTIZE89","3GVPRXWRPHGYHD0HW29VLS36FVC7I4","","img/set1/S4.jpg","74","4","structured_normal","74","structured_normal,structured_incentive,structured_load,random","2,3,4,2,1,2","4,1,2,3","true","","",""
"null","","html-keyboard-response","338","326617","0.0-338.0","333U7HK6IA1CFHJRWZ2JM4OOMRSJD6","A2ATBS6XTIZE89","3GVPRXWRPHGYHD0HW29VLS36FVC7I4","","<img src=""img/set1/S4.jpg"" width=""540"" height = ""360"" style=""border:16px solid orange"">","null","","","","","","","","","",""
"null","","html-keyboard-response","339","326838","0.0-339.0","333U7HK6IA1CFHJRWZ2JM4OOMRSJD6","A2ATBS6XTIZE89","3GVPRXWRPHGYHD0HW29VLS36FVC7I4","","","null","","","","","","","","","",""
"659","","image-keyboard-response","340","327501","0.0-340.0","333U7HK6IA1CFHJRWZ2JM4OOMRSJD6","A2ATBS6XTIZE89","3GVPRXWRPHGYHD0HW29VLS36FVC7I4","","img/set1/S1.jpg","68","1","structured_normal","83","structured_normal,structured_incentive,structured_load,random","2,3,4,2,1,2","4,1,2,3","false","","",""
"null","","html-keyboard-response","341","327856","0.0-341.0","333U7HK6IA1CFHJRWZ2JM4OOMRSJD6","A2ATBS6XTIZE89","3GVPRXWRPHGYHD0HW29VLS36FVC7I4","","<img src=""img/set1/S1.jpg"" width=""540"" height = ""360"">","null","","","","","","","","","",""
"null","","html-keyboard-response","342","328076","0.0-342.0","333U7HK6IA1CFHJRWZ2JM4OOMRSJD6","A2ATBS6XTIZE89","3GVPRXWRPHGYHD0HW29VLS36FVC7I4","","","null","","","","","","","","","",""
"613","","image-keyboard-response","343","328690","0.0-343.0","333U7HK6IA1CFHJRWZ2JM4OOMRSJD6","A2ATBS6XTIZE89","3GVPRXWRPHGYHD0HW29VLS36FVC7I4","","img/set1/S1.jpg","83","1","structured_normal","83","structured_normal,structured_incentive,structured_load,random","2,3,4,2,1,2","4,1,2,3","true","","",""
"null","","html-keyboard-response","344","329057","0.0-344.0","333U7HK6IA1CFHJRWZ2JM4OOMRSJD6","A2ATBS6XTIZE89","3GVPRXWRPHGYHD0HW29VLS36FVC7I4","","<img src=""img/set1/S1.jpg"" width=""540"" height = ""360"" style=""border:16px solid orange"">","null","","","","","","","","","",""
"null","","html-keyboard-response","345","329278","0.0-345.0","333U7HK6IA1CFHJRWZ2JM4OOMRSJD6","A2ATBS6XTIZE89","3GVPRXWRPHGYHD0HW29VLS36FVC7I4","","","null","","","","","","","","","",""
"532","","image-keyboard-response","346","329812","0.0-346.0","333U7HK6IA1CFHJRWZ2JM4OOMRSJD6","A2ATBS6XTIZE89","3GVPRXWRPHGYHD0HW29VLS36FVC7I4","","img/set1/S2.jpg","68","2","structured_normal","68","structured_normal,structured_incentive,structured_load,random","2,3,4,2,1,2","4,1,2,3","true","","",""
"null","","html-keyboard-response","347","330177","0.0-347.0","333U7HK6IA1CFHJRWZ2JM4OOMRSJD6","A2ATBS6XTIZE89","3GVPRXWRPHGYHD0HW29VLS36FVC7I4","","<img src=""img/set1/S2.jpg"" width=""540"" height = ""360"" style=""border:16px solid orange"">","null","","","","","","","","","",""
"null","","html-keyboard-response","348","330399","0.0-348.0","333U7HK6IA1CFHJRWZ2JM4OOMRSJD6","A2ATBS6XTIZE89","3GVPRXWRPHGYHD0HW29VLS36FVC7I4","","","null","","","","","","","","","",""
"733","","image-keyboard-response","349","331133","0.0-349.0","333U7HK6IA1CFHJRWZ2JM4OOMRSJD6","A2ATBS6XTIZE89","3GVPRXWRPHGYHD0HW29VLS36FVC7I4","","img/set1/S3.jpg","72","3","structured_normal","72","structured_normal,structured_incentive,structured_load,random","2,3,4,2,1,2","4,1,2,3","true","","",""
"null","","html-keyboard-response","350","331488","0.0-350.0","333U7HK6IA1CFHJRWZ2JM4OOMRSJD6","A2ATBS6XTIZE89","3GVPRXWRPHGYHD0HW29VLS36FVC7I4","","<img src=""img/set1/S3.jpg"" width=""540"" height = ""360"" style=""border:16px solid orange"">","null","","","","","","","","","",""
"null","","html-keyboard-response","351","331707","0.0-351.0","333U7HK6IA1CFHJRWZ2JM4OOMRSJD6","A2ATBS6XTIZE89","3GVPRXWRPHGYHD0HW29VLS36FVC7I4","","","null","","","","","","","","","",""
"687","","image-keyboard-response","352","332396","0.0-352.0","333U7HK6IA1CFHJRWZ2JM4OOMRSJD6","A2ATBS6XTIZE89","3GVPRXWRPHGYHD0HW29VLS36FVC7I4","","img/set1/S1.jpg","83","1","structured_normal","83","structured_normal,structured_incentive,structured_load,random","2,3,4,2,1,2","4,1,2,3","true","","",""
"null","","html-keyboard-response","353","332767","0.0-353.0","333U7HK6IA1CFHJRWZ2JM4OOMRSJD6","A2ATBS6XTIZE89","3GVPRXWRPHGYHD0HW29VLS36FVC7I4","","<img src=""img/set1/S1.jpg"" width=""540"" height = ""360"" style=""border:16px solid orange"">","null","","","","","","","","","",""
"null","","html-keyboard-response","354","332987","0.0-354.0","333U7HK6IA1CFHJRWZ2JM4OOMRSJD6","A2ATBS6XTIZE89","3GVPRXWRPHGYHD0HW29VLS36FVC7I4","","","null","","","","","","","","","",""
"702","","image-keyboard-response","355","333693","0.0-355.0","333U7HK6IA1CFHJRWZ2JM4OOMRSJD6","A2ATBS6XTIZE89","3GVPRXWRPHGYHD0HW29VLS36FVC7I4","","img/set1/S2.jpg","68","2","structured_normal","68","structured_normal,structured_incentive,structured_load,random","2,3,4,2,1,2","4,1,2,3","true","","",""
"null","","html-keyboard-response","356","334050","0.0-356.0","333U7HK6IA1CFHJRWZ2JM4OOMRSJD6","A2ATBS6XTIZE89","3GVPRXWRPHGYHD0HW29VLS36FVC7I4","","<img src=""img/set1/S2.jpg"" width=""540"" height = ""360"" style=""border:16px solid orange"">","null","","","","","","","","","",""
"null","","html-keyboard-response","357","334267","0.0-357.0","333U7HK6IA1CFHJRWZ2JM4OOMRSJD6","A2ATBS6XTIZE89","3GVPRXWRPHGYHD0HW29VLS36FVC7I4","","","null","","","","","","","","","",""
"959","","image-keyboard-response","358","335229","0.0-358.0","333U7HK6IA1CFHJRWZ2JM4OOMRSJD6","A2ATBS6XTIZE89","3GVPRXWRPHGYHD0HW29VLS36FVC7I4","","img/set1/S3.jpg","72","3","structured_normal","72","structured_normal,structured_incentive,structured_load,random","2,3,4,2,1,2","4,1,2,3","true","","",""
"null","","html-keyboard-response","359","335588","0.0-359.0","333U7HK6IA1CFHJRWZ2JM4OOMRSJD6","A2ATBS6XTIZE89","3GVPRXWRPHGYHD0HW29VLS36FVC7I4","","<img src=""img/set1/S3.jpg"" width=""540"" height = ""360"" style=""border:16px solid orange"">","null","","","","","","","","","",""
"null","","html-keyboard-response","360","335807","0.0-360.0","333U7HK6IA1CFHJRWZ2JM4OOMRSJD6","A2ATBS6XTIZE89","3GVPRXWRPHGYHD0HW29VLS36FVC7I4","","","null","","","","","","","","","",""
"1714","","image-keyboard-response","361","337524","0.0-361.0","333U7HK6IA1CFHJRWZ2JM4OOMRSJD6","A2ATBS6XTIZE89","3GVPRXWRPHGYHD0HW29VLS36FVC7I4","","img/set1/S2.jpg","68","2","structured_normal","68","structured_normal,structured_incentive,structured_load,random","2,3,4,2,1,2","4,1,2,3","true","","",""
"null","","html-keyboard-response","362","337889","0.0-362.0","333U7HK6IA1CFHJRWZ2JM4OOMRSJD6","A2ATBS6XTIZE89","3GVPRXWRPHGYHD0HW29VLS36FVC7I4","","<img src=""img/set1/S2.jpg"" width=""540"" height = ""360"" style=""border:16px solid orange"">","null","","","","","","","","","",""
"null","","html-keyboard-response","363","338107","0.0-363.0","333U7HK6IA1CFHJRWZ2JM4OOMRSJD6","A2ATBS6XTIZE89","3GVPRXWRPHGYHD0HW29VLS36FVC7I4","","","null","","","","","","","","","",""
"833","","image-keyboard-response","364","338941","0.0-364.0","333U7HK6IA1CFHJRWZ2JM4OOMRSJD6","A2ATBS6XTIZE89","3GVPRXWRPHGYHD0HW29VLS36FVC7I4","","img/set1/S3.jpg","72","3","structured_normal","72","structured_normal,structured_incentive,structured_load,random","2,3,4,2,1,2","4,1,2,3","true","","",""
"null","","html-keyboard-response","365","339308","0.0-365.0","333U7HK6IA1CFHJRWZ2JM4OOMRSJD6","A2ATBS6XTIZE89","3GVPRXWRPHGYHD0HW29VLS36FVC7I4","","<img src=""img/set1/S3.jpg"" width=""540"" height = ""360"" style=""border:16px solid orange"">","null","","","","","","","","","",""
"null","","html-keyboard-response","366","339521","0.0-366.0","333U7HK6IA1CFHJRWZ2JM4OOMRSJD6","A2ATBS6XTIZE89","3GVPRXWRPHGYHD0HW29VLS36FVC7I4","","","null","","","","","","","","","",""
"672","","image-keyboard-response","367","340196","0.0-367.0","333U7HK6IA1CFHJRWZ2JM4OOMRSJD6","A2ATBS6XTIZE89","3GVPRXWRPHGYHD0HW29VLS36FVC7I4","","img/set1/S2.jpg","68","2","structured_normal","68","structured_normal,structured_incentive,structured_load,random","2,3,4,2,1,2","4,1,2,3","true","","",""
"null","","html-keyboard-response","368","340556","0.0-368.0","333U7HK6IA1CFHJRWZ2JM4OOMRSJD6","A2ATBS6XTIZE89","3GVPRXWRPHGYHD0HW29VLS36FVC7I4","","<img src=""img/set1/S2.jpg"" width=""540"" height = ""360"" style=""border:16px solid orange"">","null","","","","","","","","","",""
"null","","html-keyboard-response","369","340777","0.0-369.0","333U7HK6IA1CFHJRWZ2JM4OOMRSJD6","A2ATBS6XTIZE89","3GVPRXWRPHGYHD0HW29VLS36FVC7I4","","","null","","","","","","","","","",""
"483","","image-keyboard-response","370","341263","0.0-370.0","333U7HK6IA1CFHJRWZ2JM4OOMRSJD6","A2ATBS6XTIZE89","3GVPRXWRPHGYHD0HW29VLS36FVC7I4","","img/set1/S3.jpg","72","3","structured_normal","72","structured_normal,structured_incentive,structured_load,random","2,3,4,2,1,2","4,1,2,3","true","","",""
"null","","html-keyboard-response","371","341626","0.0-371.0","333U7HK6IA1CFHJRWZ2JM4OOMRSJD6","A2ATBS6XTIZE89","3GVPRXWRPHGYHD0HW29VLS36FVC7I4","","<img src=""img/set1/S3.jpg"" width=""540"" height = ""360"" style=""border:16px solid orange"">","null","","","","","","","","","",""
"null","","html-keyboard-response","372","341848","0.0-372.0","333U7HK6IA1CFHJRWZ2JM4OOMRSJD6","A2ATBS6XTIZE89","3GVPRXWRPHGYHD0HW29VLS36FVC7I4","","","null","","","","","","","","","",""
"698","","image-keyboard-response","373","342548","0.0-373.0","333U7HK6IA1CFHJRWZ2JM4OOMRSJD6","A2ATBS6XTIZE89","3GVPRXWRPHGYHD0HW29VLS36FVC7I4","","img/set1/S2.jpg","68","2","structured_normal","68","structured_normal,structured_incentive,structured_load,random","2,3,4,2,1,2","4,1,2,3","true","","",""
"null","","html-keyboard-response","374","342918","0.0-374.0","333U7HK6IA1CFHJRWZ2JM4OOMRSJD6","A2ATBS6XTIZE89","3GVPRXWRPHGYHD0HW29VLS36FVC7I4","","<img src=""img/set1/S2.jpg"" width=""540"" height = ""360"" style=""border:16px solid orange"">","null","","","","","","","","","",""
"null","","html-keyboard-response","375","343137","0.0-375.0","333U7HK6IA1CFHJRWZ2JM4OOMRSJD6","A2ATBS6XTIZE89","3GVPRXWRPHGYHD0HW29VLS36FVC7I4","","","null","","","","","","","","","",""
"483","","image-keyboard-response","376","343622","0.0-376.0","333U7HK6IA1CFHJRWZ2JM4OOMRSJD6","A2ATBS6XTIZE89","3GVPRXWRPHGYHD0HW29VLS36FVC7I4","","img/set1/S3.jpg","72","3","structured_normal","72","structured_normal,structured_incentive,structured_load,random","2,3,4,2,1,2","4,1,2,3","true","","",""
"null","","html-keyboard-response","377","343997","0.0-377.0","333U7HK6IA1CFHJRWZ2JM4OOMRSJD6","A2ATBS6XTIZE89","3GVPRXWRPHGYHD0HW29VLS36FVC7I4","","<img src=""img/set1/S3.jpg"" width=""540"" height = ""360"" style=""border:16px solid orange"">","null","","","","","","","","","",""
"null","","html-keyboard-response","378","344216","0.0-378.0","333U7HK6IA1CFHJRWZ2JM4OOMRSJD6","A2ATBS6XTIZE89","3GVPRXWRPHGYHD0HW29VLS36FVC7I4","","","null","","","","","","","","","",""
"625","","image-keyboard-response","379","344842","0.0-379.0","333U7HK6IA1CFHJRWZ2JM4OOMRSJD6","A2ATBS6XTIZE89","3GVPRXWRPHGYHD0HW29VLS36FVC7I4","","img/set1/S1.jpg","83","1","structured_normal","83","structured_normal,structured_incentive,structured_load,random","2,3,4,2,1,2","4,1,2,3","true","","",""
"null","","html-keyboard-response","380","345197","0.0-380.0","333U7HK6IA1CFHJRWZ2JM4OOMRSJD6","A2ATBS6XTIZE89","3GVPRXWRPHGYHD0HW29VLS36FVC7I4","","<img src=""img/set1/S1.jpg"" width=""540"" height = ""360"" style=""border:16px solid orange"">","null","","","","","","","","","",""
"null","","html-keyboard-response","381","345418","0.0-381.0","333U7HK6IA1CFHJRWZ2JM4OOMRSJD6","A2ATBS6XTIZE89","3GVPRXWRPHGYHD0HW29VLS36FVC7I4","","","null","","","","","","","","","",""
"616","","image-keyboard-response","382","346037","0.0-382.0","333U7HK6IA1CFHJRWZ2JM4OOMRSJD6","A2ATBS6XTIZE89","3GVPRXWRPHGYHD0HW29VLS36FVC7I4","","img/set1/S2.jpg","68","2","structured_normal","68","structured_normal,structured_incentive,structured_load,random","2,3,4,2,1,2","4,1,2,3","true","","",""
"null","","html-keyboard-response","383","346396","0.0-383.0","333U7HK6IA1CFHJRWZ2JM4OOMRSJD6","A2ATBS6XTIZE89","3GVPRXWRPHGYHD0HW29VLS36FVC7I4","","<img src=""img/set1/S2.jpg"" width=""540"" height = ""360"" style=""border:16px solid orange"">","null","","","","","","","","","",""
"null","","html-keyboard-response","384","346617","0.0-384.0","333U7HK6IA1CFHJRWZ2JM4OOMRSJD6","A2ATBS6XTIZE89","3GVPRXWRPHGYHD0HW29VLS36FVC7I4","","","null","","","","","","","","","",""
"744","","image-keyboard-response","385","347365","0.0-385.0","333U7HK6IA1CFHJRWZ2JM4OOMRSJD6","A2ATBS6XTIZE89","3GVPRXWRPHGYHD0HW29VLS36FVC7I4","","img/set1/S3.jpg","72","3","structured_normal","72","structured_normal,structured_incentive,structured_load,random","2,3,4,2,1,2","4,1,2,3","true","","",""
"null","","html-keyboard-response","386","347738","0.0-386.0","333U7HK6IA1CFHJRWZ2JM4OOMRSJD6","A2ATBS6XTIZE89","3GVPRXWRPHGYHD0HW29VLS36FVC7I4","","<img src=""img/set1/S3.jpg"" width=""540"" height = ""360"" style=""border:16px solid orange"">","null","","","","","","","","","",""
