"rt","url","trial_type","trial_index","time_elapsed","internal_node_id","assignmentID","mturkID","hitID","view_history","stimulus","key_press","state","test_part","correct_response","order_block","order_chunk","order_freq","correct","responses","question_order","bonus"
"23492","consent.html","external-html","0","24108","0.0-0.0","3TR2532VIQGDU84CMCU5GYEW5556J1","A2BJFAKOJRCPYJ","3GVPRXWRPHGYHD0HW29VLS36FVC7I4","","","","","","","","","","","","",""
"140079","","instructions","1","164191","0.0-1.0","3TR2532VIQGDU84CMCU5GYEW5556J1","A2BJFAKOJRCPYJ","3GVPRXWRPHGYHD0HW29VLS36FVC7I4","[{""page_index"":0,""viewing_time"":4071},{""page_index"":1,""viewing_time"":4967},{""page_index"":2,""viewing_time"":22556},{""page_index"":3,""viewing_time"":7259},{""page_index"":4,""viewing_time"":29155},{""page_index"":5,""viewing_time"":39102},{""page_index"":6,""viewing_time"":32968}]","","","","","","","","","","","",""
"18487","","instructions","2","182679","0.0-2.0","3TR2532VIQGDU84CMCU5GYEW5556J1","A2BJFAKOJRCPYJ","3GVPRXWRPHGYHD0HW29VLS36FVC7I4","[{""page_index"":0,""viewing_time"":18487}]","","","","","","","","","","","",""
"3057","","instructions","3","185738","0.0-3.0","3TR2532VIQGDU84CMCU5GYEW5556J1","A2BJFAKOJRCPYJ","3GVPRXWRPHGYHD0HW29VLS36FVC7I4","[{""page_index"":0,""viewing_time"":3056}]","","","","","","","","","","","",""
"1938","","image-keyboard-response","4","187680","0.0-4.0","3TR2532VIQGDU84CMCU5GYEW5556J1","A2BJFAKOJRCPYJ","3GVPRXWRPHGYHD0HW29VLS36FVC7I4","","img/set1/S2.jpg","83","2","random","68","random,structured_normal,structured_load,structured_incentive","2,3,1,2,4,2","2,4,3,1","false","","",""
"null","","html-keyboard-response","5","188054","0.0-5.0","3TR2532VIQGDU84CMCU5GYEW5556J1","A2BJFAKOJRCPYJ","3GVPRXWRPHGYHD0HW29VLS36FVC7I4","","<img src=""img/set1/S2.jpg"" width=""540"" height = ""360"">","null","","","","","","","","","",""
"null","","html-keyboard-response","6","188269","0.0-6.0","3TR2532VIQGDU84CMCU5GYEW5556J1","A2BJFAKOJRCPYJ","3GVPRXWRPHGYHD0HW29VLS36FVC7I4","","","null","","","","","","","","","",""
"1037","","image-keyboard-response","7","189312","0.0-7.0","3TR2532VIQGDU84CMCU5GYEW5556J1","A2BJFAKOJRCPYJ","3GVPRXWRPHGYHD0HW29VLS36FVC7I4","","img/set1/S2.jpg","83","2","random","68","random,structured_normal,structured_load,structured_incentive","2,3,1,2,4,2","2,4,3,1","false","","",""
"null","","html-keyboard-response","8","189668","0.0-8.0","3TR2532VIQGDU84CMCU5GYEW5556J1","A2BJFAKOJRCPYJ","3GVPRXWRPHGYHD0HW29VLS36FVC7I4","","<img src=""img/set1/S2.jpg"" width=""540"" height = ""360"">","null","","","","","","","","","",""
"null","","html-keyboard-response","9","189872","0.0-9.0","3TR2532VIQGDU84CMCU5GYEW5556J1","A2BJFAKOJRCPYJ","3GVPRXWRPHGYHD0HW29VLS36FVC7I4","","","null","","","","","","","","","",""
"1026","","image-keyboard-response","10","190907","0.0-10.0","3TR2532VIQGDU84CMCU5GYEW5556J1","A2BJFAKOJRCPYJ","3GVPRXWRPHGYHD0HW29VLS36FVC7I4","","img/set1/S1.jpg","72","1","random","83","random,structured_normal,structured_load,structured_incentive","2,3,1,2,4,2","2,4,3,1","false","","",""
"null","","html-keyboard-response","11","191263","0.0-11.0","3TR2532VIQGDU84CMCU5GYEW5556J1","A2BJFAKOJRCPYJ","3GVPRXWRPHGYHD0HW29VLS36FVC7I4","","<img src=""img/set1/S1.jpg"" width=""540"" height = ""360"">","null","","","","","","","","","",""
"null","","html-keyboard-response","12","191466","0.0-12.0","3TR2532VIQGDU84CMCU5GYEW5556J1","A2BJFAKOJRCPYJ","3GVPRXWRPHGYHD0HW29VLS36FVC7I4","","","null","","","","","","","","","",""
"107","","image-keyboard-response","13","191577","0.0-13.0","3TR2532VIQGDU84CMCU5GYEW5556J1","A2BJFAKOJRCPYJ","3GVPRXWRPHGYHD0HW29VLS36FVC7I4","","img/set1/S2.jpg","74","2","random","68","random,structured_normal,structured_load,structured_incentive","2,3,1,2,4,2","2,4,3,1","false","","",""
"null","","html-keyboard-response","14","191940","0.0-14.0","3TR2532VIQGDU84CMCU5GYEW5556J1","A2BJFAKOJRCPYJ","3GVPRXWRPHGYHD0HW29VLS36FVC7I4","","<img src=""img/set1/S2.jpg"" width=""540"" height = ""360"">","null","","","","","","","","","",""
"null","","html-keyboard-response","15","192152","0.0-15.0","3TR2532VIQGDU84CMCU5GYEW5556J1","A2BJFAKOJRCPYJ","3GVPRXWRPHGYHD0HW29VLS36FVC7I4","","","null","","","","","","","","","",""
"232","","image-keyboard-response","16","192388","0.0-16.0","3TR2532VIQGDU84CMCU5GYEW5556J1","A2BJFAKOJRCPYJ","3GVPRXWRPHGYHD0HW29VLS36FVC7I4","","img/set1/S4.jpg","83","4","random","74","random,structured_normal,structured_load,structured_incentive","2,3,1,2,4,2","2,4,3,1","false","","",""
"null","","html-keyboard-response","17","192746","0.0-17.0","3TR2532VIQGDU84CMCU5GYEW5556J1","A2BJFAKOJRCPYJ","3GVPRXWRPHGYHD0HW29VLS36FVC7I4","","<img src=""img/set1/S4.jpg"" width=""540"" height = ""360"">","null","","","","","","","","","",""
"null","","html-keyboard-response","18","192947","0.0-18.0","3TR2532VIQGDU84CMCU5GYEW5556J1","A2BJFAKOJRCPYJ","3GVPRXWRPHGYHD0HW29VLS36FVC7I4","","","null","","","","","","","","","",""
"161","","image-keyboard-response","19","193110","0.0-19.0","3TR2532VIQGDU84CMCU5GYEW5556J1","A2BJFAKOJRCPYJ","3GVPRXWRPHGYHD0HW29VLS36FVC7I4","","img/set1/S1.jpg","72","1","random","83","random,structured_normal,structured_load,structured_incentive","2,3,1,2,4,2","2,4,3,1","false","","",""
"null","","html-keyboard-response","20","193463","0.0-20.0","3TR2532VIQGDU84CMCU5GYEW5556J1","A2BJFAKOJRCPYJ","3GVPRXWRPHGYHD0HW29VLS36FVC7I4","","<img src=""img/set1/S1.jpg"" width=""540"" height = ""360"">","null","","","","","","","","","",""
"null","","html-keyboard-response","21","193666","0.0-21.0","3TR2532VIQGDU84CMCU5GYEW5556J1","A2BJFAKOJRCPYJ","3GVPRXWRPHGYHD0HW29VLS36FVC7I4","","","null","","","","","","","","","",""
"10","","image-keyboard-response","22","193685","0.0-22.0","3TR2532VIQGDU84CMCU5GYEW5556J1","A2BJFAKOJRCPYJ","3GVPRXWRPHGYHD0HW29VLS36FVC7I4","","img/set1/S3.jpg","83","3","random","72","random,structured_normal,structured_load,structured_incentive","2,3,1,2,4,2","2,4,3,1","false","","",""
"null","","html-keyboard-response","23","194048","0.0-23.0","3TR2532VIQGDU84CMCU5GYEW5556J1","A2BJFAKOJRCPYJ","3GVPRXWRPHGYHD0HW29VLS36FVC7I4","","<img src=""img/set1/S3.jpg"" width=""540"" height = ""360"">","null","","","","","","","","","",""
"null","","html-keyboard-response","24","194261","0.0-24.0","3TR2532VIQGDU84CMCU5GYEW5556J1","A2BJFAKOJRCPYJ","3GVPRXWRPHGYHD0HW29VLS36FVC7I4","","","null","","","","","","","","","",""
"279","","image-keyboard-response","25","194544","0.0-25.0","3TR2532VIQGDU84CMCU5GYEW5556J1","A2BJFAKOJRCPYJ","3GVPRXWRPHGYHD0HW29VLS36FVC7I4","","img/set1/S3.jpg","72","3","random","72","random,structured_normal,structured_load,structured_incentive","2,3,1,2,4,2","2,4,3,1","true","","",""
"null","","html-keyboard-response","26","194896","0.0-26.0","3TR2532VIQGDU84CMCU5GYEW5556J1","A2BJFAKOJRCPYJ","3GVPRXWRPHGYHD0HW29VLS36FVC7I4","","<img src=""img/set1/S3.jpg"" width=""540"" height = ""360"" style=""border:16px solid orange"">","null","","","","","","","","","",""
"null","","html-keyboard-response","27","195105","0.0-27.0","3TR2532VIQGDU84CMCU5GYEW5556J1","A2BJFAKOJRCPYJ","3GVPRXWRPHGYHD0HW29VLS36FVC7I4","","","null","","","","","","","","","",""
"170","","image-keyboard-response","28","195276","0.0-28.0","3TR2532VIQGDU84CMCU5GYEW5556J1","A2BJFAKOJRCPYJ","3GVPRXWRPHGYHD0HW29VLS36FVC7I4","","img/set1/S3.jpg","83","3","random","72","random,structured_normal,structured_load,structured_incentive","2,3,1,2,4,2","2,4,3,1","false","","",""
"null","","html-keyboard-response","29","195637","0.0-29.0","3TR2532VIQGDU84CMCU5GYEW5556J1","A2BJFAKOJRCPYJ","3GVPRXWRPHGYHD0HW29VLS36FVC7I4","","<img src=""img/set1/S3.jpg"" width=""540"" height = ""360"">","null","","","","","","","","","",""
"null","","html-keyboard-response","30","195844","0.0-30.0","3TR2532VIQGDU84CMCU5GYEW5556J1","A2BJFAKOJRCPYJ","3GVPRXWRPHGYHD0HW29VLS36FVC7I4","","","null","","","","","","","","","",""
"509","","image-keyboard-response","31","196363","0.0-31.0","3TR2532VIQGDU84CMCU5GYEW5556J1","A2BJFAKOJRCPYJ","3GVPRXWRPHGYHD0HW29VLS36FVC7I4","","img/set1/S4.jpg","72","4","random","74","random,structured_normal,structured_load,structured_incentive","2,3,1,2,4,2","2,4,3,1","false","","",""
"null","","html-keyboard-response","32","196731","0.0-32.0","3TR2532VIQGDU84CMCU5GYEW5556J1","A2BJFAKOJRCPYJ","3GVPRXWRPHGYHD0HW29VLS36FVC7I4","","<img src=""img/set1/S4.jpg"" width=""540"" height = ""360"">","null","","","","","","","","","",""
"null","","html-keyboard-response","33","196934","0.0-33.0","3TR2532VIQGDU84CMCU5GYEW5556J1","A2BJFAKOJRCPYJ","3GVPRXWRPHGYHD0HW29VLS36FVC7I4","","","null","","","","","","","","","",""
"14","","image-keyboard-response","34","196957","0.0-34.0","3TR2532VIQGDU84CMCU5GYEW5556J1","A2BJFAKOJRCPYJ","3GVPRXWRPHGYHD0HW29VLS36FVC7I4","","img/set1/S3.jpg","74","3","random","72","random,structured_normal,structured_load,structured_incentive","2,3,1,2,4,2","2,4,3,1","false","","",""
"null","","html-keyboard-response","35","197324","0.0-35.0","3TR2532VIQGDU84CMCU5GYEW5556J1","A2BJFAKOJRCPYJ","3GVPRXWRPHGYHD0HW29VLS36FVC7I4","","<img src=""img/set1/S3.jpg"" width=""540"" height = ""360"">","null","","","","","","","","","",""
"null","","html-keyboard-response","36","197527","0.0-36.0","3TR2532VIQGDU84CMCU5GYEW5556J1","A2BJFAKOJRCPYJ","3GVPRXWRPHGYHD0HW29VLS36FVC7I4","","","null","","","","","","","","","",""
"258","","image-keyboard-response","37","197790","0.0-37.0","3TR2532VIQGDU84CMCU5GYEW5556J1","A2BJFAKOJRCPYJ","3GVPRXWRPHGYHD0HW29VLS36FVC7I4","","img/set1/S1.jpg","74","1","random","83","random,structured_normal,structured_load,structured_incentive","2,3,1,2,4,2","2,4,3,1","false","","",""
"null","","html-keyboard-response","38","198141","0.0-38.0","3TR2532VIQGDU84CMCU5GYEW5556J1","A2BJFAKOJRCPYJ","3GVPRXWRPHGYHD0HW29VLS36FVC7I4","","<img src=""img/set1/S1.jpg"" width=""540"" height = ""360"">","null","","","","","","","","","",""
"null","","html-keyboard-response","39","198355","0.0-39.0","3TR2532VIQGDU84CMCU5GYEW5556J1","A2BJFAKOJRCPYJ","3GVPRXWRPHGYHD0HW29VLS36FVC7I4","","","null","","","","","","","","","",""
"279","","image-keyboard-response","40","198645","0.0-40.0","3TR2532VIQGDU84CMCU5GYEW5556J1","A2BJFAKOJRCPYJ","3GVPRXWRPHGYHD0HW29VLS36FVC7I4","","img/set1/S3.jpg","83","3","random","72","random,structured_normal,structured_load,structured_incentive","2,3,1,2,4,2","2,4,3,1","false","","",""
"null","","html-keyboard-response","41","198997","0.0-41.0","3TR2532VIQGDU84CMCU5GYEW5556J1","A2BJFAKOJRCPYJ","3GVPRXWRPHGYHD0HW29VLS36FVC7I4","","<img src=""img/set1/S3.jpg"" width=""540"" height = ""360"">","null","","","","","","","","","",""
"null","","html-keyboard-response","42","199208","0.0-42.0","3TR2532VIQGDU84CMCU5GYEW5556J1","A2BJFAKOJRCPYJ","3GVPRXWRPHGYHD0HW29VLS36FVC7I4","","","null","","","","","","","","","",""
"208","","image-keyboard-response","43","199419","0.0-43.0","3TR2532VIQGDU84CMCU5GYEW5556J1","A2BJFAKOJRCPYJ","3GVPRXWRPHGYHD0HW29VLS36FVC7I4","","img/set1/S4.jpg","74","4","random","74","random,structured_normal,structured_load,structured_incentive","2,3,1,2,4,2","2,4,3,1","true","","",""
"null","","html-keyboard-response","44","199772","0.0-44.0","3TR2532VIQGDU84CMCU5GYEW5556J1","A2BJFAKOJRCPYJ","3GVPRXWRPHGYHD0HW29VLS36FVC7I4","","<img src=""img/set1/S4.jpg"" width=""540"" height = ""360"" style=""border:16px solid orange"">","null","","","","","","","","","",""
"null","","html-keyboard-response","45","199975","0.0-45.0","3TR2532VIQGDU84CMCU5GYEW5556J1","A2BJFAKOJRCPYJ","3GVPRXWRPHGYHD0HW29VLS36FVC7I4","","","null","","","","","","","","","",""
"420","","image-keyboard-response","46","200412","0.0-46.0","3TR2532VIQGDU84CMCU5GYEW5556J1","A2BJFAKOJRCPYJ","3GVPRXWRPHGYHD0HW29VLS36FVC7I4","","img/set1/S1.jpg","74","1","random","83","random,structured_normal,structured_load,structured_incentive","2,3,1,2,4,2","2,4,3,1","false","","",""
"null","","html-keyboard-response","47","200763","0.0-47.0","3TR2532VIQGDU84CMCU5GYEW5556J1","A2BJFAKOJRCPYJ","3GVPRXWRPHGYHD0HW29VLS36FVC7I4","","<img src=""img/set1/S1.jpg"" width=""540"" height = ""360"">","null","","","","","","","","","",""
"null","","html-keyboard-response","48","200980","0.0-48.0","3TR2532VIQGDU84CMCU5GYEW5556J1","A2BJFAKOJRCPYJ","3GVPRXWRPHGYHD0HW29VLS36FVC7I4","","","null","","","","","","","","","",""
"60","","image-keyboard-response","49","201042","0.0-49.0","3TR2532VIQGDU84CMCU5GYEW5556J1","A2BJFAKOJRCPYJ","3GVPRXWRPHGYHD0HW29VLS36FVC7I4","","img/set1/S3.jpg","83","3","random","72","random,structured_normal,structured_load,structured_incentive","2,3,1,2,4,2","2,4,3,1","false","","",""
"null","","html-keyboard-response","50","201402","0.0-50.0","3TR2532VIQGDU84CMCU5GYEW5556J1","A2BJFAKOJRCPYJ","3GVPRXWRPHGYHD0HW29VLS36FVC7I4","","<img src=""img/set1/S3.jpg"" width=""540"" height = ""360"">","null","","","","","","","","","",""
"null","","html-keyboard-response","51","201609","0.0-51.0","3TR2532VIQGDU84CMCU5GYEW5556J1","A2BJFAKOJRCPYJ","3GVPRXWRPHGYHD0HW29VLS36FVC7I4","","","null","","","","","","","","","",""
"12","","image-keyboard-response","52","201621","0.0-52.0","3TR2532VIQGDU84CMCU5GYEW5556J1","A2BJFAKOJRCPYJ","3GVPRXWRPHGYHD0HW29VLS36FVC7I4","","img/set1/S3.jpg","83","3","random","72","random,structured_normal,structured_load,structured_incentive","2,3,1,2,4,2","2,4,3,1","false","","",""
"null","","html-keyboard-response","53","201991","0.0-53.0","3TR2532VIQGDU84CMCU5GYEW5556J1","A2BJFAKOJRCPYJ","3GVPRXWRPHGYHD0HW29VLS36FVC7I4","","<img src=""img/set1/S3.jpg"" width=""540"" height = ""360"">","null","","","","","","","","","",""
"null","","html-keyboard-response","54","202196","0.0-54.0","3TR2532VIQGDU84CMCU5GYEW5556J1","A2BJFAKOJRCPYJ","3GVPRXWRPHGYHD0HW29VLS36FVC7I4","","","null","","","","","","","","","",""
"251","","image-keyboard-response","55","202458","0.0-55.0","3TR2532VIQGDU84CMCU5GYEW5556J1","A2BJFAKOJRCPYJ","3GVPRXWRPHGYHD0HW29VLS36FVC7I4","","img/set1/S2.jpg","74","2","random","68","random,structured_normal,structured_load,structured_incentive","2,3,1,2,4,2","2,4,3,1","false","","",""
"null","","html-keyboard-response","56","202811","0.0-56.0","3TR2532VIQGDU84CMCU5GYEW5556J1","A2BJFAKOJRCPYJ","3GVPRXWRPHGYHD0HW29VLS36FVC7I4","","<img src=""img/set1/S2.jpg"" width=""540"" height = ""360"">","null","","","","","","","","","",""
"null","","html-keyboard-response","57","203012","0.0-57.0","3TR2532VIQGDU84CMCU5GYEW5556J1","A2BJFAKOJRCPYJ","3GVPRXWRPHGYHD0HW29VLS36FVC7I4","","","null","","","","","","","","","",""
"270","","image-keyboard-response","58","203285","0.0-58.0","3TR2532VIQGDU84CMCU5GYEW5556J1","A2BJFAKOJRCPYJ","3GVPRXWRPHGYHD0HW29VLS36FVC7I4","","img/set1/S3.jpg","83","3","random","72","random,structured_normal,structured_load,structured_incentive","2,3,1,2,4,2","2,4,3,1","false","","",""
"null","","html-keyboard-response","59","203638","0.0-59.0","3TR2532VIQGDU84CMCU5GYEW5556J1","A2BJFAKOJRCPYJ","3GVPRXWRPHGYHD0HW29VLS36FVC7I4","","<img src=""img/set1/S3.jpg"" width=""540"" height = ""360"">","null","","","","","","","","","",""
"null","","html-keyboard-response","60","203849","0.0-60.0","3TR2532VIQGDU84CMCU5GYEW5556J1","A2BJFAKOJRCPYJ","3GVPRXWRPHGYHD0HW29VLS36FVC7I4","","","null","","","","","","","","","",""
"141","","image-keyboard-response","61","204001","0.0-61.0","3TR2532VIQGDU84CMCU5GYEW5556J1","A2BJFAKOJRCPYJ","3GVPRXWRPHGYHD0HW29VLS36FVC7I4","","img/set1/S3.jpg","72","3","random","72","random,structured_normal,structured_load,structured_incentive","2,3,1,2,4,2","2,4,3,1","true","","",""
"null","","html-keyboard-response","62","204360","0.0-62.0","3TR2532VIQGDU84CMCU5GYEW5556J1","A2BJFAKOJRCPYJ","3GVPRXWRPHGYHD0HW29VLS36FVC7I4","","<img src=""img/set1/S3.jpg"" width=""540"" height = ""360"" style=""border:16px solid orange"">","null","","","","","","","","","",""
"null","","html-keyboard-response","63","204574","0.0-63.0","3TR2532VIQGDU84CMCU5GYEW5556J1","A2BJFAKOJRCPYJ","3GVPRXWRPHGYHD0HW29VLS36FVC7I4","","","null","","","","","","","","","",""
"56","","image-keyboard-response","64","204633","0.0-64.0","3TR2532VIQGDU84CMCU5GYEW5556J1","A2BJFAKOJRCPYJ","3GVPRXWRPHGYHD0HW29VLS36FVC7I4","","img/set1/S3.jpg","72","3","random","72","random,structured_normal,structured_load,structured_incentive","2,3,1,2,4,2","2,4,3,1","true","","",""
"null","","html-keyboard-response","65","204984","0.0-65.0","3TR2532VIQGDU84CMCU5GYEW5556J1","A2BJFAKOJRCPYJ","3GVPRXWRPHGYHD0HW29VLS36FVC7I4","","<img src=""img/set1/S3.jpg"" width=""540"" height = ""360"" style=""border:16px solid orange"">","null","","","","","","","","","",""
"null","","html-keyboard-response","66","205200","0.0-66.0","3TR2532VIQGDU84CMCU5GYEW5556J1","A2BJFAKOJRCPYJ","3GVPRXWRPHGYHD0HW29VLS36FVC7I4","","","null","","","","","","","","","",""
"402","","image-keyboard-response","67","205613","0.0-67.0","3TR2532VIQGDU84CMCU5GYEW5556J1","A2BJFAKOJRCPYJ","3GVPRXWRPHGYHD0HW29VLS36FVC7I4","","img/set1/S2.jpg","74","2","random","68","random,structured_normal,structured_load,structured_incentive","2,3,1,2,4,2","2,4,3,1","false","","",""
"null","","html-keyboard-response","68","205977","0.0-68.0","3TR2532VIQGDU84CMCU5GYEW5556J1","A2BJFAKOJRCPYJ","3GVPRXWRPHGYHD0HW29VLS36FVC7I4","","<img src=""img/set1/S2.jpg"" width=""540"" height = ""360"">","null","","","","","","","","","",""
"null","","html-keyboard-response","69","206187","0.0-69.0","3TR2532VIQGDU84CMCU5GYEW5556J1","A2BJFAKOJRCPYJ","3GVPRXWRPHGYHD0HW29VLS36FVC7I4","","","null","","","","","","","","","",""
"2416","","image-keyboard-response","70","208621","0.0-70.0","3TR2532VIQGDU84CMCU5GYEW5556J1","A2BJFAKOJRCPYJ","3GVPRXWRPHGYHD0HW29VLS36FVC7I4","","img/set1/S1.jpg","83","1","random","83","random,structured_normal,structured_load,structured_incentive","2,3,1,2,4,2","2,4,3,1","true","","",""
"null","","html-keyboard-response","71","208986","0.0-71.0","3TR2532VIQGDU84CMCU5GYEW5556J1","A2BJFAKOJRCPYJ","3GVPRXWRPHGYHD0HW29VLS36FVC7I4","","<img src=""img/set1/S1.jpg"" width=""540"" height = ""360"" style=""border:16px solid orange"">","null","","","","","","","","","",""
"null","","html-keyboard-response","72","209190","0.0-72.0","3TR2532VIQGDU84CMCU5GYEW5556J1","A2BJFAKOJRCPYJ","3GVPRXWRPHGYHD0HW29VLS36FVC7I4","","","null","","","","","","","","","",""
"3","","image-keyboard-response","73","209195","0.0-73.0","3TR2532VIQGDU84CMCU5GYEW5556J1","A2BJFAKOJRCPYJ","3GVPRXWRPHGYHD0HW29VLS36FVC7I4","","img/set1/S4.jpg","72","4","random","74","random,structured_normal,structured_load,structured_incentive","2,3,1,2,4,2","2,4,3,1","false","","",""
"null","","html-keyboard-response","74","209559","0.0-74.0","3TR2532VIQGDU84CMCU5GYEW5556J1","A2BJFAKOJRCPYJ","3GVPRXWRPHGYHD0HW29VLS36FVC7I4","","<img src=""img/set1/S4.jpg"" width=""540"" height = ""360"">","null","","","","","","","","","",""
"null","","html-keyboard-response","75","209762","0.0-75.0","3TR2532VIQGDU84CMCU5GYEW5556J1","A2BJFAKOJRCPYJ","3GVPRXWRPHGYHD0HW29VLS36FVC7I4","","","null","","","","","","","","","",""
"122","","image-keyboard-response","76","209895","0.0-76.0","3TR2532VIQGDU84CMCU5GYEW5556J1","A2BJFAKOJRCPYJ","3GVPRXWRPHGYHD0HW29VLS36FVC7I4","","img/set1/S4.jpg","72","4","random","74","random,structured_normal,structured_load,structured_incentive","2,3,1,2,4,2","2,4,3,1","false","","",""
"null","","html-keyboard-response","77","210258","0.0-77.0","3TR2532VIQGDU84CMCU5GYEW5556J1","A2BJFAKOJRCPYJ","3GVPRXWRPHGYHD0HW29VLS36FVC7I4","","<img src=""img/set1/S4.jpg"" width=""540"" height = ""360"">","null","","","","","","","","","",""
"null","","html-keyboard-response","78","210464","0.0-78.0","3TR2532VIQGDU84CMCU5GYEW5556J1","A2BJFAKOJRCPYJ","3GVPRXWRPHGYHD0HW29VLS36FVC7I4","","","null","","","","","","","","","",""
"16","","image-keyboard-response","79","210481","0.0-79.0","3TR2532VIQGDU84CMCU5GYEW5556J1","A2BJFAKOJRCPYJ","3GVPRXWRPHGYHD0HW29VLS36FVC7I4","","img/set1/S2.jpg","83","2","random","68","random,structured_normal,structured_load,structured_incentive","2,3,1,2,4,2","2,4,3,1","false","","",""
"null","","html-keyboard-response","80","210833","0.0-80.0","3TR2532VIQGDU84CMCU5GYEW5556J1","A2BJFAKOJRCPYJ","3GVPRXWRPHGYHD0HW29VLS36FVC7I4","","<img src=""img/set1/S2.jpg"" width=""540"" height = ""360"">","null","","","","","","","","","",""
"null","","html-keyboard-response","81","211034","0.0-81.0","3TR2532VIQGDU84CMCU5GYEW5556J1","A2BJFAKOJRCPYJ","3GVPRXWRPHGYHD0HW29VLS36FVC7I4","","","null","","","","","","","","","",""
"67","","image-keyboard-response","82","211103","0.0-82.0","3TR2532VIQGDU84CMCU5GYEW5556J1","A2BJFAKOJRCPYJ","3GVPRXWRPHGYHD0HW29VLS36FVC7I4","","img/set1/S2.jpg","74","2","random","68","random,structured_normal,structured_load,structured_incentive","2,3,1,2,4,2","2,4,3,1","false","","",""
"null","","html-keyboard-response","83","211464","0.0-83.0","3TR2532VIQGDU84CMCU5GYEW5556J1","A2BJFAKOJRCPYJ","3GVPRXWRPHGYHD0HW29VLS36FVC7I4","","<img src=""img/set1/S2.jpg"" width=""540"" height = ""360"">","null","","","","","","","","","",""
"null","","html-keyboard-response","84","211669","0.0-84.0","3TR2532VIQGDU84CMCU5GYEW5556J1","A2BJFAKOJRCPYJ","3GVPRXWRPHGYHD0HW29VLS36FVC7I4","","","null","","","","","","","","","",""
"166","","image-keyboard-response","85","211839","0.0-85.0","3TR2532VIQGDU84CMCU5GYEW5556J1","A2BJFAKOJRCPYJ","3GVPRXWRPHGYHD0HW29VLS36FVC7I4","","img/set1/S4.jpg","74","4","random","74","random,structured_normal,structured_load,structured_incentive","2,3,1,2,4,2","2,4,3,1","true","","",""
"null","","html-keyboard-response","86","212201","0.0-86.0","3TR2532VIQGDU84CMCU5GYEW5556J1","A2BJFAKOJRCPYJ","3GVPRXWRPHGYHD0HW29VLS36FVC7I4","","<img src=""img/set1/S4.jpg"" width=""540"" height = ""360"" style=""border:16px solid orange"">","null","","","","","","","","","",""
"null","","html-keyboard-response","87","212417","0.0-87.0","3TR2532VIQGDU84CMCU5GYEW5556J1","A2BJFAKOJRCPYJ","3GVPRXWRPHGYHD0HW29VLS36FVC7I4","","","null","","","","","","","","","",""
"1064","","image-keyboard-response","88","213483","0.0-88.0","3TR2532VIQGDU84CMCU5GYEW5556J1","A2BJFAKOJRCPYJ","3GVPRXWRPHGYHD0HW29VLS36FVC7I4","","img/set1/S4.jpg","83","4","random","74","random,structured_normal,structured_load,structured_incentive","2,3,1,2,4,2","2,4,3,1","false","","",""
"null","","html-keyboard-response","89","213837","0.0-89.0","3TR2532VIQGDU84CMCU5GYEW5556J1","A2BJFAKOJRCPYJ","3GVPRXWRPHGYHD0HW29VLS36FVC7I4","","<img src=""img/set1/S4.jpg"" width=""540"" height = ""360"">","null","","","","","","","","","",""
"null","","html-keyboard-response","90","214043","0.0-90.0","3TR2532VIQGDU84CMCU5GYEW5556J1","A2BJFAKOJRCPYJ","3GVPRXWRPHGYHD0HW29VLS36FVC7I4","","","null","","","","","","","","","",""
"169","","image-keyboard-response","91","214225","0.0-91.0","3TR2532VIQGDU84CMCU5GYEW5556J1","A2BJFAKOJRCPYJ","3GVPRXWRPHGYHD0HW29VLS36FVC7I4","","img/set1/S4.jpg","72","4","random","74","random,structured_normal,structured_load,structured_incentive","2,3,1,2,4,2","2,4,3,1","false","","",""
"null","","html-keyboard-response","92","214589","0.0-92.0","3TR2532VIQGDU84CMCU5GYEW5556J1","A2BJFAKOJRCPYJ","3GVPRXWRPHGYHD0HW29VLS36FVC7I4","","<img src=""img/set1/S4.jpg"" width=""540"" height = ""360"">","null","","","","","","","","","",""
"null","","html-keyboard-response","93","214789","0.0-93.0","3TR2532VIQGDU84CMCU5GYEW5556J1","A2BJFAKOJRCPYJ","3GVPRXWRPHGYHD0HW29VLS36FVC7I4","","","null","","","","","","","","","",""
"142","","image-keyboard-response","94","214940","0.0-94.0","3TR2532VIQGDU84CMCU5GYEW5556J1","A2BJFAKOJRCPYJ","3GVPRXWRPHGYHD0HW29VLS36FVC7I4","","img/set1/S2.jpg","74","2","random","68","random,structured_normal,structured_load,structured_incentive","2,3,1,2,4,2","2,4,3,1","false","","",""
"null","","html-keyboard-response","95","215293","0.0-95.0","3TR2532VIQGDU84CMCU5GYEW5556J1","A2BJFAKOJRCPYJ","3GVPRXWRPHGYHD0HW29VLS36FVC7I4","","<img src=""img/set1/S2.jpg"" width=""540"" height = ""360"">","null","","","","","","","","","",""
"null","","html-keyboard-response","96","215497","0.0-96.0","3TR2532VIQGDU84CMCU5GYEW5556J1","A2BJFAKOJRCPYJ","3GVPRXWRPHGYHD0HW29VLS36FVC7I4","","","null","","","","","","","","","",""
"89","","image-keyboard-response","97","215600","0.0-97.0","3TR2532VIQGDU84CMCU5GYEW5556J1","A2BJFAKOJRCPYJ","3GVPRXWRPHGYHD0HW29VLS36FVC7I4","","img/set1/S4.jpg","74","4","random","74","random,structured_normal,structured_load,structured_incentive","2,3,1,2,4,2","2,4,3,1","true","","",""
"null","","html-keyboard-response","98","215953","0.0-98.0","3TR2532VIQGDU84CMCU5GYEW5556J1","A2BJFAKOJRCPYJ","3GVPRXWRPHGYHD0HW29VLS36FVC7I4","","<img src=""img/set1/S4.jpg"" width=""540"" height = ""360"" style=""border:16px solid orange"">","null","","","","","","","","","",""
"null","","html-keyboard-response","99","216168","0.0-99.0","3TR2532VIQGDU84CMCU5GYEW5556J1","A2BJFAKOJRCPYJ","3GVPRXWRPHGYHD0HW29VLS36FVC7I4","","","null","","","","","","","","","",""
"186","","image-keyboard-response","100","216366","0.0-100.0","3TR2532VIQGDU84CMCU5GYEW5556J1","A2BJFAKOJRCPYJ","3GVPRXWRPHGYHD0HW29VLS36FVC7I4","","img/set1/S1.jpg","72","1","random","83","random,structured_normal,structured_load,structured_incentive","2,3,1,2,4,2","2,4,3,1","false","","",""
"null","","html-keyboard-response","101","216731","0.0-101.0","3TR2532VIQGDU84CMCU5GYEW5556J1","A2BJFAKOJRCPYJ","3GVPRXWRPHGYHD0HW29VLS36FVC7I4","","<img src=""img/set1/S1.jpg"" width=""540"" height = ""360"">","null","","","","","","","","","",""
"null","","html-keyboard-response","102","216948","0.0-102.0","3TR2532VIQGDU84CMCU5GYEW5556J1","A2BJFAKOJRCPYJ","3GVPRXWRPHGYHD0HW29VLS36FVC7I4","","","null","","","","","","","","","",""
"142","","image-keyboard-response","103","217099","0.0-103.0","3TR2532VIQGDU84CMCU5GYEW5556J1","A2BJFAKOJRCPYJ","3GVPRXWRPHGYHD0HW29VLS36FVC7I4","","img/set1/S2.jpg","72","2","random","68","random,structured_normal,structured_load,structured_incentive","2,3,1,2,4,2","2,4,3,1","false","","",""
"null","","html-keyboard-response","104","217464","0.0-104.0","3TR2532VIQGDU84CMCU5GYEW5556J1","A2BJFAKOJRCPYJ","3GVPRXWRPHGYHD0HW29VLS36FVC7I4","","<img src=""img/set1/S2.jpg"" width=""540"" height = ""360"">","null","","","","","","","","","",""
"null","","html-keyboard-response","105","217667","0.0-105.0","3TR2532VIQGDU84CMCU5GYEW5556J1","A2BJFAKOJRCPYJ","3GVPRXWRPHGYHD0HW29VLS36FVC7I4","","","null","","","","","","","","","",""
"375","","image-keyboard-response","106","218043","0.0-106.0","3TR2532VIQGDU84CMCU5GYEW5556J1","A2BJFAKOJRCPYJ","3GVPRXWRPHGYHD0HW29VLS36FVC7I4","","img/set1/S2.jpg","72","2","random","68","random,structured_normal,structured_load,structured_incentive","2,3,1,2,4,2","2,4,3,1","false","","",""
"null","","html-keyboard-response","107","218403","0.0-107.0","3TR2532VIQGDU84CMCU5GYEW5556J1","A2BJFAKOJRCPYJ","3GVPRXWRPHGYHD0HW29VLS36FVC7I4","","<img src=""img/set1/S2.jpg"" width=""540"" height = ""360"">","null","","","","","","","","","",""
"null","","html-keyboard-response","108","218606","0.0-108.0","3TR2532VIQGDU84CMCU5GYEW5556J1","A2BJFAKOJRCPYJ","3GVPRXWRPHGYHD0HW29VLS36FVC7I4","","","null","","","","","","","","","",""
"106","","image-keyboard-response","109","218728","0.0-109.0","3TR2532VIQGDU84CMCU5GYEW5556J1","A2BJFAKOJRCPYJ","3GVPRXWRPHGYHD0HW29VLS36FVC7I4","","img/set1/S1.jpg","72","1","random","83","random,structured_normal,structured_load,structured_incentive","2,3,1,2,4,2","2,4,3,1","false","","",""
"null","","html-keyboard-response","110","219089","0.0-110.0","3TR2532VIQGDU84CMCU5GYEW5556J1","A2BJFAKOJRCPYJ","3GVPRXWRPHGYHD0HW29VLS36FVC7I4","","<img src=""img/set1/S1.jpg"" width=""540"" height = ""360"">","null","","","","","","","","","",""
"null","","html-keyboard-response","111","219294","0.0-111.0","3TR2532VIQGDU84CMCU5GYEW5556J1","A2BJFAKOJRCPYJ","3GVPRXWRPHGYHD0HW29VLS36FVC7I4","","","null","","","","","","","","","",""
"603","","image-keyboard-response","112","219897","0.0-112.0","3TR2532VIQGDU84CMCU5GYEW5556J1","A2BJFAKOJRCPYJ","3GVPRXWRPHGYHD0HW29VLS36FVC7I4","","img/set1/S3.jpg","83","3","random","72","random,structured_normal,structured_load,structured_incentive","2,3,1,2,4,2","2,4,3,1","false","","",""
"null","","html-keyboard-response","113","220266","0.0-113.0","3TR2532VIQGDU84CMCU5GYEW5556J1","A2BJFAKOJRCPYJ","3GVPRXWRPHGYHD0HW29VLS36FVC7I4","","<img src=""img/set1/S3.jpg"" width=""540"" height = ""360"">","null","","","","","","","","","",""
"null","","html-keyboard-response","114","220496","0.0-114.0","3TR2532VIQGDU84CMCU5GYEW5556J1","A2BJFAKOJRCPYJ","3GVPRXWRPHGYHD0HW29VLS36FVC7I4","","","null","","","","","","","","","",""
"201","","image-keyboard-response","115","220704","0.0-115.0","3TR2532VIQGDU84CMCU5GYEW5556J1","A2BJFAKOJRCPYJ","3GVPRXWRPHGYHD0HW29VLS36FVC7I4","","img/set1/S1.jpg","72","1","random","83","random,structured_normal,structured_load,structured_incentive","2,3,1,2,4,2","2,4,3,1","false","","",""
"null","","html-keyboard-response","116","221058","0.0-116.0","3TR2532VIQGDU84CMCU5GYEW5556J1","A2BJFAKOJRCPYJ","3GVPRXWRPHGYHD0HW29VLS36FVC7I4","","<img src=""img/set1/S1.jpg"" width=""540"" height = ""360"">","null","","","","","","","","","",""
"null","","html-keyboard-response","117","221271","0.0-117.0","3TR2532VIQGDU84CMCU5GYEW5556J1","A2BJFAKOJRCPYJ","3GVPRXWRPHGYHD0HW29VLS36FVC7I4","","","null","","","","","","","","","",""
"223","","image-keyboard-response","118","221498","0.0-118.0","3TR2532VIQGDU84CMCU5GYEW5556J1","A2BJFAKOJRCPYJ","3GVPRXWRPHGYHD0HW29VLS36FVC7I4","","img/set1/S2.jpg","83","2","random","68","random,structured_normal,structured_load,structured_incentive","2,3,1,2,4,2","2,4,3,1","false","","",""
"null","","html-keyboard-response","119","221864","0.0-119.0","3TR2532VIQGDU84CMCU5GYEW5556J1","A2BJFAKOJRCPYJ","3GVPRXWRPHGYHD0HW29VLS36FVC7I4","","<img src=""img/set1/S2.jpg"" width=""540"" height = ""360"">","null","","","","","","","","","",""
"null","","html-keyboard-response","120","222074","0.0-120.0","3TR2532VIQGDU84CMCU5GYEW5556J1","A2BJFAKOJRCPYJ","3GVPRXWRPHGYHD0HW29VLS36FVC7I4","","","null","","","","","","","","","",""
"248","","image-keyboard-response","121","222335","0.0-121.0","3TR2532VIQGDU84CMCU5GYEW5556J1","A2BJFAKOJRCPYJ","3GVPRXWRPHGYHD0HW29VLS36FVC7I4","","img/set1/S2.jpg","72","2","random","68","random,structured_normal,structured_load,structured_incentive","2,3,1,2,4,2","2,4,3,1","false","","",""
"null","","html-keyboard-response","122","222699","0.0-122.0","3TR2532VIQGDU84CMCU5GYEW5556J1","A2BJFAKOJRCPYJ","3GVPRXWRPHGYHD0HW29VLS36FVC7I4","","<img src=""img/set1/S2.jpg"" width=""540"" height = ""360"">","null","","","","","","","","","",""
"null","","html-keyboard-response","123","222904","0.0-123.0","3TR2532VIQGDU84CMCU5GYEW5556J1","A2BJFAKOJRCPYJ","3GVPRXWRPHGYHD0HW29VLS36FVC7I4","","","null","","","","","","","","","",""
"94","","image-keyboard-response","124","222998","0.0-124.0","3TR2532VIQGDU84CMCU5GYEW5556J1","A2BJFAKOJRCPYJ","3GVPRXWRPHGYHD0HW29VLS36FVC7I4","","img/set1/S1.jpg","74","1","random","83","random,structured_normal,structured_load,structured_incentive","2,3,1,2,4,2","2,4,3,1","false","","",""
"null","","html-keyboard-response","125","223351","0.0-125.0","3TR2532VIQGDU84CMCU5GYEW5556J1","A2BJFAKOJRCPYJ","3GVPRXWRPHGYHD0HW29VLS36FVC7I4","","<img src=""img/set1/S1.jpg"" width=""540"" height = ""360"">","null","","","","","","","","","",""
"null","","html-keyboard-response","126","223558","0.0-126.0","3TR2532VIQGDU84CMCU5GYEW5556J1","A2BJFAKOJRCPYJ","3GVPRXWRPHGYHD0HW29VLS36FVC7I4","","","null","","","","","","","","","",""
"31","","image-keyboard-response","127","223595","0.0-127.0","3TR2532VIQGDU84CMCU5GYEW5556J1","A2BJFAKOJRCPYJ","3GVPRXWRPHGYHD0HW29VLS36FVC7I4","","img/set1/S3.jpg","68","3","random","72","random,structured_normal,structured_load,structured_incentive","2,3,1,2,4,2","2,4,3,1","false","","",""
"null","","html-keyboard-response","128","223960","0.0-128.0","3TR2532VIQGDU84CMCU5GYEW5556J1","A2BJFAKOJRCPYJ","3GVPRXWRPHGYHD0HW29VLS36FVC7I4","","<img src=""img/set1/S3.jpg"" width=""540"" height = ""360"">","null","","","","","","","","","",""
"null","","html-keyboard-response","129","224162","0.0-129.0","3TR2532VIQGDU84CMCU5GYEW5556J1","A2BJFAKOJRCPYJ","3GVPRXWRPHGYHD0HW29VLS36FVC7I4","","","null","","","","","","","","","",""
"144","","image-keyboard-response","130","224322","0.0-130.0","3TR2532VIQGDU84CMCU5GYEW5556J1","A2BJFAKOJRCPYJ","3GVPRXWRPHGYHD0HW29VLS36FVC7I4","","img/set1/S3.jpg","74","3","random","72","random,structured_normal,structured_load,structured_incentive","2,3,1,2,4,2","2,4,3,1","false","","",""
"null","","html-keyboard-response","131","224683","0.0-131.0","3TR2532VIQGDU84CMCU5GYEW5556J1","A2BJFAKOJRCPYJ","3GVPRXWRPHGYHD0HW29VLS36FVC7I4","","<img src=""img/set1/S3.jpg"" width=""540"" height = ""360"">","null","","","","","","","","","",""
"null","","html-keyboard-response","132","224885","0.0-132.0","3TR2532VIQGDU84CMCU5GYEW5556J1","A2BJFAKOJRCPYJ","3GVPRXWRPHGYHD0HW29VLS36FVC7I4","","","null","","","","","","","","","",""
"74","","image-keyboard-response","133","224961","0.0-133.0","3TR2532VIQGDU84CMCU5GYEW5556J1","A2BJFAKOJRCPYJ","3GVPRXWRPHGYHD0HW29VLS36FVC7I4","","img/set1/S2.jpg","83","2","random","68","random,structured_normal,structured_load,structured_incentive","2,3,1,2,4,2","2,4,3,1","false","","",""
"null","","html-keyboard-response","134","225325","0.0-134.0","3TR2532VIQGDU84CMCU5GYEW5556J1","A2BJFAKOJRCPYJ","3GVPRXWRPHGYHD0HW29VLS36FVC7I4","","<img src=""img/set1/S2.jpg"" width=""540"" height = ""360"">","null","","","","","","","","","",""
"null","","html-keyboard-response","135","225528","0.0-135.0","3TR2532VIQGDU84CMCU5GYEW5556J1","A2BJFAKOJRCPYJ","3GVPRXWRPHGYHD0HW29VLS36FVC7I4","","","null","","","","","","","","","",""
"23","","image-keyboard-response","136","225553","0.0-136.0","3TR2532VIQGDU84CMCU5GYEW5556J1","A2BJFAKOJRCPYJ","3GVPRXWRPHGYHD0HW29VLS36FVC7I4","","img/set1/S4.jpg","72","4","random","74","random,structured_normal,structured_load,structured_incentive","2,3,1,2,4,2","2,4,3,1","false","","",""
"null","","html-keyboard-response","137","225914","0.0-137.0","3TR2532VIQGDU84CMCU5GYEW5556J1","A2BJFAKOJRCPYJ","3GVPRXWRPHGYHD0HW29VLS36FVC7I4","","<img src=""img/set1/S4.jpg"" width=""540"" height = ""360"">","null","","","","","","","","","",""
"null","","html-keyboard-response","138","226121","0.0-138.0","3TR2532VIQGDU84CMCU5GYEW5556J1","A2BJFAKOJRCPYJ","3GVPRXWRPHGYHD0HW29VLS36FVC7I4","","","null","","","","","","","","","",""
"676","","image-keyboard-response","139","226799","0.0-139.0","3TR2532VIQGDU84CMCU5GYEW5556J1","A2BJFAKOJRCPYJ","3GVPRXWRPHGYHD0HW29VLS36FVC7I4","","img/set1/S1.jpg","72","1","random","83","random,structured_normal,structured_load,structured_incentive","2,3,1,2,4,2","2,4,3,1","false","","",""
"null","","html-keyboard-response","140","227153","0.0-140.0","3TR2532VIQGDU84CMCU5GYEW5556J1","A2BJFAKOJRCPYJ","3GVPRXWRPHGYHD0HW29VLS36FVC7I4","","<img src=""img/set1/S1.jpg"" width=""540"" height = ""360"">","null","","","","","","","","","",""
"null","","html-keyboard-response","141","227356","0.0-141.0","3TR2532VIQGDU84CMCU5GYEW5556J1","A2BJFAKOJRCPYJ","3GVPRXWRPHGYHD0HW29VLS36FVC7I4","","","null","","","","","","","","","",""
"153","","image-keyboard-response","142","227512","0.0-142.0","3TR2532VIQGDU84CMCU5GYEW5556J1","A2BJFAKOJRCPYJ","3GVPRXWRPHGYHD0HW29VLS36FVC7I4","","img/set1/S1.jpg","68","1","random","83","random,structured_normal,structured_load,structured_incentive","2,3,1,2,4,2","2,4,3,1","false","","",""
"null","","html-keyboard-response","143","227882","0.0-143.0","3TR2532VIQGDU84CMCU5GYEW5556J1","A2BJFAKOJRCPYJ","3GVPRXWRPHGYHD0HW29VLS36FVC7I4","","<img src=""img/set1/S1.jpg"" width=""540"" height = ""360"">","null","","","","","","","","","",""
"null","","html-keyboard-response","144","228082","0.0-144.0","3TR2532VIQGDU84CMCU5GYEW5556J1","A2BJFAKOJRCPYJ","3GVPRXWRPHGYHD0HW29VLS36FVC7I4","","","null","","","","","","","","","",""
"91","","image-keyboard-response","145","228173","0.0-145.0","3TR2532VIQGDU84CMCU5GYEW5556J1","A2BJFAKOJRCPYJ","3GVPRXWRPHGYHD0HW29VLS36FVC7I4","","img/set1/S4.jpg","74","4","random","74","random,structured_normal,structured_load,structured_incentive","2,3,1,2,4,2","2,4,3,1","true","","",""
"null","","html-keyboard-response","146","228527","0.0-146.0","3TR2532VIQGDU84CMCU5GYEW5556J1","A2BJFAKOJRCPYJ","3GVPRXWRPHGYHD0HW29VLS36FVC7I4","","<img src=""img/set1/S4.jpg"" width=""540"" height = ""360"" style=""border:16px solid orange"">","null","","","","","","","","","",""
"null","","html-keyboard-response","147","228731","0.0-147.0","3TR2532VIQGDU84CMCU5GYEW5556J1","A2BJFAKOJRCPYJ","3GVPRXWRPHGYHD0HW29VLS36FVC7I4","","","null","","","","","","","","","",""
"23","","image-keyboard-response","148","228756","0.0-148.0","3TR2532VIQGDU84CMCU5GYEW5556J1","A2BJFAKOJRCPYJ","3GVPRXWRPHGYHD0HW29VLS36FVC7I4","","img/set1/S2.jpg","83","2","random","68","random,structured_normal,structured_load,structured_incentive","2,3,1,2,4,2","2,4,3,1","false","","",""
"null","","html-keyboard-response","149","229109","0.0-149.0","3TR2532VIQGDU84CMCU5GYEW5556J1","A2BJFAKOJRCPYJ","3GVPRXWRPHGYHD0HW29VLS36FVC7I4","","<img src=""img/set1/S2.jpg"" width=""540"" height = ""360"">","null","","","","","","","","","",""
"null","","html-keyboard-response","150","229315","0.0-150.0","3TR2532VIQGDU84CMCU5GYEW5556J1","A2BJFAKOJRCPYJ","3GVPRXWRPHGYHD0HW29VLS36FVC7I4","","","null","","","","","","","","","",""
"163","","image-keyboard-response","151","229494","0.0-151.0","3TR2532VIQGDU84CMCU5GYEW5556J1","A2BJFAKOJRCPYJ","3GVPRXWRPHGYHD0HW29VLS36FVC7I4","","img/set1/S3.jpg","83","3","random","72","random,structured_normal,structured_load,structured_incentive","2,3,1,2,4,2","2,4,3,1","false","","",""
"null","","html-keyboard-response","152","229860","0.0-152.0","3TR2532VIQGDU84CMCU5GYEW5556J1","A2BJFAKOJRCPYJ","3GVPRXWRPHGYHD0HW29VLS36FVC7I4","","<img src=""img/set1/S3.jpg"" width=""540"" height = ""360"">","null","","","","","","","","","",""
"null","","html-keyboard-response","153","230073","0.0-153.0","3TR2532VIQGDU84CMCU5GYEW5556J1","A2BJFAKOJRCPYJ","3GVPRXWRPHGYHD0HW29VLS36FVC7I4","","","null","","","","","","","","","",""
"108","","image-keyboard-response","154","230187","0.0-154.0","3TR2532VIQGDU84CMCU5GYEW5556J1","A2BJFAKOJRCPYJ","3GVPRXWRPHGYHD0HW29VLS36FVC7I4","","img/set1/S4.jpg","74","4","random","74","random,structured_normal,structured_load,structured_incentive","2,3,1,2,4,2","2,4,3,1","true","","",""
"null","","html-keyboard-response","155","230542","0.0-155.0","3TR2532VIQGDU84CMCU5GYEW5556J1","A2BJFAKOJRCPYJ","3GVPRXWRPHGYHD0HW29VLS36FVC7I4","","<img src=""img/set1/S4.jpg"" width=""540"" height = ""360"" style=""border:16px solid orange"">","null","","","","","","","","","",""
"null","","html-keyboard-response","156","230745","0.0-156.0","3TR2532VIQGDU84CMCU5GYEW5556J1","A2BJFAKOJRCPYJ","3GVPRXWRPHGYHD0HW29VLS36FVC7I4","","","null","","","","","","","","","",""
"157","","image-keyboard-response","157","230904","0.0-157.0","3TR2532VIQGDU84CMCU5GYEW5556J1","A2BJFAKOJRCPYJ","3GVPRXWRPHGYHD0HW29VLS36FVC7I4","","img/set1/S1.jpg","74","1","random","83","random,structured_normal,structured_load,structured_incentive","2,3,1,2,4,2","2,4,3,1","false","","",""
"null","","html-keyboard-response","158","231258","0.0-158.0","3TR2532VIQGDU84CMCU5GYEW5556J1","A2BJFAKOJRCPYJ","3GVPRXWRPHGYHD0HW29VLS36FVC7I4","","<img src=""img/set1/S1.jpg"" width=""540"" height = ""360"">","null","","","","","","","","","",""
"null","","html-keyboard-response","159","231464","0.0-159.0","3TR2532VIQGDU84CMCU5GYEW5556J1","A2BJFAKOJRCPYJ","3GVPRXWRPHGYHD0HW29VLS36FVC7I4","","","null","","","","","","","","","",""
"284","","image-keyboard-response","160","231757","0.0-160.0","3TR2532VIQGDU84CMCU5GYEW5556J1","A2BJFAKOJRCPYJ","3GVPRXWRPHGYHD0HW29VLS36FVC7I4","","img/set1/S3.jpg","72","3","random","72","random,structured_normal,structured_load,structured_incentive","2,3,1,2,4,2","2,4,3,1","true","","",""
"null","","html-keyboard-response","161","232124","0.0-161.0","3TR2532VIQGDU84CMCU5GYEW5556J1","A2BJFAKOJRCPYJ","3GVPRXWRPHGYHD0HW29VLS36FVC7I4","","<img src=""img/set1/S3.jpg"" width=""540"" height = ""360"" style=""border:16px solid orange"">","null","","","","","","","","","",""
"null","","html-keyboard-response","162","232339","0.0-162.0","3TR2532VIQGDU84CMCU5GYEW5556J1","A2BJFAKOJRCPYJ","3GVPRXWRPHGYHD0HW29VLS36FVC7I4","","","null","","","","","","","","","",""
"78","","image-keyboard-response","163","232433","0.0-163.0","3TR2532VIQGDU84CMCU5GYEW5556J1","A2BJFAKOJRCPYJ","3GVPRXWRPHGYHD0HW29VLS36FVC7I4","","img/set1/S4.jpg","83","4","random","74","random,structured_normal,structured_load,structured_incentive","2,3,1,2,4,2","2,4,3,1","false","","",""
"null","","html-keyboard-response","164","232787","0.0-164.0","3TR2532VIQGDU84CMCU5GYEW5556J1","A2BJFAKOJRCPYJ","3GVPRXWRPHGYHD0HW29VLS36FVC7I4","","<img src=""img/set1/S4.jpg"" width=""540"" height = ""360"">","null","","","","","","","","","",""
"null","","html-keyboard-response","165","232989","0.0-165.0","3TR2532VIQGDU84CMCU5GYEW5556J1","A2BJFAKOJRCPYJ","3GVPRXWRPHGYHD0HW29VLS36FVC7I4","","","null","","","","","","","","","",""
"230","","image-keyboard-response","166","233221","0.0-166.0","3TR2532VIQGDU84CMCU5GYEW5556J1","A2BJFAKOJRCPYJ","3GVPRXWRPHGYHD0HW29VLS36FVC7I4","","img/set1/S4.jpg","68","4","random","74","random,structured_normal,structured_load,structured_incentive","2,3,1,2,4,2","2,4,3,1","false","","",""
"null","","html-keyboard-response","167","233589","0.0-167.0","3TR2532VIQGDU84CMCU5GYEW5556J1","A2BJFAKOJRCPYJ","3GVPRXWRPHGYHD0HW29VLS36FVC7I4","","<img src=""img/set1/S4.jpg"" width=""540"" height = ""360"">","null","","","","","","","","","",""
"null","","html-keyboard-response","168","233789","0.0-168.0","3TR2532VIQGDU84CMCU5GYEW5556J1","A2BJFAKOJRCPYJ","3GVPRXWRPHGYHD0HW29VLS36FVC7I4","","","null","","","","","","","","","",""
"126","","image-keyboard-response","169","233931","0.0-169.0","3TR2532VIQGDU84CMCU5GYEW5556J1","A2BJFAKOJRCPYJ","3GVPRXWRPHGYHD0HW29VLS36FVC7I4","","img/set1/S4.jpg","72","4","random","74","random,structured_normal,structured_load,structured_incentive","2,3,1,2,4,2","2,4,3,1","false","","",""
"null","","html-keyboard-response","170","234285","0.0-170.0","3TR2532VIQGDU84CMCU5GYEW5556J1","A2BJFAKOJRCPYJ","3GVPRXWRPHGYHD0HW29VLS36FVC7I4","","<img src=""img/set1/S4.jpg"" width=""540"" height = ""360"">","null","","","","","","","","","",""
"null","","html-keyboard-response","171","234496","0.0-171.0","3TR2532VIQGDU84CMCU5GYEW5556J1","A2BJFAKOJRCPYJ","3GVPRXWRPHGYHD0HW29VLS36FVC7I4","","","null","","","","","","","","","",""
"107","","image-keyboard-response","172","234618","0.0-172.0","3TR2532VIQGDU84CMCU5GYEW5556J1","A2BJFAKOJRCPYJ","3GVPRXWRPHGYHD0HW29VLS36FVC7I4","","img/set1/S2.jpg","68","2","random","68","random,structured_normal,structured_load,structured_incentive","2,3,1,2,4,2","2,4,3,1","true","","",""
"null","","html-keyboard-response","173","234985","0.0-173.0","3TR2532VIQGDU84CMCU5GYEW5556J1","A2BJFAKOJRCPYJ","3GVPRXWRPHGYHD0HW29VLS36FVC7I4","","<img src=""img/set1/S2.jpg"" width=""540"" height = ""360"" style=""border:16px solid orange"">","null","","","","","","","","","",""
"null","","html-keyboard-response","174","235199","0.0-174.0","3TR2532VIQGDU84CMCU5GYEW5556J1","A2BJFAKOJRCPYJ","3GVPRXWRPHGYHD0HW29VLS36FVC7I4","","","null","","","","","","","","","",""
"170","","image-keyboard-response","175","235377","0.0-175.0","3TR2532VIQGDU84CMCU5GYEW5556J1","A2BJFAKOJRCPYJ","3GVPRXWRPHGYHD0HW29VLS36FVC7I4","","img/set1/S1.jpg","72","1","random","83","random,structured_normal,structured_load,structured_incentive","2,3,1,2,4,2","2,4,3,1","false","","",""
"null","","html-keyboard-response","176","235746","0.0-176.0","3TR2532VIQGDU84CMCU5GYEW5556J1","A2BJFAKOJRCPYJ","3GVPRXWRPHGYHD0HW29VLS36FVC7I4","","<img src=""img/set1/S1.jpg"" width=""540"" height = ""360"">","null","","","","","","","","","",""
"null","","html-keyboard-response","177","235947","0.0-177.0","3TR2532VIQGDU84CMCU5GYEW5556J1","A2BJFAKOJRCPYJ","3GVPRXWRPHGYHD0HW29VLS36FVC7I4","","","null","","","","","","","","","",""
"125","","image-keyboard-response","178","236080","0.0-178.0","3TR2532VIQGDU84CMCU5GYEW5556J1","A2BJFAKOJRCPYJ","3GVPRXWRPHGYHD0HW29VLS36FVC7I4","","img/set1/S1.jpg","83","1","random","83","random,structured_normal,structured_load,structured_incentive","2,3,1,2,4,2","2,4,3,1","true","","",""
"null","","html-keyboard-response","179","236433","0.0-179.0","3TR2532VIQGDU84CMCU5GYEW5556J1","A2BJFAKOJRCPYJ","3GVPRXWRPHGYHD0HW29VLS36FVC7I4","","<img src=""img/set1/S1.jpg"" width=""540"" height = ""360"" style=""border:16px solid orange"">","null","","","","","","","","","",""
"null","","html-keyboard-response","180","236636","0.0-180.0","3TR2532VIQGDU84CMCU5GYEW5556J1","A2BJFAKOJRCPYJ","3GVPRXWRPHGYHD0HW29VLS36FVC7I4","","","null","","","","","","","","","",""
"92","","image-keyboard-response","181","236731","0.0-181.0","3TR2532VIQGDU84CMCU5GYEW5556J1","A2BJFAKOJRCPYJ","3GVPRXWRPHGYHD0HW29VLS36FVC7I4","","img/set1/S4.jpg","74","4","random","74","random,structured_normal,structured_load,structured_incentive","2,3,1,2,4,2","2,4,3,1","true","","",""
"null","","html-keyboard-response","182","237092","0.0-182.0","3TR2532VIQGDU84CMCU5GYEW5556J1","A2BJFAKOJRCPYJ","3GVPRXWRPHGYHD0HW29VLS36FVC7I4","","<img src=""img/set1/S4.jpg"" width=""540"" height = ""360"" style=""border:16px solid orange"">","null","","","","","","","","","",""
"null","","html-keyboard-response","183","237309","0.0-183.0","3TR2532VIQGDU84CMCU5GYEW5556J1","A2BJFAKOJRCPYJ","3GVPRXWRPHGYHD0HW29VLS36FVC7I4","","","null","","","","","","","","","",""
"170","","image-keyboard-response","184","237482","0.0-184.0","3TR2532VIQGDU84CMCU5GYEW5556J1","A2BJFAKOJRCPYJ","3GVPRXWRPHGYHD0HW29VLS36FVC7I4","","img/set1/S2.jpg","72","2","random","68","random,structured_normal,structured_load,structured_incentive","2,3,1,2,4,2","2,4,3,1","false","","",""
"null","","html-keyboard-response","185","237835","0.0-185.0","3TR2532VIQGDU84CMCU5GYEW5556J1","A2BJFAKOJRCPYJ","3GVPRXWRPHGYHD0HW29VLS36FVC7I4","","<img src=""img/set1/S2.jpg"" width=""540"" height = ""360"">","null","","","","","","","","","",""
"null","","html-keyboard-response","186","238042","0.0-186.0","3TR2532VIQGDU84CMCU5GYEW5556J1","A2BJFAKOJRCPYJ","3GVPRXWRPHGYHD0HW29VLS36FVC7I4","","","null","","","","","","","","","",""
"331","","image-keyboard-response","187","238387","0.0-187.0","3TR2532VIQGDU84CMCU5GYEW5556J1","A2BJFAKOJRCPYJ","3GVPRXWRPHGYHD0HW29VLS36FVC7I4","","img/set1/S2.jpg","74","2","random","68","random,structured_normal,structured_load,structured_incentive","2,3,1,2,4,2","2,4,3,1","false","","",""
"null","","html-keyboard-response","188","238746","0.0-188.0","3TR2532VIQGDU84CMCU5GYEW5556J1","A2BJFAKOJRCPYJ","3GVPRXWRPHGYHD0HW29VLS36FVC7I4","","<img src=""img/set1/S2.jpg"" width=""540"" height = ""360"">","null","","","","","","","","","",""
"null","","html-keyboard-response","189","238952","0.0-189.0","3TR2532VIQGDU84CMCU5GYEW5556J1","A2BJFAKOJRCPYJ","3GVPRXWRPHGYHD0HW29VLS36FVC7I4","","","null","","","","","","","","","",""
"55","","image-keyboard-response","190","239008","0.0-190.0","3TR2532VIQGDU84CMCU5GYEW5556J1","A2BJFAKOJRCPYJ","3GVPRXWRPHGYHD0HW29VLS36FVC7I4","","img/set1/S4.jpg","68","4","random","74","random,structured_normal,structured_load,structured_incentive","2,3,1,2,4,2","2,4,3,1","false","","",""
"null","","html-keyboard-response","191","239371","0.0-191.0","3TR2532VIQGDU84CMCU5GYEW5556J1","A2BJFAKOJRCPYJ","3GVPRXWRPHGYHD0HW29VLS36FVC7I4","","<img src=""img/set1/S4.jpg"" width=""540"" height = ""360"">","null","","","","","","","","","",""
"null","","html-keyboard-response","192","239574","0.0-192.0","3TR2532VIQGDU84CMCU5GYEW5556J1","A2BJFAKOJRCPYJ","3GVPRXWRPHGYHD0HW29VLS36FVC7I4","","","null","","","","","","","","","",""
"80","","image-keyboard-response","193","239656","0.0-193.0","3TR2532VIQGDU84CMCU5GYEW5556J1","A2BJFAKOJRCPYJ","3GVPRXWRPHGYHD0HW29VLS36FVC7I4","","img/set1/S2.jpg","72","2","random","68","random,structured_normal,structured_load,structured_incentive","2,3,1,2,4,2","2,4,3,1","false","","",""
"null","","html-keyboard-response","194","240021","0.0-194.0","3TR2532VIQGDU84CMCU5GYEW5556J1","A2BJFAKOJRCPYJ","3GVPRXWRPHGYHD0HW29VLS36FVC7I4","","<img src=""img/set1/S2.jpg"" width=""540"" height = ""360"">","null","","","","","","","","","",""
"null","","html-keyboard-response","195","240223","0.0-195.0","3TR2532VIQGDU84CMCU5GYEW5556J1","A2BJFAKOJRCPYJ","3GVPRXWRPHGYHD0HW29VLS36FVC7I4","","","null","","","","","","","","","",""
"72","","image-keyboard-response","196","240298","0.0-196.0","3TR2532VIQGDU84CMCU5GYEW5556J1","A2BJFAKOJRCPYJ","3GVPRXWRPHGYHD0HW29VLS36FVC7I4","","img/set1/S2.jpg","83","2","random","68","random,structured_normal,structured_load,structured_incentive","2,3,1,2,4,2","2,4,3,1","false","","",""
"null","","html-keyboard-response","197","240653","0.0-197.0","3TR2532VIQGDU84CMCU5GYEW5556J1","A2BJFAKOJRCPYJ","3GVPRXWRPHGYHD0HW29VLS36FVC7I4","","<img src=""img/set1/S2.jpg"" width=""540"" height = ""360"">","null","","","","","","","","","",""
"null","","html-keyboard-response","198","240858","0.0-198.0","3TR2532VIQGDU84CMCU5GYEW5556J1","A2BJFAKOJRCPYJ","3GVPRXWRPHGYHD0HW29VLS36FVC7I4","","","null","","","","","","","","","",""
"90","","image-keyboard-response","199","240948","0.0-199.0","3TR2532VIQGDU84CMCU5GYEW5556J1","A2BJFAKOJRCPYJ","3GVPRXWRPHGYHD0HW29VLS36FVC7I4","","img/set1/S1.jpg","74","1","random","83","random,structured_normal,structured_load,structured_incentive","2,3,1,2,4,2","2,4,3,1","false","","",""
"null","","html-keyboard-response","200","241324","0.0-200.0","3TR2532VIQGDU84CMCU5GYEW5556J1","A2BJFAKOJRCPYJ","3GVPRXWRPHGYHD0HW29VLS36FVC7I4","","<img src=""img/set1/S1.jpg"" width=""540"" height = ""360"">","null","","","","","","","","","",""
"null","","html-keyboard-response","201","241527","0.0-201.0","3TR2532VIQGDU84CMCU5GYEW5556J1","A2BJFAKOJRCPYJ","3GVPRXWRPHGYHD0HW29VLS36FVC7I4","","","null","","","","","","","","","",""
"92","","image-keyboard-response","202","241622","0.0-202.0","3TR2532VIQGDU84CMCU5GYEW5556J1","A2BJFAKOJRCPYJ","3GVPRXWRPHGYHD0HW29VLS36FVC7I4","","img/set1/S2.jpg","68","2","random","68","random,structured_normal,structured_load,structured_incentive","2,3,1,2,4,2","2,4,3,1","true","","",""
"null","","html-keyboard-response","203","241977","0.0-203.0","3TR2532VIQGDU84CMCU5GYEW5556J1","A2BJFAKOJRCPYJ","3GVPRXWRPHGYHD0HW29VLS36FVC7I4","","<img src=""img/set1/S2.jpg"" width=""540"" height = ""360"" style=""border:16px solid orange"">","null","","","","","","","","","",""
"null","","html-keyboard-response","204","242177","0.0-204.0","3TR2532VIQGDU84CMCU5GYEW5556J1","A2BJFAKOJRCPYJ","3GVPRXWRPHGYHD0HW29VLS36FVC7I4","","","null","","","","","","","","","",""
"98","","image-keyboard-response","205","242276","0.0-205.0","3TR2532VIQGDU84CMCU5GYEW5556J1","A2BJFAKOJRCPYJ","3GVPRXWRPHGYHD0HW29VLS36FVC7I4","","img/set1/S1.jpg","72","1","random","83","random,structured_normal,structured_load,structured_incentive","2,3,1,2,4,2","2,4,3,1","false","","",""
"null","","html-keyboard-response","206","242652","0.0-206.0","3TR2532VIQGDU84CMCU5GYEW5556J1","A2BJFAKOJRCPYJ","3GVPRXWRPHGYHD0HW29VLS36FVC7I4","","<img src=""img/set1/S1.jpg"" width=""540"" height = ""360"">","null","","","","","","","","","",""
"null","","html-keyboard-response","207","242869","0.0-207.0","3TR2532VIQGDU84CMCU5GYEW5556J1","A2BJFAKOJRCPYJ","3GVPRXWRPHGYHD0HW29VLS36FVC7I4","","","null","","","","","","","","","",""
"37","","image-keyboard-response","208","242907","0.0-208.0","3TR2532VIQGDU84CMCU5GYEW5556J1","A2BJFAKOJRCPYJ","3GVPRXWRPHGYHD0HW29VLS36FVC7I4","","img/set1/S1.jpg","74","1","random","83","random,structured_normal,structured_load,structured_incentive","2,3,1,2,4,2","2,4,3,1","false","","",""
"null","","html-keyboard-response","209","243272","0.0-209.0","3TR2532VIQGDU84CMCU5GYEW5556J1","A2BJFAKOJRCPYJ","3GVPRXWRPHGYHD0HW29VLS36FVC7I4","","<img src=""img/set1/S1.jpg"" width=""540"" height = ""360"">","null","","","","","","","","","",""
"null","","html-keyboard-response","210","243480","0.0-210.0","3TR2532VIQGDU84CMCU5GYEW5556J1","A2BJFAKOJRCPYJ","3GVPRXWRPHGYHD0HW29VLS36FVC7I4","","","null","","","","","","","","","",""
"55","","image-keyboard-response","211","243536","0.0-211.0","3TR2532VIQGDU84CMCU5GYEW5556J1","A2BJFAKOJRCPYJ","3GVPRXWRPHGYHD0HW29VLS36FVC7I4","","img/set1/S4.jpg","68","4","random","74","random,structured_normal,structured_load,structured_incentive","2,3,1,2,4,2","2,4,3,1","false","","",""
"null","","html-keyboard-response","212","243891","0.0-212.0","3TR2532VIQGDU84CMCU5GYEW5556J1","A2BJFAKOJRCPYJ","3GVPRXWRPHGYHD0HW29VLS36FVC7I4","","<img src=""img/set1/S4.jpg"" width=""540"" height = ""360"">","null","","","","","","","","","",""
"null","","html-keyboard-response","213","244092","0.0-213.0","3TR2532VIQGDU84CMCU5GYEW5556J1","A2BJFAKOJRCPYJ","3GVPRXWRPHGYHD0HW29VLS36FVC7I4","","","null","","","","","","","","","",""
"113","","image-keyboard-response","214","244207","0.0-214.0","3TR2532VIQGDU84CMCU5GYEW5556J1","A2BJFAKOJRCPYJ","3GVPRXWRPHGYHD0HW29VLS36FVC7I4","","img/set1/S1.jpg","72","1","random","83","random,structured_normal,structured_load,structured_incentive","2,3,1,2,4,2","2,4,3,1","false","","",""
"null","","html-keyboard-response","215","244559","0.0-215.0","3TR2532VIQGDU84CMCU5GYEW5556J1","A2BJFAKOJRCPYJ","3GVPRXWRPHGYHD0HW29VLS36FVC7I4","","<img src=""img/set1/S1.jpg"" width=""540"" height = ""360"">","null","","","","","","","","","",""
"null","","html-keyboard-response","216","244761","0.0-216.0","3TR2532VIQGDU84CMCU5GYEW5556J1","A2BJFAKOJRCPYJ","3GVPRXWRPHGYHD0HW29VLS36FVC7I4","","","null","","","","","","","","","",""
"98","","image-keyboard-response","217","244873","0.0-217.0","3TR2532VIQGDU84CMCU5GYEW5556J1","A2BJFAKOJRCPYJ","3GVPRXWRPHGYHD0HW29VLS36FVC7I4","","img/set1/S2.jpg","72","2","random","68","random,structured_normal,structured_load,structured_incentive","2,3,1,2,4,2","2,4,3,1","false","","",""
"null","","html-keyboard-response","218","245230","0.0-218.0","3TR2532VIQGDU84CMCU5GYEW5556J1","A2BJFAKOJRCPYJ","3GVPRXWRPHGYHD0HW29VLS36FVC7I4","","<img src=""img/set1/S2.jpg"" width=""540"" height = ""360"">","null","","","","","","","","","",""
"null","","html-keyboard-response","219","245433","0.0-219.0","3TR2532VIQGDU84CMCU5GYEW5556J1","A2BJFAKOJRCPYJ","3GVPRXWRPHGYHD0HW29VLS36FVC7I4","","","null","","","","","","","","","",""
"63","","image-keyboard-response","220","245497","0.0-220.0","3TR2532VIQGDU84CMCU5GYEW5556J1","A2BJFAKOJRCPYJ","3GVPRXWRPHGYHD0HW29VLS36FVC7I4","","img/set1/S3.jpg","68","3","random","72","random,structured_normal,structured_load,structured_incentive","2,3,1,2,4,2","2,4,3,1","false","","",""
"null","","html-keyboard-response","221","245855","0.0-221.0","3TR2532VIQGDU84CMCU5GYEW5556J1","A2BJFAKOJRCPYJ","3GVPRXWRPHGYHD0HW29VLS36FVC7I4","","<img src=""img/set1/S3.jpg"" width=""540"" height = ""360"">","null","","","","","","","","","",""
"null","","html-keyboard-response","222","246071","0.0-222.0","3TR2532VIQGDU84CMCU5GYEW5556J1","A2BJFAKOJRCPYJ","3GVPRXWRPHGYHD0HW29VLS36FVC7I4","","","null","","","","","","","","","",""
"140","","image-keyboard-response","223","246225","0.0-223.0","3TR2532VIQGDU84CMCU5GYEW5556J1","A2BJFAKOJRCPYJ","3GVPRXWRPHGYHD0HW29VLS36FVC7I4","","img/set1/S2.jpg","74","2","random","68","random,structured_normal,structured_load,structured_incentive","2,3,1,2,4,2","2,4,3,1","false","","",""
"null","","html-keyboard-response","224","246589","0.0-224.0","3TR2532VIQGDU84CMCU5GYEW5556J1","A2BJFAKOJRCPYJ","3GVPRXWRPHGYHD0HW29VLS36FVC7I4","","<img src=""img/set1/S2.jpg"" width=""540"" height = ""360"">","null","","","","","","","","","",""
"null","","html-keyboard-response","225","246789","0.0-225.0","3TR2532VIQGDU84CMCU5GYEW5556J1","A2BJFAKOJRCPYJ","3GVPRXWRPHGYHD0HW29VLS36FVC7I4","","","null","","","","","","","","","",""
"147","","image-keyboard-response","226","246951","0.0-226.0","3TR2532VIQGDU84CMCU5GYEW5556J1","A2BJFAKOJRCPYJ","3GVPRXWRPHGYHD0HW29VLS36FVC7I4","","img/set1/S2.jpg","83","2","random","68","random,structured_normal,structured_load,structured_incentive","2,3,1,2,4,2","2,4,3,1","false","","",""
"null","","html-keyboard-response","227","247308","0.0-227.0","3TR2532VIQGDU84CMCU5GYEW5556J1","A2BJFAKOJRCPYJ","3GVPRXWRPHGYHD0HW29VLS36FVC7I4","","<img src=""img/set1/S2.jpg"" width=""540"" height = ""360"">","null","","","","","","","","","",""
"null","","html-keyboard-response","228","247511","0.0-228.0","3TR2532VIQGDU84CMCU5GYEW5556J1","A2BJFAKOJRCPYJ","3GVPRXWRPHGYHD0HW29VLS36FVC7I4","","","null","","","","","","","","","",""
"201","","image-keyboard-response","229","247728","0.0-229.0","3TR2532VIQGDU84CMCU5GYEW5556J1","A2BJFAKOJRCPYJ","3GVPRXWRPHGYHD0HW29VLS36FVC7I4","","img/set1/S4.jpg","68","4","random","74","random,structured_normal,structured_load,structured_incentive","2,3,1,2,4,2","2,4,3,1","false","","",""
"null","","html-keyboard-response","230","248088","0.0-230.0","3TR2532VIQGDU84CMCU5GYEW5556J1","A2BJFAKOJRCPYJ","3GVPRXWRPHGYHD0HW29VLS36FVC7I4","","<img src=""img/set1/S4.jpg"" width=""540"" height = ""360"">","null","","","","","","","","","",""
"null","","html-keyboard-response","231","248292","0.0-231.0","3TR2532VIQGDU84CMCU5GYEW5556J1","A2BJFAKOJRCPYJ","3GVPRXWRPHGYHD0HW29VLS36FVC7I4","","","null","","","","","","","","","",""
"202","","image-keyboard-response","232","248502","0.0-232.0","3TR2532VIQGDU84CMCU5GYEW5556J1","A2BJFAKOJRCPYJ","3GVPRXWRPHGYHD0HW29VLS36FVC7I4","","img/set1/S2.jpg","83","2","random","68","random,structured_normal,structured_load,structured_incentive","2,3,1,2,4,2","2,4,3,1","false","","",""
"null","","html-keyboard-response","233","248854","0.0-233.0","3TR2532VIQGDU84CMCU5GYEW5556J1","A2BJFAKOJRCPYJ","3GVPRXWRPHGYHD0HW29VLS36FVC7I4","","<img src=""img/set1/S2.jpg"" width=""540"" height = ""360"">","null","","","","","","","","","",""
"null","","html-keyboard-response","234","249058","0.0-234.0","3TR2532VIQGDU84CMCU5GYEW5556J1","A2BJFAKOJRCPYJ","3GVPRXWRPHGYHD0HW29VLS36FVC7I4","","","null","","","","","","","","","",""
"18","","image-keyboard-response","235","249076","0.0-235.0","3TR2532VIQGDU84CMCU5GYEW5556J1","A2BJFAKOJRCPYJ","3GVPRXWRPHGYHD0HW29VLS36FVC7I4","","img/set1/S2.jpg","74","2","random","68","random,structured_normal,structured_load,structured_incentive","2,3,1,2,4,2","2,4,3,1","false","","",""
"null","","html-keyboard-response","236","249439","0.0-236.0","3TR2532VIQGDU84CMCU5GYEW5556J1","A2BJFAKOJRCPYJ","3GVPRXWRPHGYHD0HW29VLS36FVC7I4","","<img src=""img/set1/S2.jpg"" width=""540"" height = ""360"">","null","","","","","","","","","",""
"null","","html-keyboard-response","237","249652","0.0-237.0","3TR2532VIQGDU84CMCU5GYEW5556J1","A2BJFAKOJRCPYJ","3GVPRXWRPHGYHD0HW29VLS36FVC7I4","","","null","","","","","","","","","",""
"180","","image-keyboard-response","238","249834","0.0-238.0","3TR2532VIQGDU84CMCU5GYEW5556J1","A2BJFAKOJRCPYJ","3GVPRXWRPHGYHD0HW29VLS36FVC7I4","","img/set1/S1.jpg","74","1","random","83","random,structured_normal,structured_load,structured_incentive","2,3,1,2,4,2","2,4,3,1","false","","",""
"null","","html-keyboard-response","239","250197","0.0-239.0","3TR2532VIQGDU84CMCU5GYEW5556J1","A2BJFAKOJRCPYJ","3GVPRXWRPHGYHD0HW29VLS36FVC7I4","","<img src=""img/set1/S1.jpg"" width=""540"" height = ""360"">","null","","","","","","","","","",""
"null","","html-keyboard-response","240","250402","0.0-240.0","3TR2532VIQGDU84CMCU5GYEW5556J1","A2BJFAKOJRCPYJ","3GVPRXWRPHGYHD0HW29VLS36FVC7I4","","","null","","","","","","","","","",""
"62","","image-keyboard-response","241","250466","0.0-241.0","3TR2532VIQGDU84CMCU5GYEW5556J1","A2BJFAKOJRCPYJ","3GVPRXWRPHGYHD0HW29VLS36FVC7I4","","img/set1/S3.jpg","68","3","random","72","random,structured_normal,structured_load,structured_incentive","2,3,1,2,4,2","2,4,3,1","false","","",""
"null","","html-keyboard-response","242","250819","0.0-242.0","3TR2532VIQGDU84CMCU5GYEW5556J1","A2BJFAKOJRCPYJ","3GVPRXWRPHGYHD0HW29VLS36FVC7I4","","<img src=""img/set1/S3.jpg"" width=""540"" height = ""360"">","null","","","","","","","","","",""
"null","","html-keyboard-response","243","251020","0.0-243.0","3TR2532VIQGDU84CMCU5GYEW5556J1","A2BJFAKOJRCPYJ","3GVPRXWRPHGYHD0HW29VLS36FVC7I4","","","null","","","","","","","","","",""
"133","","image-keyboard-response","244","251155","0.0-244.0","3TR2532VIQGDU84CMCU5GYEW5556J1","A2BJFAKOJRCPYJ","3GVPRXWRPHGYHD0HW29VLS36FVC7I4","","img/set1/S3.jpg","74","3","random","72","random,structured_normal,structured_load,structured_incentive","2,3,1,2,4,2","2,4,3,1","false","","",""
"null","","html-keyboard-response","245","251518","0.0-245.0","3TR2532VIQGDU84CMCU5GYEW5556J1","A2BJFAKOJRCPYJ","3GVPRXWRPHGYHD0HW29VLS36FVC7I4","","<img src=""img/set1/S3.jpg"" width=""540"" height = ""360"">","null","","","","","","","","","",""
"null","","html-keyboard-response","246","251731","0.0-246.0","3TR2532VIQGDU84CMCU5GYEW5556J1","A2BJFAKOJRCPYJ","3GVPRXWRPHGYHD0HW29VLS36FVC7I4","","","null","","","","","","","","","",""
"173","","image-keyboard-response","247","251909","0.0-247.0","3TR2532VIQGDU84CMCU5GYEW5556J1","A2BJFAKOJRCPYJ","3GVPRXWRPHGYHD0HW29VLS36FVC7I4","","img/set1/S4.jpg","68","4","random","74","random,structured_normal,structured_load,structured_incentive","2,3,1,2,4,2","2,4,3,1","false","","",""
"null","","html-keyboard-response","248","252279","0.0-248.0","3TR2532VIQGDU84CMCU5GYEW5556J1","A2BJFAKOJRCPYJ","3GVPRXWRPHGYHD0HW29VLS36FVC7I4","","<img src=""img/set1/S4.jpg"" width=""540"" height = ""360"">","null","","","","","","","","","",""
"null","","html-keyboard-response","249","252496","0.0-249.0","3TR2532VIQGDU84CMCU5GYEW5556J1","A2BJFAKOJRCPYJ","3GVPRXWRPHGYHD0HW29VLS36FVC7I4","","","null","","","","","","","","","",""
"123","","image-keyboard-response","250","252634","0.0-250.0","3TR2532VIQGDU84CMCU5GYEW5556J1","A2BJFAKOJRCPYJ","3GVPRXWRPHGYHD0HW29VLS36FVC7I4","","img/set1/S2.jpg","72","2","random","68","random,structured_normal,structured_load,structured_incentive","2,3,1,2,4,2","2,4,3,1","false","","",""
"null","","html-keyboard-response","251","252996","0.0-251.0","3TR2532VIQGDU84CMCU5GYEW5556J1","A2BJFAKOJRCPYJ","3GVPRXWRPHGYHD0HW29VLS36FVC7I4","","<img src=""img/set1/S2.jpg"" width=""540"" height = ""360"">","null","","","","","","","","","",""
"null","","html-keyboard-response","252","253201","0.0-252.0","3TR2532VIQGDU84CMCU5GYEW5556J1","A2BJFAKOJRCPYJ","3GVPRXWRPHGYHD0HW29VLS36FVC7I4","","","null","","","","","","","","","",""
"33","","image-keyboard-response","253","253235","0.0-253.0","3TR2532VIQGDU84CMCU5GYEW5556J1","A2BJFAKOJRCPYJ","3GVPRXWRPHGYHD0HW29VLS36FVC7I4","","img/set1/S3.jpg","83","3","random","72","random,structured_normal,structured_load,structured_incentive","2,3,1,2,4,2","2,4,3,1","false","","",""
"null","","html-keyboard-response","254","253586","0.0-254.0","3TR2532VIQGDU84CMCU5GYEW5556J1","A2BJFAKOJRCPYJ","3GVPRXWRPHGYHD0HW29VLS36FVC7I4","","<img src=""img/set1/S3.jpg"" width=""540"" height = ""360"">","null","","","","","","","","","",""
"null","","html-keyboard-response","255","253788","0.0-255.0","3TR2532VIQGDU84CMCU5GYEW5556J1","A2BJFAKOJRCPYJ","3GVPRXWRPHGYHD0HW29VLS36FVC7I4","","","null","","","","","","","","","",""
"488","","image-keyboard-response","256","254291","0.0-256.0","3TR2532VIQGDU84CMCU5GYEW5556J1","A2BJFAKOJRCPYJ","3GVPRXWRPHGYHD0HW29VLS36FVC7I4","","img/set1/S4.jpg","83","4","random","74","random,structured_normal,structured_load,structured_incentive","2,3,1,2,4,2","2,4,3,1","false","","",""
"null","","html-keyboard-response","257","254652","0.0-257.0","3TR2532VIQGDU84CMCU5GYEW5556J1","A2BJFAKOJRCPYJ","3GVPRXWRPHGYHD0HW29VLS36FVC7I4","","<img src=""img/set1/S4.jpg"" width=""540"" height = ""360"">","null","","","","","","","","","",""
"null","","html-keyboard-response","258","254853","0.0-258.0","3TR2532VIQGDU84CMCU5GYEW5556J1","A2BJFAKOJRCPYJ","3GVPRXWRPHGYHD0HW29VLS36FVC7I4","","","null","","","","","","","","","",""
"8","","image-keyboard-response","259","254862","0.0-259.0","3TR2532VIQGDU84CMCU5GYEW5556J1","A2BJFAKOJRCPYJ","3GVPRXWRPHGYHD0HW29VLS36FVC7I4","","img/set1/S4.jpg","74","4","random","74","random,structured_normal,structured_load,structured_incentive","2,3,1,2,4,2","2,4,3,1","true","","",""
"null","","html-keyboard-response","260","255231","0.0-260.0","3TR2532VIQGDU84CMCU5GYEW5556J1","A2BJFAKOJRCPYJ","3GVPRXWRPHGYHD0HW29VLS36FVC7I4","","<img src=""img/set1/S4.jpg"" width=""540"" height = ""360"" style=""border:16px solid orange"">","null","","","","","","","","","",""
"null","","html-keyboard-response","261","255450","0.0-261.0","3TR2532VIQGDU84CMCU5GYEW5556J1","A2BJFAKOJRCPYJ","3GVPRXWRPHGYHD0HW29VLS36FVC7I4","","","null","","","","","","","","","",""
"61","","image-keyboard-response","262","255512","0.0-262.0","3TR2532VIQGDU84CMCU5GYEW5556J1","A2BJFAKOJRCPYJ","3GVPRXWRPHGYHD0HW29VLS36FVC7I4","","img/set1/S2.jpg","68","2","random","68","random,structured_normal,structured_load,structured_incentive","2,3,1,2,4,2","2,4,3,1","true","","",""
"null","","html-keyboard-response","263","255875","0.0-263.0","3TR2532VIQGDU84CMCU5GYEW5556J1","A2BJFAKOJRCPYJ","3GVPRXWRPHGYHD0HW29VLS36FVC7I4","","<img src=""img/set1/S2.jpg"" width=""540"" height = ""360"" style=""border:16px solid orange"">","null","","","","","","","","","",""
"null","","html-keyboard-response","264","256083","0.0-264.0","3TR2532VIQGDU84CMCU5GYEW5556J1","A2BJFAKOJRCPYJ","3GVPRXWRPHGYHD0HW29VLS36FVC7I4","","","null","","","","","","","","","",""
"232","","image-keyboard-response","265","256324","0.0-265.0","3TR2532VIQGDU84CMCU5GYEW5556J1","A2BJFAKOJRCPYJ","3GVPRXWRPHGYHD0HW29VLS36FVC7I4","","img/set1/S4.jpg","68","4","random","74","random,structured_normal,structured_load,structured_incentive","2,3,1,2,4,2","2,4,3,1","false","","",""
"null","","html-keyboard-response","266","256683","0.0-266.0","3TR2532VIQGDU84CMCU5GYEW5556J1","A2BJFAKOJRCPYJ","3GVPRXWRPHGYHD0HW29VLS36FVC7I4","","<img src=""img/set1/S4.jpg"" width=""540"" height = ""360"">","null","","","","","","","","","",""
"null","","html-keyboard-response","267","256886","0.0-267.0","3TR2532VIQGDU84CMCU5GYEW5556J1","A2BJFAKOJRCPYJ","3GVPRXWRPHGYHD0HW29VLS36FVC7I4","","","null","","","","","","","","","",""
"7","","image-keyboard-response","268","256894","0.0-268.0","3TR2532VIQGDU84CMCU5GYEW5556J1","A2BJFAKOJRCPYJ","3GVPRXWRPHGYHD0HW29VLS36FVC7I4","","img/set1/S2.jpg","74","2","random","68","random,structured_normal,structured_load,structured_incentive","2,3,1,2,4,2","2,4,3,1","false","","",""
"null","","html-keyboard-response","269","257263","0.0-269.0","3TR2532VIQGDU84CMCU5GYEW5556J1","A2BJFAKOJRCPYJ","3GVPRXWRPHGYHD0HW29VLS36FVC7I4","","<img src=""img/set1/S2.jpg"" width=""540"" height = ""360"">","null","","","","","","","","","",""
"null","","html-keyboard-response","270","257465","0.0-270.0","3TR2532VIQGDU84CMCU5GYEW5556J1","A2BJFAKOJRCPYJ","3GVPRXWRPHGYHD0HW29VLS36FVC7I4","","","null","","","","","","","","","",""
"33","","image-keyboard-response","271","257499","0.0-271.0","3TR2532VIQGDU84CMCU5GYEW5556J1","A2BJFAKOJRCPYJ","3GVPRXWRPHGYHD0HW29VLS36FVC7I4","","img/set1/S2.jpg","68","2","random","68","random,structured_normal,structured_load,structured_incentive","2,3,1,2,4,2","2,4,3,1","true","","",""
"null","","html-keyboard-response","272","257855","0.0-272.0","3TR2532VIQGDU84CMCU5GYEW5556J1","A2BJFAKOJRCPYJ","3GVPRXWRPHGYHD0HW29VLS36FVC7I4","","<img src=""img/set1/S2.jpg"" width=""540"" height = ""360"" style=""border:16px solid orange"">","null","","","","","","","","","",""
"null","","html-keyboard-response","273","258058","0.0-273.0","3TR2532VIQGDU84CMCU5GYEW5556J1","A2BJFAKOJRCPYJ","3GVPRXWRPHGYHD0HW29VLS36FVC7I4","","","null","","","","","","","","","",""
"37","","image-keyboard-response","274","258100","0.0-274.0","3TR2532VIQGDU84CMCU5GYEW5556J1","A2BJFAKOJRCPYJ","3GVPRXWRPHGYHD0HW29VLS36FVC7I4","","img/set1/S1.jpg","74","1","random","83","random,structured_normal,structured_load,structured_incentive","2,3,1,2,4,2","2,4,3,1","false","","",""
"null","","html-keyboard-response","275","258466","0.0-275.0","3TR2532VIQGDU84CMCU5GYEW5556J1","A2BJFAKOJRCPYJ","3GVPRXWRPHGYHD0HW29VLS36FVC7I4","","<img src=""img/set1/S1.jpg"" width=""540"" height = ""360"">","null","","","","","","","","","",""
"null","","html-keyboard-response","276","258668","0.0-276.0","3TR2532VIQGDU84CMCU5GYEW5556J1","A2BJFAKOJRCPYJ","3GVPRXWRPHGYHD0HW29VLS36FVC7I4","","","null","","","","","","","","","",""
"60","","image-keyboard-response","277","258736","0.0-277.0","3TR2532VIQGDU84CMCU5GYEW5556J1","A2BJFAKOJRCPYJ","3GVPRXWRPHGYHD0HW29VLS36FVC7I4","","img/set1/S3.jpg","83","3","random","72","random,structured_normal,structured_load,structured_incentive","2,3,1,2,4,2","2,4,3,1","false","","",""
"null","","html-keyboard-response","278","259088","0.0-278.0","3TR2532VIQGDU84CMCU5GYEW5556J1","A2BJFAKOJRCPYJ","3GVPRXWRPHGYHD0HW29VLS36FVC7I4","","<img src=""img/set1/S3.jpg"" width=""540"" height = ""360"">","null","","","","","","","","","",""
"null","","html-keyboard-response","279","259296","0.0-279.0","3TR2532VIQGDU84CMCU5GYEW5556J1","A2BJFAKOJRCPYJ","3GVPRXWRPHGYHD0HW29VLS36FVC7I4","","","null","","","","","","","","","",""
"199","","image-keyboard-response","280","259497","0.0-280.0","3TR2532VIQGDU84CMCU5GYEW5556J1","A2BJFAKOJRCPYJ","3GVPRXWRPHGYHD0HW29VLS36FVC7I4","","img/set1/S1.jpg","83","1","random","83","random,structured_normal,structured_load,structured_incentive","2,3,1,2,4,2","2,4,3,1","true","","",""
"null","","html-keyboard-response","281","259849","0.0-281.0","3TR2532VIQGDU84CMCU5GYEW5556J1","A2BJFAKOJRCPYJ","3GVPRXWRPHGYHD0HW29VLS36FVC7I4","","<img src=""img/set1/S1.jpg"" width=""540"" height = ""360"" style=""border:16px solid orange"">","null","","","","","","","","","",""
"null","","html-keyboard-response","282","260058","0.0-282.0","3TR2532VIQGDU84CMCU5GYEW5556J1","A2BJFAKOJRCPYJ","3GVPRXWRPHGYHD0HW29VLS36FVC7I4","","","null","","","","","","","","","",""
"53","","image-keyboard-response","283","260112","0.0-283.0","3TR2532VIQGDU84CMCU5GYEW5556J1","A2BJFAKOJRCPYJ","3GVPRXWRPHGYHD0HW29VLS36FVC7I4","","img/set1/S4.jpg","72","4","random","74","random,structured_normal,structured_load,structured_incentive","2,3,1,2,4,2","2,4,3,1","false","","",""
"null","","html-keyboard-response","284","260473","0.0-284.0","3TR2532VIQGDU84CMCU5GYEW5556J1","A2BJFAKOJRCPYJ","3GVPRXWRPHGYHD0HW29VLS36FVC7I4","","<img src=""img/set1/S4.jpg"" width=""540"" height = ""360"">","null","","","","","","","","","",""
"null","","html-keyboard-response","285","260683","0.0-285.0","3TR2532VIQGDU84CMCU5GYEW5556J1","A2BJFAKOJRCPYJ","3GVPRXWRPHGYHD0HW29VLS36FVC7I4","","","null","","","","","","","","","",""
"227","","image-keyboard-response","286","260912","0.0-286.0","3TR2532VIQGDU84CMCU5GYEW5556J1","A2BJFAKOJRCPYJ","3GVPRXWRPHGYHD0HW29VLS36FVC7I4","","img/set1/S1.jpg","83","1","random","83","random,structured_normal,structured_load,structured_incentive","2,3,1,2,4,2","2,4,3,1","true","","",""
"null","","html-keyboard-response","287","261263","0.0-287.0","3TR2532VIQGDU84CMCU5GYEW5556J1","A2BJFAKOJRCPYJ","3GVPRXWRPHGYHD0HW29VLS36FVC7I4","","<img src=""img/set1/S1.jpg"" width=""540"" height = ""360"" style=""border:16px solid orange"">","null","","","","","","","","","",""
"null","","html-keyboard-response","288","261480","0.0-288.0","3TR2532VIQGDU84CMCU5GYEW5556J1","A2BJFAKOJRCPYJ","3GVPRXWRPHGYHD0HW29VLS36FVC7I4","","","null","","","","","","","","","",""
"404","","image-keyboard-response","289","261893","0.0-289.0","3TR2532VIQGDU84CMCU5GYEW5556J1","A2BJFAKOJRCPYJ","3GVPRXWRPHGYHD0HW29VLS36FVC7I4","","img/set1/S1.jpg","74","1","random","83","random,structured_normal,structured_load,structured_incentive","2,3,1,2,4,2","2,4,3,1","false","","",""
"null","","html-keyboard-response","290","262259","0.0-290.0","3TR2532VIQGDU84CMCU5GYEW5556J1","A2BJFAKOJRCPYJ","3GVPRXWRPHGYHD0HW29VLS36FVC7I4","","<img src=""img/set1/S1.jpg"" width=""540"" height = ""360"">","null","","","","","","","","","",""
"null","","html-keyboard-response","291","262465","0.0-291.0","3TR2532VIQGDU84CMCU5GYEW5556J1","A2BJFAKOJRCPYJ","3GVPRXWRPHGYHD0HW29VLS36FVC7I4","","","null","","","","","","","","","",""
"1246","","image-keyboard-response","292","263714","0.0-292.0","3TR2532VIQGDU84CMCU5GYEW5556J1","A2BJFAKOJRCPYJ","3GVPRXWRPHGYHD0HW29VLS36FVC7I4","","img/set1/S1.jpg","83","1","random","83","random,structured_normal,structured_load,structured_incentive","2,3,1,2,4,2","2,4,3,1","true","","",""
"null","","html-keyboard-response","293","264076","0.0-293.0","3TR2532VIQGDU84CMCU5GYEW5556J1","A2BJFAKOJRCPYJ","3GVPRXWRPHGYHD0HW29VLS36FVC7I4","","<img src=""img/set1/S1.jpg"" width=""540"" height = ""360"" style=""border:16px solid orange"">","null","","","","","","","","","",""
"null","","html-keyboard-response","294","264278","0.0-294.0","3TR2532VIQGDU84CMCU5GYEW5556J1","A2BJFAKOJRCPYJ","3GVPRXWRPHGYHD0HW29VLS36FVC7I4","","","null","","","","","","","","","",""
"66","","image-keyboard-response","295","264346","0.0-295.0","3TR2532VIQGDU84CMCU5GYEW5556J1","A2BJFAKOJRCPYJ","3GVPRXWRPHGYHD0HW29VLS36FVC7I4","","img/set1/S1.jpg","72","1","random","83","random,structured_normal,structured_load,structured_incentive","2,3,1,2,4,2","2,4,3,1","false","","",""
"null","","html-keyboard-response","296","264699","0.0-296.0","3TR2532VIQGDU84CMCU5GYEW5556J1","A2BJFAKOJRCPYJ","3GVPRXWRPHGYHD0HW29VLS36FVC7I4","","<img src=""img/set1/S1.jpg"" width=""540"" height = ""360"">","null","","","","","","","","","",""
"null","","html-keyboard-response","297","264900","0.0-297.0","3TR2532VIQGDU84CMCU5GYEW5556J1","A2BJFAKOJRCPYJ","3GVPRXWRPHGYHD0HW29VLS36FVC7I4","","","null","","","","","","","","","",""
"353","","image-keyboard-response","298","265266","0.0-298.0","3TR2532VIQGDU84CMCU5GYEW5556J1","A2BJFAKOJRCPYJ","3GVPRXWRPHGYHD0HW29VLS36FVC7I4","","img/set1/S1.jpg","68","1","random","83","random,structured_normal,structured_load,structured_incentive","2,3,1,2,4,2","2,4,3,1","false","","",""
"null","","html-keyboard-response","299","265622","0.0-299.0","3TR2532VIQGDU84CMCU5GYEW5556J1","A2BJFAKOJRCPYJ","3GVPRXWRPHGYHD0HW29VLS36FVC7I4","","<img src=""img/set1/S1.jpg"" width=""540"" height = ""360"">","null","","","","","","","","","",""
"null","","html-keyboard-response","300","265825","0.0-300.0","3TR2532VIQGDU84CMCU5GYEW5556J1","A2BJFAKOJRCPYJ","3GVPRXWRPHGYHD0HW29VLS36FVC7I4","","","null","","","","","","","","","",""
"226","","image-keyboard-response","301","266053","0.0-301.0","3TR2532VIQGDU84CMCU5GYEW5556J1","A2BJFAKOJRCPYJ","3GVPRXWRPHGYHD0HW29VLS36FVC7I4","","img/set1/S2.jpg","83","2","random","68","random,structured_normal,structured_load,structured_incentive","2,3,1,2,4,2","2,4,3,1","false","","",""
"null","","html-keyboard-response","302","266417","0.0-302.0","3TR2532VIQGDU84CMCU5GYEW5556J1","A2BJFAKOJRCPYJ","3GVPRXWRPHGYHD0HW29VLS36FVC7I4","","<img src=""img/set1/S2.jpg"" width=""540"" height = ""360"">","null","","","","","","","","","",""
"null","","html-keyboard-response","303","266622","0.0-303.0","3TR2532VIQGDU84CMCU5GYEW5556J1","A2BJFAKOJRCPYJ","3GVPRXWRPHGYHD0HW29VLS36FVC7I4","","","null","","","","","","","","","",""
"232","","image-keyboard-response","304","266855","0.0-304.0","3TR2532VIQGDU84CMCU5GYEW5556J1","A2BJFAKOJRCPYJ","3GVPRXWRPHGYHD0HW29VLS36FVC7I4","","img/set1/S1.jpg","74","1","random","83","random,structured_normal,structured_load,structured_incentive","2,3,1,2,4,2","2,4,3,1","false","","",""
"null","","html-keyboard-response","305","267214","0.0-305.0","3TR2532VIQGDU84CMCU5GYEW5556J1","A2BJFAKOJRCPYJ","3GVPRXWRPHGYHD0HW29VLS36FVC7I4","","<img src=""img/set1/S1.jpg"" width=""540"" height = ""360"">","null","","","","","","","","","",""
"null","","html-keyboard-response","306","267418","0.0-306.0","3TR2532VIQGDU84CMCU5GYEW5556J1","A2BJFAKOJRCPYJ","3GVPRXWRPHGYHD0HW29VLS36FVC7I4","","","null","","","","","","","","","",""
"70","","image-keyboard-response","307","267489","0.0-307.0","3TR2532VIQGDU84CMCU5GYEW5556J1","A2BJFAKOJRCPYJ","3GVPRXWRPHGYHD0HW29VLS36FVC7I4","","img/set1/S3.jpg","68","3","random","72","random,structured_normal,structured_load,structured_incentive","2,3,1,2,4,2","2,4,3,1","false","","",""
"null","","html-keyboard-response","308","267843","0.0-308.0","3TR2532VIQGDU84CMCU5GYEW5556J1","A2BJFAKOJRCPYJ","3GVPRXWRPHGYHD0HW29VLS36FVC7I4","","<img src=""img/set1/S3.jpg"" width=""540"" height = ""360"">","null","","","","","","","","","",""
"null","","html-keyboard-response","309","268059","0.0-309.0","3TR2532VIQGDU84CMCU5GYEW5556J1","A2BJFAKOJRCPYJ","3GVPRXWRPHGYHD0HW29VLS36FVC7I4","","","null","","","","","","","","","",""
"173","","image-keyboard-response","310","268234","0.0-310.0","3TR2532VIQGDU84CMCU5GYEW5556J1","A2BJFAKOJRCPYJ","3GVPRXWRPHGYHD0HW29VLS36FVC7I4","","img/set1/S4.jpg","83","4","random","74","random,structured_normal,structured_load,structured_incentive","2,3,1,2,4,2","2,4,3,1","false","","",""
"null","","html-keyboard-response","311","268589","0.0-311.0","3TR2532VIQGDU84CMCU5GYEW5556J1","A2BJFAKOJRCPYJ","3GVPRXWRPHGYHD0HW29VLS36FVC7I4","","<img src=""img/set1/S4.jpg"" width=""540"" height = ""360"">","null","","","","","","","","","",""
"null","","html-keyboard-response","312","268790","0.0-312.0","3TR2532VIQGDU84CMCU5GYEW5556J1","A2BJFAKOJRCPYJ","3GVPRXWRPHGYHD0HW29VLS36FVC7I4","","","null","","","","","","","","","",""
"132","","image-keyboard-response","313","268924","0.0-313.0","3TR2532VIQGDU84CMCU5GYEW5556J1","A2BJFAKOJRCPYJ","3GVPRXWRPHGYHD0HW29VLS36FVC7I4","","img/set1/S1.jpg","72","1","random","83","random,structured_normal,structured_load,structured_incentive","2,3,1,2,4,2","2,4,3,1","false","","",""
"null","","html-keyboard-response","314","269278","0.0-314.0","3TR2532VIQGDU84CMCU5GYEW5556J1","A2BJFAKOJRCPYJ","3GVPRXWRPHGYHD0HW29VLS36FVC7I4","","<img src=""img/set1/S1.jpg"" width=""540"" height = ""360"">","null","","","","","","","","","",""
"null","","html-keyboard-response","315","269496","0.0-315.0","3TR2532VIQGDU84CMCU5GYEW5556J1","A2BJFAKOJRCPYJ","3GVPRXWRPHGYHD0HW29VLS36FVC7I4","","","null","","","","","","","","","",""
"218","","image-keyboard-response","316","269724","0.0-316.0","3TR2532VIQGDU84CMCU5GYEW5556J1","A2BJFAKOJRCPYJ","3GVPRXWRPHGYHD0HW29VLS36FVC7I4","","img/set1/S3.jpg","68","3","random","72","random,structured_normal,structured_load,structured_incentive","2,3,1,2,4,2","2,4,3,1","false","","",""
"null","","html-keyboard-response","317","270079","0.0-317.0","3TR2532VIQGDU84CMCU5GYEW5556J1","A2BJFAKOJRCPYJ","3GVPRXWRPHGYHD0HW29VLS36FVC7I4","","<img src=""img/set1/S3.jpg"" width=""540"" height = ""360"">","null","","","","","","","","","",""
"null","","html-keyboard-response","318","270280","0.0-318.0","3TR2532VIQGDU84CMCU5GYEW5556J1","A2BJFAKOJRCPYJ","3GVPRXWRPHGYHD0HW29VLS36FVC7I4","","","null","","","","","","","","","",""
"229","","image-keyboard-response","319","270523","0.0-319.0","3TR2532VIQGDU84CMCU5GYEW5556J1","A2BJFAKOJRCPYJ","3GVPRXWRPHGYHD0HW29VLS36FVC7I4","","img/set1/S2.jpg","83","2","random","68","random,structured_normal,structured_load,structured_incentive","2,3,1,2,4,2","2,4,3,1","false","","",""
"null","","html-keyboard-response","320","270875","0.0-320.0","3TR2532VIQGDU84CMCU5GYEW5556J1","A2BJFAKOJRCPYJ","3GVPRXWRPHGYHD0HW29VLS36FVC7I4","","<img src=""img/set1/S2.jpg"" width=""540"" height = ""360"">","null","","","","","","","","","",""
"null","","html-keyboard-response","321","271089","0.0-321.0","3TR2532VIQGDU84CMCU5GYEW5556J1","A2BJFAKOJRCPYJ","3GVPRXWRPHGYHD0HW29VLS36FVC7I4","","","null","","","","","","","","","",""
"200","","image-keyboard-response","322","271292","0.0-322.0","3TR2532VIQGDU84CMCU5GYEW5556J1","A2BJFAKOJRCPYJ","3GVPRXWRPHGYHD0HW29VLS36FVC7I4","","img/set1/S1.jpg","74","1","random","83","random,structured_normal,structured_load,structured_incentive","2,3,1,2,4,2","2,4,3,1","false","","",""
"null","","html-keyboard-response","323","271652","0.0-323.0","3TR2532VIQGDU84CMCU5GYEW5556J1","A2BJFAKOJRCPYJ","3GVPRXWRPHGYHD0HW29VLS36FVC7I4","","<img src=""img/set1/S1.jpg"" width=""540"" height = ""360"">","null","","","","","","","","","",""
"null","","html-keyboard-response","324","271852","0.0-324.0","3TR2532VIQGDU84CMCU5GYEW5556J1","A2BJFAKOJRCPYJ","3GVPRXWRPHGYHD0HW29VLS36FVC7I4","","","null","","","","","","","","","",""
"281","","image-keyboard-response","325","272136","0.0-325.0","3TR2532VIQGDU84CMCU5GYEW5556J1","A2BJFAKOJRCPYJ","3GVPRXWRPHGYHD0HW29VLS36FVC7I4","","img/set1/S3.jpg","72","3","random","72","random,structured_normal,structured_load,structured_incentive","2,3,1,2,4,2","2,4,3,1","true","","",""
"null","","html-keyboard-response","326","272496","0.0-326.0","3TR2532VIQGDU84CMCU5GYEW5556J1","A2BJFAKOJRCPYJ","3GVPRXWRPHGYHD0HW29VLS36FVC7I4","","<img src=""img/set1/S3.jpg"" width=""540"" height = ""360"" style=""border:16px solid orange"">","null","","","","","","","","","",""
"null","","html-keyboard-response","327","272699","0.0-327.0","3TR2532VIQGDU84CMCU5GYEW5556J1","A2BJFAKOJRCPYJ","3GVPRXWRPHGYHD0HW29VLS36FVC7I4","","","null","","","","","","","","","",""
"203","","image-keyboard-response","328","272905","0.0-328.0","3TR2532VIQGDU84CMCU5GYEW5556J1","A2BJFAKOJRCPYJ","3GVPRXWRPHGYHD0HW29VLS36FVC7I4","","img/set1/S1.jpg","68","1","random","83","random,structured_normal,structured_load,structured_incentive","2,3,1,2,4,2","2,4,3,1","false","","",""
"null","","html-keyboard-response","329","273262","0.0-329.0","3TR2532VIQGDU84CMCU5GYEW5556J1","A2BJFAKOJRCPYJ","3GVPRXWRPHGYHD0HW29VLS36FVC7I4","","<img src=""img/set1/S1.jpg"" width=""540"" height = ""360"">","null","","","","","","","","","",""
"null","","html-keyboard-response","330","273464","0.0-330.0","3TR2532VIQGDU84CMCU5GYEW5556J1","A2BJFAKOJRCPYJ","3GVPRXWRPHGYHD0HW29VLS36FVC7I4","","","null","","","","","","","","","",""
"61","","image-keyboard-response","331","273527","0.0-331.0","3TR2532VIQGDU84CMCU5GYEW5556J1","A2BJFAKOJRCPYJ","3GVPRXWRPHGYHD0HW29VLS36FVC7I4","","img/set1/S3.jpg","74","3","random","72","random,structured_normal,structured_load,structured_incentive","2,3,1,2,4,2","2,4,3,1","false","","",""
"null","","html-keyboard-response","332","273881","0.0-332.0","3TR2532VIQGDU84CMCU5GYEW5556J1","A2BJFAKOJRCPYJ","3GVPRXWRPHGYHD0HW29VLS36FVC7I4","","<img src=""img/set1/S3.jpg"" width=""540"" height = ""360"">","null","","","","","","","","","",""
"null","","html-keyboard-response","333","274089","0.0-333.0","3TR2532VIQGDU84CMCU5GYEW5556J1","A2BJFAKOJRCPYJ","3GVPRXWRPHGYHD0HW29VLS36FVC7I4","","","null","","","","","","","","","",""
"238","","image-keyboard-response","334","274331","0.0-334.0","3TR2532VIQGDU84CMCU5GYEW5556J1","A2BJFAKOJRCPYJ","3GVPRXWRPHGYHD0HW29VLS36FVC7I4","","img/set1/S1.jpg","72","1","random","83","random,structured_normal,structured_load,structured_incentive","2,3,1,2,4,2","2,4,3,1","false","","",""
"null","","html-keyboard-response","335","274683","0.0-335.0","3TR2532VIQGDU84CMCU5GYEW5556J1","A2BJFAKOJRCPYJ","3GVPRXWRPHGYHD0HW29VLS36FVC7I4","","<img src=""img/set1/S1.jpg"" width=""540"" height = ""360"">","null","","","","","","","","","",""
"null","","html-keyboard-response","336","274899","0.0-336.0","3TR2532VIQGDU84CMCU5GYEW5556J1","A2BJFAKOJRCPYJ","3GVPRXWRPHGYHD0HW29VLS36FVC7I4","","","null","","","","","","","","","",""
"189","","image-keyboard-response","337","275103","0.0-337.0","3TR2532VIQGDU84CMCU5GYEW5556J1","A2BJFAKOJRCPYJ","3GVPRXWRPHGYHD0HW29VLS36FVC7I4","","img/set1/S3.jpg","68","3","random","72","random,structured_normal,structured_load,structured_incentive","2,3,1,2,4,2","2,4,3,1","false","","",""
"null","","html-keyboard-response","338","275465","0.0-338.0","3TR2532VIQGDU84CMCU5GYEW5556J1","A2BJFAKOJRCPYJ","3GVPRXWRPHGYHD0HW29VLS36FVC7I4","","<img src=""img/set1/S3.jpg"" width=""540"" height = ""360"">","null","","","","","","","","","",""
"null","","html-keyboard-response","339","275668","0.0-339.0","3TR2532VIQGDU84CMCU5GYEW5556J1","A2BJFAKOJRCPYJ","3GVPRXWRPHGYHD0HW29VLS36FVC7I4","","","null","","","","","","","","","",""
"108","","image-keyboard-response","340","275787","0.0-340.0","3TR2532VIQGDU84CMCU5GYEW5556J1","A2BJFAKOJRCPYJ","3GVPRXWRPHGYHD0HW29VLS36FVC7I4","","img/set1/S3.jpg","74","3","random","72","random,structured_normal,structured_load,structured_incentive","2,3,1,2,4,2","2,4,3,1","false","","",""
"null","","html-keyboard-response","341","276149","0.0-341.0","3TR2532VIQGDU84CMCU5GYEW5556J1","A2BJFAKOJRCPYJ","3GVPRXWRPHGYHD0HW29VLS36FVC7I4","","<img src=""img/set1/S3.jpg"" width=""540"" height = ""360"">","null","","","","","","","","","",""
"null","","html-keyboard-response","342","276355","0.0-342.0","3TR2532VIQGDU84CMCU5GYEW5556J1","A2BJFAKOJRCPYJ","3GVPRXWRPHGYHD0HW29VLS36FVC7I4","","","null","","","","","","","","","",""
"264","","image-keyboard-response","343","276624","0.0-343.0","3TR2532VIQGDU84CMCU5GYEW5556J1","A2BJFAKOJRCPYJ","3GVPRXWRPHGYHD0HW29VLS36FVC7I4","","img/set1/S2.jpg","72","2","random","68","random,structured_normal,structured_load,structured_incentive","2,3,1,2,4,2","2,4,3,1","false","","",""
"null","","html-keyboard-response","344","276981","0.0-344.0","3TR2532VIQGDU84CMCU5GYEW5556J1","A2BJFAKOJRCPYJ","3GVPRXWRPHGYHD0HW29VLS36FVC7I4","","<img src=""img/set1/S2.jpg"" width=""540"" height = ""360"">","null","","","","","","","","","",""
"null","","html-keyboard-response","345","277197","0.0-345.0","3TR2532VIQGDU84CMCU5GYEW5556J1","A2BJFAKOJRCPYJ","3GVPRXWRPHGYHD0HW29VLS36FVC7I4","","","null","","","","","","","","","",""
"203","","image-keyboard-response","346","277406","0.0-346.0","3TR2532VIQGDU84CMCU5GYEW5556J1","A2BJFAKOJRCPYJ","3GVPRXWRPHGYHD0HW29VLS36FVC7I4","","img/set1/S3.jpg","68","3","random","72","random,structured_normal,structured_load,structured_incentive","2,3,1,2,4,2","2,4,3,1","false","","",""
"null","","html-keyboard-response","347","277761","0.0-347.0","3TR2532VIQGDU84CMCU5GYEW5556J1","A2BJFAKOJRCPYJ","3GVPRXWRPHGYHD0HW29VLS36FVC7I4","","<img src=""img/set1/S3.jpg"" width=""540"" height = ""360"">","null","","","","","","","","","",""
"null","","html-keyboard-response","348","277972","0.0-348.0","3TR2532VIQGDU84CMCU5GYEW5556J1","A2BJFAKOJRCPYJ","3GVPRXWRPHGYHD0HW29VLS36FVC7I4","","","null","","","","","","","","","",""
"77","","image-keyboard-response","349","278051","0.0-349.0","3TR2532VIQGDU84CMCU5GYEW5556J1","A2BJFAKOJRCPYJ","3GVPRXWRPHGYHD0HW29VLS36FVC7I4","","img/set1/S3.jpg","74","3","random","72","random,structured_normal,structured_load,structured_incentive","2,3,1,2,4,2","2,4,3,1","false","","",""
"null","","html-keyboard-response","350","278406","0.0-350.0","3TR2532VIQGDU84CMCU5GYEW5556J1","A2BJFAKOJRCPYJ","3GVPRXWRPHGYHD0HW29VLS36FVC7I4","","<img src=""img/set1/S3.jpg"" width=""540"" height = ""360"">","null","","","","","","","","","",""
"null","","html-keyboard-response","351","278623","0.0-351.0","3TR2532VIQGDU84CMCU5GYEW5556J1","A2BJFAKOJRCPYJ","3GVPRXWRPHGYHD0HW29VLS36FVC7I4","","","null","","","","","","","","","",""
"106","","image-keyboard-response","352","278736","0.0-352.0","3TR2532VIQGDU84CMCU5GYEW5556J1","A2BJFAKOJRCPYJ","3GVPRXWRPHGYHD0HW29VLS36FVC7I4","","img/set1/S2.jpg","68","2","random","68","random,structured_normal,structured_load,structured_incentive","2,3,1,2,4,2","2,4,3,1","true","","",""
"null","","html-keyboard-response","353","279089","0.0-353.0","3TR2532VIQGDU84CMCU5GYEW5556J1","A2BJFAKOJRCPYJ","3GVPRXWRPHGYHD0HW29VLS36FVC7I4","","<img src=""img/set1/S2.jpg"" width=""540"" height = ""360"" style=""border:16px solid orange"">","null","","","","","","","","","",""
"null","","html-keyboard-response","354","279290","0.0-354.0","3TR2532VIQGDU84CMCU5GYEW5556J1","A2BJFAKOJRCPYJ","3GVPRXWRPHGYHD0HW29VLS36FVC7I4","","","null","","","","","","","","","",""
"504","","image-keyboard-response","355","279796","0.0-355.0","3TR2532VIQGDU84CMCU5GYEW5556J1","A2BJFAKOJRCPYJ","3GVPRXWRPHGYHD0HW29VLS36FVC7I4","","img/set1/S1.jpg","83","1","random","83","random,structured_normal,structured_load,structured_incentive","2,3,1,2,4,2","2,4,3,1","true","","",""
"null","","html-keyboard-response","356","280150","0.0-356.0","3TR2532VIQGDU84CMCU5GYEW5556J1","A2BJFAKOJRCPYJ","3GVPRXWRPHGYHD0HW29VLS36FVC7I4","","<img src=""img/set1/S1.jpg"" width=""540"" height = ""360"" style=""border:16px solid orange"">","null","","","","","","","","","",""
"null","","html-keyboard-response","357","280365","0.0-357.0","3TR2532VIQGDU84CMCU5GYEW5556J1","A2BJFAKOJRCPYJ","3GVPRXWRPHGYHD0HW29VLS36FVC7I4","","","null","","","","","","","","","",""
"75","","image-keyboard-response","358","280441","0.0-358.0","3TR2532VIQGDU84CMCU5GYEW5556J1","A2BJFAKOJRCPYJ","3GVPRXWRPHGYHD0HW29VLS36FVC7I4","","img/set1/S2.jpg","72","2","random","68","random,structured_normal,structured_load,structured_incentive","2,3,1,2,4,2","2,4,3,1","false","","",""
"null","","html-keyboard-response","359","280806","0.0-359.0","3TR2532VIQGDU84CMCU5GYEW5556J1","A2BJFAKOJRCPYJ","3GVPRXWRPHGYHD0HW29VLS36FVC7I4","","<img src=""img/set1/S2.jpg"" width=""540"" height = ""360"">","null","","","","","","","","","",""
"null","","html-keyboard-response","360","281006","0.0-360.0","3TR2532VIQGDU84CMCU5GYEW5556J1","A2BJFAKOJRCPYJ","3GVPRXWRPHGYHD0HW29VLS36FVC7I4","","","null","","","","","","","","","",""
"61","","image-keyboard-response","361","281069","0.0-361.0","3TR2532VIQGDU84CMCU5GYEW5556J1","A2BJFAKOJRCPYJ","3GVPRXWRPHGYHD0HW29VLS36FVC7I4","","img/set1/S1.jpg","83","1","random","83","random,structured_normal,structured_load,structured_incentive","2,3,1,2,4,2","2,4,3,1","true","","",""
"null","","html-keyboard-response","362","281431","0.0-362.0","3TR2532VIQGDU84CMCU5GYEW5556J1","A2BJFAKOJRCPYJ","3GVPRXWRPHGYHD0HW29VLS36FVC7I4","","<img src=""img/set1/S1.jpg"" width=""540"" height = ""360"" style=""border:16px solid orange"">","null","","","","","","","","","",""
"null","","html-keyboard-response","363","281636","0.0-363.0","3TR2532VIQGDU84CMCU5GYEW5556J1","A2BJFAKOJRCPYJ","3GVPRXWRPHGYHD0HW29VLS36FVC7I4","","","null","","","","","","","","","",""
"203","","image-keyboard-response","364","281841","0.0-364.0","3TR2532VIQGDU84CMCU5GYEW5556J1","A2BJFAKOJRCPYJ","3GVPRXWRPHGYHD0HW29VLS36FVC7I4","","img/set1/S4.jpg","74","4","random","74","random,structured_normal,structured_load,structured_incentive","2,3,1,2,4,2","2,4,3,1","true","","",""
"null","","html-keyboard-response","365","282199","0.0-365.0","3TR2532VIQGDU84CMCU5GYEW5556J1","A2BJFAKOJRCPYJ","3GVPRXWRPHGYHD0HW29VLS36FVC7I4","","<img src=""img/set1/S4.jpg"" width=""540"" height = ""360"" style=""border:16px solid orange"">","null","","","","","","","","","",""
"null","","html-keyboard-response","366","282402","0.0-366.0","3TR2532VIQGDU84CMCU5GYEW5556J1","A2BJFAKOJRCPYJ","3GVPRXWRPHGYHD0HW29VLS36FVC7I4","","","null","","","","","","","","","",""
"27","","image-keyboard-response","367","282433","0.0-367.0","3TR2532VIQGDU84CMCU5GYEW5556J1","A2BJFAKOJRCPYJ","3GVPRXWRPHGYHD0HW29VLS36FVC7I4","","img/set1/S2.jpg","68","2","random","68","random,structured_normal,structured_load,structured_incentive","2,3,1,2,4,2","2,4,3,1","true","","",""
"null","","html-keyboard-response","368","282788","0.0-368.0","3TR2532VIQGDU84CMCU5GYEW5556J1","A2BJFAKOJRCPYJ","3GVPRXWRPHGYHD0HW29VLS36FVC7I4","","<img src=""img/set1/S2.jpg"" width=""540"" height = ""360"" style=""border:16px solid orange"">","null","","","","","","","","","",""
"null","","html-keyboard-response","369","282992","0.0-369.0","3TR2532VIQGDU84CMCU5GYEW5556J1","A2BJFAKOJRCPYJ","3GVPRXWRPHGYHD0HW29VLS36FVC7I4","","","null","","","","","","","","","",""
"1223","","image-keyboard-response","370","284228","0.0-370.0","3TR2532VIQGDU84CMCU5GYEW5556J1","A2BJFAKOJRCPYJ","3GVPRXWRPHGYHD0HW29VLS36FVC7I4","","img/set1/S2.jpg","83","2","random","68","random,structured_normal,structured_load,structured_incentive","2,3,1,2,4,2","2,4,3,1","false","","",""
"null","","html-keyboard-response","371","284589","0.0-371.0","3TR2532VIQGDU84CMCU5GYEW5556J1","A2BJFAKOJRCPYJ","3GVPRXWRPHGYHD0HW29VLS36FVC7I4","","<img src=""img/set1/S2.jpg"" width=""540"" height = ""360"">","null","","","","","","","","","",""
"null","","html-keyboard-response","372","284791","0.0-372.0","3TR2532VIQGDU84CMCU5GYEW5556J1","A2BJFAKOJRCPYJ","3GVPRXWRPHGYHD0HW29VLS36FVC7I4","","","null","","","","","","","","","",""
"157","","image-keyboard-response","373","284955","0.0-373.0","3TR2532VIQGDU84CMCU5GYEW5556J1","A2BJFAKOJRCPYJ","3GVPRXWRPHGYHD0HW29VLS36FVC7I4","","img/set1/S1.jpg","74","1","random","83","random,structured_normal,structured_load,structured_incentive","2,3,1,2,4,2","2,4,3,1","false","","",""
"null","","html-keyboard-response","374","285308","0.0-374.0","3TR2532VIQGDU84CMCU5GYEW5556J1","A2BJFAKOJRCPYJ","3GVPRXWRPHGYHD0HW29VLS36FVC7I4","","<img src=""img/set1/S1.jpg"" width=""540"" height = ""360"">","null","","","","","","","","","",""
"null","","html-keyboard-response","375","285511","0.0-375.0","3TR2532VIQGDU84CMCU5GYEW5556J1","A2BJFAKOJRCPYJ","3GVPRXWRPHGYHD0HW29VLS36FVC7I4","","","null","","","","","","","","","",""
"217","","image-keyboard-response","376","285733","0.0-376.0","3TR2532VIQGDU84CMCU5GYEW5556J1","A2BJFAKOJRCPYJ","3GVPRXWRPHGYHD0HW29VLS36FVC7I4","","img/set1/S3.jpg","72","3","random","72","random,structured_normal,structured_load,structured_incentive","2,3,1,2,4,2","2,4,3,1","true","","",""
"null","","html-keyboard-response","377","286096","0.0-377.0","3TR2532VIQGDU84CMCU5GYEW5556J1","A2BJFAKOJRCPYJ","3GVPRXWRPHGYHD0HW29VLS36FVC7I4","","<img src=""img/set1/S3.jpg"" width=""540"" height = ""360"" style=""border:16px solid orange"">","null","","","","","","","","","",""
"null","","html-keyboard-response","378","286308","0.0-378.0","3TR2532VIQGDU84CMCU5GYEW5556J1","A2BJFAKOJRCPYJ","3GVPRXWRPHGYHD0HW29VLS36FVC7I4","","","null","","","","","","","","","",""
"107","","image-keyboard-response","379","286425","0.0-379.0","3TR2532VIQGDU84CMCU5GYEW5556J1","A2BJFAKOJRCPYJ","3GVPRXWRPHGYHD0HW29VLS36FVC7I4","","img/set1/S4.jpg","68","4","random","74","random,structured_normal,structured_load,structured_incentive","2,3,1,2,4,2","2,4,3,1","false","","",""
"null","","html-keyboard-response","380","286778","0.0-380.0","3TR2532VIQGDU84CMCU5GYEW5556J1","A2BJFAKOJRCPYJ","3GVPRXWRPHGYHD0HW29VLS36FVC7I4","","<img src=""img/set1/S4.jpg"" width=""540"" height = ""360"">","null","","","","","","","","","",""
"null","","html-keyboard-response","381","286981","0.0-381.0","3TR2532VIQGDU84CMCU5GYEW5556J1","A2BJFAKOJRCPYJ","3GVPRXWRPHGYHD0HW29VLS36FVC7I4","","","null","","","","","","","","","",""
"151","","image-keyboard-response","382","287140","0.0-382.0","3TR2532VIQGDU84CMCU5GYEW5556J1","A2BJFAKOJRCPYJ","3GVPRXWRPHGYHD0HW29VLS36FVC7I4","","img/set1/S3.jpg","83","3","random","72","random,structured_normal,structured_load,structured_incentive","2,3,1,2,4,2","2,4,3,1","false","","",""
"null","","html-keyboard-response","383","287496","0.0-383.0","3TR2532VIQGDU84CMCU5GYEW5556J1","A2BJFAKOJRCPYJ","3GVPRXWRPHGYHD0HW29VLS36FVC7I4","","<img src=""img/set1/S3.jpg"" width=""540"" height = ""360"">","null","","","","","","","","","",""
"null","","html-keyboard-response","384","287699","0.0-384.0","3TR2532VIQGDU84CMCU5GYEW5556J1","A2BJFAKOJRCPYJ","3GVPRXWRPHGYHD0HW29VLS36FVC7I4","","","null","","","","","","","","","",""
"224","","image-keyboard-response","385","287927","0.0-385.0","3TR2532VIQGDU84CMCU5GYEW5556J1","A2BJFAKOJRCPYJ","3GVPRXWRPHGYHD0HW29VLS36FVC7I4","","img/set1/S1.jpg","74","1","random","83","random,structured_normal,structured_load,structured_incentive","2,3,1,2,4,2","2,4,3,1","false","","",""
"null","","html-keyboard-response","386","288280","0.0-386.0","3TR2532VIQGDU84CMCU5GYEW5556J1","A2BJFAKOJRCPYJ","3GVPRXWRPHGYHD0HW29VLS36FVC7I4","","<img src=""img/set1/S1.jpg"" width=""540"" height = ""360"">","null","","","","","","","","","",""
"null","","html-keyboard-response","387","288496","0.0-387.0","3TR2532VIQGDU84CMCU5GYEW5556J1","A2BJFAKOJRCPYJ","3GVPRXWRPHGYHD0HW29VLS36FVC7I4","","","null","","","","","","","","","",""
"19","","image-keyboard-response","388","288516","0.0-388.0","3TR2532VIQGDU84CMCU5GYEW5556J1","A2BJFAKOJRCPYJ","3GVPRXWRPHGYHD0HW29VLS36FVC7I4","","img/set1/S4.jpg","68","4","random","74","random,structured_normal,structured_load,structured_incentive","2,3,1,2,4,2","2,4,3,1","false","","",""
"null","","html-keyboard-response","389","288870","0.0-389.0","3TR2532VIQGDU84CMCU5GYEW5556J1","A2BJFAKOJRCPYJ","3GVPRXWRPHGYHD0HW29VLS36FVC7I4","","<img src=""img/set1/S4.jpg"" width=""540"" height = ""360"">","null","","","","","","","","","",""
"null","","html-keyboard-response","390","289074","0.0-390.0","3TR2532VIQGDU84CMCU5GYEW5556J1","A2BJFAKOJRCPYJ","3GVPRXWRPHGYHD0HW29VLS36FVC7I4","","","null","","","","","","","","","",""
"43","","image-keyboard-response","391","289119","0.0-391.0","3TR2532VIQGDU84CMCU5GYEW5556J1","A2BJFAKOJRCPYJ","3GVPRXWRPHGYHD0HW29VLS36FVC7I4","","img/set1/S2.jpg","72","2","random","68","random,structured_normal,structured_load,structured_incentive","2,3,1,2,4,2","2,4,3,1","false","","",""
"null","","html-keyboard-response","392","289481","0.0-392.0","3TR2532VIQGDU84CMCU5GYEW5556J1","A2BJFAKOJRCPYJ","3GVPRXWRPHGYHD0HW29VLS36FVC7I4","","<img src=""img/set1/S2.jpg"" width=""540"" height = ""360"">","null","","","","","","","","","",""
"null","","html-keyboard-response","393","289691","0.0-393.0","3TR2532VIQGDU84CMCU5GYEW5556J1","A2BJFAKOJRCPYJ","3GVPRXWRPHGYHD0HW29VLS36FVC7I4","","","null","","","","","","","","","",""
"180","","image-keyboard-response","394","289872","0.0-394.0","3TR2532VIQGDU84CMCU5GYEW5556J1","A2BJFAKOJRCPYJ","3GVPRXWRPHGYHD0HW29VLS36FVC7I4","","img/set1/S1.jpg","72","1","random","83","random,structured_normal,structured_load,structured_incentive","2,3,1,2,4,2","2,4,3,1","false","","",""
"null","","html-keyboard-response","395","290224","0.0-395.0","3TR2532VIQGDU84CMCU5GYEW5556J1","A2BJFAKOJRCPYJ","3GVPRXWRPHGYHD0HW29VLS36FVC7I4","","<img src=""img/set1/S1.jpg"" width=""540"" height = ""360"">","null","","","","","","","","","",""
"null","","html-keyboard-response","396","290435","0.0-396.0","3TR2532VIQGDU84CMCU5GYEW5556J1","A2BJFAKOJRCPYJ","3GVPRXWRPHGYHD0HW29VLS36FVC7I4","","","null","","","","","","","","","",""
"137","","image-keyboard-response","397","290574","0.0-397.0","3TR2532VIQGDU84CMCU5GYEW5556J1","A2BJFAKOJRCPYJ","3GVPRXWRPHGYHD0HW29VLS36FVC7I4","","img/set1/S1.jpg","72","1","random","83","random,structured_normal,structured_load,structured_incentive","2,3,1,2,4,2","2,4,3,1","false","","",""
"null","","html-keyboard-response","398","290943","0.0-398.0","3TR2532VIQGDU84CMCU5GYEW5556J1","A2BJFAKOJRCPYJ","3GVPRXWRPHGYHD0HW29VLS36FVC7I4","","<img src=""img/set1/S1.jpg"" width=""540"" height = ""360"">","null","","","","","","","","","",""
"null","","html-keyboard-response","399","291153","0.0-399.0","3TR2532VIQGDU84CMCU5GYEW5556J1","A2BJFAKOJRCPYJ","3GVPRXWRPHGYHD0HW29VLS36FVC7I4","","","null","","","","","","","","","",""
"4","","image-keyboard-response","400","291161","0.0-400.0","3TR2532VIQGDU84CMCU5GYEW5556J1","A2BJFAKOJRCPYJ","3GVPRXWRPHGYHD0HW29VLS36FVC7I4","","img/set1/S1.jpg","72","1","random","83","random,structured_normal,structured_load,structured_incentive","2,3,1,2,4,2","2,4,3,1","false","","",""
"null","","html-keyboard-response","401","291527","0.0-401.0","3TR2532VIQGDU84CMCU5GYEW5556J1","A2BJFAKOJRCPYJ","3GVPRXWRPHGYHD0HW29VLS36FVC7I4","","<img src=""img/set1/S1.jpg"" width=""540"" height = ""360"">","null","","","","","","","","","",""
"null","","html-keyboard-response","402","291730","0.0-402.0","3TR2532VIQGDU84CMCU5GYEW5556J1","A2BJFAKOJRCPYJ","3GVPRXWRPHGYHD0HW29VLS36FVC7I4","","","null","","","","","","","","","",""
"77","","image-keyboard-response","403","291808","0.0-403.0","3TR2532VIQGDU84CMCU5GYEW5556J1","A2BJFAKOJRCPYJ","3GVPRXWRPHGYHD0HW29VLS36FVC7I4","","img/set1/S3.jpg","74","3","random","72","random,structured_normal,structured_load,structured_incentive","2,3,1,2,4,2","2,4,3,1","false","","",""
