rt,url,trial_type,trial_index,time_elapsed,internal_node_id,assignmentID,mturkID,hitID,view_history,stimulus,key_press,state,test_part,correct_response,order_block,order_chunk,correct,bonus,responses
90145.6000001431,consent.html,external-html,0,90467,0.0-0.0,3P529IW9KZ7F8RLNQQ9MQJ412D7LFJ,A2FHJCRBRP7VH4,30OITAWPBQP2Z1DQ5HPUZCTXABIH90,,,,,,,,,,,
170842.5,,instructions,1,261316,0.0-1.0,3P529IW9KZ7F8RLNQQ9MQJ412D7LFJ,A2FHJCRBRP7VH4,30OITAWPBQP2Z1DQ5HPUZCTXABIH90,"[{""page_index"":0,""viewing_time"":8032.399999856949},{""page_index"":1,""viewing_time"":11621},{""page_index"":2,""viewing_time"":49389.90000009537},{""page_index"":3,""viewing_time"":40964},{""page_index"":4,""viewing_time"":21730.5},{""page_index"":5,""viewing_time"":16859.5},{""page_index"":6,""viewing_time"":22242.799999952316}]",,,,,,,,,,
21212.5,,instructions,2,282532,0.0-2.0,3P529IW9KZ7F8RLNQQ9MQJ412D7LFJ,A2FHJCRBRP7VH4,30OITAWPBQP2Z1DQ5HPUZCTXABIH90,"[{""page_index"":0,""viewing_time"":21211.299999952316}]",,,,,,,,,,
42513.7000000477,,instructions,3,325047,0.0-3.0,3P529IW9KZ7F8RLNQQ9MQJ412D7LFJ,A2FHJCRBRP7VH4,30OITAWPBQP2Z1DQ5HPUZCTXABIH90,"[{""page_index"":0,""viewing_time"":17788.200000047684},{""page_index"":1,""viewing_time"":24723.5}]",,,,,,,,,,
1600.70000004768,,image-keyboard-response,4,326651,0.0-4.0,3P529IW9KZ7F8RLNQQ9MQJ412D7LFJ,A2FHJCRBRP7VH4,30OITAWPBQP2Z1DQ5HPUZCTXABIH90,,img/set1/S2.jpg,74,2,structured_incentive,68,"structured_incentive,structured_normal,random","2,3,1,2",FALSE,,
null,,html-keyboard-response,5,327005,0.0-5.0,3P529IW9KZ7F8RLNQQ9MQJ412D7LFJ,A2FHJCRBRP7VH4,30OITAWPBQP2Z1DQ5HPUZCTXABIH90,,"<img src=""img/set1/S2.jpg"" width=""540"" height = ""360"">",null,,,,,,,,
null,,html-keyboard-response,6,327207,0.0-6.0,3P529IW9KZ7F8RLNQQ9MQJ412D7LFJ,A2FHJCRBRP7VH4,30OITAWPBQP2Z1DQ5HPUZCTXABIH90,,,null,,,,,,,,
959.900000095367,,image-keyboard-response,7,328169,0.0-7.0,3P529IW9KZ7F8RLNQQ9MQJ412D7LFJ,A2FHJCRBRP7VH4,30OITAWPBQP2Z1DQ5HPUZCTXABIH90,,img/set1/S3.jpg,72,3,structured_incentive,72,"structured_incentive,structured_normal,random","2,3,1,2",TRUE,,
null,,html-keyboard-response,8,328521,0.0-8.0,3P529IW9KZ7F8RLNQQ9MQJ412D7LFJ,A2FHJCRBRP7VH4,30OITAWPBQP2Z1DQ5HPUZCTXABIH90,,"<img src=""img/set1/S3.jpg"" width=""540"" height = ""360"" style=""border:16px solid orange"">",null,,,,,,,,
null,,html-keyboard-response,9,328724,0.0-9.0,3P529IW9KZ7F8RLNQQ9MQJ412D7LFJ,A2FHJCRBRP7VH4,30OITAWPBQP2Z1DQ5HPUZCTXABIH90,,,null,,,,,,,,
855.900000095367,,image-keyboard-response,10,329581,0.0-10.0,3P529IW9KZ7F8RLNQQ9MQJ412D7LFJ,A2FHJCRBRP7VH4,30OITAWPBQP2Z1DQ5HPUZCTXABIH90,,img/set1/S2.jpg,74,2,structured_incentive,68,"structured_incentive,structured_normal,random","2,3,1,2",FALSE,,
null,,html-keyboard-response,11,329934,0.0-11.0,3P529IW9KZ7F8RLNQQ9MQJ412D7LFJ,A2FHJCRBRP7VH4,30OITAWPBQP2Z1DQ5HPUZCTXABIH90,,"<img src=""img/set1/S2.jpg"" width=""540"" height = ""360"">",null,,,,,,,,
null,,html-keyboard-response,12,330136,0.0-12.0,3P529IW9KZ7F8RLNQQ9MQJ412D7LFJ,A2FHJCRBRP7VH4,30OITAWPBQP2Z1DQ5HPUZCTXABIH90,,,null,,,,,,,,
567.900000095367,,image-keyboard-response,13,330705,0.0-13.0,3P529IW9KZ7F8RLNQQ9MQJ412D7LFJ,A2FHJCRBRP7VH4,30OITAWPBQP2Z1DQ5HPUZCTXABIH90,,img/set1/S3.jpg,72,3,structured_incentive,72,"structured_incentive,structured_normal,random","2,3,1,2",TRUE,,
null,,html-keyboard-response,14,331058,0.0-14.0,3P529IW9KZ7F8RLNQQ9MQJ412D7LFJ,A2FHJCRBRP7VH4,30OITAWPBQP2Z1DQ5HPUZCTXABIH90,,"<img src=""img/set1/S3.jpg"" width=""540"" height = ""360"" style=""border:16px solid orange"">",null,,,,,,,,
null,,html-keyboard-response,15,331260,0.0-15.0,3P529IW9KZ7F8RLNQQ9MQJ412D7LFJ,A2FHJCRBRP7VH4,30OITAWPBQP2Z1DQ5HPUZCTXABIH90,,,null,,,,,,,,
741.700000047684,,image-keyboard-response,16,332003,0.0-16.0,3P529IW9KZ7F8RLNQQ9MQJ412D7LFJ,A2FHJCRBRP7VH4,30OITAWPBQP2Z1DQ5HPUZCTXABIH90,,img/set1/S3.jpg,72,3,structured_incentive,72,"structured_incentive,structured_normal,random","2,3,1,2",TRUE,,
null,,html-keyboard-response,17,332356,0.0-17.0,3P529IW9KZ7F8RLNQQ9MQJ412D7LFJ,A2FHJCRBRP7VH4,30OITAWPBQP2Z1DQ5HPUZCTXABIH90,,"<img src=""img/set1/S3.jpg"" width=""540"" height = ""360"" style=""border:16px solid orange"">",null,,,,,,,,
null,,html-keyboard-response,18,332557,0.0-18.0,3P529IW9KZ7F8RLNQQ9MQJ412D7LFJ,A2FHJCRBRP7VH4,30OITAWPBQP2Z1DQ5HPUZCTXABIH90,,,null,,,,,,,,
534.900000095367,,image-keyboard-response,19,333094,0.0-19.0,3P529IW9KZ7F8RLNQQ9MQJ412D7LFJ,A2FHJCRBRP7VH4,30OITAWPBQP2Z1DQ5HPUZCTXABIH90,,img/set1/S2.jpg,68,2,structured_incentive,68,"structured_incentive,structured_normal,random","2,3,1,2",TRUE,,
null,,html-keyboard-response,20,333446,0.0-20.0,3P529IW9KZ7F8RLNQQ9MQJ412D7LFJ,A2FHJCRBRP7VH4,30OITAWPBQP2Z1DQ5HPUZCTXABIH90,,"<img src=""img/set1/S2.jpg"" width=""540"" height = ""360"" style=""border:16px solid orange"">",null,,,,,,,,
null,,html-keyboard-response,21,333649,0.0-21.0,3P529IW9KZ7F8RLNQQ9MQJ412D7LFJ,A2FHJCRBRP7VH4,30OITAWPBQP2Z1DQ5HPUZCTXABIH90,,,null,,,,,,,,
727.299999952316,,image-keyboard-response,22,334378,0.0-22.0,3P529IW9KZ7F8RLNQQ9MQJ412D7LFJ,A2FHJCRBRP7VH4,30OITAWPBQP2Z1DQ5HPUZCTXABIH90,,img/set1/S3.jpg,72,3,structured_incentive,72,"structured_incentive,structured_normal,random","2,3,1,2",TRUE,,
null,,html-keyboard-response,23,334730,0.0-23.0,3P529IW9KZ7F8RLNQQ9MQJ412D7LFJ,A2FHJCRBRP7VH4,30OITAWPBQP2Z1DQ5HPUZCTXABIH90,,"<img src=""img/set1/S3.jpg"" width=""540"" height = ""360"" style=""border:16px solid orange"">",null,,,,,,,,
null,,html-keyboard-response,24,334932,0.0-24.0,3P529IW9KZ7F8RLNQQ9MQJ412D7LFJ,A2FHJCRBRP7VH4,30OITAWPBQP2Z1DQ5HPUZCTXABIH90,,,null,,,,,,,,
697.400000095367,,image-keyboard-response,25,335631,0.0-25.0,3P529IW9KZ7F8RLNQQ9MQJ412D7LFJ,A2FHJCRBRP7VH4,30OITAWPBQP2Z1DQ5HPUZCTXABIH90,,img/set1/S4.jpg,83,4,structured_incentive,74,"structured_incentive,structured_normal,random","2,3,1,2",FALSE,,
null,,html-keyboard-response,26,335983,0.0-26.0,3P529IW9KZ7F8RLNQQ9MQJ412D7LFJ,A2FHJCRBRP7VH4,30OITAWPBQP2Z1DQ5HPUZCTXABIH90,,"<img src=""img/set1/S4.jpg"" width=""540"" height = ""360"">",null,,,,,,,,
null,,html-keyboard-response,27,336184,0.0-27.0,3P529IW9KZ7F8RLNQQ9MQJ412D7LFJ,A2FHJCRBRP7VH4,30OITAWPBQP2Z1DQ5HPUZCTXABIH90,,,null,,,,,,,,
658.200000047684,,image-keyboard-response,28,336844,0.0-28.0,3P529IW9KZ7F8RLNQQ9MQJ412D7LFJ,A2FHJCRBRP7VH4,30OITAWPBQP2Z1DQ5HPUZCTXABIH90,,img/set1/S4.jpg,74,4,structured_incentive,74,"structured_incentive,structured_normal,random","2,3,1,2",TRUE,,
null,,html-keyboard-response,29,337196,0.0-29.0,3P529IW9KZ7F8RLNQQ9MQJ412D7LFJ,A2FHJCRBRP7VH4,30OITAWPBQP2Z1DQ5HPUZCTXABIH90,,"<img src=""img/set1/S4.jpg"" width=""540"" height = ""360"" style=""border:16px solid Violet"">",null,,,,,,,,
null,,html-keyboard-response,30,337398,0.0-30.0,3P529IW9KZ7F8RLNQQ9MQJ412D7LFJ,A2FHJCRBRP7VH4,30OITAWPBQP2Z1DQ5HPUZCTXABIH90,,,null,,,,,,,,
516.099999904633,,image-keyboard-response,31,337916,0.0-31.0,3P529IW9KZ7F8RLNQQ9MQJ412D7LFJ,A2FHJCRBRP7VH4,30OITAWPBQP2Z1DQ5HPUZCTXABIH90,,img/set1/S4.jpg,74,4,structured_incentive,74,"structured_incentive,structured_normal,random","2,3,1,2",TRUE,,
null,,html-keyboard-response,32,338268,0.0-32.0,3P529IW9KZ7F8RLNQQ9MQJ412D7LFJ,A2FHJCRBRP7VH4,30OITAWPBQP2Z1DQ5HPUZCTXABIH90,,"<img src=""img/set1/S4.jpg"" width=""540"" height = ""360"" style=""border:16px solid Violet"">",null,,,,,,,,
null,,html-keyboard-response,33,338470,0.0-33.0,3P529IW9KZ7F8RLNQQ9MQJ412D7LFJ,A2FHJCRBRP7VH4,30OITAWPBQP2Z1DQ5HPUZCTXABIH90,,,null,,,,,,,,
801,,image-keyboard-response,34,339272,0.0-34.0,3P529IW9KZ7F8RLNQQ9MQJ412D7LFJ,A2FHJCRBRP7VH4,30OITAWPBQP2Z1DQ5HPUZCTXABIH90,,img/set1/S2.jpg,72,2,structured_incentive,68,"structured_incentive,structured_normal,random","2,3,1,2",FALSE,,
null,,html-keyboard-response,35,339629,0.0-35.0,3P529IW9KZ7F8RLNQQ9MQJ412D7LFJ,A2FHJCRBRP7VH4,30OITAWPBQP2Z1DQ5HPUZCTXABIH90,,"<img src=""img/set1/S2.jpg"" width=""540"" height = ""360"">",null,,,,,,,,
null,,html-keyboard-response,36,339831,0.0-36.0,3P529IW9KZ7F8RLNQQ9MQJ412D7LFJ,A2FHJCRBRP7VH4,30OITAWPBQP2Z1DQ5HPUZCTXABIH90,,,null,,,,,,,,
1038.70000004768,,image-keyboard-response,37,340872,0.0-37.0,3P529IW9KZ7F8RLNQQ9MQJ412D7LFJ,A2FHJCRBRP7VH4,30OITAWPBQP2Z1DQ5HPUZCTXABIH90,,img/set1/S3.jpg,72,3,structured_incentive,72,"structured_incentive,structured_normal,random","2,3,1,2",TRUE,,
null,,html-keyboard-response,38,341229,0.0-38.0,3P529IW9KZ7F8RLNQQ9MQJ412D7LFJ,A2FHJCRBRP7VH4,30OITAWPBQP2Z1DQ5HPUZCTXABIH90,,"<img src=""img/set1/S3.jpg"" width=""540"" height = ""360"" style=""border:16px solid orange"">",null,,,,,,,,
null,,html-keyboard-response,39,341431,0.0-39.0,3P529IW9KZ7F8RLNQQ9MQJ412D7LFJ,A2FHJCRBRP7VH4,30OITAWPBQP2Z1DQ5HPUZCTXABIH90,,,null,,,,,,,,
556.799999952316,,image-keyboard-response,40,341990,0.0-40.0,3P529IW9KZ7F8RLNQQ9MQJ412D7LFJ,A2FHJCRBRP7VH4,30OITAWPBQP2Z1DQ5HPUZCTXABIH90,,img/set1/S4.jpg,74,4,structured_incentive,74,"structured_incentive,structured_normal,random","2,3,1,2",TRUE,,
null,,html-keyboard-response,41,342342,0.0-41.0,3P529IW9KZ7F8RLNQQ9MQJ412D7LFJ,A2FHJCRBRP7VH4,30OITAWPBQP2Z1DQ5HPUZCTXABIH90,,"<img src=""img/set1/S4.jpg"" width=""540"" height = ""360"" style=""border:16px solid Violet"">",null,,,,,,,,
null,,html-keyboard-response,42,342544,0.0-42.0,3P529IW9KZ7F8RLNQQ9MQJ412D7LFJ,A2FHJCRBRP7VH4,30OITAWPBQP2Z1DQ5HPUZCTXABIH90,,,null,,,,,,,,
1113.29999995232,,image-keyboard-response,43,343659,0.0-43.0,3P529IW9KZ7F8RLNQQ9MQJ412D7LFJ,A2FHJCRBRP7VH4,30OITAWPBQP2Z1DQ5HPUZCTXABIH90,,img/set1/S3.jpg,68,3,structured_incentive,72,"structured_incentive,structured_normal,random","2,3,1,2",FALSE,,
null,,html-keyboard-response,44,344011,0.0-44.0,3P529IW9KZ7F8RLNQQ9MQJ412D7LFJ,A2FHJCRBRP7VH4,30OITAWPBQP2Z1DQ5HPUZCTXABIH90,,"<img src=""img/set1/S3.jpg"" width=""540"" height = ""360"">",null,,,,,,,,
null,,html-keyboard-response,45,344214,0.0-45.0,3P529IW9KZ7F8RLNQQ9MQJ412D7LFJ,A2FHJCRBRP7VH4,30OITAWPBQP2Z1DQ5HPUZCTXABIH90,,,null,,,,,,,,
802.5,,image-keyboard-response,46,345018,0.0-46.0,3P529IW9KZ7F8RLNQQ9MQJ412D7LFJ,A2FHJCRBRP7VH4,30OITAWPBQP2Z1DQ5HPUZCTXABIH90,,img/set1/S1.jpg,83,1,structured_incentive,83,"structured_incentive,structured_normal,random","2,3,1,2",TRUE,,
null,,html-keyboard-response,47,345369,0.0-47.0,3P529IW9KZ7F8RLNQQ9MQJ412D7LFJ,A2FHJCRBRP7VH4,30OITAWPBQP2Z1DQ5HPUZCTXABIH90,,"<img src=""img/set1/S1.jpg"" width=""540"" height = ""360"" style=""border:16px solid orange"">",null,,,,,,,,
null,,html-keyboard-response,48,345572,0.0-48.0,3P529IW9KZ7F8RLNQQ9MQJ412D7LFJ,A2FHJCRBRP7VH4,30OITAWPBQP2Z1DQ5HPUZCTXABIH90,,,null,,,,,,,,
592.600000143051,,image-keyboard-response,49,346166,0.0-49.0,3P529IW9KZ7F8RLNQQ9MQJ412D7LFJ,A2FHJCRBRP7VH4,30OITAWPBQP2Z1DQ5HPUZCTXABIH90,,img/set1/S1.jpg,83,1,structured_incentive,83,"structured_incentive,structured_normal,random","2,3,1,2",TRUE,,
null,,html-keyboard-response,50,346519,0.0-50.0,3P529IW9KZ7F8RLNQQ9MQJ412D7LFJ,A2FHJCRBRP7VH4,30OITAWPBQP2Z1DQ5HPUZCTXABIH90,,"<img src=""img/set1/S1.jpg"" width=""540"" height = ""360"" style=""border:16px solid orange"">",null,,,,,,,,
null,,html-keyboard-response,51,346720,0.0-51.0,3P529IW9KZ7F8RLNQQ9MQJ412D7LFJ,A2FHJCRBRP7VH4,30OITAWPBQP2Z1DQ5HPUZCTXABIH90,,,null,,,,,,,,
741.700000047684,,image-keyboard-response,52,347464,0.0-52.0,3P529IW9KZ7F8RLNQQ9MQJ412D7LFJ,A2FHJCRBRP7VH4,30OITAWPBQP2Z1DQ5HPUZCTXABIH90,,img/set1/S3.jpg,68,3,structured_incentive,72,"structured_incentive,structured_normal,random","2,3,1,2",FALSE,,
null,,html-keyboard-response,53,347816,0.0-53.0,3P529IW9KZ7F8RLNQQ9MQJ412D7LFJ,A2FHJCRBRP7VH4,30OITAWPBQP2Z1DQ5HPUZCTXABIH90,,"<img src=""img/set1/S3.jpg"" width=""540"" height = ""360"">",null,,,,,,,,
null,,html-keyboard-response,54,348018,0.0-54.0,3P529IW9KZ7F8RLNQQ9MQJ412D7LFJ,A2FHJCRBRP7VH4,30OITAWPBQP2Z1DQ5HPUZCTXABIH90,,,null,,,,,,,,
547.799999952316,,image-keyboard-response,55,348568,0.0-55.0,3P529IW9KZ7F8RLNQQ9MQJ412D7LFJ,A2FHJCRBRP7VH4,30OITAWPBQP2Z1DQ5HPUZCTXABIH90,,img/set1/S3.jpg,72,3,structured_incentive,72,"structured_incentive,structured_normal,random","2,3,1,2",TRUE,,
null,,html-keyboard-response,56,348920,0.0-56.0,3P529IW9KZ7F8RLNQQ9MQJ412D7LFJ,A2FHJCRBRP7VH4,30OITAWPBQP2Z1DQ5HPUZCTXABIH90,,"<img src=""img/set1/S3.jpg"" width=""540"" height = ""360"" style=""border:16px solid orange"">",null,,,,,,,,
null,,html-keyboard-response,57,349129,0.0-57.0,3P529IW9KZ7F8RLNQQ9MQJ412D7LFJ,A2FHJCRBRP7VH4,30OITAWPBQP2Z1DQ5HPUZCTXABIH90,,,null,,,,,,,,
740.899999856949,,image-keyboard-response,58,349872,0.0-58.0,3P529IW9KZ7F8RLNQQ9MQJ412D7LFJ,A2FHJCRBRP7VH4,30OITAWPBQP2Z1DQ5HPUZCTXABIH90,,img/set1/S1.jpg,83,1,structured_incentive,83,"structured_incentive,structured_normal,random","2,3,1,2",TRUE,,
null,,html-keyboard-response,59,350224,0.0-59.0,3P529IW9KZ7F8RLNQQ9MQJ412D7LFJ,A2FHJCRBRP7VH4,30OITAWPBQP2Z1DQ5HPUZCTXABIH90,,"<img src=""img/set1/S1.jpg"" width=""540"" height = ""360"" style=""border:16px solid orange"">",null,,,,,,,,
null,,html-keyboard-response,60,350426,0.0-60.0,3P529IW9KZ7F8RLNQQ9MQJ412D7LFJ,A2FHJCRBRP7VH4,30OITAWPBQP2Z1DQ5HPUZCTXABIH90,,,null,,,,,,,,
619.200000047684,,image-keyboard-response,61,351047,0.0-61.0,3P529IW9KZ7F8RLNQQ9MQJ412D7LFJ,A2FHJCRBRP7VH4,30OITAWPBQP2Z1DQ5HPUZCTXABIH90,,img/set1/S4.jpg,74,4,structured_incentive,74,"structured_incentive,structured_normal,random","2,3,1,2",TRUE,,
null,,html-keyboard-response,62,351399,0.0-62.0,3P529IW9KZ7F8RLNQQ9MQJ412D7LFJ,A2FHJCRBRP7VH4,30OITAWPBQP2Z1DQ5HPUZCTXABIH90,,"<img src=""img/set1/S4.jpg"" width=""540"" height = ""360"" style=""border:16px solid Violet"">",null,,,,,,,,
null,,html-keyboard-response,63,351602,0.0-63.0,3P529IW9KZ7F8RLNQQ9MQJ412D7LFJ,A2FHJCRBRP7VH4,30OITAWPBQP2Z1DQ5HPUZCTXABIH90,,,null,,,,,,,,
664,,image-keyboard-response,64,352268,0.0-64.0,3P529IW9KZ7F8RLNQQ9MQJ412D7LFJ,A2FHJCRBRP7VH4,30OITAWPBQP2Z1DQ5HPUZCTXABIH90,,img/set1/S2.jpg,68,2,structured_incentive,68,"structured_incentive,structured_normal,random","2,3,1,2",TRUE,,
null,,html-keyboard-response,65,352620,0.0-65.0,3P529IW9KZ7F8RLNQQ9MQJ412D7LFJ,A2FHJCRBRP7VH4,30OITAWPBQP2Z1DQ5HPUZCTXABIH90,,"<img src=""img/set1/S2.jpg"" width=""540"" height = ""360"" style=""border:16px solid orange"">",null,,,,,,,,
null,,html-keyboard-response,66,352821,0.0-66.0,3P529IW9KZ7F8RLNQQ9MQJ412D7LFJ,A2FHJCRBRP7VH4,30OITAWPBQP2Z1DQ5HPUZCTXABIH90,,,null,,,,,,,,
537.799999952316,,image-keyboard-response,67,353361,0.0-67.0,3P529IW9KZ7F8RLNQQ9MQJ412D7LFJ,A2FHJCRBRP7VH4,30OITAWPBQP2Z1DQ5HPUZCTXABIH90,,img/set1/S3.jpg,72,3,structured_incentive,72,"structured_incentive,structured_normal,random","2,3,1,2",TRUE,,
null,,html-keyboard-response,68,353713,0.0-68.0,3P529IW9KZ7F8RLNQQ9MQJ412D7LFJ,A2FHJCRBRP7VH4,30OITAWPBQP2Z1DQ5HPUZCTXABIH90,,"<img src=""img/set1/S3.jpg"" width=""540"" height = ""360"" style=""border:16px solid orange"">",null,,,,,,,,
null,,html-keyboard-response,69,353916,0.0-69.0,3P529IW9KZ7F8RLNQQ9MQJ412D7LFJ,A2FHJCRBRP7VH4,30OITAWPBQP2Z1DQ5HPUZCTXABIH90,,,null,,,,,,,,
648,,image-keyboard-response,70,354567,0.0-70.0,3P529IW9KZ7F8RLNQQ9MQJ412D7LFJ,A2FHJCRBRP7VH4,30OITAWPBQP2Z1DQ5HPUZCTXABIH90,,img/set1/S1.jpg,83,1,structured_incentive,83,"structured_incentive,structured_normal,random","2,3,1,2",TRUE,,
null,,html-keyboard-response,71,354919,0.0-71.0,3P529IW9KZ7F8RLNQQ9MQJ412D7LFJ,A2FHJCRBRP7VH4,30OITAWPBQP2Z1DQ5HPUZCTXABIH90,,"<img src=""img/set1/S1.jpg"" width=""540"" height = ""360"" style=""border:16px solid orange"">",null,,,,,,,,
null,,html-keyboard-response,72,355129,0.0-72.0,3P529IW9KZ7F8RLNQQ9MQJ412D7LFJ,A2FHJCRBRP7VH4,30OITAWPBQP2Z1DQ5HPUZCTXABIH90,,,null,,,,,,,,
576.100000143051,,image-keyboard-response,73,355710,0.0-73.0,3P529IW9KZ7F8RLNQQ9MQJ412D7LFJ,A2FHJCRBRP7VH4,30OITAWPBQP2Z1DQ5HPUZCTXABIH90,,img/set1/S3.jpg,72,3,structured_incentive,72,"structured_incentive,structured_normal,random","2,3,1,2",TRUE,,
null,,html-keyboard-response,74,356062,0.0-74.0,3P529IW9KZ7F8RLNQQ9MQJ412D7LFJ,A2FHJCRBRP7VH4,30OITAWPBQP2Z1DQ5HPUZCTXABIH90,,"<img src=""img/set1/S3.jpg"" width=""540"" height = ""360"" style=""border:16px solid orange"">",null,,,,,,,,
null,,html-keyboard-response,75,356264,0.0-75.0,3P529IW9KZ7F8RLNQQ9MQJ412D7LFJ,A2FHJCRBRP7VH4,30OITAWPBQP2Z1DQ5HPUZCTXABIH90,,,null,,,,,,,,
769.400000095367,,image-keyboard-response,76,357035,0.0-76.0,3P529IW9KZ7F8RLNQQ9MQJ412D7LFJ,A2FHJCRBRP7VH4,30OITAWPBQP2Z1DQ5HPUZCTXABIH90,,img/set1/S1.jpg,83,1,structured_incentive,83,"structured_incentive,structured_normal,random","2,3,1,2",TRUE,,
null,,html-keyboard-response,77,357388,0.0-77.0,3P529IW9KZ7F8RLNQQ9MQJ412D7LFJ,A2FHJCRBRP7VH4,30OITAWPBQP2Z1DQ5HPUZCTXABIH90,,"<img src=""img/set1/S1.jpg"" width=""540"" height = ""360"" style=""border:16px solid orange"">",null,,,,,,,,
null,,html-keyboard-response,78,357591,0.0-78.0,3P529IW9KZ7F8RLNQQ9MQJ412D7LFJ,A2FHJCRBRP7VH4,30OITAWPBQP2Z1DQ5HPUZCTXABIH90,,,null,,,,,,,,
563.799999952316,,image-keyboard-response,79,358156,0.0-79.0,3P529IW9KZ7F8RLNQQ9MQJ412D7LFJ,A2FHJCRBRP7VH4,30OITAWPBQP2Z1DQ5HPUZCTXABIH90,,img/set1/S4.jpg,74,4,structured_incentive,74,"structured_incentive,structured_normal,random","2,3,1,2",TRUE,,
null,,html-keyboard-response,80,358515,0.0-80.0,3P529IW9KZ7F8RLNQQ9MQJ412D7LFJ,A2FHJCRBRP7VH4,30OITAWPBQP2Z1DQ5HPUZCTXABIH90,,"<img src=""img/set1/S4.jpg"" width=""540"" height = ""360"" style=""border:16px solid Violet"">",null,,,,,,,,
null,,html-keyboard-response,81,358717,0.0-81.0,3P529IW9KZ7F8RLNQQ9MQJ412D7LFJ,A2FHJCRBRP7VH4,30OITAWPBQP2Z1DQ5HPUZCTXABIH90,,,null,,,,,,,,
1110,,image-keyboard-response,82,359829,0.0-82.0,3P529IW9KZ7F8RLNQQ9MQJ412D7LFJ,A2FHJCRBRP7VH4,30OITAWPBQP2Z1DQ5HPUZCTXABIH90,,img/set1/S2.jpg,83,2,structured_incentive,68,"structured_incentive,structured_normal,random","2,3,1,2",FALSE,,
null,,html-keyboard-response,83,360181,0.0-83.0,3P529IW9KZ7F8RLNQQ9MQJ412D7LFJ,A2FHJCRBRP7VH4,30OITAWPBQP2Z1DQ5HPUZCTXABIH90,,"<img src=""img/set1/S2.jpg"" width=""540"" height = ""360"">",null,,,,,,,,
null,,html-keyboard-response,84,360383,0.0-84.0,3P529IW9KZ7F8RLNQQ9MQJ412D7LFJ,A2FHJCRBRP7VH4,30OITAWPBQP2Z1DQ5HPUZCTXABIH90,,,null,,,,,,,,
626.299999952316,,image-keyboard-response,85,361011,0.0-85.0,3P529IW9KZ7F8RLNQQ9MQJ412D7LFJ,A2FHJCRBRP7VH4,30OITAWPBQP2Z1DQ5HPUZCTXABIH90,,img/set1/S4.jpg,74,4,structured_incentive,74,"structured_incentive,structured_normal,random","2,3,1,2",TRUE,,
null,,html-keyboard-response,86,361364,0.0-86.0,3P529IW9KZ7F8RLNQQ9MQJ412D7LFJ,A2FHJCRBRP7VH4,30OITAWPBQP2Z1DQ5HPUZCTXABIH90,,"<img src=""img/set1/S4.jpg"" width=""540"" height = ""360"" style=""border:16px solid Violet"">",null,,,,,,,,
null,,html-keyboard-response,87,361566,0.0-87.0,3P529IW9KZ7F8RLNQQ9MQJ412D7LFJ,A2FHJCRBRP7VH4,30OITAWPBQP2Z1DQ5HPUZCTXABIH90,,,null,,,,,,,,
745.200000047684,,image-keyboard-response,88,362314,0.0-88.0,3P529IW9KZ7F8RLNQQ9MQJ412D7LFJ,A2FHJCRBRP7VH4,30OITAWPBQP2Z1DQ5HPUZCTXABIH90,,img/set1/S1.jpg,83,1,structured_incentive,83,"structured_incentive,structured_normal,random","2,3,1,2",TRUE,,
null,,html-keyboard-response,89,362666,0.0-89.0,3P529IW9KZ7F8RLNQQ9MQJ412D7LFJ,A2FHJCRBRP7VH4,30OITAWPBQP2Z1DQ5HPUZCTXABIH90,,"<img src=""img/set1/S1.jpg"" width=""540"" height = ""360"" style=""border:16px solid orange"">",null,,,,,,,,
null,,html-keyboard-response,90,362868,0.0-90.0,3P529IW9KZ7F8RLNQQ9MQJ412D7LFJ,A2FHJCRBRP7VH4,30OITAWPBQP2Z1DQ5HPUZCTXABIH90,,,null,,,,,,,,
501.899999856949,,image-keyboard-response,91,363371,0.0-91.0,3P529IW9KZ7F8RLNQQ9MQJ412D7LFJ,A2FHJCRBRP7VH4,30OITAWPBQP2Z1DQ5HPUZCTXABIH90,,img/set1/S4.jpg,74,4,structured_incentive,74,"structured_incentive,structured_normal,random","2,3,1,2",TRUE,,
null,,html-keyboard-response,92,363725,0.0-92.0,3P529IW9KZ7F8RLNQQ9MQJ412D7LFJ,A2FHJCRBRP7VH4,30OITAWPBQP2Z1DQ5HPUZCTXABIH90,,"<img src=""img/set1/S4.jpg"" width=""540"" height = ""360"" style=""border:16px solid Violet"">",null,,,,,,,,
null,,html-keyboard-response,93,363928,0.0-93.0,3P529IW9KZ7F8RLNQQ9MQJ412D7LFJ,A2FHJCRBRP7VH4,30OITAWPBQP2Z1DQ5HPUZCTXABIH90,,,null,,,,,,,,
760.600000143051,,image-keyboard-response,94,364690,0.0-94.0,3P529IW9KZ7F8RLNQQ9MQJ412D7LFJ,A2FHJCRBRP7VH4,30OITAWPBQP2Z1DQ5HPUZCTXABIH90,,img/set1/S2.jpg,68,2,structured_incentive,68,"structured_incentive,structured_normal,random","2,3,1,2",TRUE,,
null,,html-keyboard-response,95,365042,0.0-95.0,3P529IW9KZ7F8RLNQQ9MQJ412D7LFJ,A2FHJCRBRP7VH4,30OITAWPBQP2Z1DQ5HPUZCTXABIH90,,"<img src=""img/set1/S2.jpg"" width=""540"" height = ""360"" style=""border:16px solid orange"">",null,,,,,,,,
null,,html-keyboard-response,96,365244,0.0-96.0,3P529IW9KZ7F8RLNQQ9MQJ412D7LFJ,A2FHJCRBRP7VH4,30OITAWPBQP2Z1DQ5HPUZCTXABIH90,,,null,,,,,,,,
579.099999904633,,image-keyboard-response,97,365825,0.0-97.0,3P529IW9KZ7F8RLNQQ9MQJ412D7LFJ,A2FHJCRBRP7VH4,30OITAWPBQP2Z1DQ5HPUZCTXABIH90,,img/set1/S3.jpg,72,3,structured_incentive,72,"structured_incentive,structured_normal,random","2,3,1,2",TRUE,,
null,,html-keyboard-response,98,366177,0.0-98.0,3P529IW9KZ7F8RLNQQ9MQJ412D7LFJ,A2FHJCRBRP7VH4,30OITAWPBQP2Z1DQ5HPUZCTXABIH90,,"<img src=""img/set1/S3.jpg"" width=""540"" height = ""360"" style=""border:16px solid orange"">",null,,,,,,,,
null,,html-keyboard-response,99,366380,0.0-99.0,3P529IW9KZ7F8RLNQQ9MQJ412D7LFJ,A2FHJCRBRP7VH4,30OITAWPBQP2Z1DQ5HPUZCTXABIH90,,,null,,,,,,,,
855,,image-keyboard-response,100,367237,0.0-100.0,3P529IW9KZ7F8RLNQQ9MQJ412D7LFJ,A2FHJCRBRP7VH4,30OITAWPBQP2Z1DQ5HPUZCTXABIH90,,img/set1/S2.jpg,68,2,structured_incentive,68,"structured_incentive,structured_normal,random","2,3,1,2",TRUE,,
null,,html-keyboard-response,101,367600,0.0-101.0,3P529IW9KZ7F8RLNQQ9MQJ412D7LFJ,A2FHJCRBRP7VH4,30OITAWPBQP2Z1DQ5HPUZCTXABIH90,,"<img src=""img/set1/S2.jpg"" width=""540"" height = ""360"" style=""border:16px solid orange"">",null,,,,,,,,
null,,html-keyboard-response,102,367804,0.0-102.0,3P529IW9KZ7F8RLNQQ9MQJ412D7LFJ,A2FHJCRBRP7VH4,30OITAWPBQP2Z1DQ5HPUZCTXABIH90,,,null,,,,,,,,
1299.10000014305,,image-keyboard-response,103,369104,0.0-103.0,3P529IW9KZ7F8RLNQQ9MQJ412D7LFJ,A2FHJCRBRP7VH4,30OITAWPBQP2Z1DQ5HPUZCTXABIH90,,img/set1/S3.jpg,72,3,structured_incentive,72,"structured_incentive,structured_normal,random","2,3,1,2",TRUE,,
null,,html-keyboard-response,104,369468,0.0-104.0,3P529IW9KZ7F8RLNQQ9MQJ412D7LFJ,A2FHJCRBRP7VH4,30OITAWPBQP2Z1DQ5HPUZCTXABIH90,,"<img src=""img/set1/S3.jpg"" width=""540"" height = ""360"" style=""border:16px solid orange"">",null,,,,,,,,
null,,html-keyboard-response,105,369671,0.0-105.0,3P529IW9KZ7F8RLNQQ9MQJ412D7LFJ,A2FHJCRBRP7VH4,30OITAWPBQP2Z1DQ5HPUZCTXABIH90,,,null,,,,,,,,
617,,image-keyboard-response,106,370289,0.0-106.0,3P529IW9KZ7F8RLNQQ9MQJ412D7LFJ,A2FHJCRBRP7VH4,30OITAWPBQP2Z1DQ5HPUZCTXABIH90,,img/set1/S1.jpg,83,1,structured_incentive,83,"structured_incentive,structured_normal,random","2,3,1,2",TRUE,,
null,,html-keyboard-response,107,370642,0.0-107.0,3P529IW9KZ7F8RLNQQ9MQJ412D7LFJ,A2FHJCRBRP7VH4,30OITAWPBQP2Z1DQ5HPUZCTXABIH90,,"<img src=""img/set1/S1.jpg"" width=""540"" height = ""360"" style=""border:16px solid orange"">",null,,,,,,,,
null,,html-keyboard-response,108,370843,0.0-108.0,3P529IW9KZ7F8RLNQQ9MQJ412D7LFJ,A2FHJCRBRP7VH4,30OITAWPBQP2Z1DQ5HPUZCTXABIH90,,,null,,,,,,,,
695.199999809265,,image-keyboard-response,109,371540,0.0-109.0,3P529IW9KZ7F8RLNQQ9MQJ412D7LFJ,A2FHJCRBRP7VH4,30OITAWPBQP2Z1DQ5HPUZCTXABIH90,,img/set1/S4.jpg,74,4,structured_incentive,74,"structured_incentive,structured_normal,random","2,3,1,2",TRUE,,
null,,html-keyboard-response,110,371893,0.0-110.0,3P529IW9KZ7F8RLNQQ9MQJ412D7LFJ,A2FHJCRBRP7VH4,30OITAWPBQP2Z1DQ5HPUZCTXABIH90,,"<img src=""img/set1/S4.jpg"" width=""540"" height = ""360"" style=""border:16px solid Violet"">",null,,,,,,,,
null,,html-keyboard-response,111,372096,0.0-111.0,3P529IW9KZ7F8RLNQQ9MQJ412D7LFJ,A2FHJCRBRP7VH4,30OITAWPBQP2Z1DQ5HPUZCTXABIH90,,,null,,,,,,,,
774.699999809265,,image-keyboard-response,112,372873,0.0-112.0,3P529IW9KZ7F8RLNQQ9MQJ412D7LFJ,A2FHJCRBRP7VH4,30OITAWPBQP2Z1DQ5HPUZCTXABIH90,,img/set1/S1.jpg,83,1,structured_incentive,83,"structured_incentive,structured_normal,random","2,3,1,2",TRUE,,
null,,html-keyboard-response,113,373236,0.0-113.0,3P529IW9KZ7F8RLNQQ9MQJ412D7LFJ,A2FHJCRBRP7VH4,30OITAWPBQP2Z1DQ5HPUZCTXABIH90,,"<img src=""img/set1/S1.jpg"" width=""540"" height = ""360"" style=""border:16px solid orange"">",null,,,,,,,,
null,,html-keyboard-response,114,373438,0.0-114.0,3P529IW9KZ7F8RLNQQ9MQJ412D7LFJ,A2FHJCRBRP7VH4,30OITAWPBQP2Z1DQ5HPUZCTXABIH90,,,null,,,,,,,,
966.900000095367,,image-keyboard-response,115,374406,0.0-115.0,3P529IW9KZ7F8RLNQQ9MQJ412D7LFJ,A2FHJCRBRP7VH4,30OITAWPBQP2Z1DQ5HPUZCTXABIH90,,img/set1/S1.jpg,83,1,structured_incentive,83,"structured_incentive,structured_normal,random","2,3,1,2",TRUE,,
null,,html-keyboard-response,116,374760,0.0-116.0,3P529IW9KZ7F8RLNQQ9MQJ412D7LFJ,A2FHJCRBRP7VH4,30OITAWPBQP2Z1DQ5HPUZCTXABIH90,,"<img src=""img/set1/S1.jpg"" width=""540"" height = ""360"" style=""border:16px solid orange"">",null,,,,,,,,
null,,html-keyboard-response,117,374963,0.0-117.0,3P529IW9KZ7F8RLNQQ9MQJ412D7LFJ,A2FHJCRBRP7VH4,30OITAWPBQP2Z1DQ5HPUZCTXABIH90,,,null,,,,,,,,
677.399999856949,,image-keyboard-response,118,375642,0.0-118.0,3P529IW9KZ7F8RLNQQ9MQJ412D7LFJ,A2FHJCRBRP7VH4,30OITAWPBQP2Z1DQ5HPUZCTXABIH90,,img/set1/S3.jpg,72,3,structured_incentive,72,"structured_incentive,structured_normal,random","2,3,1,2",TRUE,,
null,,html-keyboard-response,119,375994,0.0-119.0,3P529IW9KZ7F8RLNQQ9MQJ412D7LFJ,A2FHJCRBRP7VH4,30OITAWPBQP2Z1DQ5HPUZCTXABIH90,,"<img src=""img/set1/S3.jpg"" width=""540"" height = ""360"" style=""border:16px solid orange"">",null,,,,,,,,
null,,html-keyboard-response,120,376196,0.0-120.0,3P529IW9KZ7F8RLNQQ9MQJ412D7LFJ,A2FHJCRBRP7VH4,30OITAWPBQP2Z1DQ5HPUZCTXABIH90,,,null,,,,,,,,
781.400000095367,,image-keyboard-response,121,376979,0.0-121.0,3P529IW9KZ7F8RLNQQ9MQJ412D7LFJ,A2FHJCRBRP7VH4,30OITAWPBQP2Z1DQ5HPUZCTXABIH90,,img/set1/S4.jpg,74,4,structured_incentive,74,"structured_incentive,structured_normal,random","2,3,1,2",TRUE,,
null,,html-keyboard-response,122,377332,0.0-122.0,3P529IW9KZ7F8RLNQQ9MQJ412D7LFJ,A2FHJCRBRP7VH4,30OITAWPBQP2Z1DQ5HPUZCTXABIH90,,"<img src=""img/set1/S4.jpg"" width=""540"" height = ""360"" style=""border:16px solid Violet"">",null,,,,,,,,
null,,html-keyboard-response,123,377534,0.0-123.0,3P529IW9KZ7F8RLNQQ9MQJ412D7LFJ,A2FHJCRBRP7VH4,30OITAWPBQP2Z1DQ5HPUZCTXABIH90,,,null,,,,,,,,
766.399999856949,,image-keyboard-response,124,378302,0.0-124.0,3P529IW9KZ7F8RLNQQ9MQJ412D7LFJ,A2FHJCRBRP7VH4,30OITAWPBQP2Z1DQ5HPUZCTXABIH90,,img/set1/S2.jpg,68,2,structured_incentive,68,"structured_incentive,structured_normal,random","2,3,1,2",TRUE,,
null,,html-keyboard-response,125,378654,0.0-125.0,3P529IW9KZ7F8RLNQQ9MQJ412D7LFJ,A2FHJCRBRP7VH4,30OITAWPBQP2Z1DQ5HPUZCTXABIH90,,"<img src=""img/set1/S2.jpg"" width=""540"" height = ""360"" style=""border:16px solid orange"">",null,,,,,,,,
null,,html-keyboard-response,126,378857,0.0-126.0,3P529IW9KZ7F8RLNQQ9MQJ412D7LFJ,A2FHJCRBRP7VH4,30OITAWPBQP2Z1DQ5HPUZCTXABIH90,,,null,,,,,,,,
1023.89999985695,,image-keyboard-response,127,379882,0.0-127.0,3P529IW9KZ7F8RLNQQ9MQJ412D7LFJ,A2FHJCRBRP7VH4,30OITAWPBQP2Z1DQ5HPUZCTXABIH90,,img/set1/S3.jpg,72,3,structured_incentive,72,"structured_incentive,structured_normal,random","2,3,1,2",TRUE,,
null,,html-keyboard-response,128,380234,0.0-128.0,3P529IW9KZ7F8RLNQQ9MQJ412D7LFJ,A2FHJCRBRP7VH4,30OITAWPBQP2Z1DQ5HPUZCTXABIH90,,"<img src=""img/set1/S3.jpg"" width=""540"" height = ""360"" style=""border:16px solid orange"">",null,,,,,,,,
null,,html-keyboard-response,129,380436,0.0-129.0,3P529IW9KZ7F8RLNQQ9MQJ412D7LFJ,A2FHJCRBRP7VH4,30OITAWPBQP2Z1DQ5HPUZCTXABIH90,,,null,,,,,,,,
610.899999856949,,image-keyboard-response,130,381049,0.0-130.0,3P529IW9KZ7F8RLNQQ9MQJ412D7LFJ,A2FHJCRBRP7VH4,30OITAWPBQP2Z1DQ5HPUZCTXABIH90,,img/set1/S4.jpg,74,4,structured_incentive,74,"structured_incentive,structured_normal,random","2,3,1,2",TRUE,,
null,,html-keyboard-response,131,381401,0.0-131.0,3P529IW9KZ7F8RLNQQ9MQJ412D7LFJ,A2FHJCRBRP7VH4,30OITAWPBQP2Z1DQ5HPUZCTXABIH90,,"<img src=""img/set1/S4.jpg"" width=""540"" height = ""360"" style=""border:16px solid Violet"">",null,,,,,,,,
null,,html-keyboard-response,132,381603,0.0-132.0,3P529IW9KZ7F8RLNQQ9MQJ412D7LFJ,A2FHJCRBRP7VH4,30OITAWPBQP2Z1DQ5HPUZCTXABIH90,,,null,,,,,,,,
899.400000095367,,image-keyboard-response,133,382504,0.0-133.0,3P529IW9KZ7F8RLNQQ9MQJ412D7LFJ,A2FHJCRBRP7VH4,30OITAWPBQP2Z1DQ5HPUZCTXABIH90,,img/set1/S2.jpg,83,2,structured_incentive,68,"structured_incentive,structured_normal,random","2,3,1,2",FALSE,,
null,,html-keyboard-response,134,382856,0.0-134.0,3P529IW9KZ7F8RLNQQ9MQJ412D7LFJ,A2FHJCRBRP7VH4,30OITAWPBQP2Z1DQ5HPUZCTXABIH90,,"<img src=""img/set1/S2.jpg"" width=""540"" height = ""360"">",null,,,,,,,,
null,,html-keyboard-response,135,383058,0.0-135.0,3P529IW9KZ7F8RLNQQ9MQJ412D7LFJ,A2FHJCRBRP7VH4,30OITAWPBQP2Z1DQ5HPUZCTXABIH90,,,null,,,,,,,,
541.600000143051,,image-keyboard-response,136,383601,0.0-136.0,3P529IW9KZ7F8RLNQQ9MQJ412D7LFJ,A2FHJCRBRP7VH4,30OITAWPBQP2Z1DQ5HPUZCTXABIH90,,img/set1/S3.jpg,72,3,structured_incentive,72,"structured_incentive,structured_normal,random","2,3,1,2",TRUE,,
null,,html-keyboard-response,137,383954,0.0-137.0,3P529IW9KZ7F8RLNQQ9MQJ412D7LFJ,A2FHJCRBRP7VH4,30OITAWPBQP2Z1DQ5HPUZCTXABIH90,,"<img src=""img/set1/S3.jpg"" width=""540"" height = ""360"" style=""border:16px solid orange"">",null,,,,,,,,
null,,html-keyboard-response,138,384156,0.0-138.0,3P529IW9KZ7F8RLNQQ9MQJ412D7LFJ,A2FHJCRBRP7VH4,30OITAWPBQP2Z1DQ5HPUZCTXABIH90,,,null,,,,,,,,
597.799999952316,,image-keyboard-response,139,384756,0.0-139.0,3P529IW9KZ7F8RLNQQ9MQJ412D7LFJ,A2FHJCRBRP7VH4,30OITAWPBQP2Z1DQ5HPUZCTXABIH90,,img/set1/S1.jpg,83,1,structured_incentive,83,"structured_incentive,structured_normal,random","2,3,1,2",TRUE,,
null,,html-keyboard-response,140,385108,0.0-140.0,3P529IW9KZ7F8RLNQQ9MQJ412D7LFJ,A2FHJCRBRP7VH4,30OITAWPBQP2Z1DQ5HPUZCTXABIH90,,"<img src=""img/set1/S1.jpg"" width=""540"" height = ""360"" style=""border:16px solid orange"">",null,,,,,,,,
null,,html-keyboard-response,141,385310,0.0-141.0,3P529IW9KZ7F8RLNQQ9MQJ412D7LFJ,A2FHJCRBRP7VH4,30OITAWPBQP2Z1DQ5HPUZCTXABIH90,,,null,,,,,,,,
672.099999904633,,image-keyboard-response,142,385984,0.0-142.0,3P529IW9KZ7F8RLNQQ9MQJ412D7LFJ,A2FHJCRBRP7VH4,30OITAWPBQP2Z1DQ5HPUZCTXABIH90,,img/set1/S1.jpg,83,1,structured_incentive,83,"structured_incentive,structured_normal,random","2,3,1,2",TRUE,,
null,,html-keyboard-response,143,386337,0.0-143.0,3P529IW9KZ7F8RLNQQ9MQJ412D7LFJ,A2FHJCRBRP7VH4,30OITAWPBQP2Z1DQ5HPUZCTXABIH90,,"<img src=""img/set1/S1.jpg"" width=""540"" height = ""360"" style=""border:16px solid orange"">",null,,,,,,,,
null,,html-keyboard-response,144,386539,0.0-144.0,3P529IW9KZ7F8RLNQQ9MQJ412D7LFJ,A2FHJCRBRP7VH4,30OITAWPBQP2Z1DQ5HPUZCTXABIH90,,,null,,,,,,,,
578.900000095367,,image-keyboard-response,145,387120,0.0-145.0,3P529IW9KZ7F8RLNQQ9MQJ412D7LFJ,A2FHJCRBRP7VH4,30OITAWPBQP2Z1DQ5HPUZCTXABIH90,,img/set1/S1.jpg,83,1,structured_incentive,83,"structured_incentive,structured_normal,random","2,3,1,2",TRUE,,
null,,html-keyboard-response,146,387472,0.0-146.0,3P529IW9KZ7F8RLNQQ9MQJ412D7LFJ,A2FHJCRBRP7VH4,30OITAWPBQP2Z1DQ5HPUZCTXABIH90,,"<img src=""img/set1/S1.jpg"" width=""540"" height = ""360"" style=""border:16px solid orange"">",null,,,,,,,,
null,,html-keyboard-response,147,387674,0.0-147.0,3P529IW9KZ7F8RLNQQ9MQJ412D7LFJ,A2FHJCRBRP7VH4,30OITAWPBQP2Z1DQ5HPUZCTXABIH90,,,null,,,,,,,,
451.5,,image-keyboard-response,148,388128,0.0-148.0,3P529IW9KZ7F8RLNQQ9MQJ412D7LFJ,A2FHJCRBRP7VH4,30OITAWPBQP2Z1DQ5HPUZCTXABIH90,,img/set1/S1.jpg,83,1,structured_incentive,83,"structured_incentive,structured_normal,random","2,3,1,2",TRUE,,
null,,html-keyboard-response,149,388480,0.0-149.0,3P529IW9KZ7F8RLNQQ9MQJ412D7LFJ,A2FHJCRBRP7VH4,30OITAWPBQP2Z1DQ5HPUZCTXABIH90,,"<img src=""img/set1/S1.jpg"" width=""540"" height = ""360"" style=""border:16px solid orange"">",null,,,,,,,,
null,,html-keyboard-response,150,388682,0.0-150.0,3P529IW9KZ7F8RLNQQ9MQJ412D7LFJ,A2FHJCRBRP7VH4,30OITAWPBQP2Z1DQ5HPUZCTXABIH90,,,null,,,,,,,,
487,,image-keyboard-response,151,389170,0.0-151.0,3P529IW9KZ7F8RLNQQ9MQJ412D7LFJ,A2FHJCRBRP7VH4,30OITAWPBQP2Z1DQ5HPUZCTXABIH90,,img/set1/S1.jpg,83,1,structured_incentive,83,"structured_incentive,structured_normal,random","2,3,1,2",TRUE,,
null,,html-keyboard-response,152,389523,0.0-152.0,3P529IW9KZ7F8RLNQQ9MQJ412D7LFJ,A2FHJCRBRP7VH4,30OITAWPBQP2Z1DQ5HPUZCTXABIH90,,"<img src=""img/set1/S1.jpg"" width=""540"" height = ""360"" style=""border:16px solid orange"">",null,,,,,,,,
null,,html-keyboard-response,153,389724,0.0-153.0,3P529IW9KZ7F8RLNQQ9MQJ412D7LFJ,A2FHJCRBRP7VH4,30OITAWPBQP2Z1DQ5HPUZCTXABIH90,,,null,,,,,,,,
850.600000143051,,image-keyboard-response,154,390577,0.0-154.0,3P529IW9KZ7F8RLNQQ9MQJ412D7LFJ,A2FHJCRBRP7VH4,30OITAWPBQP2Z1DQ5HPUZCTXABIH90,,img/set1/S2.jpg,72,2,structured_incentive,68,"structured_incentive,structured_normal,random","2,3,1,2",FALSE,,
null,,html-keyboard-response,155,390931,0.0-155.0,3P529IW9KZ7F8RLNQQ9MQJ412D7LFJ,A2FHJCRBRP7VH4,30OITAWPBQP2Z1DQ5HPUZCTXABIH90,,"<img src=""img/set1/S2.jpg"" width=""540"" height = ""360"">",null,,,,,,,,
null,,html-keyboard-response,156,391132,0.0-156.0,3P529IW9KZ7F8RLNQQ9MQJ412D7LFJ,A2FHJCRBRP7VH4,30OITAWPBQP2Z1DQ5HPUZCTXABIH90,,,null,,,,,,,,
1375.5,,image-keyboard-response,157,392509,0.0-157.0,3P529IW9KZ7F8RLNQQ9MQJ412D7LFJ,A2FHJCRBRP7VH4,30OITAWPBQP2Z1DQ5HPUZCTXABIH90,,img/set1/S3.jpg,72,3,structured_incentive,72,"structured_incentive,structured_normal,random","2,3,1,2",TRUE,,
null,,html-keyboard-response,158,392874,0.0-158.0,3P529IW9KZ7F8RLNQQ9MQJ412D7LFJ,A2FHJCRBRP7VH4,30OITAWPBQP2Z1DQ5HPUZCTXABIH90,,"<img src=""img/set1/S3.jpg"" width=""540"" height = ""360"" style=""border:16px solid orange"">",null,,,,,,,,
null,,html-keyboard-response,159,393077,0.0-159.0,3P529IW9KZ7F8RLNQQ9MQJ412D7LFJ,A2FHJCRBRP7VH4,30OITAWPBQP2Z1DQ5HPUZCTXABIH90,,,null,,,,,,,,
528.5,,image-keyboard-response,160,393607,0.0-160.0,3P529IW9KZ7F8RLNQQ9MQJ412D7LFJ,A2FHJCRBRP7VH4,30OITAWPBQP2Z1DQ5HPUZCTXABIH90,,img/set1/S3.jpg,72,3,structured_incentive,72,"structured_incentive,structured_normal,random","2,3,1,2",TRUE,,
null,,html-keyboard-response,161,393959,0.0-161.0,3P529IW9KZ7F8RLNQQ9MQJ412D7LFJ,A2FHJCRBRP7VH4,30OITAWPBQP2Z1DQ5HPUZCTXABIH90,,"<img src=""img/set1/S3.jpg"" width=""540"" height = ""360"" style=""border:16px solid orange"">",null,,,,,,,,
null,,html-keyboard-response,162,394160,0.0-162.0,3P529IW9KZ7F8RLNQQ9MQJ412D7LFJ,A2FHJCRBRP7VH4,30OITAWPBQP2Z1DQ5HPUZCTXABIH90,,,null,,,,,,,,
676.5,,image-keyboard-response,163,394839,0.0-163.0,3P529IW9KZ7F8RLNQQ9MQJ412D7LFJ,A2FHJCRBRP7VH4,30OITAWPBQP2Z1DQ5HPUZCTXABIH90,,img/set1/S1.jpg,83,1,structured_incentive,83,"structured_incentive,structured_normal,random","2,3,1,2",TRUE,,
null,,html-keyboard-response,164,395191,0.0-164.0,3P529IW9KZ7F8RLNQQ9MQJ412D7LFJ,A2FHJCRBRP7VH4,30OITAWPBQP2Z1DQ5HPUZCTXABIH90,,"<img src=""img/set1/S1.jpg"" width=""540"" height = ""360"" style=""border:16px solid orange"">",null,,,,,,,,
null,,html-keyboard-response,165,395393,0.0-165.0,3P529IW9KZ7F8RLNQQ9MQJ412D7LFJ,A2FHJCRBRP7VH4,30OITAWPBQP2Z1DQ5HPUZCTXABIH90,,,null,,,,,,,,
472.400000095367,,image-keyboard-response,166,395867,0.0-166.0,3P529IW9KZ7F8RLNQQ9MQJ412D7LFJ,A2FHJCRBRP7VH4,30OITAWPBQP2Z1DQ5HPUZCTXABIH90,,img/set1/S1.jpg,72,1,structured_incentive,83,"structured_incentive,structured_normal,random","2,3,1,2",FALSE,,
null,,html-keyboard-response,167,396221,0.0-167.0,3P529IW9KZ7F8RLNQQ9MQJ412D7LFJ,A2FHJCRBRP7VH4,30OITAWPBQP2Z1DQ5HPUZCTXABIH90,,"<img src=""img/set1/S1.jpg"" width=""540"" height = ""360"">",null,,,,,,,,
null,,html-keyboard-response,168,396424,0.0-168.0,3P529IW9KZ7F8RLNQQ9MQJ412D7LFJ,A2FHJCRBRP7VH4,30OITAWPBQP2Z1DQ5HPUZCTXABIH90,,,null,,,,,,,,
422.199999809265,,image-keyboard-response,169,396848,0.0-169.0,3P529IW9KZ7F8RLNQQ9MQJ412D7LFJ,A2FHJCRBRP7VH4,30OITAWPBQP2Z1DQ5HPUZCTXABIH90,,img/set1/S1.jpg,83,1,structured_incentive,83,"structured_incentive,structured_normal,random","2,3,1,2",TRUE,,
null,,html-keyboard-response,170,397200,0.0-170.0,3P529IW9KZ7F8RLNQQ9MQJ412D7LFJ,A2FHJCRBRP7VH4,30OITAWPBQP2Z1DQ5HPUZCTXABIH90,,"<img src=""img/set1/S1.jpg"" width=""540"" height = ""360"" style=""border:16px solid orange"">",null,,,,,,,,
null,,html-keyboard-response,171,397402,0.0-171.0,3P529IW9KZ7F8RLNQQ9MQJ412D7LFJ,A2FHJCRBRP7VH4,30OITAWPBQP2Z1DQ5HPUZCTXABIH90,,,null,,,,,,,,
597.800000190735,,image-keyboard-response,172,398001,0.0-172.0,3P529IW9KZ7F8RLNQQ9MQJ412D7LFJ,A2FHJCRBRP7VH4,30OITAWPBQP2Z1DQ5HPUZCTXABIH90,,img/set1/S4.jpg,74,4,structured_incentive,74,"structured_incentive,structured_normal,random","2,3,1,2",TRUE,,
null,,html-keyboard-response,173,398356,0.0-173.0,3P529IW9KZ7F8RLNQQ9MQJ412D7LFJ,A2FHJCRBRP7VH4,30OITAWPBQP2Z1DQ5HPUZCTXABIH90,,"<img src=""img/set1/S4.jpg"" width=""540"" height = ""360"" style=""border:16px solid Violet"">",null,,,,,,,,
null,,html-keyboard-response,174,398561,0.0-174.0,3P529IW9KZ7F8RLNQQ9MQJ412D7LFJ,A2FHJCRBRP7VH4,30OITAWPBQP2Z1DQ5HPUZCTXABIH90,,,null,,,,,,,,
959.599999904633,,image-keyboard-response,175,399522,0.0-175.0,3P529IW9KZ7F8RLNQQ9MQJ412D7LFJ,A2FHJCRBRP7VH4,30OITAWPBQP2Z1DQ5HPUZCTXABIH90,,img/set1/S2.jpg,72,2,structured_incentive,68,"structured_incentive,structured_normal,random","2,3,1,2",FALSE,,
null,,html-keyboard-response,176,399874,0.0-176.0,3P529IW9KZ7F8RLNQQ9MQJ412D7LFJ,A2FHJCRBRP7VH4,30OITAWPBQP2Z1DQ5HPUZCTXABIH90,,"<img src=""img/set1/S2.jpg"" width=""540"" height = ""360"">",null,,,,,,,,
null,,html-keyboard-response,177,400076,0.0-177.0,3P529IW9KZ7F8RLNQQ9MQJ412D7LFJ,A2FHJCRBRP7VH4,30OITAWPBQP2Z1DQ5HPUZCTXABIH90,,,null,,,,,,,,
515.799999952316,,image-keyboard-response,178,400593,0.0-178.0,3P529IW9KZ7F8RLNQQ9MQJ412D7LFJ,A2FHJCRBRP7VH4,30OITAWPBQP2Z1DQ5HPUZCTXABIH90,,img/set1/S3.jpg,72,3,structured_incentive,72,"structured_incentive,structured_normal,random","2,3,1,2",TRUE,,
null,,html-keyboard-response,179,400947,0.0-179.0,3P529IW9KZ7F8RLNQQ9MQJ412D7LFJ,A2FHJCRBRP7VH4,30OITAWPBQP2Z1DQ5HPUZCTXABIH90,,"<img src=""img/set1/S3.jpg"" width=""540"" height = ""360"" style=""border:16px solid orange"">",null,,,,,,,,
null,,html-keyboard-response,180,401149,0.0-180.0,3P529IW9KZ7F8RLNQQ9MQJ412D7LFJ,A2FHJCRBRP7VH4,30OITAWPBQP2Z1DQ5HPUZCTXABIH90,,,null,,,,,,,,
651.399999856949,,image-keyboard-response,181,401802,0.0-181.0,3P529IW9KZ7F8RLNQQ9MQJ412D7LFJ,A2FHJCRBRP7VH4,30OITAWPBQP2Z1DQ5HPUZCTXABIH90,,img/set1/S1.jpg,83,1,structured_incentive,83,"structured_incentive,structured_normal,random","2,3,1,2",TRUE,,
null,,html-keyboard-response,182,402154,0.0-182.0,3P529IW9KZ7F8RLNQQ9MQJ412D7LFJ,A2FHJCRBRP7VH4,30OITAWPBQP2Z1DQ5HPUZCTXABIH90,,"<img src=""img/set1/S1.jpg"" width=""540"" height = ""360"" style=""border:16px solid orange"">",null,,,,,,,,
null,,html-keyboard-response,183,402356,0.0-183.0,3P529IW9KZ7F8RLNQQ9MQJ412D7LFJ,A2FHJCRBRP7VH4,30OITAWPBQP2Z1DQ5HPUZCTXABIH90,,,null,,,,,,,,
603.599999904633,,image-keyboard-response,184,402961,0.0-184.0,3P529IW9KZ7F8RLNQQ9MQJ412D7LFJ,A2FHJCRBRP7VH4,30OITAWPBQP2Z1DQ5HPUZCTXABIH90,,img/set1/S4.jpg,74,4,structured_incentive,74,"structured_incentive,structured_normal,random","2,3,1,2",TRUE,,
null,,html-keyboard-response,185,403326,0.0-185.0,3P529IW9KZ7F8RLNQQ9MQJ412D7LFJ,A2FHJCRBRP7VH4,30OITAWPBQP2Z1DQ5HPUZCTXABIH90,,"<img src=""img/set1/S4.jpg"" width=""540"" height = ""360"" style=""border:16px solid Violet"">",null,,,,,,,,
null,,html-keyboard-response,186,403527,0.0-186.0,3P529IW9KZ7F8RLNQQ9MQJ412D7LFJ,A2FHJCRBRP7VH4,30OITAWPBQP2Z1DQ5HPUZCTXABIH90,,,null,,,,,,,,
502.799999952316,,image-keyboard-response,187,404032,0.0-187.0,3P529IW9KZ7F8RLNQQ9MQJ412D7LFJ,A2FHJCRBRP7VH4,30OITAWPBQP2Z1DQ5HPUZCTXABIH90,,img/set1/S2.jpg,68,2,structured_incentive,68,"structured_incentive,structured_normal,random","2,3,1,2",TRUE,,
null,,html-keyboard-response,188,404384,0.0-188.0,3P529IW9KZ7F8RLNQQ9MQJ412D7LFJ,A2FHJCRBRP7VH4,30OITAWPBQP2Z1DQ5HPUZCTXABIH90,,"<img src=""img/set1/S2.jpg"" width=""540"" height = ""360"" style=""border:16px solid orange"">",null,,,,,,,,
null,,html-keyboard-response,189,404586,0.0-189.0,3P529IW9KZ7F8RLNQQ9MQJ412D7LFJ,A2FHJCRBRP7VH4,30OITAWPBQP2Z1DQ5HPUZCTXABIH90,,,null,,,,,,,,
547.200000047684,,image-keyboard-response,190,405135,0.0-190.0,3P529IW9KZ7F8RLNQQ9MQJ412D7LFJ,A2FHJCRBRP7VH4,30OITAWPBQP2Z1DQ5HPUZCTXABIH90,,img/set1/S3.jpg,72,3,structured_incentive,72,"structured_incentive,structured_normal,random","2,3,1,2",TRUE,,
null,,html-keyboard-response,191,405489,0.0-191.0,3P529IW9KZ7F8RLNQQ9MQJ412D7LFJ,A2FHJCRBRP7VH4,30OITAWPBQP2Z1DQ5HPUZCTXABIH90,,"<img src=""img/set1/S3.jpg"" width=""540"" height = ""360"" style=""border:16px solid orange"">",null,,,,,,,,
null,,html-keyboard-response,192,405692,0.0-192.0,3P529IW9KZ7F8RLNQQ9MQJ412D7LFJ,A2FHJCRBRP7VH4,30OITAWPBQP2Z1DQ5HPUZCTXABIH90,,,null,,,,,,,,
723.299999952316,,image-keyboard-response,193,406416,0.0-193.0,3P529IW9KZ7F8RLNQQ9MQJ412D7LFJ,A2FHJCRBRP7VH4,30OITAWPBQP2Z1DQ5HPUZCTXABIH90,,img/set1/S2.jpg,68,2,structured_incentive,68,"structured_incentive,structured_normal,random","2,3,1,2",TRUE,,
null,,html-keyboard-response,194,406769,0.0-194.0,3P529IW9KZ7F8RLNQQ9MQJ412D7LFJ,A2FHJCRBRP7VH4,30OITAWPBQP2Z1DQ5HPUZCTXABIH90,,"<img src=""img/set1/S2.jpg"" width=""540"" height = ""360"" style=""border:16px solid orange"">",null,,,,,,,,
null,,html-keyboard-response,195,406971,0.0-195.0,3P529IW9KZ7F8RLNQQ9MQJ412D7LFJ,A2FHJCRBRP7VH4,30OITAWPBQP2Z1DQ5HPUZCTXABIH90,,,null,,,,,,,,
627.299999952316,,image-keyboard-response,196,407599,0.0-196.0,3P529IW9KZ7F8RLNQQ9MQJ412D7LFJ,A2FHJCRBRP7VH4,30OITAWPBQP2Z1DQ5HPUZCTXABIH90,,img/set1/S3.jpg,72,3,structured_incentive,72,"structured_incentive,structured_normal,random","2,3,1,2",TRUE,,
null,,html-keyboard-response,197,407953,0.0-197.0,3P529IW9KZ7F8RLNQQ9MQJ412D7LFJ,A2FHJCRBRP7VH4,30OITAWPBQP2Z1DQ5HPUZCTXABIH90,,"<img src=""img/set1/S3.jpg"" width=""540"" height = ""360"" style=""border:16px solid orange"">",null,,,,,,,,
null,,html-keyboard-response,198,408154,0.0-198.0,3P529IW9KZ7F8RLNQQ9MQJ412D7LFJ,A2FHJCRBRP7VH4,30OITAWPBQP2Z1DQ5HPUZCTXABIH90,,,null,,,,,,,,
861,,image-keyboard-response,199,409017,0.0-199.0,3P529IW9KZ7F8RLNQQ9MQJ412D7LFJ,A2FHJCRBRP7VH4,30OITAWPBQP2Z1DQ5HPUZCTXABIH90,,img/set1/S1.jpg,68,1,structured_incentive,83,"structured_incentive,structured_normal,random","2,3,1,2",FALSE,,
null,,html-keyboard-response,200,409369,0.0-200.0,3P529IW9KZ7F8RLNQQ9MQJ412D7LFJ,A2FHJCRBRP7VH4,30OITAWPBQP2Z1DQ5HPUZCTXABIH90,,"<img src=""img/set1/S1.jpg"" width=""540"" height = ""360"">",null,,,,,,,,
null,,html-keyboard-response,201,409570,0.0-201.0,3P529IW9KZ7F8RLNQQ9MQJ412D7LFJ,A2FHJCRBRP7VH4,30OITAWPBQP2Z1DQ5HPUZCTXABIH90,,,null,,,,,,,,
591,,image-keyboard-response,202,410163,0.0-202.0,3P529IW9KZ7F8RLNQQ9MQJ412D7LFJ,A2FHJCRBRP7VH4,30OITAWPBQP2Z1DQ5HPUZCTXABIH90,,img/set1/S1.jpg,83,1,structured_incentive,83,"structured_incentive,structured_normal,random","2,3,1,2",TRUE,,
null,,html-keyboard-response,203,410517,0.0-203.0,3P529IW9KZ7F8RLNQQ9MQJ412D7LFJ,A2FHJCRBRP7VH4,30OITAWPBQP2Z1DQ5HPUZCTXABIH90,,"<img src=""img/set1/S1.jpg"" width=""540"" height = ""360"" style=""border:16px solid orange"">",null,,,,,,,,
null,,html-keyboard-response,204,410720,0.0-204.0,3P529IW9KZ7F8RLNQQ9MQJ412D7LFJ,A2FHJCRBRP7VH4,30OITAWPBQP2Z1DQ5HPUZCTXABIH90,,,null,,,,,,,,
1057.30000019073,,image-keyboard-response,205,411778,0.0-205.0,3P529IW9KZ7F8RLNQQ9MQJ412D7LFJ,A2FHJCRBRP7VH4,30OITAWPBQP2Z1DQ5HPUZCTXABIH90,,img/set1/S2.jpg,68,2,structured_incentive,68,"structured_incentive,structured_normal,random","2,3,1,2",TRUE,,
null,,html-keyboard-response,206,412130,0.0-206.0,3P529IW9KZ7F8RLNQQ9MQJ412D7LFJ,A2FHJCRBRP7VH4,30OITAWPBQP2Z1DQ5HPUZCTXABIH90,,"<img src=""img/set1/S2.jpg"" width=""540"" height = ""360"" style=""border:16px solid orange"">",null,,,,,,,,
null,,html-keyboard-response,207,412332,0.0-207.0,3P529IW9KZ7F8RLNQQ9MQJ412D7LFJ,A2FHJCRBRP7VH4,30OITAWPBQP2Z1DQ5HPUZCTXABIH90,,,null,,,,,,,,
679.399999856949,,image-keyboard-response,208,413013,0.0-208.0,3P529IW9KZ7F8RLNQQ9MQJ412D7LFJ,A2FHJCRBRP7VH4,30OITAWPBQP2Z1DQ5HPUZCTXABIH90,,img/set1/S3.jpg,72,3,structured_incentive,72,"structured_incentive,structured_normal,random","2,3,1,2",TRUE,,
null,,html-keyboard-response,209,413366,0.0-209.0,3P529IW9KZ7F8RLNQQ9MQJ412D7LFJ,A2FHJCRBRP7VH4,30OITAWPBQP2Z1DQ5HPUZCTXABIH90,,"<img src=""img/set1/S3.jpg"" width=""540"" height = ""360"" style=""border:16px solid orange"">",null,,,,,,,,
null,,html-keyboard-response,210,413567,0.0-210.0,3P529IW9KZ7F8RLNQQ9MQJ412D7LFJ,A2FHJCRBRP7VH4,30OITAWPBQP2Z1DQ5HPUZCTXABIH90,,,null,,,,,,,,
575.299999952316,,image-keyboard-response,211,414145,0.0-211.0,3P529IW9KZ7F8RLNQQ9MQJ412D7LFJ,A2FHJCRBRP7VH4,30OITAWPBQP2Z1DQ5HPUZCTXABIH90,,img/set1/S1.jpg,83,1,structured_incentive,83,"structured_incentive,structured_normal,random","2,3,1,2",TRUE,,
null,,html-keyboard-response,212,414498,0.0-212.0,3P529IW9KZ7F8RLNQQ9MQJ412D7LFJ,A2FHJCRBRP7VH4,30OITAWPBQP2Z1DQ5HPUZCTXABIH90,,"<img src=""img/set1/S1.jpg"" width=""540"" height = ""360"" style=""border:16px solid orange"">",null,,,,,,,,
null,,html-keyboard-response,213,414700,0.0-213.0,3P529IW9KZ7F8RLNQQ9MQJ412D7LFJ,A2FHJCRBRP7VH4,30OITAWPBQP2Z1DQ5HPUZCTXABIH90,,,null,,,,,,,,
493.799999952316,,image-keyboard-response,214,415195,0.0-214.0,3P529IW9KZ7F8RLNQQ9MQJ412D7LFJ,A2FHJCRBRP7VH4,30OITAWPBQP2Z1DQ5HPUZCTXABIH90,,img/set1/S4.jpg,74,4,structured_incentive,74,"structured_incentive,structured_normal,random","2,3,1,2",TRUE,,
null,,html-keyboard-response,215,415547,0.0-215.0,3P529IW9KZ7F8RLNQQ9MQJ412D7LFJ,A2FHJCRBRP7VH4,30OITAWPBQP2Z1DQ5HPUZCTXABIH90,,"<img src=""img/set1/S4.jpg"" width=""540"" height = ""360"" style=""border:16px solid Violet"">",null,,,,,,,,
null,,html-keyboard-response,216,415748,0.0-216.0,3P529IW9KZ7F8RLNQQ9MQJ412D7LFJ,A2FHJCRBRP7VH4,30OITAWPBQP2Z1DQ5HPUZCTXABIH90,,,null,,,,,,,,
774.900000095367,,image-keyboard-response,217,416525,0.0-217.0,3P529IW9KZ7F8RLNQQ9MQJ412D7LFJ,A2FHJCRBRP7VH4,30OITAWPBQP2Z1DQ5HPUZCTXABIH90,,img/set1/S2.jpg,68,2,structured_incentive,68,"structured_incentive,structured_normal,random","2,3,1,2",TRUE,,
null,,html-keyboard-response,218,416878,0.0-218.0,3P529IW9KZ7F8RLNQQ9MQJ412D7LFJ,A2FHJCRBRP7VH4,30OITAWPBQP2Z1DQ5HPUZCTXABIH90,,"<img src=""img/set1/S2.jpg"" width=""540"" height = ""360"" style=""border:16px solid orange"">",null,,,,,,,,
null,,html-keyboard-response,219,417080,0.0-219.0,3P529IW9KZ7F8RLNQQ9MQJ412D7LFJ,A2FHJCRBRP7VH4,30OITAWPBQP2Z1DQ5HPUZCTXABIH90,,,null,,,,,,,,
980,,image-keyboard-response,220,418062,0.0-220.0,3P529IW9KZ7F8RLNQQ9MQJ412D7LFJ,A2FHJCRBRP7VH4,30OITAWPBQP2Z1DQ5HPUZCTXABIH90,,img/set1/S3.jpg,72,3,structured_incentive,72,"structured_incentive,structured_normal,random","2,3,1,2",TRUE,,
null,,html-keyboard-response,221,418414,0.0-221.0,3P529IW9KZ7F8RLNQQ9MQJ412D7LFJ,A2FHJCRBRP7VH4,30OITAWPBQP2Z1DQ5HPUZCTXABIH90,,"<img src=""img/set1/S3.jpg"" width=""540"" height = ""360"" style=""border:16px solid orange"">",null,,,,,,,,
null,,html-keyboard-response,222,418616,0.0-222.0,3P529IW9KZ7F8RLNQQ9MQJ412D7LFJ,A2FHJCRBRP7VH4,30OITAWPBQP2Z1DQ5HPUZCTXABIH90,,,null,,,,,,,,
597.599999904633,,image-keyboard-response,223,419215,0.0-223.0,3P529IW9KZ7F8RLNQQ9MQJ412D7LFJ,A2FHJCRBRP7VH4,30OITAWPBQP2Z1DQ5HPUZCTXABIH90,,img/set1/S4.jpg,74,4,structured_incentive,74,"structured_incentive,structured_normal,random","2,3,1,2",TRUE,,
null,,html-keyboard-response,224,419567,0.0-224.0,3P529IW9KZ7F8RLNQQ9MQJ412D7LFJ,A2FHJCRBRP7VH4,30OITAWPBQP2Z1DQ5HPUZCTXABIH90,,"<img src=""img/set1/S4.jpg"" width=""540"" height = ""360"" style=""border:16px solid Violet"">",null,,,,,,,,
null,,html-keyboard-response,225,419769,0.0-225.0,3P529IW9KZ7F8RLNQQ9MQJ412D7LFJ,A2FHJCRBRP7VH4,30OITAWPBQP2Z1DQ5HPUZCTXABIH90,,,null,,,,,,,,
712.399999856949,,image-keyboard-response,226,420482,0.0-226.0,3P529IW9KZ7F8RLNQQ9MQJ412D7LFJ,A2FHJCRBRP7VH4,30OITAWPBQP2Z1DQ5HPUZCTXABIH90,,img/set1/S2.jpg,68,2,structured_incentive,68,"structured_incentive,structured_normal,random","2,3,1,2",TRUE,,
null,,html-keyboard-response,227,420835,0.0-227.0,3P529IW9KZ7F8RLNQQ9MQJ412D7LFJ,A2FHJCRBRP7VH4,30OITAWPBQP2Z1DQ5HPUZCTXABIH90,,"<img src=""img/set1/S2.jpg"" width=""540"" height = ""360"" style=""border:16px solid orange"">",null,,,,,,,,
null,,html-keyboard-response,228,421036,0.0-228.0,3P529IW9KZ7F8RLNQQ9MQJ412D7LFJ,A2FHJCRBRP7VH4,30OITAWPBQP2Z1DQ5HPUZCTXABIH90,,,null,,,,,,,,
670,,image-keyboard-response,229,421708,0.0-229.0,3P529IW9KZ7F8RLNQQ9MQJ412D7LFJ,A2FHJCRBRP7VH4,30OITAWPBQP2Z1DQ5HPUZCTXABIH90,,img/set1/S3.jpg,72,3,structured_incentive,72,"structured_incentive,structured_normal,random","2,3,1,2",TRUE,,
null,,html-keyboard-response,230,422061,0.0-230.0,3P529IW9KZ7F8RLNQQ9MQJ412D7LFJ,A2FHJCRBRP7VH4,30OITAWPBQP2Z1DQ5HPUZCTXABIH90,,"<img src=""img/set1/S3.jpg"" width=""540"" height = ""360"" style=""border:16px solid orange"">",null,,,,,,,,
null,,html-keyboard-response,231,422262,0.0-231.0,3P529IW9KZ7F8RLNQQ9MQJ412D7LFJ,A2FHJCRBRP7VH4,30OITAWPBQP2Z1DQ5HPUZCTXABIH90,,,null,,,,,,,,
549.200000047684,,image-keyboard-response,232,422813,0.0-232.0,3P529IW9KZ7F8RLNQQ9MQJ412D7LFJ,A2FHJCRBRP7VH4,30OITAWPBQP2Z1DQ5HPUZCTXABIH90,,img/set1/S4.jpg,74,4,structured_incentive,74,"structured_incentive,structured_normal,random","2,3,1,2",TRUE,,
null,,html-keyboard-response,233,423173,0.0-233.0,3P529IW9KZ7F8RLNQQ9MQJ412D7LFJ,A2FHJCRBRP7VH4,30OITAWPBQP2Z1DQ5HPUZCTXABIH90,,"<img src=""img/set1/S4.jpg"" width=""540"" height = ""360"" style=""border:16px solid Violet"">",null,,,,,,,,
null,,html-keyboard-response,234,423375,0.0-234.0,3P529IW9KZ7F8RLNQQ9MQJ412D7LFJ,A2FHJCRBRP7VH4,30OITAWPBQP2Z1DQ5HPUZCTXABIH90,,,null,,,,,,,,
744.900000095367,,image-keyboard-response,235,424122,0.0-235.0,3P529IW9KZ7F8RLNQQ9MQJ412D7LFJ,A2FHJCRBRP7VH4,30OITAWPBQP2Z1DQ5HPUZCTXABIH90,,img/set1/S2.jpg,68,2,structured_incentive,68,"structured_incentive,structured_normal,random","2,3,1,2",TRUE,,
null,,html-keyboard-response,236,424474,0.0-236.0,3P529IW9KZ7F8RLNQQ9MQJ412D7LFJ,A2FHJCRBRP7VH4,30OITAWPBQP2Z1DQ5HPUZCTXABIH90,,"<img src=""img/set1/S2.jpg"" width=""540"" height = ""360"" style=""border:16px solid orange"">",null,,,,,,,,
null,,html-keyboard-response,237,424676,0.0-237.0,3P529IW9KZ7F8RLNQQ9MQJ412D7LFJ,A2FHJCRBRP7VH4,30OITAWPBQP2Z1DQ5HPUZCTXABIH90,,,null,,,,,,,,
692.5,,image-keyboard-response,238,425370,0.0-238.0,3P529IW9KZ7F8RLNQQ9MQJ412D7LFJ,A2FHJCRBRP7VH4,30OITAWPBQP2Z1DQ5HPUZCTXABIH90,,img/set1/S4.jpg,72,4,structured_incentive,74,"structured_incentive,structured_normal,random","2,3,1,2",FALSE,,
null,,html-keyboard-response,239,425723,0.0-239.0,3P529IW9KZ7F8RLNQQ9MQJ412D7LFJ,A2FHJCRBRP7VH4,30OITAWPBQP2Z1DQ5HPUZCTXABIH90,,"<img src=""img/set1/S4.jpg"" width=""540"" height = ""360"">",null,,,,,,,,
null,,html-keyboard-response,240,425925,0.0-240.0,3P529IW9KZ7F8RLNQQ9MQJ412D7LFJ,A2FHJCRBRP7VH4,30OITAWPBQP2Z1DQ5HPUZCTXABIH90,,,null,,,,,,,,
740.100000143051,,image-keyboard-response,241,426668,0.0-241.0,3P529IW9KZ7F8RLNQQ9MQJ412D7LFJ,A2FHJCRBRP7VH4,30OITAWPBQP2Z1DQ5HPUZCTXABIH90,,img/set1/S1.jpg,83,1,structured_incentive,83,"structured_incentive,structured_normal,random","2,3,1,2",TRUE,,
null,,html-keyboard-response,242,427021,0.0-242.0,3P529IW9KZ7F8RLNQQ9MQJ412D7LFJ,A2FHJCRBRP7VH4,30OITAWPBQP2Z1DQ5HPUZCTXABIH90,,"<img src=""img/set1/S1.jpg"" width=""540"" height = ""360"" style=""border:16px solid orange"">",null,,,,,,,,
null,,html-keyboard-response,243,427223,0.0-243.0,3P529IW9KZ7F8RLNQQ9MQJ412D7LFJ,A2FHJCRBRP7VH4,30OITAWPBQP2Z1DQ5HPUZCTXABIH90,,,null,,,,,,,,
422.5,,image-keyboard-response,244,427647,0.0-244.0,3P529IW9KZ7F8RLNQQ9MQJ412D7LFJ,A2FHJCRBRP7VH4,30OITAWPBQP2Z1DQ5HPUZCTXABIH90,,img/set1/S4.jpg,74,4,structured_incentive,74,"structured_incentive,structured_normal,random","2,3,1,2",TRUE,,
null,,html-keyboard-response,245,428000,0.0-245.0,3P529IW9KZ7F8RLNQQ9MQJ412D7LFJ,A2FHJCRBRP7VH4,30OITAWPBQP2Z1DQ5HPUZCTXABIH90,,"<img src=""img/set1/S4.jpg"" width=""540"" height = ""360"" style=""border:16px solid Violet"">",null,,,,,,,,
null,,html-keyboard-response,246,428202,0.0-246.0,3P529IW9KZ7F8RLNQQ9MQJ412D7LFJ,A2FHJCRBRP7VH4,30OITAWPBQP2Z1DQ5HPUZCTXABIH90,,,null,,,,,,,,
753.299999952316,,image-keyboard-response,247,428957,0.0-247.0,3P529IW9KZ7F8RLNQQ9MQJ412D7LFJ,A2FHJCRBRP7VH4,30OITAWPBQP2Z1DQ5HPUZCTXABIH90,,img/set1/S1.jpg,83,1,structured_incentive,83,"structured_incentive,structured_normal,random","2,3,1,2",TRUE,,
null,,html-keyboard-response,248,429322,0.0-248.0,3P529IW9KZ7F8RLNQQ9MQJ412D7LFJ,A2FHJCRBRP7VH4,30OITAWPBQP2Z1DQ5HPUZCTXABIH90,,"<img src=""img/set1/S1.jpg"" width=""540"" height = ""360"" style=""border:16px solid orange"">",null,,,,,,,,
null,,html-keyboard-response,249,429525,0.0-249.0,3P529IW9KZ7F8RLNQQ9MQJ412D7LFJ,A2FHJCRBRP7VH4,30OITAWPBQP2Z1DQ5HPUZCTXABIH90,,,null,,,,,,,,
800,,image-keyboard-response,250,430327,0.0-250.0,3P529IW9KZ7F8RLNQQ9MQJ412D7LFJ,A2FHJCRBRP7VH4,30OITAWPBQP2Z1DQ5HPUZCTXABIH90,,img/set1/S2.jpg,72,2,structured_incentive,68,"structured_incentive,structured_normal,random","2,3,1,2",FALSE,,
null,,html-keyboard-response,251,430678,0.0-251.0,3P529IW9KZ7F8RLNQQ9MQJ412D7LFJ,A2FHJCRBRP7VH4,30OITAWPBQP2Z1DQ5HPUZCTXABIH90,,"<img src=""img/set1/S2.jpg"" width=""540"" height = ""360"">",null,,,,,,,,
null,,html-keyboard-response,252,430881,0.0-252.0,3P529IW9KZ7F8RLNQQ9MQJ412D7LFJ,A2FHJCRBRP7VH4,30OITAWPBQP2Z1DQ5HPUZCTXABIH90,,,null,,,,,,,,
491.599999904633,,image-keyboard-response,253,431374,0.0-253.0,3P529IW9KZ7F8RLNQQ9MQJ412D7LFJ,A2FHJCRBRP7VH4,30OITAWPBQP2Z1DQ5HPUZCTXABIH90,,img/set1/S3.jpg,72,3,structured_incentive,72,"structured_incentive,structured_normal,random","2,3,1,2",TRUE,,
null,,html-keyboard-response,254,431726,0.0-254.0,3P529IW9KZ7F8RLNQQ9MQJ412D7LFJ,A2FHJCRBRP7VH4,30OITAWPBQP2Z1DQ5HPUZCTXABIH90,,"<img src=""img/set1/S3.jpg"" width=""540"" height = ""360"" style=""border:16px solid orange"">",null,,,,,,,,
null,,html-keyboard-response,255,431928,0.0-255.0,3P529IW9KZ7F8RLNQQ9MQJ412D7LFJ,A2FHJCRBRP7VH4,30OITAWPBQP2Z1DQ5HPUZCTXABIH90,,,null,,,,,,,,
654.5,,image-keyboard-response,256,432584,0.0-256.0,3P529IW9KZ7F8RLNQQ9MQJ412D7LFJ,A2FHJCRBRP7VH4,30OITAWPBQP2Z1DQ5HPUZCTXABIH90,,img/set1/S4.jpg,74,4,structured_incentive,74,"structured_incentive,structured_normal,random","2,3,1,2",TRUE,,
null,,html-keyboard-response,257,432937,0.0-257.0,3P529IW9KZ7F8RLNQQ9MQJ412D7LFJ,A2FHJCRBRP7VH4,30OITAWPBQP2Z1DQ5HPUZCTXABIH90,,"<img src=""img/set1/S4.jpg"" width=""540"" height = ""360"" style=""border:16px solid Violet"">",null,,,,,,,,
null,,html-keyboard-response,258,433139,0.0-258.0,3P529IW9KZ7F8RLNQQ9MQJ412D7LFJ,A2FHJCRBRP7VH4,30OITAWPBQP2Z1DQ5HPUZCTXABIH90,,,null,,,,,,,,
597,,image-keyboard-response,259,433738,0.0-259.0,3P529IW9KZ7F8RLNQQ9MQJ412D7LFJ,A2FHJCRBRP7VH4,30OITAWPBQP2Z1DQ5HPUZCTXABIH90,,img/set1/S1.jpg,83,1,structured_incentive,83,"structured_incentive,structured_normal,random","2,3,1,2",TRUE,,
null,,html-keyboard-response,260,434091,0.0-260.0,3P529IW9KZ7F8RLNQQ9MQJ412D7LFJ,A2FHJCRBRP7VH4,30OITAWPBQP2Z1DQ5HPUZCTXABIH90,,"<img src=""img/set1/S1.jpg"" width=""540"" height = ""360"" style=""border:16px solid orange"">",null,,,,,,,,
null,,html-keyboard-response,261,434292,0.0-261.0,3P529IW9KZ7F8RLNQQ9MQJ412D7LFJ,A2FHJCRBRP7VH4,30OITAWPBQP2Z1DQ5HPUZCTXABIH90,,,null,,,,,,,,
541.899999856949,,image-keyboard-response,262,434836,0.0-262.0,3P529IW9KZ7F8RLNQQ9MQJ412D7LFJ,A2FHJCRBRP7VH4,30OITAWPBQP2Z1DQ5HPUZCTXABIH90,,img/set1/S2.jpg,68,2,structured_incentive,68,"structured_incentive,structured_normal,random","2,3,1,2",TRUE,,
null,,html-keyboard-response,263,435189,0.0-263.0,3P529IW9KZ7F8RLNQQ9MQJ412D7LFJ,A2FHJCRBRP7VH4,30OITAWPBQP2Z1DQ5HPUZCTXABIH90,,"<img src=""img/set1/S2.jpg"" width=""540"" height = ""360"" style=""border:16px solid orange"">",null,,,,,,,,
null,,html-keyboard-response,264,435391,0.0-264.0,3P529IW9KZ7F8RLNQQ9MQJ412D7LFJ,A2FHJCRBRP7VH4,30OITAWPBQP2Z1DQ5HPUZCTXABIH90,,,null,,,,,,,,
636.900000095367,,image-keyboard-response,265,436029,0.0-265.0,3P529IW9KZ7F8RLNQQ9MQJ412D7LFJ,A2FHJCRBRP7VH4,30OITAWPBQP2Z1DQ5HPUZCTXABIH90,,img/set1/S4.jpg,74,4,structured_incentive,74,"structured_incentive,structured_normal,random","2,3,1,2",TRUE,,
null,,html-keyboard-response,266,436381,0.0-266.0,3P529IW9KZ7F8RLNQQ9MQJ412D7LFJ,A2FHJCRBRP7VH4,30OITAWPBQP2Z1DQ5HPUZCTXABIH90,,"<img src=""img/set1/S4.jpg"" width=""540"" height = ""360"" style=""border:16px solid Violet"">",null,,,,,,,,
null,,html-keyboard-response,267,436598,0.0-267.0,3P529IW9KZ7F8RLNQQ9MQJ412D7LFJ,A2FHJCRBRP7VH4,30OITAWPBQP2Z1DQ5HPUZCTXABIH90,,,null,,,,,,,,
938.399999856949,,image-keyboard-response,268,437538,0.0-268.0,3P529IW9KZ7F8RLNQQ9MQJ412D7LFJ,A2FHJCRBRP7VH4,30OITAWPBQP2Z1DQ5HPUZCTXABIH90,,img/set1/S2.jpg,68,2,structured_incentive,68,"structured_incentive,structured_normal,random","2,3,1,2",TRUE,,
null,,html-keyboard-response,269,437890,0.0-269.0,3P529IW9KZ7F8RLNQQ9MQJ412D7LFJ,A2FHJCRBRP7VH4,30OITAWPBQP2Z1DQ5HPUZCTXABIH90,,"<img src=""img/set1/S2.jpg"" width=""540"" height = ""360"" style=""border:16px solid orange"">",null,,,,,,,,
null,,html-keyboard-response,270,438092,0.0-270.0,3P529IW9KZ7F8RLNQQ9MQJ412D7LFJ,A2FHJCRBRP7VH4,30OITAWPBQP2Z1DQ5HPUZCTXABIH90,,,null,,,,,,,,
666.599999904633,,image-keyboard-response,271,438760,0.0-271.0,3P529IW9KZ7F8RLNQQ9MQJ412D7LFJ,A2FHJCRBRP7VH4,30OITAWPBQP2Z1DQ5HPUZCTXABIH90,,img/set1/S4.jpg,74,4,structured_incentive,74,"structured_incentive,structured_normal,random","2,3,1,2",TRUE,,
null,,html-keyboard-response,272,439113,0.0-272.0,3P529IW9KZ7F8RLNQQ9MQJ412D7LFJ,A2FHJCRBRP7VH4,30OITAWPBQP2Z1DQ5HPUZCTXABIH90,,"<img src=""img/set1/S4.jpg"" width=""540"" height = ""360"" style=""border:16px solid Violet"">",null,,,,,,,,
null,,html-keyboard-response,273,439315,0.0-273.0,3P529IW9KZ7F8RLNQQ9MQJ412D7LFJ,A2FHJCRBRP7VH4,30OITAWPBQP2Z1DQ5HPUZCTXABIH90,,,null,,,,,,,,
813.300000190735,,image-keyboard-response,274,440130,0.0-274.0,3P529IW9KZ7F8RLNQQ9MQJ412D7LFJ,A2FHJCRBRP7VH4,30OITAWPBQP2Z1DQ5HPUZCTXABIH90,,img/set1/S2.jpg,68,2,structured_incentive,68,"structured_incentive,structured_normal,random","2,3,1,2",TRUE,,
null,,html-keyboard-response,275,440482,0.0-275.0,3P529IW9KZ7F8RLNQQ9MQJ412D7LFJ,A2FHJCRBRP7VH4,30OITAWPBQP2Z1DQ5HPUZCTXABIH90,,"<img src=""img/set1/S2.jpg"" width=""540"" height = ""360"" style=""border:16px solid orange"">",null,,,,,,,,
null,,html-keyboard-response,276,440684,0.0-276.0,3P529IW9KZ7F8RLNQQ9MQJ412D7LFJ,A2FHJCRBRP7VH4,30OITAWPBQP2Z1DQ5HPUZCTXABIH90,,,null,,,,,,,,
538.299999952316,,image-keyboard-response,277,441224,0.0-277.0,3P529IW9KZ7F8RLNQQ9MQJ412D7LFJ,A2FHJCRBRP7VH4,30OITAWPBQP2Z1DQ5HPUZCTXABIH90,,img/set1/S4.jpg,74,4,structured_incentive,74,"structured_incentive,structured_normal,random","2,3,1,2",TRUE,,
null,,html-keyboard-response,278,441577,0.0-278.0,3P529IW9KZ7F8RLNQQ9MQJ412D7LFJ,A2FHJCRBRP7VH4,30OITAWPBQP2Z1DQ5HPUZCTXABIH90,,"<img src=""img/set1/S4.jpg"" width=""540"" height = ""360"" style=""border:16px solid Violet"">",null,,,,,,,,
null,,html-keyboard-response,279,441779,0.0-279.0,3P529IW9KZ7F8RLNQQ9MQJ412D7LFJ,A2FHJCRBRP7VH4,30OITAWPBQP2Z1DQ5HPUZCTXABIH90,,,null,,,,,,,,
437.5,,image-keyboard-response,280,442218,0.0-280.0,3P529IW9KZ7F8RLNQQ9MQJ412D7LFJ,A2FHJCRBRP7VH4,30OITAWPBQP2Z1DQ5HPUZCTXABIH90,,img/set1/S4.jpg,74,4,structured_incentive,74,"structured_incentive,structured_normal,random","2,3,1,2",TRUE,,
null,,html-keyboard-response,281,442570,0.0-281.0,3P529IW9KZ7F8RLNQQ9MQJ412D7LFJ,A2FHJCRBRP7VH4,30OITAWPBQP2Z1DQ5HPUZCTXABIH90,,"<img src=""img/set1/S4.jpg"" width=""540"" height = ""360"" style=""border:16px solid Violet"">",null,,,,,,,,
null,,html-keyboard-response,282,442774,0.0-282.0,3P529IW9KZ7F8RLNQQ9MQJ412D7LFJ,A2FHJCRBRP7VH4,30OITAWPBQP2Z1DQ5HPUZCTXABIH90,,,null,,,,,,,,
468.200000047684,,image-keyboard-response,283,443244,0.0-283.0,3P529IW9KZ7F8RLNQQ9MQJ412D7LFJ,A2FHJCRBRP7VH4,30OITAWPBQP2Z1DQ5HPUZCTXABIH90,,img/set1/S4.jpg,74,4,structured_incentive,74,"structured_incentive,structured_normal,random","2,3,1,2",TRUE,,
null,,html-keyboard-response,284,443610,0.0-284.0,3P529IW9KZ7F8RLNQQ9MQJ412D7LFJ,A2FHJCRBRP7VH4,30OITAWPBQP2Z1DQ5HPUZCTXABIH90,,"<img src=""img/set1/S4.jpg"" width=""540"" height = ""360"" style=""border:16px solid Violet"">",null,,,,,,,,
null,,html-keyboard-response,285,443812,0.0-285.0,3P529IW9KZ7F8RLNQQ9MQJ412D7LFJ,A2FHJCRBRP7VH4,30OITAWPBQP2Z1DQ5HPUZCTXABIH90,,,null,,,,,,,,
403.200000047684,,image-keyboard-response,286,444217,0.0-286.0,3P529IW9KZ7F8RLNQQ9MQJ412D7LFJ,A2FHJCRBRP7VH4,30OITAWPBQP2Z1DQ5HPUZCTXABIH90,,img/set1/S4.jpg,74,4,structured_incentive,74,"structured_incentive,structured_normal,random","2,3,1,2",TRUE,,
null,,html-keyboard-response,287,444569,0.0-287.0,3P529IW9KZ7F8RLNQQ9MQJ412D7LFJ,A2FHJCRBRP7VH4,30OITAWPBQP2Z1DQ5HPUZCTXABIH90,,"<img src=""img/set1/S4.jpg"" width=""540"" height = ""360"" style=""border:16px solid Violet"">",null,,,,,,,,
null,,html-keyboard-response,288,444771,0.0-288.0,3P529IW9KZ7F8RLNQQ9MQJ412D7LFJ,A2FHJCRBRP7VH4,30OITAWPBQP2Z1DQ5HPUZCTXABIH90,,,null,,,,,,,,
531.099999904633,,image-keyboard-response,289,445304,0.0-289.0,3P529IW9KZ7F8RLNQQ9MQJ412D7LFJ,A2FHJCRBRP7VH4,30OITAWPBQP2Z1DQ5HPUZCTXABIH90,,img/set1/S1.jpg,83,1,structured_incentive,83,"structured_incentive,structured_normal,random","2,3,1,2",TRUE,,
null,,html-keyboard-response,290,445656,0.0-290.0,3P529IW9KZ7F8RLNQQ9MQJ412D7LFJ,A2FHJCRBRP7VH4,30OITAWPBQP2Z1DQ5HPUZCTXABIH90,,"<img src=""img/set1/S1.jpg"" width=""540"" height = ""360"" style=""border:16px solid orange"">",null,,,,,,,,
null,,html-keyboard-response,291,445863,0.0-291.0,3P529IW9KZ7F8RLNQQ9MQJ412D7LFJ,A2FHJCRBRP7VH4,30OITAWPBQP2Z1DQ5HPUZCTXABIH90,,,null,,,,,,,,
501.399999856949,,image-keyboard-response,292,446366,0.0-292.0,3P529IW9KZ7F8RLNQQ9MQJ412D7LFJ,A2FHJCRBRP7VH4,30OITAWPBQP2Z1DQ5HPUZCTXABIH90,,img/set1/S4.jpg,74,4,structured_incentive,74,"structured_incentive,structured_normal,random","2,3,1,2",TRUE,,
null,,html-keyboard-response,293,446720,0.0-293.0,3P529IW9KZ7F8RLNQQ9MQJ412D7LFJ,A2FHJCRBRP7VH4,30OITAWPBQP2Z1DQ5HPUZCTXABIH90,,"<img src=""img/set1/S4.jpg"" width=""540"" height = ""360"" style=""border:16px solid Violet"">",null,,,,,,,,
null,,html-keyboard-response,294,446922,0.0-294.0,3P529IW9KZ7F8RLNQQ9MQJ412D7LFJ,A2FHJCRBRP7VH4,30OITAWPBQP2Z1DQ5HPUZCTXABIH90,,,null,,,,,,,,
487.900000095367,,image-keyboard-response,295,447412,0.0-295.0,3P529IW9KZ7F8RLNQQ9MQJ412D7LFJ,A2FHJCRBRP7VH4,30OITAWPBQP2Z1DQ5HPUZCTXABIH90,,img/set1/S4.jpg,74,4,structured_incentive,74,"structured_incentive,structured_normal,random","2,3,1,2",TRUE,,
null,,html-keyboard-response,296,447764,0.0-296.0,3P529IW9KZ7F8RLNQQ9MQJ412D7LFJ,A2FHJCRBRP7VH4,30OITAWPBQP2Z1DQ5HPUZCTXABIH90,,"<img src=""img/set1/S4.jpg"" width=""540"" height = ""360"" style=""border:16px solid Violet"">",null,,,,,,,,
null,,html-keyboard-response,297,447965,0.0-297.0,3P529IW9KZ7F8RLNQQ9MQJ412D7LFJ,A2FHJCRBRP7VH4,30OITAWPBQP2Z1DQ5HPUZCTXABIH90,,,null,,,,,,,,
517.299999952316,,image-keyboard-response,298,448484,0.0-298.0,3P529IW9KZ7F8RLNQQ9MQJ412D7LFJ,A2FHJCRBRP7VH4,30OITAWPBQP2Z1DQ5HPUZCTXABIH90,,img/set1/S4.jpg,74,4,structured_incentive,74,"structured_incentive,structured_normal,random","2,3,1,2",TRUE,,
null,,html-keyboard-response,299,448836,0.0-299.0,3P529IW9KZ7F8RLNQQ9MQJ412D7LFJ,A2FHJCRBRP7VH4,30OITAWPBQP2Z1DQ5HPUZCTXABIH90,,"<img src=""img/set1/S4.jpg"" width=""540"" height = ""360"" style=""border:16px solid Violet"">",null,,,,,,,,
null,,html-keyboard-response,300,449037,0.0-300.0,3P529IW9KZ7F8RLNQQ9MQJ412D7LFJ,A2FHJCRBRP7VH4,30OITAWPBQP2Z1DQ5HPUZCTXABIH90,,,null,,,,,,,,
451.5,,image-keyboard-response,301,449490,0.0-301.0,3P529IW9KZ7F8RLNQQ9MQJ412D7LFJ,A2FHJCRBRP7VH4,30OITAWPBQP2Z1DQ5HPUZCTXABIH90,,img/set1/S4.jpg,74,4,structured_incentive,74,"structured_incentive,structured_normal,random","2,3,1,2",TRUE,,
null,,html-keyboard-response,302,449842,0.0-302.0,3P529IW9KZ7F8RLNQQ9MQJ412D7LFJ,A2FHJCRBRP7VH4,30OITAWPBQP2Z1DQ5HPUZCTXABIH90,,"<img src=""img/set1/S4.jpg"" width=""540"" height = ""360"" style=""border:16px solid Violet"">",null,,,,,,,,
null,,html-keyboard-response,303,450044,0.0-303.0,3P529IW9KZ7F8RLNQQ9MQJ412D7LFJ,A2FHJCRBRP7VH4,30OITAWPBQP2Z1DQ5HPUZCTXABIH90,,,null,,,,,,,,
644.899999856949,,image-keyboard-response,304,450691,0.0-304.0,3P529IW9KZ7F8RLNQQ9MQJ412D7LFJ,A2FHJCRBRP7VH4,30OITAWPBQP2Z1DQ5HPUZCTXABIH90,,img/set1/S1.jpg,83,1,structured_incentive,83,"structured_incentive,structured_normal,random","2,3,1,2",TRUE,,
null,,html-keyboard-response,305,451043,0.0-305.0,3P529IW9KZ7F8RLNQQ9MQJ412D7LFJ,A2FHJCRBRP7VH4,30OITAWPBQP2Z1DQ5HPUZCTXABIH90,,"<img src=""img/set1/S1.jpg"" width=""540"" height = ""360"" style=""border:16px solid orange"">",null,,,,,,,,
null,,html-keyboard-response,306,451245,0.0-306.0,3P529IW9KZ7F8RLNQQ9MQJ412D7LFJ,A2FHJCRBRP7VH4,30OITAWPBQP2Z1DQ5HPUZCTXABIH90,,,null,,,,,,,,
519.700000047684,,image-keyboard-response,307,451766,0.0-307.0,3P529IW9KZ7F8RLNQQ9MQJ412D7LFJ,A2FHJCRBRP7VH4,30OITAWPBQP2Z1DQ5HPUZCTXABIH90,,img/set1/S4.jpg,74,4,structured_incentive,74,"structured_incentive,structured_normal,random","2,3,1,2",TRUE,,
null,,html-keyboard-response,308,452119,0.0-308.0,3P529IW9KZ7F8RLNQQ9MQJ412D7LFJ,A2FHJCRBRP7VH4,30OITAWPBQP2Z1DQ5HPUZCTXABIH90,,"<img src=""img/set1/S4.jpg"" width=""540"" height = ""360"" style=""border:16px solid Violet"">",null,,,,,,,,
null,,html-keyboard-response,309,452322,0.0-309.0,3P529IW9KZ7F8RLNQQ9MQJ412D7LFJ,A2FHJCRBRP7VH4,30OITAWPBQP2Z1DQ5HPUZCTXABIH90,,,null,,,,,,,,
718,,image-keyboard-response,310,453041,0.0-310.0,3P529IW9KZ7F8RLNQQ9MQJ412D7LFJ,A2FHJCRBRP7VH4,30OITAWPBQP2Z1DQ5HPUZCTXABIH90,,img/set1/S2.jpg,68,2,structured_incentive,68,"structured_incentive,structured_normal,random","2,3,1,2",TRUE,,
null,,html-keyboard-response,311,453394,0.0-311.0,3P529IW9KZ7F8RLNQQ9MQJ412D7LFJ,A2FHJCRBRP7VH4,30OITAWPBQP2Z1DQ5HPUZCTXABIH90,,"<img src=""img/set1/S2.jpg"" width=""540"" height = ""360"" style=""border:16px solid orange"">",null,,,,,,,,
null,,html-keyboard-response,312,453595,0.0-312.0,3P529IW9KZ7F8RLNQQ9MQJ412D7LFJ,A2FHJCRBRP7VH4,30OITAWPBQP2Z1DQ5HPUZCTXABIH90,,,null,,,,,,,,
421.5,,image-keyboard-response,313,454018,0.0-313.0,3P529IW9KZ7F8RLNQQ9MQJ412D7LFJ,A2FHJCRBRP7VH4,30OITAWPBQP2Z1DQ5HPUZCTXABIH90,,img/set1/S3.jpg,72,3,structured_incentive,72,"structured_incentive,structured_normal,random","2,3,1,2",TRUE,,
null,,html-keyboard-response,314,454370,0.0-314.0,3P529IW9KZ7F8RLNQQ9MQJ412D7LFJ,A2FHJCRBRP7VH4,30OITAWPBQP2Z1DQ5HPUZCTXABIH90,,"<img src=""img/set1/S3.jpg"" width=""540"" height = ""360"" style=""border:16px solid orange"">",null,,,,,,,,
null,,html-keyboard-response,315,454572,0.0-315.0,3P529IW9KZ7F8RLNQQ9MQJ412D7LFJ,A2FHJCRBRP7VH4,30OITAWPBQP2Z1DQ5HPUZCTXABIH90,,,null,,,,,,,,
471.799999952316,,image-keyboard-response,316,455045,0.0-316.0,3P529IW9KZ7F8RLNQQ9MQJ412D7LFJ,A2FHJCRBRP7VH4,30OITAWPBQP2Z1DQ5HPUZCTXABIH90,,img/set1/S4.jpg,74,4,structured_incentive,74,"structured_incentive,structured_normal,random","2,3,1,2",TRUE,,
null,,html-keyboard-response,317,455397,0.0-317.0,3P529IW9KZ7F8RLNQQ9MQJ412D7LFJ,A2FHJCRBRP7VH4,30OITAWPBQP2Z1DQ5HPUZCTXABIH90,,"<img src=""img/set1/S4.jpg"" width=""540"" height = ""360"" style=""border:16px solid Violet"">",null,,,,,,,,
null,,html-keyboard-response,318,455598,0.0-318.0,3P529IW9KZ7F8RLNQQ9MQJ412D7LFJ,A2FHJCRBRP7VH4,30OITAWPBQP2Z1DQ5HPUZCTXABIH90,,,null,,,,,,,,
604.300000190735,,image-keyboard-response,319,456206,0.0-319.0,3P529IW9KZ7F8RLNQQ9MQJ412D7LFJ,A2FHJCRBRP7VH4,30OITAWPBQP2Z1DQ5HPUZCTXABIH90,,img/set1/S2.jpg,68,2,structured_incentive,68,"structured_incentive,structured_normal,random","2,3,1,2",TRUE,,
null,,html-keyboard-response,320,456560,0.0-320.0,3P529IW9KZ7F8RLNQQ9MQJ412D7LFJ,A2FHJCRBRP7VH4,30OITAWPBQP2Z1DQ5HPUZCTXABIH90,,"<img src=""img/set1/S2.jpg"" width=""540"" height = ""360"" style=""border:16px solid orange"">",null,,,,,,,,
null,,html-keyboard-response,321,456761,0.0-321.0,3P529IW9KZ7F8RLNQQ9MQJ412D7LFJ,A2FHJCRBRP7VH4,30OITAWPBQP2Z1DQ5HPUZCTXABIH90,,,null,,,,,,,,
617.600000143051,,image-keyboard-response,322,457380,0.0-322.0,3P529IW9KZ7F8RLNQQ9MQJ412D7LFJ,A2FHJCRBRP7VH4,30OITAWPBQP2Z1DQ5HPUZCTXABIH90,,img/set1/S3.jpg,72,3,structured_incentive,72,"structured_incentive,structured_normal,random","2,3,1,2",TRUE,,
null,,html-keyboard-response,323,457733,0.0-323.0,3P529IW9KZ7F8RLNQQ9MQJ412D7LFJ,A2FHJCRBRP7VH4,30OITAWPBQP2Z1DQ5HPUZCTXABIH90,,"<img src=""img/set1/S3.jpg"" width=""540"" height = ""360"" style=""border:16px solid orange"">",null,,,,,,,,
null,,html-keyboard-response,324,457935,0.0-324.0,3P529IW9KZ7F8RLNQQ9MQJ412D7LFJ,A2FHJCRBRP7VH4,30OITAWPBQP2Z1DQ5HPUZCTXABIH90,,,null,,,,,,,,
831.799999952316,,image-keyboard-response,325,458768,0.0-325.0,3P529IW9KZ7F8RLNQQ9MQJ412D7LFJ,A2FHJCRBRP7VH4,30OITAWPBQP2Z1DQ5HPUZCTXABIH90,,img/set1/S1.jpg,83,1,structured_incentive,83,"structured_incentive,structured_normal,random","2,3,1,2",TRUE,,
null,,html-keyboard-response,326,459121,0.0-326.0,3P529IW9KZ7F8RLNQQ9MQJ412D7LFJ,A2FHJCRBRP7VH4,30OITAWPBQP2Z1DQ5HPUZCTXABIH90,,"<img src=""img/set1/S1.jpg"" width=""540"" height = ""360"" style=""border:16px solid orange"">",null,,,,,,,,
null,,html-keyboard-response,327,459323,0.0-327.0,3P529IW9KZ7F8RLNQQ9MQJ412D7LFJ,A2FHJCRBRP7VH4,30OITAWPBQP2Z1DQ5HPUZCTXABIH90,,,null,,,,,,,,
659.299999952316,,image-keyboard-response,328,459985,0.0-328.0,3P529IW9KZ7F8RLNQQ9MQJ412D7LFJ,A2FHJCRBRP7VH4,30OITAWPBQP2Z1DQ5HPUZCTXABIH90,,img/set1/S1.jpg,83,1,structured_incentive,83,"structured_incentive,structured_normal,random","2,3,1,2",TRUE,,
null,,html-keyboard-response,329,460338,0.0-329.0,3P529IW9KZ7F8RLNQQ9MQJ412D7LFJ,A2FHJCRBRP7VH4,30OITAWPBQP2Z1DQ5HPUZCTXABIH90,,"<img src=""img/set1/S1.jpg"" width=""540"" height = ""360"" style=""border:16px solid orange"">",null,,,,,,,,
null,,html-keyboard-response,330,460540,0.0-330.0,3P529IW9KZ7F8RLNQQ9MQJ412D7LFJ,A2FHJCRBRP7VH4,30OITAWPBQP2Z1DQ5HPUZCTXABIH90,,,null,,,,,,,,
476.299999952316,,image-keyboard-response,331,461019,0.0-331.0,3P529IW9KZ7F8RLNQQ9MQJ412D7LFJ,A2FHJCRBRP7VH4,30OITAWPBQP2Z1DQ5HPUZCTXABIH90,,img/set1/S1.jpg,83,1,structured_incentive,83,"structured_incentive,structured_normal,random","2,3,1,2",TRUE,,
null,,html-keyboard-response,332,461371,0.0-332.0,3P529IW9KZ7F8RLNQQ9MQJ412D7LFJ,A2FHJCRBRP7VH4,30OITAWPBQP2Z1DQ5HPUZCTXABIH90,,"<img src=""img/set1/S1.jpg"" width=""540"" height = ""360"" style=""border:16px solid orange"">",null,,,,,,,,
null,,html-keyboard-response,333,461574,0.0-333.0,3P529IW9KZ7F8RLNQQ9MQJ412D7LFJ,A2FHJCRBRP7VH4,30OITAWPBQP2Z1DQ5HPUZCTXABIH90,,,null,,,,,,,,
479.099999904633,,image-keyboard-response,334,462054,0.0-334.0,3P529IW9KZ7F8RLNQQ9MQJ412D7LFJ,A2FHJCRBRP7VH4,30OITAWPBQP2Z1DQ5HPUZCTXABIH90,,img/set1/S1.jpg,83,1,structured_incentive,83,"structured_incentive,structured_normal,random","2,3,1,2",TRUE,,
null,,html-keyboard-response,335,462407,0.0-335.0,3P529IW9KZ7F8RLNQQ9MQJ412D7LFJ,A2FHJCRBRP7VH4,30OITAWPBQP2Z1DQ5HPUZCTXABIH90,,"<img src=""img/set1/S1.jpg"" width=""540"" height = ""360"" style=""border:16px solid orange"">",null,,,,,,,,
null,,html-keyboard-response,336,462608,0.0-336.0,3P529IW9KZ7F8RLNQQ9MQJ412D7LFJ,A2FHJCRBRP7VH4,30OITAWPBQP2Z1DQ5HPUZCTXABIH90,,,null,,,,,,,,
944.299999952316,,image-keyboard-response,337,463554,0.0-337.0,3P529IW9KZ7F8RLNQQ9MQJ412D7LFJ,A2FHJCRBRP7VH4,30OITAWPBQP2Z1DQ5HPUZCTXABIH90,,img/set1/S2.jpg,68,2,structured_incentive,68,"structured_incentive,structured_normal,random","2,3,1,2",TRUE,,
null,,html-keyboard-response,338,463907,0.0-338.0,3P529IW9KZ7F8RLNQQ9MQJ412D7LFJ,A2FHJCRBRP7VH4,30OITAWPBQP2Z1DQ5HPUZCTXABIH90,,"<img src=""img/set1/S2.jpg"" width=""540"" height = ""360"" style=""border:16px solid orange"">",null,,,,,,,,
null,,html-keyboard-response,339,464109,0.0-339.0,3P529IW9KZ7F8RLNQQ9MQJ412D7LFJ,A2FHJCRBRP7VH4,30OITAWPBQP2Z1DQ5HPUZCTXABIH90,,,null,,,,,,,,
801.700000047684,,image-keyboard-response,340,464912,0.0-340.0,3P529IW9KZ7F8RLNQQ9MQJ412D7LFJ,A2FHJCRBRP7VH4,30OITAWPBQP2Z1DQ5HPUZCTXABIH90,,img/set1/S3.jpg,72,3,structured_incentive,72,"structured_incentive,structured_normal,random","2,3,1,2",TRUE,,
null,,html-keyboard-response,341,465275,0.0-341.0,3P529IW9KZ7F8RLNQQ9MQJ412D7LFJ,A2FHJCRBRP7VH4,30OITAWPBQP2Z1DQ5HPUZCTXABIH90,,"<img src=""img/set1/S3.jpg"" width=""540"" height = ""360"" style=""border:16px solid orange"">",null,,,,,,,,
null,,html-keyboard-response,342,465478,0.0-342.0,3P529IW9KZ7F8RLNQQ9MQJ412D7LFJ,A2FHJCRBRP7VH4,30OITAWPBQP2Z1DQ5HPUZCTXABIH90,,,null,,,,,,,,
408.099999904633,,image-keyboard-response,343,465888,0.0-343.0,3P529IW9KZ7F8RLNQQ9MQJ412D7LFJ,A2FHJCRBRP7VH4,30OITAWPBQP2Z1DQ5HPUZCTXABIH90,,img/set1/S4.jpg,74,4,structured_incentive,74,"structured_incentive,structured_normal,random","2,3,1,2",TRUE,,
null,,html-keyboard-response,344,466242,0.0-344.0,3P529IW9KZ7F8RLNQQ9MQJ412D7LFJ,A2FHJCRBRP7VH4,30OITAWPBQP2Z1DQ5HPUZCTXABIH90,,"<img src=""img/set1/S4.jpg"" width=""540"" height = ""360"" style=""border:16px solid Violet"">",null,,,,,,,,
null,,html-keyboard-response,345,466445,0.0-345.0,3P529IW9KZ7F8RLNQQ9MQJ412D7LFJ,A2FHJCRBRP7VH4,30OITAWPBQP2Z1DQ5HPUZCTXABIH90,,,null,,,,,,,,
679.200000047684,,image-keyboard-response,346,467126,0.0-346.0,3P529IW9KZ7F8RLNQQ9MQJ412D7LFJ,A2FHJCRBRP7VH4,30OITAWPBQP2Z1DQ5HPUZCTXABIH90,,img/set1/S2.jpg,68,2,structured_incentive,68,"structured_incentive,structured_normal,random","2,3,1,2",TRUE,,
null,,html-keyboard-response,347,467486,0.0-347.0,3P529IW9KZ7F8RLNQQ9MQJ412D7LFJ,A2FHJCRBRP7VH4,30OITAWPBQP2Z1DQ5HPUZCTXABIH90,,"<img src=""img/set1/S2.jpg"" width=""540"" height = ""360"" style=""border:16px solid orange"">",null,,,,,,,,
null,,html-keyboard-response,348,467688,0.0-348.0,3P529IW9KZ7F8RLNQQ9MQJ412D7LFJ,A2FHJCRBRP7VH4,30OITAWPBQP2Z1DQ5HPUZCTXABIH90,,,null,,,,,,,,
694,,image-keyboard-response,349,468383,0.0-349.0,3P529IW9KZ7F8RLNQQ9MQJ412D7LFJ,A2FHJCRBRP7VH4,30OITAWPBQP2Z1DQ5HPUZCTXABIH90,,img/set1/S3.jpg,72,3,structured_incentive,72,"structured_incentive,structured_normal,random","2,3,1,2",TRUE,,
null,,html-keyboard-response,350,468736,0.0-350.0,3P529IW9KZ7F8RLNQQ9MQJ412D7LFJ,A2FHJCRBRP7VH4,30OITAWPBQP2Z1DQ5HPUZCTXABIH90,,"<img src=""img/set1/S3.jpg"" width=""540"" height = ""360"" style=""border:16px solid orange"">",null,,,,,,,,
null,,html-keyboard-response,351,468939,0.0-351.0,3P529IW9KZ7F8RLNQQ9MQJ412D7LFJ,A2FHJCRBRP7VH4,30OITAWPBQP2Z1DQ5HPUZCTXABIH90,,,null,,,,,,,,
579.399999856949,,image-keyboard-response,352,469520,0.0-352.0,3P529IW9KZ7F8RLNQQ9MQJ412D7LFJ,A2FHJCRBRP7VH4,30OITAWPBQP2Z1DQ5HPUZCTXABIH90,,img/set1/S4.jpg,74,4,structured_incentive,74,"structured_incentive,structured_normal,random","2,3,1,2",TRUE,,
null,,html-keyboard-response,353,469873,0.0-353.0,3P529IW9KZ7F8RLNQQ9MQJ412D7LFJ,A2FHJCRBRP7VH4,30OITAWPBQP2Z1DQ5HPUZCTXABIH90,,"<img src=""img/set1/S4.jpg"" width=""540"" height = ""360"" style=""border:16px solid Violet"">",null,,,,,,,,
null,,html-keyboard-response,354,470075,0.0-354.0,3P529IW9KZ7F8RLNQQ9MQJ412D7LFJ,A2FHJCRBRP7VH4,30OITAWPBQP2Z1DQ5HPUZCTXABIH90,,,null,,,,,,,,
620,,image-keyboard-response,355,470697,0.0-355.0,3P529IW9KZ7F8RLNQQ9MQJ412D7LFJ,A2FHJCRBRP7VH4,30OITAWPBQP2Z1DQ5HPUZCTXABIH90,,img/set1/S4.jpg,74,4,structured_incentive,74,"structured_incentive,structured_normal,random","2,3,1,2",TRUE,,
null,,html-keyboard-response,356,471050,0.0-356.0,3P529IW9KZ7F8RLNQQ9MQJ412D7LFJ,A2FHJCRBRP7VH4,30OITAWPBQP2Z1DQ5HPUZCTXABIH90,,"<img src=""img/set1/S4.jpg"" width=""540"" height = ""360"" style=""border:16px solid Violet"">",null,,,,,,,,
null,,html-keyboard-response,357,471252,0.0-357.0,3P529IW9KZ7F8RLNQQ9MQJ412D7LFJ,A2FHJCRBRP7VH4,30OITAWPBQP2Z1DQ5HPUZCTXABIH90,,,null,,,,,,,,
974.5,,image-keyboard-response,358,472228,0.0-358.0,3P529IW9KZ7F8RLNQQ9MQJ412D7LFJ,A2FHJCRBRP7VH4,30OITAWPBQP2Z1DQ5HPUZCTXABIH90,,img/set1/S1.jpg,83,1,structured_incentive,83,"structured_incentive,structured_normal,random","2,3,1,2",TRUE,,
null,,html-keyboard-response,359,472588,0.0-359.0,3P529IW9KZ7F8RLNQQ9MQJ412D7LFJ,A2FHJCRBRP7VH4,30OITAWPBQP2Z1DQ5HPUZCTXABIH90,,"<img src=""img/set1/S1.jpg"" width=""540"" height = ""360"" style=""border:16px solid orange"">",null,,,,,,,,
null,,html-keyboard-response,360,472791,0.0-360.0,3P529IW9KZ7F8RLNQQ9MQJ412D7LFJ,A2FHJCRBRP7VH4,30OITAWPBQP2Z1DQ5HPUZCTXABIH90,,,null,,,,,,,,
971.5,,image-keyboard-response,361,473764,0.0-361.0,3P529IW9KZ7F8RLNQQ9MQJ412D7LFJ,A2FHJCRBRP7VH4,30OITAWPBQP2Z1DQ5HPUZCTXABIH90,,img/set1/S2.jpg,68,2,structured_incentive,68,"structured_incentive,structured_normal,random","2,3,1,2",TRUE,,
null,,html-keyboard-response,362,474116,0.0-362.0,3P529IW9KZ7F8RLNQQ9MQJ412D7LFJ,A2FHJCRBRP7VH4,30OITAWPBQP2Z1DQ5HPUZCTXABIH90,,"<img src=""img/set1/S2.jpg"" width=""540"" height = ""360"" style=""border:16px solid orange"">",null,,,,,,,,
null,,html-keyboard-response,363,474319,0.0-363.0,3P529IW9KZ7F8RLNQQ9MQJ412D7LFJ,A2FHJCRBRP7VH4,30OITAWPBQP2Z1DQ5HPUZCTXABIH90,,,null,,,,,,,,
978.400000095367,,image-keyboard-response,364,475299,0.0-364.0,3P529IW9KZ7F8RLNQQ9MQJ412D7LFJ,A2FHJCRBRP7VH4,30OITAWPBQP2Z1DQ5HPUZCTXABIH90,,img/set1/S4.jpg,74,4,structured_incentive,74,"structured_incentive,structured_normal,random","2,3,1,2",TRUE,,
null,,html-keyboard-response,365,475651,0.0-365.0,3P529IW9KZ7F8RLNQQ9MQJ412D7LFJ,A2FHJCRBRP7VH4,30OITAWPBQP2Z1DQ5HPUZCTXABIH90,,"<img src=""img/set1/S4.jpg"" width=""540"" height = ""360"" style=""border:16px solid Violet"">",null,,,,,,,,
null,,html-keyboard-response,366,475854,0.0-366.0,3P529IW9KZ7F8RLNQQ9MQJ412D7LFJ,A2FHJCRBRP7VH4,30OITAWPBQP2Z1DQ5HPUZCTXABIH90,,,null,,,,,,,,
627.400000095367,,image-keyboard-response,367,476483,0.0-367.0,3P529IW9KZ7F8RLNQQ9MQJ412D7LFJ,A2FHJCRBRP7VH4,30OITAWPBQP2Z1DQ5HPUZCTXABIH90,,img/set1/S1.jpg,83,1,structured_incentive,83,"structured_incentive,structured_normal,random","2,3,1,2",TRUE,,
null,,html-keyboard-response,368,476836,0.0-368.0,3P529IW9KZ7F8RLNQQ9MQJ412D7LFJ,A2FHJCRBRP7VH4,30OITAWPBQP2Z1DQ5HPUZCTXABIH90,,"<img src=""img/set1/S1.jpg"" width=""540"" height = ""360"" style=""border:16px solid orange"">",null,,,,,,,,
null,,html-keyboard-response,369,477038,0.0-369.0,3P529IW9KZ7F8RLNQQ9MQJ412D7LFJ,A2FHJCRBRP7VH4,30OITAWPBQP2Z1DQ5HPUZCTXABIH90,,,null,,,,,,,,
1262.29999995232,,image-keyboard-response,370,478302,0.0-370.0,3P529IW9KZ7F8RLNQQ9MQJ412D7LFJ,A2FHJCRBRP7VH4,30OITAWPBQP2Z1DQ5HPUZCTXABIH90,,img/set1/S4.jpg,72,4,structured_incentive,74,"structured_incentive,structured_normal,random","2,3,1,2",FALSE,,
null,,html-keyboard-response,371,478654,0.0-371.0,3P529IW9KZ7F8RLNQQ9MQJ412D7LFJ,A2FHJCRBRP7VH4,30OITAWPBQP2Z1DQ5HPUZCTXABIH90,,"<img src=""img/set1/S4.jpg"" width=""540"" height = ""360"">",null,,,,,,,,
null,,html-keyboard-response,372,478857,0.0-372.0,3P529IW9KZ7F8RLNQQ9MQJ412D7LFJ,A2FHJCRBRP7VH4,30OITAWPBQP2Z1DQ5HPUZCTXABIH90,,,null,,,,,,,,
656.099999904633,,image-keyboard-response,373,479515,0.0-373.0,3P529IW9KZ7F8RLNQQ9MQJ412D7LFJ,A2FHJCRBRP7VH4,30OITAWPBQP2Z1DQ5HPUZCTXABIH90,,img/set1/S2.jpg,68,2,structured_incentive,68,"structured_incentive,structured_normal,random","2,3,1,2",TRUE,,
null,,html-keyboard-response,374,479867,0.0-374.0,3P529IW9KZ7F8RLNQQ9MQJ412D7LFJ,A2FHJCRBRP7VH4,30OITAWPBQP2Z1DQ5HPUZCTXABIH90,,"<img src=""img/set1/S2.jpg"" width=""540"" height = ""360"" style=""border:16px solid orange"">",null,,,,,,,,
null,,html-keyboard-response,375,480068,0.0-375.0,3P529IW9KZ7F8RLNQQ9MQJ412D7LFJ,A2FHJCRBRP7VH4,30OITAWPBQP2Z1DQ5HPUZCTXABIH90,,,null,,,,,,,,
646.600000143051,,image-keyboard-response,376,480716,0.0-376.0,3P529IW9KZ7F8RLNQQ9MQJ412D7LFJ,A2FHJCRBRP7VH4,30OITAWPBQP2Z1DQ5HPUZCTXABIH90,,img/set1/S4.jpg,74,4,structured_incentive,74,"structured_incentive,structured_normal,random","2,3,1,2",TRUE,,
null,,html-keyboard-response,377,481069,0.0-377.0,3P529IW9KZ7F8RLNQQ9MQJ412D7LFJ,A2FHJCRBRP7VH4,30OITAWPBQP2Z1DQ5HPUZCTXABIH90,,"<img src=""img/set1/S4.jpg"" width=""540"" height = ""360"" style=""border:16px solid Violet"">",null,,,,,,,,
null,,html-keyboard-response,378,481271,0.0-378.0,3P529IW9KZ7F8RLNQQ9MQJ412D7LFJ,A2FHJCRBRP7VH4,30OITAWPBQP2Z1DQ5HPUZCTXABIH90,,,null,,,,,,,,
745.200000047684,,image-keyboard-response,379,482018,0.0-379.0,3P529IW9KZ7F8RLNQQ9MQJ412D7LFJ,A2FHJCRBRP7VH4,30OITAWPBQP2Z1DQ5HPUZCTXABIH90,,img/set1/S2.jpg,68,2,structured_incentive,68,"structured_incentive,structured_normal,random","2,3,1,2",TRUE,,
null,,html-keyboard-response,380,482371,0.0-380.0,3P529IW9KZ7F8RLNQQ9MQJ412D7LFJ,A2FHJCRBRP7VH4,30OITAWPBQP2Z1DQ5HPUZCTXABIH90,,"<img src=""img/set1/S2.jpg"" width=""540"" height = ""360"" style=""border:16px solid orange"">",null,,,,,,,,
null,,html-keyboard-response,381,482572,0.0-381.0,3P529IW9KZ7F8RLNQQ9MQJ412D7LFJ,A2FHJCRBRP7VH4,30OITAWPBQP2Z1DQ5HPUZCTXABIH90,,,null,,,,,,,,
706.5,,image-keyboard-response,382,483280,0.0-382.0,3P529IW9KZ7F8RLNQQ9MQJ412D7LFJ,A2FHJCRBRP7VH4,30OITAWPBQP2Z1DQ5HPUZCTXABIH90,,img/set1/S3.jpg,72,3,structured_incentive,72,"structured_incentive,structured_normal,random","2,3,1,2",TRUE,,
null,,html-keyboard-response,383,483633,0.0-383.0,3P529IW9KZ7F8RLNQQ9MQJ412D7LFJ,A2FHJCRBRP7VH4,30OITAWPBQP2Z1DQ5HPUZCTXABIH90,,"<img src=""img/set1/S3.jpg"" width=""540"" height = ""360"" style=""border:16px solid orange"">",null,,,,,,,,
null,,html-keyboard-response,384,483835,0.0-384.0,3P529IW9KZ7F8RLNQQ9MQJ412D7LFJ,A2FHJCRBRP7VH4,30OITAWPBQP2Z1DQ5HPUZCTXABIH90,,,null,,,,,,,,
765.200000047684,,image-keyboard-response,385,484602,0.0-385.0,3P529IW9KZ7F8RLNQQ9MQJ412D7LFJ,A2FHJCRBRP7VH4,30OITAWPBQP2Z1DQ5HPUZCTXABIH90,,img/set1/S2.jpg,68,2,structured_incentive,68,"structured_incentive,structured_normal,random","2,3,1,2",TRUE,,
null,,html-keyboard-response,386,484955,0.0-386.0,3P529IW9KZ7F8RLNQQ9MQJ412D7LFJ,A2FHJCRBRP7VH4,30OITAWPBQP2Z1DQ5HPUZCTXABIH90,,"<img src=""img/set1/S2.jpg"" width=""540"" height = ""360"" style=""border:16px solid orange"">",null,,,,,,,,
null,,html-keyboard-response,387,485157,0.0-387.0,3P529IW9KZ7F8RLNQQ9MQJ412D7LFJ,A2FHJCRBRP7VH4,30OITAWPBQP2Z1DQ5HPUZCTXABIH90,,,null,,,,,,,,
1308.90000009537,,image-keyboard-response,388,486468,0.0-388.0,3P529IW9KZ7F8RLNQQ9MQJ412D7LFJ,A2FHJCRBRP7VH4,30OITAWPBQP2Z1DQ5HPUZCTXABIH90,,img/set1/S3.jpg,72,3,structured_incentive,72,"structured_incentive,structured_normal,random","2,3,1,2",TRUE,,
null,,html-keyboard-response,389,486821,0.0-389.0,3P529IW9KZ7F8RLNQQ9MQJ412D7LFJ,A2FHJCRBRP7VH4,30OITAWPBQP2Z1DQ5HPUZCTXABIH90,,"<img src=""img/set1/S3.jpg"" width=""540"" height = ""360"" style=""border:16px solid orange"">",null,,,,,,,,
null,,html-keyboard-response,390,487023,0.0-390.0,3P529IW9KZ7F8RLNQQ9MQJ412D7LFJ,A2FHJCRBRP7VH4,30OITAWPBQP2Z1DQ5HPUZCTXABIH90,,,null,,,,,,,,
432,,image-keyboard-response,391,487457,0.0-391.0,3P529IW9KZ7F8RLNQQ9MQJ412D7LFJ,A2FHJCRBRP7VH4,30OITAWPBQP2Z1DQ5HPUZCTXABIH90,,img/set1/S3.jpg,72,3,structured_incentive,72,"structured_incentive,structured_normal,random","2,3,1,2",TRUE,,
null,,html-keyboard-response,392,487809,0.0-392.0,3P529IW9KZ7F8RLNQQ9MQJ412D7LFJ,A2FHJCRBRP7VH4,30OITAWPBQP2Z1DQ5HPUZCTXABIH90,,"<img src=""img/set1/S3.jpg"" width=""540"" height = ""360"" style=""border:16px solid orange"">",null,,,,,,,,
null,,html-keyboard-response,393,488011,0.0-393.0,3P529IW9KZ7F8RLNQQ9MQJ412D7LFJ,A2FHJCRBRP7VH4,30OITAWPBQP2Z1DQ5HPUZCTXABIH90,,,null,,,,,,,,
815.299999952316,,image-keyboard-response,394,488828,0.0-394.0,3P529IW9KZ7F8RLNQQ9MQJ412D7LFJ,A2FHJCRBRP7VH4,30OITAWPBQP2Z1DQ5HPUZCTXABIH90,,img/set1/S2.jpg,68,2,structured_incentive,68,"structured_incentive,structured_normal,random","2,3,1,2",TRUE,,
null,,html-keyboard-response,395,489193,0.0-395.0,3P529IW9KZ7F8RLNQQ9MQJ412D7LFJ,A2FHJCRBRP7VH4,30OITAWPBQP2Z1DQ5HPUZCTXABIH90,,"<img src=""img/set1/S2.jpg"" width=""540"" height = ""360"" style=""border:16px solid orange"">",null,,,,,,,,
null,,html-keyboard-response,396,489395,0.0-396.0,3P529IW9KZ7F8RLNQQ9MQJ412D7LFJ,A2FHJCRBRP7VH4,30OITAWPBQP2Z1DQ5HPUZCTXABIH90,,,null,,,,,,,,
608.700000047684,,image-keyboard-response,397,490006,0.0-397.0,3P529IW9KZ7F8RLNQQ9MQJ412D7LFJ,A2FHJCRBRP7VH4,30OITAWPBQP2Z1DQ5HPUZCTXABIH90,,img/set1/S4.jpg,74,4,structured_incentive,74,"structured_incentive,structured_normal,random","2,3,1,2",TRUE,,
null,,html-keyboard-response,398,490358,0.0-398.0,3P529IW9KZ7F8RLNQQ9MQJ412D7LFJ,A2FHJCRBRP7VH4,30OITAWPBQP2Z1DQ5HPUZCTXABIH90,,"<img src=""img/set1/S4.jpg"" width=""540"" height = ""360"" style=""border:16px solid Violet"">",null,,,,,,,,
null,,html-keyboard-response,399,490560,0.0-399.0,3P529IW9KZ7F8RLNQQ9MQJ412D7LFJ,A2FHJCRBRP7VH4,30OITAWPBQP2Z1DQ5HPUZCTXABIH90,,,null,,,,,,,,
663.799999952316,,image-keyboard-response,400,491226,0.0-400.0,3P529IW9KZ7F8RLNQQ9MQJ412D7LFJ,A2FHJCRBRP7VH4,30OITAWPBQP2Z1DQ5HPUZCTXABIH90,,img/set1/S1.jpg,83,1,structured_incentive,83,"structured_incentive,structured_normal,random","2,3,1,2",TRUE,,
null,,html-keyboard-response,401,491578,0.0-401.0,3P529IW9KZ7F8RLNQQ9MQJ412D7LFJ,A2FHJCRBRP7VH4,30OITAWPBQP2Z1DQ5HPUZCTXABIH90,,"<img src=""img/set1/S1.jpg"" width=""540"" height = ""360"" style=""border:16px solid orange"">",null,,,,,,,,
null,,html-keyboard-response,402,491779,0.0-402.0,3P529IW9KZ7F8RLNQQ9MQJ412D7LFJ,A2FHJCRBRP7VH4,30OITAWPBQP2Z1DQ5HPUZCTXABIH90,,,null,,,,,,,,
1170,,image-keyboard-response,403,492951,0.0-403.0,3P529IW9KZ7F8RLNQQ9MQJ412D7LFJ,A2FHJCRBRP7VH4,30OITAWPBQP2Z1DQ5HPUZCTXABIH90,,img/set1/S2.jpg,68,2,structured_incentive,68,"structured_incentive,structured_normal,random","2,3,1,2",TRUE,,
null,,html-keyboard-response,404,493304,0.0-404.0,3P529IW9KZ7F8RLNQQ9MQJ412D7LFJ,A2FHJCRBRP7VH4,30OITAWPBQP2Z1DQ5HPUZCTXABIH90,,"<img src=""img/set1/S2.jpg"" width=""540"" height = ""360"" style=""border:16px solid orange"">",null,,,,,,,,
null,,html-keyboard-response,405,493506,0.0-405.0,3P529IW9KZ7F8RLNQQ9MQJ412D7LFJ,A2FHJCRBRP7VH4,30OITAWPBQP2Z1DQ5HPUZCTXABIH90,,,null,,,,,,,,
628.099999904633,,image-keyboard-response,406,494136,0.0-406.0,3P529IW9KZ7F8RLNQQ9MQJ412D7LFJ,A2FHJCRBRP7VH4,30OITAWPBQP2Z1DQ5HPUZCTXABIH90,,img/set1/S3.jpg,72,3,structured_incentive,72,"structured_incentive,structured_normal,random","2,3,1,2",TRUE,,
null,,html-keyboard-response,407,494490,0.0-407.0,3P529IW9KZ7F8RLNQQ9MQJ412D7LFJ,A2FHJCRBRP7VH4,30OITAWPBQP2Z1DQ5HPUZCTXABIH90,,"<img src=""img/set1/S3.jpg"" width=""540"" height = ""360"" style=""border:16px solid orange"">",null,,,,,,,,
null,,html-keyboard-response,408,494693,0.0-408.0,3P529IW9KZ7F8RLNQQ9MQJ412D7LFJ,A2FHJCRBRP7VH4,30OITAWPBQP2Z1DQ5HPUZCTXABIH90,,,null,,,,,,,,
671.299999952316,,image-keyboard-response,409,495365,0.0-409.0,3P529IW9KZ7F8RLNQQ9MQJ412D7LFJ,A2FHJCRBRP7VH4,30OITAWPBQP2Z1DQ5HPUZCTXABIH90,,img/set1/S1.jpg,83,1,structured_incentive,83,"structured_incentive,structured_normal,random","2,3,1,2",TRUE,,
null,,html-keyboard-response,410,495717,0.0-410.0,3P529IW9KZ7F8RLNQQ9MQJ412D7LFJ,A2FHJCRBRP7VH4,30OITAWPBQP2Z1DQ5HPUZCTXABIH90,,"<img src=""img/set1/S1.jpg"" width=""540"" height = ""360"" style=""border:16px solid orange"">",null,,,,,,,,
null,,html-keyboard-response,411,495920,0.0-411.0,3P529IW9KZ7F8RLNQQ9MQJ412D7LFJ,A2FHJCRBRP7VH4,30OITAWPBQP2Z1DQ5HPUZCTXABIH90,,,null,,,,,,,,
754.299999952316,,image-keyboard-response,412,496676,0.0-412.0,3P529IW9KZ7F8RLNQQ9MQJ412D7LFJ,A2FHJCRBRP7VH4,30OITAWPBQP2Z1DQ5HPUZCTXABIH90,,img/set1/S4.jpg,74,4,structured_incentive,74,"structured_incentive,structured_normal,random","2,3,1,2",TRUE,,
null,,html-keyboard-response,413,497029,0.0-413.0,3P529IW9KZ7F8RLNQQ9MQJ412D7LFJ,A2FHJCRBRP7VH4,30OITAWPBQP2Z1DQ5HPUZCTXABIH90,,"<img src=""img/set1/S4.jpg"" width=""540"" height = ""360"" style=""border:16px solid Violet"">",null,,,,,,,,
null,,html-keyboard-response,414,497231,0.0-414.0,3P529IW9KZ7F8RLNQQ9MQJ412D7LFJ,A2FHJCRBRP7VH4,30OITAWPBQP2Z1DQ5HPUZCTXABIH90,,,null,,,,,,,,
966.399999856949,,image-keyboard-response,415,498199,0.0-415.0,3P529IW9KZ7F8RLNQQ9MQJ412D7LFJ,A2FHJCRBRP7VH4,30OITAWPBQP2Z1DQ5HPUZCTXABIH90,,img/set1/S1.jpg,83,1,structured_incentive,83,"structured_incentive,structured_normal,random","2,3,1,2",TRUE,,
null,,html-keyboard-response,416,498553,0.0-416.0,3P529IW9KZ7F8RLNQQ9MQJ412D7LFJ,A2FHJCRBRP7VH4,30OITAWPBQP2Z1DQ5HPUZCTXABIH90,,"<img src=""img/set1/S1.jpg"" width=""540"" height = ""360"" style=""border:16px solid orange"">",null,,,,,,,,
null,,html-keyboard-response,417,498767,0.0-417.0,3P529IW9KZ7F8RLNQQ9MQJ412D7LFJ,A2FHJCRBRP7VH4,30OITAWPBQP2Z1DQ5HPUZCTXABIH90,,,null,,,,,,,,
606.700000047684,,image-keyboard-response,418,499375,0.0-418.0,3P529IW9KZ7F8RLNQQ9MQJ412D7LFJ,A2FHJCRBRP7VH4,30OITAWPBQP2Z1DQ5HPUZCTXABIH90,,img/set1/S1.jpg,83,1,structured_incentive,83,"structured_incentive,structured_normal,random","2,3,1,2",TRUE,,
null,,html-keyboard-response,419,499727,0.0-419.0,3P529IW9KZ7F8RLNQQ9MQJ412D7LFJ,A2FHJCRBRP7VH4,30OITAWPBQP2Z1DQ5HPUZCTXABIH90,,"<img src=""img/set1/S1.jpg"" width=""540"" height = ""360"" style=""border:16px solid orange"">",null,,,,,,,,
null,,html-keyboard-response,420,499929,0.0-420.0,3P529IW9KZ7F8RLNQQ9MQJ412D7LFJ,A2FHJCRBRP7VH4,30OITAWPBQP2Z1DQ5HPUZCTXABIH90,,,null,,,,,,,,
819.599999904633,,image-keyboard-response,421,500750,0.0-421.0,3P529IW9KZ7F8RLNQQ9MQJ412D7LFJ,A2FHJCRBRP7VH4,30OITAWPBQP2Z1DQ5HPUZCTXABIH90,,img/set1/S2.jpg,68,2,structured_incentive,68,"structured_incentive,structured_normal,random","2,3,1,2",TRUE,,
null,,html-keyboard-response,422,501107,0.0-422.0,3P529IW9KZ7F8RLNQQ9MQJ412D7LFJ,A2FHJCRBRP7VH4,30OITAWPBQP2Z1DQ5HPUZCTXABIH90,,"<img src=""img/set1/S2.jpg"" width=""540"" height = ""360"" style=""border:16px solid orange"">",null,,,,,,,,
null,,html-keyboard-response,423,501324,0.0-423.0,3P529IW9KZ7F8RLNQQ9MQJ412D7LFJ,A2FHJCRBRP7VH4,30OITAWPBQP2Z1DQ5HPUZCTXABIH90,,,null,,,,,,,,
1308.59999990463,,image-keyboard-response,424,502634,0.0-424.0,3P529IW9KZ7F8RLNQQ9MQJ412D7LFJ,A2FHJCRBRP7VH4,30OITAWPBQP2Z1DQ5HPUZCTXABIH90,,img/set1/S3.jpg,72,3,structured_incentive,72,"structured_incentive,structured_normal,random","2,3,1,2",TRUE,,
null,,html-keyboard-response,425,502987,0.0-425.0,3P529IW9KZ7F8RLNQQ9MQJ412D7LFJ,A2FHJCRBRP7VH4,30OITAWPBQP2Z1DQ5HPUZCTXABIH90,,"<img src=""img/set1/S3.jpg"" width=""540"" height = ""360"" style=""border:16px solid orange"">",null,,,,,,,,
null,,html-keyboard-response,426,503188,0.0-426.0,3P529IW9KZ7F8RLNQQ9MQJ412D7LFJ,A2FHJCRBRP7VH4,30OITAWPBQP2Z1DQ5HPUZCTXABIH90,,,null,,,,,,,,
945.599999904633,,image-keyboard-response,427,504136,0.0-427.0,3P529IW9KZ7F8RLNQQ9MQJ412D7LFJ,A2FHJCRBRP7VH4,30OITAWPBQP2Z1DQ5HPUZCTXABIH90,,img/set1/S2.jpg,83,2,structured_incentive,68,"structured_incentive,structured_normal,random","2,3,1,2",FALSE,,
null,,html-keyboard-response,428,504489,0.0-428.0,3P529IW9KZ7F8RLNQQ9MQJ412D7LFJ,A2FHJCRBRP7VH4,30OITAWPBQP2Z1DQ5HPUZCTXABIH90,,"<img src=""img/set1/S2.jpg"" width=""540"" height = ""360"">",null,,,,,,,,
null,,html-keyboard-response,429,504691,0.0-429.0,3P529IW9KZ7F8RLNQQ9MQJ412D7LFJ,A2FHJCRBRP7VH4,30OITAWPBQP2Z1DQ5HPUZCTXABIH90,,,null,,,,,,,,
690.5,,image-keyboard-response,430,505383,0.0-430.0,3P529IW9KZ7F8RLNQQ9MQJ412D7LFJ,A2FHJCRBRP7VH4,30OITAWPBQP2Z1DQ5HPUZCTXABIH90,,img/set1/S3.jpg,72,3,structured_incentive,72,"structured_incentive,structured_normal,random","2,3,1,2",TRUE,,
null,,html-keyboard-response,431,505746,0.0-431.0,3P529IW9KZ7F8RLNQQ9MQJ412D7LFJ,A2FHJCRBRP7VH4,30OITAWPBQP2Z1DQ5HPUZCTXABIH90,,"<img src=""img/set1/S3.jpg"" width=""540"" height = ""360"" style=""border:16px solid orange"">",null,,,,,,,,
null,,html-keyboard-response,432,505948,0.0-432.0,3P529IW9KZ7F8RLNQQ9MQJ412D7LFJ,A2FHJCRBRP7VH4,30OITAWPBQP2Z1DQ5HPUZCTXABIH90,,,null,,,,,,,,
1070.09999990463,,image-keyboard-response,433,507020,0.0-433.0,3P529IW9KZ7F8RLNQQ9MQJ412D7LFJ,A2FHJCRBRP7VH4,30OITAWPBQP2Z1DQ5HPUZCTXABIH90,,img/set1/S2.jpg,68,2,structured_incentive,68,"structured_incentive,structured_normal,random","2,3,1,2",TRUE,,
null,,html-keyboard-response,434,507372,0.0-434.0,3P529IW9KZ7F8RLNQQ9MQJ412D7LFJ,A2FHJCRBRP7VH4,30OITAWPBQP2Z1DQ5HPUZCTXABIH90,,"<img src=""img/set1/S2.jpg"" width=""540"" height = ""360"" style=""border:16px solid orange"">",null,,,,,,,,
null,,html-keyboard-response,435,507574,0.0-435.0,3P529IW9KZ7F8RLNQQ9MQJ412D7LFJ,A2FHJCRBRP7VH4,30OITAWPBQP2Z1DQ5HPUZCTXABIH90,,,null,,,,,,,,
588.900000095367,,image-keyboard-response,436,508164,0.0-436.0,3P529IW9KZ7F8RLNQQ9MQJ412D7LFJ,A2FHJCRBRP7VH4,30OITAWPBQP2Z1DQ5HPUZCTXABIH90,,img/set1/S4.jpg,74,4,structured_incentive,74,"structured_incentive,structured_normal,random","2,3,1,2",TRUE,,
null,,html-keyboard-response,437,508517,0.0-437.0,3P529IW9KZ7F8RLNQQ9MQJ412D7LFJ,A2FHJCRBRP7VH4,30OITAWPBQP2Z1DQ5HPUZCTXABIH90,,"<img src=""img/set1/S4.jpg"" width=""540"" height = ""360"" style=""border:16px solid Violet"">",null,,,,,,,,
null,,html-keyboard-response,438,508720,0.0-438.0,3P529IW9KZ7F8RLNQQ9MQJ412D7LFJ,A2FHJCRBRP7VH4,30OITAWPBQP2Z1DQ5HPUZCTXABIH90,,,null,,,,,,,,
862.300000190735,,image-keyboard-response,439,509585,0.0-439.0,3P529IW9KZ7F8RLNQQ9MQJ412D7LFJ,A2FHJCRBRP7VH4,30OITAWPBQP2Z1DQ5HPUZCTXABIH90,,img/set1/S4.jpg,74,4,structured_incentive,74,"structured_incentive,structured_normal,random","2,3,1,2",TRUE,,
null,,html-keyboard-response,440,509938,0.0-440.0,3P529IW9KZ7F8RLNQQ9MQJ412D7LFJ,A2FHJCRBRP7VH4,30OITAWPBQP2Z1DQ5HPUZCTXABIH90,,"<img src=""img/set1/S4.jpg"" width=""540"" height = ""360"" style=""border:16px solid Violet"">",null,,,,,,,,
null,,html-keyboard-response,441,510141,0.0-441.0,3P529IW9KZ7F8RLNQQ9MQJ412D7LFJ,A2FHJCRBRP7VH4,30OITAWPBQP2Z1DQ5HPUZCTXABIH90,,,null,,,,,,,,
1321.90000009537,,image-keyboard-response,442,511464,0.0-442.0,3P529IW9KZ7F8RLNQQ9MQJ412D7LFJ,A2FHJCRBRP7VH4,30OITAWPBQP2Z1DQ5HPUZCTXABIH90,,img/set1/S2.jpg,68,2,structured_incentive,68,"structured_incentive,structured_normal,random","2,3,1,2",TRUE,,
null,,html-keyboard-response,443,511817,0.0-443.0,3P529IW9KZ7F8RLNQQ9MQJ412D7LFJ,A2FHJCRBRP7VH4,30OITAWPBQP2Z1DQ5HPUZCTXABIH90,,"<img src=""img/set1/S2.jpg"" width=""540"" height = ""360"" style=""border:16px solid orange"">",null,,,,,,,,
null,,html-keyboard-response,444,512019,0.0-444.0,3P529IW9KZ7F8RLNQQ9MQJ412D7LFJ,A2FHJCRBRP7VH4,30OITAWPBQP2Z1DQ5HPUZCTXABIH90,,,null,,,,,,,,
894.299999952316,,image-keyboard-response,445,512915,0.0-445.0,3P529IW9KZ7F8RLNQQ9MQJ412D7LFJ,A2FHJCRBRP7VH4,30OITAWPBQP2Z1DQ5HPUZCTXABIH90,,img/set1/S3.jpg,72,3,structured_incentive,72,"structured_incentive,structured_normal,random","2,3,1,2",TRUE,,
null,,html-keyboard-response,446,513268,0.0-446.0,3P529IW9KZ7F8RLNQQ9MQJ412D7LFJ,A2FHJCRBRP7VH4,30OITAWPBQP2Z1DQ5HPUZCTXABIH90,,"<img src=""img/set1/S3.jpg"" width=""540"" height = ""360"" style=""border:16px solid orange"">",null,,,,,,,,
null,,html-keyboard-response,447,513471,0.0-447.0,3P529IW9KZ7F8RLNQQ9MQJ412D7LFJ,A2FHJCRBRP7VH4,30OITAWPBQP2Z1DQ5HPUZCTXABIH90,,,null,,,,,,,,
748.900000095367,,image-keyboard-response,448,514221,0.0-448.0,3P529IW9KZ7F8RLNQQ9MQJ412D7LFJ,A2FHJCRBRP7VH4,30OITAWPBQP2Z1DQ5HPUZCTXABIH90,,img/set1/S1.jpg,83,1,structured_incentive,83,"structured_incentive,structured_normal,random","2,3,1,2",TRUE,,
null,,html-keyboard-response,449,514574,0.0-449.0,3P529IW9KZ7F8RLNQQ9MQJ412D7LFJ,A2FHJCRBRP7VH4,30OITAWPBQP2Z1DQ5HPUZCTXABIH90,,"<img src=""img/set1/S1.jpg"" width=""540"" height = ""360"" style=""border:16px solid orange"">",null,,,,,,,,
null,,html-keyboard-response,450,514777,0.0-450.0,3P529IW9KZ7F8RLNQQ9MQJ412D7LFJ,A2FHJCRBRP7VH4,30OITAWPBQP2Z1DQ5HPUZCTXABIH90,,,null,,,,,,,,
785.799999952316,,image-keyboard-response,451,515567,0.0-451.0,3P529IW9KZ7F8RLNQQ9MQJ412D7LFJ,A2FHJCRBRP7VH4,30OITAWPBQP2Z1DQ5HPUZCTXABIH90,,img/set1/S2.jpg,68,2,structured_incentive,68,"structured_incentive,structured_normal,random","2,3,1,2",TRUE,,
null,,html-keyboard-response,452,515939,0.0-452.0,3P529IW9KZ7F8RLNQQ9MQJ412D7LFJ,A2FHJCRBRP7VH4,30OITAWPBQP2Z1DQ5HPUZCTXABIH90,,"<img src=""img/set1/S2.jpg"" width=""540"" height = ""360"" style=""border:16px solid orange"">",null,,,,,,,,
null,,html-keyboard-response,453,516141,0.0-453.0,3P529IW9KZ7F8RLNQQ9MQJ412D7LFJ,A2FHJCRBRP7VH4,30OITAWPBQP2Z1DQ5HPUZCTXABIH90,,,null,,,,,,,,
822,,image-keyboard-response,454,516965,0.0-454.0,3P529IW9KZ7F8RLNQQ9MQJ412D7LFJ,A2FHJCRBRP7VH4,30OITAWPBQP2Z1DQ5HPUZCTXABIH90,,img/set1/S3.jpg,72,3,structured_incentive,72,"structured_incentive,structured_normal,random","2,3,1,2",TRUE,,
null,,html-keyboard-response,455,517317,0.0-455.0,3P529IW9KZ7F8RLNQQ9MQJ412D7LFJ,A2FHJCRBRP7VH4,30OITAWPBQP2Z1DQ5HPUZCTXABIH90,,"<img src=""img/set1/S3.jpg"" width=""540"" height = ""360"" style=""border:16px solid orange"">",null,,,,,,,,
null,,html-keyboard-response,456,517519,0.0-456.0,3P529IW9KZ7F8RLNQQ9MQJ412D7LFJ,A2FHJCRBRP7VH4,30OITAWPBQP2Z1DQ5HPUZCTXABIH90,,,null,,,,,,,,
660.700000047684,,image-keyboard-response,457,518181,0.0-457.0,3P529IW9KZ7F8RLNQQ9MQJ412D7LFJ,A2FHJCRBRP7VH4,30OITAWPBQP2Z1DQ5HPUZCTXABIH90,,img/set1/S4.jpg,74,4,structured_incentive,74,"structured_incentive,structured_normal,random","2,3,1,2",TRUE,,
null,,html-keyboard-response,458,518546,0.0-458.0,3P529IW9KZ7F8RLNQQ9MQJ412D7LFJ,A2FHJCRBRP7VH4,30OITAWPBQP2Z1DQ5HPUZCTXABIH90,,"<img src=""img/set1/S4.jpg"" width=""540"" height = ""360"" style=""border:16px solid Violet"">",null,,,,,,,,
null,,html-keyboard-response,459,518748,0.0-459.0,3P529IW9KZ7F8RLNQQ9MQJ412D7LFJ,A2FHJCRBRP7VH4,30OITAWPBQP2Z1DQ5HPUZCTXABIH90,,,null,,,,,,,,
927.900000095367,,image-keyboard-response,460,519678,0.0-460.0,3P529IW9KZ7F8RLNQQ9MQJ412D7LFJ,A2FHJCRBRP7VH4,30OITAWPBQP2Z1DQ5HPUZCTXABIH90,,img/set1/S1.jpg,83,1,structured_incentive,83,"structured_incentive,structured_normal,random","2,3,1,2",TRUE,,
null,,html-keyboard-response,461,520031,0.0-461.0,3P529IW9KZ7F8RLNQQ9MQJ412D7LFJ,A2FHJCRBRP7VH4,30OITAWPBQP2Z1DQ5HPUZCTXABIH90,,"<img src=""img/set1/S1.jpg"" width=""540"" height = ""360"" style=""border:16px solid orange"">",null,,,,,,,,
null,,html-keyboard-response,462,520233,0.0-462.0,3P529IW9KZ7F8RLNQQ9MQJ412D7LFJ,A2FHJCRBRP7VH4,30OITAWPBQP2Z1DQ5HPUZCTXABIH90,,,null,,,,,,,,
562.099999904633,,image-keyboard-response,463,520797,0.0-463.0,3P529IW9KZ7F8RLNQQ9MQJ412D7LFJ,A2FHJCRBRP7VH4,30OITAWPBQP2Z1DQ5HPUZCTXABIH90,,img/set1/S4.jpg,74,4,structured_incentive,74,"structured_incentive,structured_normal,random","2,3,1,2",TRUE,,
null,,html-keyboard-response,464,521151,0.0-464.0,3P529IW9KZ7F8RLNQQ9MQJ412D7LFJ,A2FHJCRBRP7VH4,30OITAWPBQP2Z1DQ5HPUZCTXABIH90,,"<img src=""img/set1/S4.jpg"" width=""540"" height = ""360"" style=""border:16px solid Violet"">",null,,,,,,,,
null,,html-keyboard-response,465,521354,0.0-465.0,3P529IW9KZ7F8RLNQQ9MQJ412D7LFJ,A2FHJCRBRP7VH4,30OITAWPBQP2Z1DQ5HPUZCTXABIH90,,,null,,,,,,,,
1191.09999990463,,image-keyboard-response,466,522547,0.0-466.0,3P529IW9KZ7F8RLNQQ9MQJ412D7LFJ,A2FHJCRBRP7VH4,30OITAWPBQP2Z1DQ5HPUZCTXABIH90,,img/set1/S2.jpg,68,2,structured_incentive,68,"structured_incentive,structured_normal,random","2,3,1,2",TRUE,,
null,,html-keyboard-response,467,522900,0.0-467.0,3P529IW9KZ7F8RLNQQ9MQJ412D7LFJ,A2FHJCRBRP7VH4,30OITAWPBQP2Z1DQ5HPUZCTXABIH90,,"<img src=""img/set1/S2.jpg"" width=""540"" height = ""360"" style=""border:16px solid orange"">",null,,,,,,,,
null,,html-keyboard-response,468,523102,0.0-468.0,3P529IW9KZ7F8RLNQQ9MQJ412D7LFJ,A2FHJCRBRP7VH4,30OITAWPBQP2Z1DQ5HPUZCTXABIH90,,,null,,,,,,,,
499.5,,image-keyboard-response,469,523603,0.0-469.0,3P529IW9KZ7F8RLNQQ9MQJ412D7LFJ,A2FHJCRBRP7VH4,30OITAWPBQP2Z1DQ5HPUZCTXABIH90,,img/set1/S3.jpg,72,3,structured_incentive,72,"structured_incentive,structured_normal,random","2,3,1,2",TRUE,,
null,,html-keyboard-response,470,523956,0.0-470.0,3P529IW9KZ7F8RLNQQ9MQJ412D7LFJ,A2FHJCRBRP7VH4,30OITAWPBQP2Z1DQ5HPUZCTXABIH90,,"<img src=""img/set1/S3.jpg"" width=""540"" height = ""360"" style=""border:16px solid orange"">",null,,,,,,,,
null,,html-keyboard-response,471,524159,0.0-471.0,3P529IW9KZ7F8RLNQQ9MQJ412D7LFJ,A2FHJCRBRP7VH4,30OITAWPBQP2Z1DQ5HPUZCTXABIH90,,,null,,,,,,,,
669.600000143051,,image-keyboard-response,472,524830,0.0-472.0,3P529IW9KZ7F8RLNQQ9MQJ412D7LFJ,A2FHJCRBRP7VH4,30OITAWPBQP2Z1DQ5HPUZCTXABIH90,,img/set1/S1.jpg,83,1,structured_incentive,83,"structured_incentive,structured_normal,random","2,3,1,2",TRUE,,
null,,html-keyboard-response,473,525183,0.0-473.0,3P529IW9KZ7F8RLNQQ9MQJ412D7LFJ,A2FHJCRBRP7VH4,30OITAWPBQP2Z1DQ5HPUZCTXABIH90,,"<img src=""img/set1/S1.jpg"" width=""540"" height = ""360"" style=""border:16px solid orange"">",null,,,,,,,,
null,,html-keyboard-response,474,525385,0.0-474.0,3P529IW9KZ7F8RLNQQ9MQJ412D7LFJ,A2FHJCRBRP7VH4,30OITAWPBQP2Z1DQ5HPUZCTXABIH90,,,null,,,,,,,,
