"rt","url","trial_type","trial_index","time_elapsed","internal_node_id","view_history","stimulus","key_press","state","test_part","correct_response","order_block","order_chunk","correct","responses","bonus"
"3025.100000023842","consent.html","external-html","0","3124","0.0-0.0","","","","","","","","","","",""
"64737.19999998808","","instructions","1","67864","0.0-1.0","[{""page_index"":0,""viewing_time"":6360.599999964237},{""page_index"":1,""viewing_time"":10799.900000035763},{""page_index"":2,""viewing_time"":13091.799999952316},{""page_index"":3,""viewing_time"":6374.100000023842},{""page_index"":4,""viewing_time"":11338},{""page_index"":5,""viewing_time"":6652.100000023842},{""page_index"":6,""viewing_time"":10120.099999964237}]","","","","","","","","","",""
"6434.800000011921","","instructions","2","74299","0.0-2.0","[{""page_index"":0,""viewing_time"":6434.600000023842}]","","","","","","","","","",""
"4281.5","","instructions","3","78581","0.0-3.0","[{""page_index"":0,""viewing_time"":4281.300000011921}]","","","","","","","","","",""
"null","","image-keyboard-response","4","81083","0.0-4.0","","img/set1/S1.jpg","null","1","random","83","random,structured_incentive,structured_load,structured_normal","3,4,2,3,2,1","false","",""
"null","","html-keyboard-response","5","81435","0.0-5.0","","<img src=""img/set1/S1.jpg"" width=""540"" height = ""360"">","null","","","","","","","",""
"null","","html-keyboard-response","6","81636","0.0-6.0","","","null","","","","","","","",""
"1106.0999999642372","","image-keyboard-response","7","82744","0.0-7.0","","img/set1/S4.jpg","83","4","random","74","random,structured_incentive,structured_load,structured_normal","3,4,2,3,2,1","false","",""
"null","","html-keyboard-response","8","83096","0.0-8.0","","<img src=""img/set1/S4.jpg"" width=""540"" height = ""360"">","null","","","","","","","",""
"null","","html-keyboard-response","9","83296","0.0-9.0","","","null","","","","","","","",""
"862.1000000238419","","image-keyboard-response","10","84159","0.0-10.0","","img/set1/S4.jpg","68","4","random","74","random,structured_incentive,structured_load,structured_normal","3,4,2,3,2,1","false","",""
"null","","html-keyboard-response","11","84511","0.0-11.0","","<img src=""img/set1/S4.jpg"" width=""540"" height = ""360"">","null","","","","","","","",""
"null","","html-keyboard-response","12","84713","0.0-12.0","","","null","","","","","","","",""
"957.8000000119209","","image-keyboard-response","13","85671","0.0-13.0","","img/set1/S2.jpg","83","2","random","68","random,structured_incentive,structured_load,structured_normal","3,4,2,3,2,1","false","",""
"null","","html-keyboard-response","14","86022","0.0-14.0","","<img src=""img/set1/S2.jpg"" width=""540"" height = ""360"">","null","","","","","","","",""
"null","","html-keyboard-response","15","86223","0.0-15.0","","","null","","","","","","","",""
"695.4000000357628","","image-keyboard-response","16","86919","0.0-16.0","","img/set1/S3.jpg","83","3","random","72","random,structured_incentive,structured_load,structured_normal","3,4,2,3,2,1","false","",""
"null","","html-keyboard-response","17","87271","0.0-17.0","","<img src=""img/set1/S3.jpg"" width=""540"" height = ""360"">","null","","","","","","","",""
"null","","html-keyboard-response","18","87480","0.0-18.0","","","null","","","","","","","",""
"590.8999999761581","","image-keyboard-response","19","88071","0.0-19.0","","img/set1/S3.jpg","83","3","random","72","random,structured_incentive,structured_load,structured_normal","3,4,2,3,2,1","false","",""
"null","","html-keyboard-response","20","88422","0.0-20.0","","<img src=""img/set1/S3.jpg"" width=""540"" height = ""360"">","null","","","","","","","",""
"null","","html-keyboard-response","21","88623","0.0-21.0","","","null","","","","","","","",""
"1199.5999999642372","","image-keyboard-response","22","89824","0.0-22.0","","img/set1/S2.jpg","68","2","random","68","random,structured_incentive,structured_load,structured_normal","3,4,2,3,2,1","true","",""
"null","","html-keyboard-response","23","90176","0.0-23.0","","<img src=""img/set1/S2.jpg"" width=""540"" height = ""360"" style=""border:16px solid orange"">","null","","","","","","","",""
"null","","html-keyboard-response","24","90377","0.0-24.0","","","null","","","","","","","",""
"1109.5999999642372","","image-keyboard-response","25","91487","0.0-25.0","","img/set1/S4.jpg","72","4","random","74","random,structured_incentive,structured_load,structured_normal","3,4,2,3,2,1","false","",""
"null","","html-keyboard-response","26","91839","0.0-26.0","","<img src=""img/set1/S4.jpg"" width=""540"" height = ""360"">","null","","","","","","","",""
"null","","html-keyboard-response","27","92040","0.0-27.0","","","null","","","","","","","",""
"694.9000000357628","","image-keyboard-response","28","92735","0.0-28.0","","img/set1/S3.jpg","72","3","random","72","random,structured_incentive,structured_load,structured_normal","3,4,2,3,2,1","true","",""
"null","","html-keyboard-response","29","93086","0.0-29.0","","<img src=""img/set1/S3.jpg"" width=""540"" height = ""360"" style=""border:16px solid orange"">","null","","","","","","","",""
"null","","html-keyboard-response","30","93287","0.0-30.0","","","null","","","","","","","",""
"919.1000000238419","","image-keyboard-response","31","94207","0.0-31.0","","img/set1/S2.jpg","68","2","random","68","random,structured_incentive,structured_load,structured_normal","3,4,2,3,2,1","true","",""
"null","","html-keyboard-response","32","94559","0.0-32.0","","<img src=""img/set1/S2.jpg"" width=""540"" height = ""360"" style=""border:16px solid orange"">","null","","","","","","","",""
"null","","html-keyboard-response","33","94761","0.0-33.0","","","null","","","","","","","",""
"1022.0999999642372","","image-keyboard-response","34","95783","0.0-34.0","","img/set1/S4.jpg","74","4","random","74","random,structured_incentive,structured_load,structured_normal","3,4,2,3,2,1","true","",""
"null","","html-keyboard-response","35","96134","0.0-35.0","","<img src=""img/set1/S4.jpg"" width=""540"" height = ""360"" style=""border:16px solid orange"">","null","","","","","","","",""
"null","","html-keyboard-response","36","96335","0.0-36.0","","","null","","","","","","","",""
"527.2000000476837","","image-keyboard-response","37","96863","0.0-37.0","","img/set1/S4.jpg","74","4","random","74","random,structured_incentive,structured_load,structured_normal","3,4,2,3,2,1","true","",""
"null","","html-keyboard-response","38","97214","0.0-38.0","","<img src=""img/set1/S4.jpg"" width=""540"" height = ""360"" style=""border:16px solid orange"">","null","","","","","","","",""
"null","","html-keyboard-response","39","97415","0.0-39.0","","","null","","","","","","","",""
"967.3000000119209","","image-keyboard-response","40","98384","0.0-40.0","","img/set1/S3.jpg","72","3","random","72","random,structured_incentive,structured_load,structured_normal","3,4,2,3,2,1","true","",""
"null","","html-keyboard-response","41","98735","0.0-41.0","","<img src=""img/set1/S3.jpg"" width=""540"" height = ""360"" style=""border:16px solid orange"">","null","","","","","","","",""
"null","","html-keyboard-response","42","98936","0.0-42.0","","","null","","","","","","","",""
"711","","image-keyboard-response","43","99648","0.0-43.0","","img/set1/S1.jpg","83","1","random","83","random,structured_incentive,structured_load,structured_normal","3,4,2,3,2,1","true","",""
"null","","html-keyboard-response","44","99999","0.0-44.0","","<img src=""img/set1/S1.jpg"" width=""540"" height = ""360"" style=""border:16px solid orange"">","null","","","","","","","",""
"null","","html-keyboard-response","45","100201","0.0-45.0","","","null","","","","","","","",""
"774.6000000238419","","image-keyboard-response","46","100976","0.0-46.0","","img/set1/S2.jpg","68","2","random","68","random,structured_incentive,structured_load,structured_normal","3,4,2,3,2,1","true","",""
"null","","html-keyboard-response","47","101328","0.0-47.0","","<img src=""img/set1/S2.jpg"" width=""540"" height = ""360"" style=""border:16px solid orange"">","null","","","","","","","",""
"null","","html-keyboard-response","48","101528","0.0-48.0","","","null","","","","","","","",""
"1678.699999988079","","image-keyboard-response","49","103208","0.0-49.0","","img/set1/S4.jpg","72","4","random","74","random,structured_incentive,structured_load,structured_normal","3,4,2,3,2,1","false","",""
"null","","html-keyboard-response","50","103559","0.0-50.0","","<img src=""img/set1/S4.jpg"" width=""540"" height = ""360"">","null","","","","","","","",""
"null","","html-keyboard-response","51","103760","0.0-51.0","","","null","","","","","","","",""
"1399.3999999761581","","image-keyboard-response","52","105160","0.0-52.0","","img/set1/S3.jpg","83","3","random","72","random,structured_incentive,structured_load,structured_normal","3,4,2,3,2,1","false","",""
"null","","html-keyboard-response","53","105511","0.0-53.0","","<img src=""img/set1/S3.jpg"" width=""540"" height = ""360"">","null","","","","","","","",""
"null","","html-keyboard-response","54","105712","0.0-54.0","","","null","","","","","","","",""
"806.5999999642372","","image-keyboard-response","55","106520","0.0-55.0","","img/set1/S1.jpg","83","1","random","83","random,structured_incentive,structured_load,structured_normal","3,4,2,3,2,1","true","",""
"null","","html-keyboard-response","56","106871","0.0-56.0","","<img src=""img/set1/S1.jpg"" width=""540"" height = ""360"" style=""border:16px solid orange"">","null","","","","","","","",""
"null","","html-keyboard-response","57","107072","0.0-57.0","","","null","","","","","","","",""
"934.6000000238419","","image-keyboard-response","58","108008","0.0-58.0","","img/set1/S1.jpg","83","1","random","83","random,structured_incentive,structured_load,structured_normal","3,4,2,3,2,1","true","",""
"null","","html-keyboard-response","59","108360","0.0-59.0","","<img src=""img/set1/S1.jpg"" width=""540"" height = ""360"" style=""border:16px solid orange"">","null","","","","","","","",""
"null","","html-keyboard-response","60","108570","0.0-60.0","","","null","","","","","","","",""
"1044.7000000476837","","image-keyboard-response","61","109616","0.0-61.0","","img/set1/S3.jpg","72","3","random","72","random,structured_incentive,structured_load,structured_normal","3,4,2,3,2,1","true","",""
"null","","html-keyboard-response","62","109967","0.0-62.0","","<img src=""img/set1/S3.jpg"" width=""540"" height = ""360"" style=""border:16px solid orange"">","null","","","","","","","",""
"null","","html-keyboard-response","63","110168","0.0-63.0","","","null","","","","","","","",""
"1023.4000000357628","","image-keyboard-response","64","111192","0.0-64.0","","img/set1/S1.jpg","83","1","random","83","random,structured_incentive,structured_load,structured_normal","3,4,2,3,2,1","true","",""
"null","","html-keyboard-response","65","111543","0.0-65.0","","<img src=""img/set1/S1.jpg"" width=""540"" height = ""360"" style=""border:16px solid orange"">","null","","","","","","","",""
"null","","html-keyboard-response","66","111744","0.0-66.0","","","null","","","","","","","",""
"606.5","","image-keyboard-response","67","112352","0.0-67.0","","img/set1/S3.jpg","72","3","random","72","random,structured_incentive,structured_load,structured_normal","3,4,2,3,2,1","true","",""
"null","","html-keyboard-response","68","112703","0.0-68.0","","<img src=""img/set1/S3.jpg"" width=""540"" height = ""360"" style=""border:16px solid orange"">","null","","","","","","","",""
"null","","html-keyboard-response","69","112904","0.0-69.0","","","null","","","","","","","",""
"694","","image-keyboard-response","70","113600","0.0-70.0","","img/set1/S4.jpg","74","4","random","74","random,structured_incentive,structured_load,structured_normal","3,4,2,3,2,1","true","",""
"null","","html-keyboard-response","71","113951","0.0-71.0","","<img src=""img/set1/S4.jpg"" width=""540"" height = ""360"" style=""border:16px solid orange"">","null","","","","","","","",""
"null","","html-keyboard-response","72","114152","0.0-72.0","","","null","","","","","","","",""
"894.8000000119209","","image-keyboard-response","73","115048","0.0-73.0","","img/set1/S3.jpg","72","3","random","72","random,structured_incentive,structured_load,structured_normal","3,4,2,3,2,1","true","",""
"null","","html-keyboard-response","74","115399","0.0-74.0","","<img src=""img/set1/S3.jpg"" width=""540"" height = ""360"" style=""border:16px solid orange"">","null","","","","","","","",""
"null","","html-keyboard-response","75","115600","0.0-75.0","","","null","","","","","","","",""
"455.0999999642372","","image-keyboard-response","76","116056","0.0-76.0","","img/set1/S3.jpg","72","3","random","72","random,structured_incentive,structured_load,structured_normal","3,4,2,3,2,1","true","",""
"null","","html-keyboard-response","77","116408","0.0-77.0","","<img src=""img/set1/S3.jpg"" width=""540"" height = ""360"" style=""border:16px solid orange"">","null","","","","","","","",""
"null","","html-keyboard-response","78","116609","0.0-78.0","","","null","","","","","","","",""
"661.6999999880791","","image-keyboard-response","79","117272","0.0-79.0","","img/set1/S4.jpg","74","4","random","74","random,structured_incentive,structured_load,structured_normal","3,4,2,3,2,1","true","",""
"null","","html-keyboard-response","80","117624","0.0-80.0","","<img src=""img/set1/S4.jpg"" width=""540"" height = ""360"" style=""border:16px solid orange"">","null","","","","","","","",""
"null","","html-keyboard-response","81","117825","0.0-81.0","","","null","","","","","","","",""
"838.1999999880791","","image-keyboard-response","82","118664","0.0-82.0","","img/set1/S2.jpg","68","2","random","68","random,structured_incentive,structured_load,structured_normal","3,4,2,3,2,1","true","",""
"null","","html-keyboard-response","83","119015","0.0-83.0","","<img src=""img/set1/S2.jpg"" width=""540"" height = ""360"" style=""border:16px solid orange"">","null","","","","","","","",""
"null","","html-keyboard-response","84","119216","0.0-84.0","","","null","","","","","","","",""
"695","","image-keyboard-response","85","119912","0.0-85.0","","img/set1/S1.jpg","83","1","random","83","random,structured_incentive,structured_load,structured_normal","3,4,2,3,2,1","true","",""
"null","","html-keyboard-response","86","120263","0.0-86.0","","<img src=""img/set1/S1.jpg"" width=""540"" height = ""360"" style=""border:16px solid orange"">","null","","","","","","","",""
"null","","html-keyboard-response","87","120464","0.0-87.0","","","null","","","","","","","",""
"1295.1000000238419","","image-keyboard-response","88","121760","0.0-88.0","","img/set1/S4.jpg","72","4","random","74","random,structured_incentive,structured_load,structured_normal","3,4,2,3,2,1","false","",""
"null","","html-keyboard-response","89","122111","0.0-89.0","","<img src=""img/set1/S4.jpg"" width=""540"" height = ""360"">","null","","","","","","","",""
"null","","html-keyboard-response","90","122312","0.0-90.0","","","null","","","","","","","",""
"614.5","","image-keyboard-response","91","122928","0.0-91.0","","img/set1/S3.jpg","72","3","random","72","random,structured_incentive,structured_load,structured_normal","3,4,2,3,2,1","true","",""
"null","","html-keyboard-response","92","123279","0.0-92.0","","<img src=""img/set1/S3.jpg"" width=""540"" height = ""360"" style=""border:16px solid orange"">","null","","","","","","","",""
"null","","html-keyboard-response","93","123480","0.0-93.0","","","null","","","","","","","",""
"951.1999999880791","","image-keyboard-response","94","124432","0.0-94.0","","img/set1/S2.jpg","68","2","random","68","random,structured_incentive,structured_load,structured_normal","3,4,2,3,2,1","true","",""
"null","","html-keyboard-response","95","124784","0.0-95.0","","<img src=""img/set1/S2.jpg"" width=""540"" height = ""360"" style=""border:16px solid orange"">","null","","","","","","","",""
"null","","html-keyboard-response","96","124985","0.0-96.0","","","null","","","","","","","",""
"1774.5","","image-keyboard-response","97","126760","0.0-97.0","","img/set1/S4.jpg","74","4","random","74","random,structured_incentive,structured_load,structured_normal","3,4,2,3,2,1","true","",""
"null","","html-keyboard-response","98","127111","0.0-98.0","","<img src=""img/set1/S4.jpg"" width=""540"" height = ""360"" style=""border:16px solid orange"">","null","","","","","","","",""
"null","","html-keyboard-response","99","127313","0.0-99.0","","","null","","","","","","","",""
"1126.300000011921","","image-keyboard-response","100","128440","0.0-100.0","","img/set1/S2.jpg","68","2","random","68","random,structured_incentive,structured_load,structured_normal","3,4,2,3,2,1","true","",""
"null","","html-keyboard-response","101","128791","0.0-101.0","","<img src=""img/set1/S2.jpg"" width=""540"" height = ""360"" style=""border:16px solid orange"">","null","","","","","","","",""
"null","","html-keyboard-response","102","128992","0.0-102.0","","","null","","","","","","","",""
"1086.5","","image-keyboard-response","103","130080","0.0-103.0","","img/set1/S3.jpg","72","3","random","72","random,structured_incentive,structured_load,structured_normal","3,4,2,3,2,1","true","",""
"null","","html-keyboard-response","104","130432","0.0-104.0","","<img src=""img/set1/S3.jpg"" width=""540"" height = ""360"" style=""border:16px solid orange"">","null","","","","","","","",""
"null","","html-keyboard-response","105","130633","0.0-105.0","","","null","","","","","","","",""
"838.5","","image-keyboard-response","106","131472","0.0-106.0","","img/set1/S2.jpg","68","2","random","68","random,structured_incentive,structured_load,structured_normal","3,4,2,3,2,1","true","",""
"null","","html-keyboard-response","107","131823","0.0-107.0","","<img src=""img/set1/S2.jpg"" width=""540"" height = ""360"" style=""border:16px solid orange"">","null","","","","","","","",""
"null","","html-keyboard-response","108","132024","0.0-108.0","","","null","","","","","","","",""
"734.9000000357628","","image-keyboard-response","109","132760","0.0-109.0","","img/set1/S1.jpg","83","1","random","83","random,structured_incentive,structured_load,structured_normal","3,4,2,3,2,1","true","",""
"null","","html-keyboard-response","110","133111","0.0-110.0","","<img src=""img/set1/S1.jpg"" width=""540"" height = ""360"" style=""border:16px solid orange"">","null","","","","","","","",""
"null","","html-keyboard-response","111","133312","0.0-111.0","","","null","","","","","","","",""
"750.8000000119209","","image-keyboard-response","112","134064","0.0-112.0","","img/set1/S4.jpg","74","4","random","74","random,structured_incentive,structured_load,structured_normal","3,4,2,3,2,1","true","",""
"null","","html-keyboard-response","113","134416","0.0-113.0","","<img src=""img/set1/S4.jpg"" width=""540"" height = ""360"" style=""border:16px solid orange"">","null","","","","","","","",""
"null","","html-keyboard-response","114","134617","0.0-114.0","","","null","","","","","","","",""
"694.3000000119209","","image-keyboard-response","115","135312","0.0-115.0","","img/set1/S3.jpg","72","3","random","72","random,structured_incentive,structured_load,structured_normal","3,4,2,3,2,1","true","",""
"null","","html-keyboard-response","116","135664","0.0-116.0","","<img src=""img/set1/S3.jpg"" width=""540"" height = ""360"" style=""border:16px solid orange"">","null","","","","","","","",""
"null","","html-keyboard-response","117","135865","0.0-117.0","","","null","","","","","","","",""
"598.3999999761581","","image-keyboard-response","118","136464","0.0-118.0","","img/set1/S2.jpg","68","2","random","68","random,structured_incentive,structured_load,structured_normal","3,4,2,3,2,1","true","",""
"null","","html-keyboard-response","119","136815","0.0-119.0","","<img src=""img/set1/S2.jpg"" width=""540"" height = ""360"" style=""border:16px solid orange"">","null","","","","","","","",""
"null","","html-keyboard-response","120","137017","0.0-120.0","","","null","","","","","","","",""
"494.39999997615814","","image-keyboard-response","121","137512","0.0-121.0","","img/set1/S2.jpg","68","2","random","68","random,structured_incentive,structured_load,structured_normal","3,4,2,3,2,1","true","",""
"null","","html-keyboard-response","122","137869","0.0-122.0","","<img src=""img/set1/S2.jpg"" width=""540"" height = ""360"" style=""border:16px solid orange"">","null","","","","","","","",""
"null","","html-keyboard-response","123","138070","0.0-123.0","","","null","","","","","","","",""
"681.1000000238419","","image-keyboard-response","124","138752","0.0-124.0","","img/set1/S4.jpg","74","4","random","74","random,structured_incentive,structured_load,structured_normal","3,4,2,3,2,1","true","",""
"null","","html-keyboard-response","125","139104","0.0-125.0","","<img src=""img/set1/S4.jpg"" width=""540"" height = ""360"" style=""border:16px solid orange"">","null","","","","","","","",""
"null","","html-keyboard-response","126","139305","0.0-126.0","","","null","","","","","","","",""
"422.2000000476837","","image-keyboard-response","127","139728","0.0-127.0","","img/set1/S4.jpg","74","4","random","74","random,structured_incentive,structured_load,structured_normal","3,4,2,3,2,1","true","",""
"null","","html-keyboard-response","128","140079","0.0-128.0","","<img src=""img/set1/S4.jpg"" width=""540"" height = ""360"" style=""border:16px solid orange"">","null","","","","","","","",""
"null","","html-keyboard-response","129","140280","0.0-129.0","","","null","","","","","","","",""
"551","","image-keyboard-response","130","140832","0.0-130.0","","img/set1/S1.jpg","83","1","random","83","random,structured_incentive,structured_load,structured_normal","3,4,2,3,2,1","true","",""
"null","","html-keyboard-response","131","141184","0.0-131.0","","<img src=""img/set1/S1.jpg"" width=""540"" height = ""360"" style=""border:16px solid orange"">","null","","","","","","","",""
"null","","html-keyboard-response","132","141386","0.0-132.0","","","null","","","","","","","",""
"644.8000000119209","","image-keyboard-response","133","142032","0.0-133.0","","img/set1/S4.jpg","74","4","random","74","random,structured_incentive,structured_load,structured_normal","3,4,2,3,2,1","true","",""
"null","","html-keyboard-response","134","142384","0.0-134.0","","<img src=""img/set1/S4.jpg"" width=""540"" height = ""360"" style=""border:16px solid orange"">","null","","","","","","","",""
"null","","html-keyboard-response","135","142585","0.0-135.0","","","null","","","","","","","",""
"1142.199999988079","","image-keyboard-response","136","143728","0.0-136.0","","img/set1/S3.jpg","72","3","random","72","random,structured_incentive,structured_load,structured_normal","3,4,2,3,2,1","true","",""
"null","","html-keyboard-response","137","144080","0.0-137.0","","<img src=""img/set1/S3.jpg"" width=""540"" height = ""360"" style=""border:16px solid orange"">","null","","","","","","","",""
"null","","html-keyboard-response","138","144281","0.0-138.0","","","null","","","","","","","",""
"390","","image-keyboard-response","139","144672","0.0-139.0","","img/set1/S3.jpg","72","3","random","72","random,structured_incentive,structured_load,structured_normal","3,4,2,3,2,1","true","",""
"null","","html-keyboard-response","140","145024","0.0-140.0","","<img src=""img/set1/S3.jpg"" width=""540"" height = ""360"" style=""border:16px solid orange"">","null","","","","","","","",""
"null","","html-keyboard-response","141","145225","0.0-141.0","","","null","","","","","","","",""
"581.6999999880791","","image-keyboard-response","142","145808","0.0-142.0","","img/set1/S4.jpg","74","4","random","74","random,structured_incentive,structured_load,structured_normal","3,4,2,3,2,1","true","",""
"null","","html-keyboard-response","143","146159","0.0-143.0","","<img src=""img/set1/S4.jpg"" width=""540"" height = ""360"" style=""border:16px solid orange"">","null","","","","","","","",""
"null","","html-keyboard-response","144","146361","0.0-144.0","","","null","","","","","","","",""
"582.5","","image-keyboard-response","145","146944","0.0-145.0","","img/set1/S3.jpg","72","3","random","72","random,structured_incentive,structured_load,structured_normal","3,4,2,3,2,1","true","",""
"null","","html-keyboard-response","146","147296","0.0-146.0","","<img src=""img/set1/S3.jpg"" width=""540"" height = ""360"" style=""border:16px solid orange"">","null","","","","","","","",""
"null","","html-keyboard-response","147","147496","0.0-147.0","","","null","","","","","","","",""
"502.69999998807907","","image-keyboard-response","148","148000","0.0-148.0","","img/set1/S2.jpg","68","2","random","68","random,structured_incentive,structured_load,structured_normal","3,4,2,3,2,1","true","",""
"null","","html-keyboard-response","149","148352","0.0-149.0","","<img src=""img/set1/S2.jpg"" width=""540"" height = ""360"" style=""border:16px solid orange"">","null","","","","","","","",""
"null","","html-keyboard-response","150","148553","0.0-150.0","","","null","","","","","","","",""
"638.5","","image-keyboard-response","151","149192","0.0-151.0","","img/set1/S3.jpg","72","3","random","72","random,structured_incentive,structured_load,structured_normal","3,4,2,3,2,1","true","",""
"null","","html-keyboard-response","152","149544","0.0-152.0","","<img src=""img/set1/S3.jpg"" width=""540"" height = ""360"" style=""border:16px solid orange"">","null","","","","","","","",""
"null","","html-keyboard-response","153","149745","0.0-153.0","","","null","","","","","","","",""
"501.80000001192093","","image-keyboard-response","154","150248","0.0-154.0","","img/set1/S4.jpg","74","4","random","74","random,structured_incentive,structured_load,structured_normal","3,4,2,3,2,1","true","",""
"null","","html-keyboard-response","155","150599","0.0-155.0","","<img src=""img/set1/S4.jpg"" width=""540"" height = ""360"" style=""border:16px solid orange"">","null","","","","","","","",""
"null","","html-keyboard-response","156","150800","0.0-156.0","","","null","","","","","","","",""
"422.60000002384186","","image-keyboard-response","157","151224","0.0-157.0","","img/set1/S4.jpg","74","4","random","74","random,structured_incentive,structured_load,structured_normal","3,4,2,3,2,1","true","",""
"null","","html-keyboard-response","158","151576","0.0-158.0","","<img src=""img/set1/S4.jpg"" width=""540"" height = ""360"" style=""border:16px solid orange"">","null","","","","","","","",""
"null","","html-keyboard-response","159","151777","0.0-159.0","","","null","","","","","","","",""
"734.3000000119209","","image-keyboard-response","160","152512","0.0-160.0","","img/set1/S2.jpg","68","2","random","68","random,structured_incentive,structured_load,structured_normal","3,4,2,3,2,1","true","",""
"null","","html-keyboard-response","161","152864","0.0-161.0","","<img src=""img/set1/S2.jpg"" width=""540"" height = ""360"" style=""border:16px solid orange"">","null","","","","","","","",""
"null","","html-keyboard-response","162","153068","0.0-162.0","","","null","","","","","","","",""
"721.6000000238419","","image-keyboard-response","163","153792","0.0-163.0","","img/set1/S3.jpg","72","3","random","72","random,structured_incentive,structured_load,structured_normal","3,4,2,3,2,1","true","",""
"null","","html-keyboard-response","164","154144","0.0-164.0","","<img src=""img/set1/S3.jpg"" width=""540"" height = ""360"" style=""border:16px solid orange"">","null","","","","","","","",""
"null","","html-keyboard-response","165","154345","0.0-165.0","","","null","","","","","","","",""
"685.8999999761581","","image-keyboard-response","166","155032","0.0-166.0","","img/set1/S1.jpg","83","1","random","83","random,structured_incentive,structured_load,structured_normal","3,4,2,3,2,1","true","",""
"null","","html-keyboard-response","167","155384","0.0-167.0","","<img src=""img/set1/S1.jpg"" width=""540"" height = ""360"" style=""border:16px solid orange"">","null","","","","","","","",""
"null","","html-keyboard-response","168","155585","0.0-168.0","","","null","","","","","","","",""
"958.5","","image-keyboard-response","169","156544","0.0-169.0","","img/set1/S3.jpg","72","3","random","72","random,structured_incentive,structured_load,structured_normal","3,4,2,3,2,1","true","",""
"null","","html-keyboard-response","170","156896","0.0-170.0","","<img src=""img/set1/S3.jpg"" width=""540"" height = ""360"" style=""border:16px solid orange"">","null","","","","","","","",""
"null","","html-keyboard-response","171","157097","0.0-171.0","","","null","","","","","","","",""
"510.4000000357628","","image-keyboard-response","172","157608","0.0-172.0","","img/set1/S3.jpg","72","3","random","72","random,structured_incentive,structured_load,structured_normal","3,4,2,3,2,1","true","",""
"null","","html-keyboard-response","173","157959","0.0-173.0","","<img src=""img/set1/S3.jpg"" width=""540"" height = ""360"" style=""border:16px solid orange"">","null","","","","","","","",""
"null","","html-keyboard-response","174","158159","0.0-174.0","","","null","","","","","","","",""
"543.5","","image-keyboard-response","175","158704","0.0-175.0","","img/set1/S2.jpg","68","2","random","68","random,structured_incentive,structured_load,structured_normal","3,4,2,3,2,1","true","",""
"null","","html-keyboard-response","176","159056","0.0-176.0","","<img src=""img/set1/S2.jpg"" width=""540"" height = ""360"" style=""border:16px solid orange"">","null","","","","","","","",""
"null","","html-keyboard-response","177","159257","0.0-177.0","","","null","","","","","","","",""
"365.5999999642372","","image-keyboard-response","178","159624","0.0-178.0","","img/set1/S2.jpg","68","2","random","68","random,structured_incentive,structured_load,structured_normal","3,4,2,3,2,1","true","",""
"null","","html-keyboard-response","179","159976","0.0-179.0","","<img src=""img/set1/S2.jpg"" width=""540"" height = ""360"" style=""border:16px solid orange"">","null","","","","","","","",""
"null","","html-keyboard-response","180","160178","0.0-180.0","","","null","","","","","","","",""
"341.19999998807907","","image-keyboard-response","181","160520","0.0-181.0","","img/set1/S2.jpg","68","2","random","68","random,structured_incentive,structured_load,structured_normal","3,4,2,3,2,1","true","",""
"null","","html-keyboard-response","182","160871","0.0-182.0","","<img src=""img/set1/S2.jpg"" width=""540"" height = ""360"" style=""border:16px solid orange"">","null","","","","","","","",""
"null","","html-keyboard-response","183","161072","0.0-183.0","","","null","","","","","","","",""
"350.30000001192093","","image-keyboard-response","184","161424","0.0-184.0","","img/set1/S2.jpg","68","2","random","68","random,structured_incentive,structured_load,structured_normal","3,4,2,3,2,1","true","",""
"null","","html-keyboard-response","185","161776","0.0-185.0","","<img src=""img/set1/S2.jpg"" width=""540"" height = ""360"" style=""border:16px solid orange"">","null","","","","","","","",""
"null","","html-keyboard-response","186","161977","0.0-186.0","","","null","","","","","","","",""
"573.6999999880791","","image-keyboard-response","187","162552","0.0-187.0","","img/set1/S1.jpg","83","1","random","83","random,structured_incentive,structured_load,structured_normal","3,4,2,3,2,1","true","",""
"null","","html-keyboard-response","188","162904","0.0-188.0","","<img src=""img/set1/S1.jpg"" width=""540"" height = ""360"" style=""border:16px solid orange"">","null","","","","","","","",""
"null","","html-keyboard-response","189","163106","0.0-189.0","","","null","","","","","","","",""
"389.19999998807907","","image-keyboard-response","190","163496","0.0-190.0","","img/set1/S1.jpg","83","1","random","83","random,structured_incentive,structured_load,structured_normal","3,4,2,3,2,1","true","",""
"null","","html-keyboard-response","191","163847","0.0-191.0","","<img src=""img/set1/S1.jpg"" width=""540"" height = ""360"" style=""border:16px solid orange"">","null","","","","","","","",""
"null","","html-keyboard-response","192","164048","0.0-192.0","","","null","","","","","","","",""
"662.6999999880791","","image-keyboard-response","193","164712","0.0-193.0","","img/set1/S3.jpg","72","3","random","72","random,structured_incentive,structured_load,structured_normal","3,4,2,3,2,1","true","",""
"null","","html-keyboard-response","194","165064","0.0-194.0","","<img src=""img/set1/S3.jpg"" width=""540"" height = ""360"" style=""border:16px solid orange"">","null","","","","","","","",""
"null","","html-keyboard-response","195","165265","0.0-195.0","","","null","","","","","","","",""
"598.4000000357628","","image-keyboard-response","196","165864","0.0-196.0","","img/set1/S4.jpg","74","4","random","74","random,structured_incentive,structured_load,structured_normal","3,4,2,3,2,1","true","",""
"null","","html-keyboard-response","197","166216","0.0-197.0","","<img src=""img/set1/S4.jpg"" width=""540"" height = ""360"" style=""border:16px solid orange"">","null","","","","","","","",""
"null","","html-keyboard-response","198","166417","0.0-198.0","","","null","","","","","","","",""
"598.1000000238419","","image-keyboard-response","199","167016","0.0-199.0","","img/set1/S1.jpg","83","1","random","83","random,structured_incentive,structured_load,structured_normal","3,4,2,3,2,1","true","",""
"null","","html-keyboard-response","200","167367","0.0-200.0","","<img src=""img/set1/S1.jpg"" width=""540"" height = ""360"" style=""border:16px solid orange"">","null","","","","","","","",""
"null","","html-keyboard-response","201","167568","0.0-201.0","","","null","","","","","","","",""
"439.19999998807907","","image-keyboard-response","202","168008","0.0-202.0","","img/set1/S1.jpg","83","1","random","83","random,structured_incentive,structured_load,structured_normal","3,4,2,3,2,1","true","",""
"null","","html-keyboard-response","203","168359","0.0-203.0","","<img src=""img/set1/S1.jpg"" width=""540"" height = ""360"" style=""border:16px solid orange"">","null","","","","","","","",""
"null","","html-keyboard-response","204","168560","0.0-204.0","","","null","","","","","","","",""
"543.2999999523163","","image-keyboard-response","205","169104","0.0-205.0","","img/set1/S4.jpg","74","4","random","74","random,structured_incentive,structured_load,structured_normal","3,4,2,3,2,1","true","",""
"null","","html-keyboard-response","206","169456","0.0-206.0","","<img src=""img/set1/S4.jpg"" width=""540"" height = ""360"" style=""border:16px solid orange"">","null","","","","","","","",""
"null","","html-keyboard-response","207","169657","0.0-207.0","","","null","","","","","","","",""
"605.6999999880791","","image-keyboard-response","208","170264","0.0-208.0","","img/set1/S1.jpg","83","1","random","83","random,structured_incentive,structured_load,structured_normal","3,4,2,3,2,1","true","",""
"null","","html-keyboard-response","209","170616","0.0-209.0","","<img src=""img/set1/S1.jpg"" width=""540"" height = ""360"" style=""border:16px solid orange"">","null","","","","","","","",""
"null","","html-keyboard-response","210","170817","0.0-210.0","","","null","","","","","","","",""
"526.0999999642372","","image-keyboard-response","211","171344","0.0-211.0","","img/set1/S4.jpg","74","4","random","74","random,structured_incentive,structured_load,structured_normal","3,4,2,3,2,1","true","",""
"null","","html-keyboard-response","212","171695","0.0-212.0","","<img src=""img/set1/S4.jpg"" width=""540"" height = ""360"" style=""border:16px solid orange"">","null","","","","","","","",""
"null","","html-keyboard-response","213","171896","0.0-213.0","","","null","","","","","","","",""
"1094.9000000357628","","image-keyboard-response","214","172992","0.0-214.0","","img/set1/S2.jpg","68","2","random","68","random,structured_incentive,structured_load,structured_normal","3,4,2,3,2,1","true","",""
"null","","html-keyboard-response","215","173343","0.0-215.0","","<img src=""img/set1/S2.jpg"" width=""540"" height = ""360"" style=""border:16px solid orange"">","null","","","","","","","",""
"null","","html-keyboard-response","216","173544","0.0-216.0","","","null","","","","","","","",""
"374.80000001192093","","image-keyboard-response","217","173920","0.0-217.0","","img/set1/S2.jpg","68","2","random","68","random,structured_incentive,structured_load,structured_normal","3,4,2,3,2,1","true","",""
"null","","html-keyboard-response","218","174271","0.0-218.0","","<img src=""img/set1/S2.jpg"" width=""540"" height = ""360"" style=""border:16px solid orange"">","null","","","","","","","",""
"null","","html-keyboard-response","219","174473","0.0-219.0","","","null","","","","","","","",""
"350.19999998807907","","image-keyboard-response","220","174824","0.0-220.0","","img/set1/S2.jpg","68","2","random","68","random,structured_incentive,structured_load,structured_normal","3,4,2,3,2,1","true","",""
"null","","html-keyboard-response","221","175175","0.0-221.0","","<img src=""img/set1/S2.jpg"" width=""540"" height = ""360"" style=""border:16px solid orange"">","null","","","","","","","",""
"null","","html-keyboard-response","222","175376","0.0-222.0","","","null","","","","","","","",""
"614.6999999880791","","image-keyboard-response","223","175992","0.0-223.0","","img/set1/S1.jpg","83","1","random","83","random,structured_incentive,structured_load,structured_normal","3,4,2,3,2,1","true","",""
"null","","html-keyboard-response","224","176345","0.0-224.0","","<img src=""img/set1/S1.jpg"" width=""540"" height = ""360"" style=""border:16px solid orange"">","null","","","","","","","",""
"null","","html-keyboard-response","225","176546","0.0-225.0","","","null","","","","","","","",""
"381.30000001192093","","image-keyboard-response","226","176928","0.0-226.0","","img/set1/S1.jpg","83","1","random","83","random,structured_incentive,structured_load,structured_normal","3,4,2,3,2,1","true","",""
"null","","html-keyboard-response","227","177280","0.0-227.0","","<img src=""img/set1/S1.jpg"" width=""540"" height = ""360"" style=""border:16px solid orange"">","null","","","","","","","",""
"null","","html-keyboard-response","228","177481","0.0-228.0","","","null","","","","","","","",""
"366.5","","image-keyboard-response","229","177848","0.0-229.0","","img/set1/S1.jpg","83","1","random","83","random,structured_incentive,structured_load,structured_normal","3,4,2,3,2,1","true","",""
"null","","html-keyboard-response","230","178200","0.0-230.0","","<img src=""img/set1/S1.jpg"" width=""540"" height = ""360"" style=""border:16px solid orange"">","null","","","","","","","",""
"null","","html-keyboard-response","231","178401","0.0-231.0","","","null","","","","","","","",""
"510.30000001192093","","image-keyboard-response","232","178912","0.0-232.0","","img/set1/S3.jpg","72","3","random","72","random,structured_incentive,structured_load,structured_normal","3,4,2,3,2,1","true","",""
"null","","html-keyboard-response","233","179264","0.0-233.0","","<img src=""img/set1/S3.jpg"" width=""540"" height = ""360"" style=""border:16px solid orange"">","null","","","","","","","",""
"null","","html-keyboard-response","234","179466","0.0-234.0","","","null","","","","","","","",""
"533.0999999642372","","image-keyboard-response","235","180000","0.0-235.0","","img/set1/S4.jpg","74","4","random","74","random,structured_incentive,structured_load,structured_normal","3,4,2,3,2,1","true","",""
"null","","html-keyboard-response","236","180351","0.0-236.0","","<img src=""img/set1/S4.jpg"" width=""540"" height = ""360"" style=""border:16px solid orange"">","null","","","","","","","",""
"null","","html-keyboard-response","237","180553","0.0-237.0","","","null","","","","","","","",""
"526.3000000119209","","image-keyboard-response","238","181080","0.0-238.0","","img/set1/S2.jpg","68","2","random","68","random,structured_incentive,structured_load,structured_normal","3,4,2,3,2,1","true","",""
"null","","html-keyboard-response","239","181432","0.0-239.0","","<img src=""img/set1/S2.jpg"" width=""540"" height = ""360"" style=""border:16px solid orange"">","null","","","","","","","",""
"null","","html-keyboard-response","240","181633","0.0-240.0","","","null","","","","","","","",""
"366.39999997615814","","image-keyboard-response","241","182000","0.0-241.0","","img/set1/S2.jpg","68","2","random","68","random,structured_incentive,structured_load,structured_normal","3,4,2,3,2,1","true","",""
"null","","html-keyboard-response","242","182352","0.0-242.0","","<img src=""img/set1/S2.jpg"" width=""540"" height = ""360"" style=""border:16px solid orange"">","null","","","","","","","",""
"null","","html-keyboard-response","243","182553","0.0-243.0","","","null","","","","","","","",""
"582.1000000238419","","image-keyboard-response","244","183136","0.0-244.0","","img/set1/S1.jpg","83","1","random","83","random,structured_incentive,structured_load,structured_normal","3,4,2,3,2,1","true","",""
"null","","html-keyboard-response","245","183487","0.0-245.0","","<img src=""img/set1/S1.jpg"" width=""540"" height = ""360"" style=""border:16px solid orange"">","null","","","","","","","",""
"null","","html-keyboard-response","246","183688","0.0-246.0","","","null","","","","","","","",""
"582.6000000238419","","image-keyboard-response","247","184272","0.0-247.0","","img/set1/S2.jpg","68","2","random","68","random,structured_incentive,structured_load,structured_normal","3,4,2,3,2,1","true","",""
"null","","html-keyboard-response","248","184624","0.0-248.0","","<img src=""img/set1/S2.jpg"" width=""540"" height = ""360"" style=""border:16px solid orange"">","null","","","","","","","",""
"null","","html-keyboard-response","249","184825","0.0-249.0","","","null","","","","","","","",""
"702","","image-keyboard-response","250","185528","0.0-250.0","","img/set1/S1.jpg","83","1","random","83","random,structured_incentive,structured_load,structured_normal","3,4,2,3,2,1","true","",""
"null","","html-keyboard-response","251","185880","0.0-251.0","","<img src=""img/set1/S1.jpg"" width=""540"" height = ""360"" style=""border:16px solid orange"">","null","","","","","","","",""
"null","","html-keyboard-response","252","186081","0.0-252.0","","","null","","","","","","","",""
"454.4000000357628","","image-keyboard-response","253","186536","0.0-253.0","","img/set1/S1.jpg","83","1","random","83","random,structured_incentive,structured_load,structured_normal","3,4,2,3,2,1","true","",""
"null","","html-keyboard-response","254","186887","0.0-254.0","","<img src=""img/set1/S1.jpg"" width=""540"" height = ""360"" style=""border:16px solid orange"">","null","","","","","","","",""
"null","","html-keyboard-response","255","187088","0.0-255.0","","","null","","","","","","","",""
"574.6000000238419","","image-keyboard-response","256","187664","0.0-256.0","","img/set1/S4.jpg","74","4","random","74","random,structured_incentive,structured_load,structured_normal","3,4,2,3,2,1","true","",""
"null","","html-keyboard-response","257","188016","0.0-257.0","","<img src=""img/set1/S4.jpg"" width=""540"" height = ""360"" style=""border:16px solid orange"">","null","","","","","","","",""
"null","","html-keyboard-response","258","188217","0.0-258.0","","","null","","","","","","","",""
"718.1999999880791","","image-keyboard-response","259","188936","0.0-259.0","","img/set1/S2.jpg","68","2","random","68","random,structured_incentive,structured_load,structured_normal","3,4,2,3,2,1","true","",""
"null","","html-keyboard-response","260","189287","0.0-260.0","","<img src=""img/set1/S2.jpg"" width=""540"" height = ""360"" style=""border:16px solid orange"">","null","","","","","","","",""
"null","","html-keyboard-response","261","189488","0.0-261.0","","","null","","","","","","","",""
"543.5","","image-keyboard-response","262","190032","0.0-262.0","","img/set1/S1.jpg","83","1","random","83","random,structured_incentive,structured_load,structured_normal","3,4,2,3,2,1","true","",""
"null","","html-keyboard-response","263","190383","0.0-263.0","","<img src=""img/set1/S1.jpg"" width=""540"" height = ""360"" style=""border:16px solid orange"">","null","","","","","","","",""
"null","","html-keyboard-response","264","190584","0.0-264.0","","","null","","","","","","","",""
"574.5","","image-keyboard-response","265","191160","0.0-265.0","","img/set1/S3.jpg","72","3","random","72","random,structured_incentive,structured_load,structured_normal","3,4,2,3,2,1","true","",""
"null","","html-keyboard-response","266","191512","0.0-266.0","","<img src=""img/set1/S3.jpg"" width=""540"" height = ""360"" style=""border:16px solid orange"">","null","","","","","","","",""
"null","","html-keyboard-response","267","191712","0.0-267.0","","","null","","","","","","","",""
"566.7999999523163","","image-keyboard-response","268","192280","0.0-268.0","","img/set1/S4.jpg","74","4","random","74","random,structured_incentive,structured_load,structured_normal","3,4,2,3,2,1","true","",""
"null","","html-keyboard-response","269","192631","0.0-269.0","","<img src=""img/set1/S4.jpg"" width=""540"" height = ""360"" style=""border:16px solid orange"">","null","","","","","","","",""
"null","","html-keyboard-response","270","192832","0.0-270.0","","","null","","","","","","","",""
"422.7999999523163","","image-keyboard-response","271","193256","0.0-271.0","","img/set1/S4.jpg","74","4","random","74","random,structured_incentive,structured_load,structured_normal","3,4,2,3,2,1","true","",""
"null","","html-keyboard-response","272","193608","0.0-272.0","","<img src=""img/set1/S4.jpg"" width=""540"" height = ""360"" style=""border:16px solid orange"">","null","","","","","","","",""
"null","","html-keyboard-response","273","193809","0.0-273.0","","","null","","","","","","","",""
"526.1999999880791","","image-keyboard-response","274","194336","0.0-274.0","","img/set1/S2.jpg","68","2","random","68","random,structured_incentive,structured_load,structured_normal","3,4,2,3,2,1","true","",""
"null","","html-keyboard-response","275","194688","0.0-275.0","","<img src=""img/set1/S2.jpg"" width=""540"" height = ""360"" style=""border:16px solid orange"">","null","","","","","","","",""
"null","","html-keyboard-response","276","194889","0.0-276.0","","","null","","","","","","","",""
"365.9000000357628","","image-keyboard-response","277","195256","0.0-277.0","","img/set1/S2.jpg","68","2","random","68","random,structured_incentive,structured_load,structured_normal","3,4,2,3,2,1","true","",""
"null","","html-keyboard-response","278","195607","0.0-278.0","","<img src=""img/set1/S2.jpg"" width=""540"" height = ""360"" style=""border:16px solid orange"">","null","","","","","","","",""
"null","","html-keyboard-response","279","195808","0.0-279.0","","","null","","","","","","","",""
"590.8000000119209","","image-keyboard-response","280","196400","0.0-280.0","","img/set1/S3.jpg","72","3","random","72","random,structured_incentive,structured_load,structured_normal","3,4,2,3,2,1","true","",""
"null","","html-keyboard-response","281","196751","0.0-281.0","","<img src=""img/set1/S3.jpg"" width=""540"" height = ""360"" style=""border:16px solid orange"">","null","","","","","","","",""
"null","","html-keyboard-response","282","196953","0.0-282.0","","","null","","","","","","","",""
"574.5","","image-keyboard-response","283","197528","0.0-283.0","","img/set1/S1.jpg","83","1","random","83","random,structured_incentive,structured_load,structured_normal","3,4,2,3,2,1","true","",""
"null","","html-keyboard-response","284","197879","0.0-284.0","","<img src=""img/set1/S1.jpg"" width=""540"" height = ""360"" style=""border:16px solid orange"">","null","","","","","","","",""
"null","","html-keyboard-response","285","198080","0.0-285.0","","","null","","","","","","","",""
"438.4000000357628","","image-keyboard-response","286","198520","0.0-286.0","","img/set1/S1.jpg","83","1","random","83","random,structured_incentive,structured_load,structured_normal","3,4,2,3,2,1","true","",""
"null","","html-keyboard-response","287","198872","0.0-287.0","","<img src=""img/set1/S1.jpg"" width=""540"" height = ""360"" style=""border:16px solid orange"">","null","","","","","","","",""
"null","","html-keyboard-response","288","199073","0.0-288.0","","","null","","","","","","","",""
"350.19999998807907","","image-keyboard-response","289","199424","0.0-289.0","","img/set1/S1.jpg","83","1","random","83","random,structured_incentive,structured_load,structured_normal","3,4,2,3,2,1","true","",""
"null","","html-keyboard-response","290","199775","0.0-290.0","","<img src=""img/set1/S1.jpg"" width=""540"" height = ""360"" style=""border:16px solid orange"">","null","","","","","","","",""
"null","","html-keyboard-response","291","199976","0.0-291.0","","","null","","","","","","","",""
"575.2000000476837","","image-keyboard-response","292","200552","0.0-292.0","","img/set1/S2.jpg","68","2","random","68","random,structured_incentive,structured_load,structured_normal","3,4,2,3,2,1","true","",""
"null","","html-keyboard-response","293","200904","0.0-293.0","","<img src=""img/set1/S2.jpg"" width=""540"" height = ""360"" style=""border:16px solid orange"">","null","","","","","","","",""
"null","","html-keyboard-response","294","201105","0.0-294.0","","","null","","","","","","","",""
"669.5","","image-keyboard-response","295","201776","0.0-295.0","","img/set1/S3.jpg","72","3","random","72","random,structured_incentive,structured_load,structured_normal","3,4,2,3,2,1","true","",""
"null","","html-keyboard-response","296","202127","0.0-296.0","","<img src=""img/set1/S3.jpg"" width=""540"" height = ""360"" style=""border:16px solid orange"">","null","","","","","","","",""
"null","","html-keyboard-response","297","202328","0.0-297.0","","","null","","","","","","","",""
"671.0999999642372","","image-keyboard-response","298","203000","0.0-298.0","","img/set1/S2.jpg","68","2","random","68","random,structured_incentive,structured_load,structured_normal","3,4,2,3,2,1","true","",""
"null","","html-keyboard-response","299","203352","0.0-299.0","","<img src=""img/set1/S2.jpg"" width=""540"" height = ""360"" style=""border:16px solid orange"">","null","","","","","","","",""
"null","","html-keyboard-response","300","203554","0.0-300.0","","","null","","","","","","","",""
"341.19999998807907","","image-keyboard-response","301","203896","0.0-301.0","","img/set1/S2.jpg","68","2","random","68","random,structured_incentive,structured_load,structured_normal","3,4,2,3,2,1","true","",""
"null","","html-keyboard-response","302","204247","0.0-302.0","","<img src=""img/set1/S2.jpg"" width=""540"" height = ""360"" style=""border:16px solid orange"">","null","","","","","","","",""
"null","","html-keyboard-response","303","204448","0.0-303.0","","","null","","","","","","","",""
"870.6000000238419","","image-keyboard-response","304","205320","0.0-304.0","","img/set1/S3.jpg","72","3","random","72","random,structured_incentive,structured_load,structured_normal","3,4,2,3,2,1","true","",""
"null","","html-keyboard-response","305","205671","0.0-305.0","","<img src=""img/set1/S3.jpg"" width=""540"" height = ""360"" style=""border:16px solid orange"">","null","","","","","","","",""
"null","","html-keyboard-response","306","205871","0.0-306.0","","","null","","","","","","","",""
"559.9000000357628","","image-keyboard-response","307","206432","0.0-307.0","","img/set1/S4.jpg","74","4","random","74","random,structured_incentive,structured_load,structured_normal","3,4,2,3,2,1","true","",""
"null","","html-keyboard-response","308","206784","0.0-308.0","","<img src=""img/set1/S4.jpg"" width=""540"" height = ""360"" style=""border:16px solid orange"">","null","","","","","","","",""
"null","","html-keyboard-response","309","206986","0.0-309.0","","","null","","","","","","","",""
"565.3000000119209","","image-keyboard-response","310","207552","0.0-310.0","","img/set1/S3.jpg","72","3","random","72","random,structured_incentive,structured_load,structured_normal","3,4,2,3,2,1","true","",""
"null","","html-keyboard-response","311","207904","0.0-311.0","","<img src=""img/set1/S3.jpg"" width=""540"" height = ""360"" style=""border:16px solid orange"">","null","","","","","","","",""
"null","","html-keyboard-response","312","208105","0.0-312.0","","","null","","","","","","","",""
"358.2999999523163","","image-keyboard-response","313","208464","0.0-313.0","","img/set1/S3.jpg","72","3","random","72","random,structured_incentive,structured_load,structured_normal","3,4,2,3,2,1","true","",""
"null","","html-keyboard-response","314","208816","0.0-314.0","","<img src=""img/set1/S3.jpg"" width=""540"" height = ""360"" style=""border:16px solid orange"">","null","","","","","","","",""
"null","","html-keyboard-response","315","209016","0.0-315.0","","","null","","","","","","","",""
"606.8999999761581","","image-keyboard-response","316","209624","0.0-316.0","","img/set1/S1.jpg","83","1","random","83","random,structured_incentive,structured_load,structured_normal","3,4,2,3,2,1","true","",""
"null","","html-keyboard-response","317","209976","0.0-317.0","","<img src=""img/set1/S1.jpg"" width=""540"" height = ""360"" style=""border:16px solid orange"">","null","","","","","","","",""
"null","","html-keyboard-response","318","210177","0.0-318.0","","","null","","","","","","","",""
"566.3999999761581","","image-keyboard-response","319","210744","0.0-319.0","","img/set1/S3.jpg","72","3","random","72","random,structured_incentive,structured_load,structured_normal","3,4,2,3,2,1","true","",""
"null","","html-keyboard-response","320","211096","0.0-320.0","","<img src=""img/set1/S3.jpg"" width=""540"" height = ""360"" style=""border:16px solid orange"">","null","","","","","","","",""
"null","","html-keyboard-response","321","211297","0.0-321.0","","","null","","","","","","","",""
"710.1999999880791","","image-keyboard-response","322","212008","0.0-322.0","","img/set1/S1.jpg","83","1","random","83","random,structured_incentive,structured_load,structured_normal","3,4,2,3,2,1","true","",""
"null","","html-keyboard-response","323","212360","0.0-323.0","","<img src=""img/set1/S1.jpg"" width=""540"" height = ""360"" style=""border:16px solid orange"">","null","","","","","","","",""
"null","","html-keyboard-response","324","212561","0.0-324.0","","","null","","","","","","","",""
"429.9000000357628","","image-keyboard-response","325","212992","0.0-325.0","","img/set1/S1.jpg","83","1","random","83","random,structured_incentive,structured_load,structured_normal","3,4,2,3,2,1","true","",""
"null","","html-keyboard-response","326","213344","0.0-326.0","","<img src=""img/set1/S1.jpg"" width=""540"" height = ""360"" style=""border:16px solid orange"">","null","","","","","","","",""
"null","","html-keyboard-response","327","213545","0.0-327.0","","","null","","","","","","","",""
"390.2999999523163","","image-keyboard-response","328","213936","0.0-328.0","","img/set1/S1.jpg","83","1","random","83","random,structured_incentive,structured_load,structured_normal","3,4,2,3,2,1","true","",""
"null","","html-keyboard-response","329","214287","0.0-329.0","","<img src=""img/set1/S1.jpg"" width=""540"" height = ""360"" style=""border:16px solid orange"">","null","","","","","","","",""
"null","","html-keyboard-response","330","214488","0.0-330.0","","","null","","","","","","","",""
"599","","image-keyboard-response","331","215088","0.0-331.0","","img/set1/S2.jpg","68","2","random","68","random,structured_incentive,structured_load,structured_normal","3,4,2,3,2,1","true","",""
"null","","html-keyboard-response","332","215440","0.0-332.0","","<img src=""img/set1/S2.jpg"" width=""540"" height = ""360"" style=""border:16px solid orange"">","null","","","","","","","",""
"null","","html-keyboard-response","333","215641","0.0-333.0","","","null","","","","","","","",""
"597.8999999761581","","image-keyboard-response","334","216240","0.0-334.0","","img/set1/S4.jpg","74","4","random","74","random,structured_incentive,structured_load,structured_normal","3,4,2,3,2,1","true","",""
"null","","html-keyboard-response","335","216592","0.0-335.0","","<img src=""img/set1/S4.jpg"" width=""540"" height = ""360"" style=""border:16px solid orange"">","null","","","","","","","",""
"null","","html-keyboard-response","336","216792","0.0-336.0","","","null","","","","","","","",""
"391.10000002384186","","image-keyboard-response","337","217184","0.0-337.0","","img/set1/S4.jpg","74","4","random","74","random,structured_incentive,structured_load,structured_normal","3,4,2,3,2,1","true","",""
"null","","html-keyboard-response","338","217536","0.0-338.0","","<img src=""img/set1/S4.jpg"" width=""540"" height = ""360"" style=""border:16px solid orange"">","null","","","","","","","",""
"null","","html-keyboard-response","339","217737","0.0-339.0","","","null","","","","","","","",""
"405.7999999523163","","image-keyboard-response","340","218144","0.0-340.0","","img/set1/S4.jpg","74","4","random","74","random,structured_incentive,structured_load,structured_normal","3,4,2,3,2,1","true","",""
"null","","html-keyboard-response","341","218496","0.0-341.0","","<img src=""img/set1/S4.jpg"" width=""540"" height = ""360"" style=""border:16px solid orange"">","null","","","","","","","",""
"null","","html-keyboard-response","342","218697","0.0-342.0","","","null","","","","","","","",""
"350.39999997615814","","image-keyboard-response","343","219047","0.0-343.0","","img/set1/S4.jpg","74","4","random","74","random,structured_incentive,structured_load,structured_normal","3,4,2,3,2,1","true","",""
"null","","html-keyboard-response","344","219399","0.0-344.0","","<img src=""img/set1/S4.jpg"" width=""540"" height = ""360"" style=""border:16px solid orange"">","null","","","","","","","",""
"null","","html-keyboard-response","345","219601","0.0-345.0","","","null","","","","","","","",""
"654.2000000476837","","image-keyboard-response","346","220256","0.0-346.0","","img/set1/S1.jpg","83","1","random","83","random,structured_incentive,structured_load,structured_normal","3,4,2,3,2,1","true","",""
"null","","html-keyboard-response","347","220607","0.0-347.0","","<img src=""img/set1/S1.jpg"" width=""540"" height = ""360"" style=""border:16px solid orange"">","null","","","","","","","",""
"null","","html-keyboard-response","348","220808","0.0-348.0","","","null","","","","","","","",""
"638.5","","image-keyboard-response","349","221447","0.0-349.0","","img/set1/S3.jpg","72","3","random","72","random,structured_incentive,structured_load,structured_normal","3,4,2,3,2,1","true","",""
"null","","html-keyboard-response","350","221799","0.0-350.0","","<img src=""img/set1/S3.jpg"" width=""540"" height = ""360"" style=""border:16px solid orange"">","null","","","","","","","",""
"null","","html-keyboard-response","351","222000","0.0-351.0","","","null","","","","","","","",""
"734.5","","image-keyboard-response","352","222735","0.0-352.0","","img/set1/S1.jpg","83","1","random","83","random,structured_incentive,structured_load,structured_normal","3,4,2,3,2,1","true","",""
"null","","html-keyboard-response","353","223087","0.0-353.0","","<img src=""img/set1/S1.jpg"" width=""540"" height = ""360"" style=""border:16px solid orange"">","null","","","","","","","",""
"null","","html-keyboard-response","354","223288","0.0-354.0","","","null","","","","","","","",""
"582.1999999880791","","image-keyboard-response","355","223871","0.0-355.0","","img/set1/S4.jpg","74","4","random","74","random,structured_incentive,structured_load,structured_normal","3,4,2,3,2,1","true","",""
"null","","html-keyboard-response","356","224223","0.0-356.0","","<img src=""img/set1/S4.jpg"" width=""540"" height = ""360"" style=""border:16px solid orange"">","null","","","","","","","",""
"null","","html-keyboard-response","357","224425","0.0-357.0","","","null","","","","","","","",""
"605.8999999761581","","image-keyboard-response","358","225031","0.0-358.0","","img/set1/S3.jpg","72","3","random","72","random,structured_incentive,structured_load,structured_normal","3,4,2,3,2,1","true","",""
"null","","html-keyboard-response","359","225383","0.0-359.0","","<img src=""img/set1/S3.jpg"" width=""540"" height = ""360"" style=""border:16px solid orange"">","null","","","","","","","",""
"null","","html-keyboard-response","360","225584","0.0-360.0","","","null","","","","","","","",""
"422.5","","image-keyboard-response","361","226007","0.0-361.0","","img/set1/S2.jpg","68","2","random","68","random,structured_incentive,structured_load,structured_normal","3,4,2,3,2,1","true","",""
"null","","html-keyboard-response","362","226359","0.0-362.0","","<img src=""img/set1/S2.jpg"" width=""540"" height = ""360"" style=""border:16px solid orange"">","null","","","","","","","",""
"null","","html-keyboard-response","363","226560","0.0-363.0","","","null","","","","","","","",""
"3294.600000023842","","html-keyboard-response","364","229856","0.0-364.0","","<p class=""center-content"">You have completed a block! </p><p class=""center-content"">Press any key on the keyboard to continue, </p><p class=""center-content"">or wait for the automatic progression to the next block after one minute.</p>","83","","","","","","","",""
"4169.5","","instructions","365","234026","0.0-365.0","[{""page_index"":0,""viewing_time"":4169.099999964237}]","","","","","","","","","",""
"13353.699999988079","","instructions","366","247380","0.0-366.0","[{""page_index"":0,""viewing_time"":6975.300000011921},{""page_index"":1,""viewing_time"":6377.899999976158}]","","","","","","","","","",""
"1683.1000000238419","","image-keyboard-response","367","249064","0.0-367.0","","img/set2/S3.jpg","83","3","structured_incentive","72","random,structured_incentive,structured_load,structured_normal","3,4,2,3,2,1","false","",""
"null","","html-keyboard-response","368","249416","0.0-368.0","","<img src=""img/set2/S3.jpg"" width=""540"" height = ""360"">","null","","","","","","","",""
"null","","html-keyboard-response","369","249616","0.0-369.0","","","null","","","","","","","",""
"566.1999999880791","","image-keyboard-response","370","250183","0.0-370.0","","img/set2/S4.jpg","83","4","structured_incentive","74","random,structured_incentive,structured_load,structured_normal","3,4,2,3,2,1","false","",""
"null","","html-keyboard-response","371","250535","0.0-371.0","","<img src=""img/set2/S4.jpg"" width=""540"" height = ""360"">","null","","","","","","","",""
"null","","html-keyboard-response","372","250736","0.0-372.0","","","null","","","","","","","",""
"742.9000000357628","","image-keyboard-response","373","251480","0.0-373.0","","img/set2/S3.jpg","68","3","structured_incentive","72","random,structured_incentive,structured_load,structured_normal","3,4,2,3,2,1","false","",""
"null","","html-keyboard-response","374","251831","0.0-374.0","","<img src=""img/set2/S3.jpg"" width=""540"" height = ""360"">","null","","","","","","","",""
"null","","html-keyboard-response","375","252032","0.0-375.0","","","null","","","","","","","",""
"534.5","","image-keyboard-response","376","252567","0.0-376.0","","img/set2/S4.jpg","68","4","structured_incentive","74","random,structured_incentive,structured_load,structured_normal","3,4,2,3,2,1","false","",""
"null","","html-keyboard-response","377","252919","0.0-377.0","","<img src=""img/set2/S4.jpg"" width=""540"" height = ""360"">","null","","","","","","","",""
"null","","html-keyboard-response","378","253120","0.0-378.0","","","null","","","","","","","",""
"854.7999999523163","","image-keyboard-response","379","253975","0.0-379.0","","img/set2/S1.jpg","83","1","structured_incentive","83","random,structured_incentive,structured_load,structured_normal","3,4,2,3,2,1","true","",""
"null","","html-keyboard-response","380","254327","0.0-380.0","","<img src=""img/set2/S1.jpg"" width=""540"" height = ""360"" style=""border:16px solid orange"">","null","","","","","","","",""
"null","","html-keyboard-response","381","254528","0.0-381.0","","","null","","","","","","","",""
"1182.2999999523163","","image-keyboard-response","382","255711","0.0-382.0","","img/set2/S3.jpg","74","3","structured_incentive","72","random,structured_incentive,structured_load,structured_normal","3,4,2,3,2,1","false","",""
"null","","html-keyboard-response","383","256063","0.0-383.0","","<img src=""img/set2/S3.jpg"" width=""540"" height = ""360"">","null","","","","","","","",""
"null","","html-keyboard-response","384","256265","0.0-384.0","","","null","","","","","","","",""
"733.7999999523163","","image-keyboard-response","385","256999","0.0-385.0","","img/set2/S4.jpg","74","4","structured_incentive","74","random,structured_incentive,structured_load,structured_normal","3,4,2,3,2,1","true","",""
"null","","html-keyboard-response","386","257351","0.0-386.0","","<img src=""img/set2/S4.jpg"" width=""540"" height = ""360"" style=""border:16px solid Violet"">","null","","","","","","","",""
"null","","html-keyboard-response","387","257566","0.0-387.0","","","null","","","","","","","",""
"1080.3999999761581","","image-keyboard-response","388","258647","0.0-388.0","","img/set2/S1.jpg","83","1","structured_incentive","83","random,structured_incentive,structured_load,structured_normal","3,4,2,3,2,1","true","",""
"null","","html-keyboard-response","389","258999","0.0-389.0","","<img src=""img/set2/S1.jpg"" width=""540"" height = ""360"" style=""border:16px solid orange"">","null","","","","","","","",""
"null","","html-keyboard-response","390","259201","0.0-390.0","","","null","","","","","","","",""
"null","","image-keyboard-response","391","261702","0.0-391.0","","img/set2/S3.jpg","null","3","structured_incentive","72","random,structured_incentive,structured_load,structured_normal","3,4,2,3,2,1","false","",""
"null","","html-keyboard-response","392","262053","0.0-392.0","","<img src=""img/set2/S3.jpg"" width=""540"" height = ""360"">","null","","","","","","","",""
"null","","html-keyboard-response","393","262254","0.0-393.0","","","null","","","","","","","",""
"72.60000002384186","","image-keyboard-response","394","262327","0.0-394.0","","img/set2/S4.jpg","72","4","structured_incentive","74","random,structured_incentive,structured_load,structured_normal","3,4,2,3,2,1","false","",""
"null","","html-keyboard-response","395","262680","0.0-395.0","","<img src=""img/set2/S4.jpg"" width=""540"" height = ""360"">","null","","","","","","","",""
"null","","html-keyboard-response","396","262881","0.0-396.0","","","null","","","","","","","",""
"1158.300000011921","","image-keyboard-response","397","264039","0.0-397.0","","img/set2/S3.jpg","72","3","structured_incentive","72","random,structured_incentive,structured_load,structured_normal","3,4,2,3,2,1","true","",""
"null","","html-keyboard-response","398","264392","0.0-398.0","","<img src=""img/set2/S3.jpg"" width=""540"" height = ""360"" style=""border:16px solid orange"">","null","","","","","","","",""
"null","","html-keyboard-response","399","264593","0.0-399.0","","","null","","","","","","","",""
"1086.1000000238419","","image-keyboard-response","400","265679","0.0-400.0","","img/set2/S4.jpg","74","4","structured_incentive","74","random,structured_incentive,structured_load,structured_normal","3,4,2,3,2,1","true","",""
"null","","html-keyboard-response","401","266031","0.0-401.0","","<img src=""img/set2/S4.jpg"" width=""540"" height = ""360"" style=""border:16px solid Violet"">","null","","","","","","","",""
"null","","html-keyboard-response","402","266232","0.0-402.0","","","null","","","","","","","",""
"646.8999999761581","","image-keyboard-response","403","266879","0.0-403.0","","img/set2/S3.jpg","72","3","structured_incentive","72","random,structured_incentive,structured_load,structured_normal","3,4,2,3,2,1","true","",""
"null","","html-keyboard-response","404","267232","0.0-404.0","","<img src=""img/set2/S3.jpg"" width=""540"" height = ""360"" style=""border:16px solid orange"">","null","","","","","","","",""
"null","","html-keyboard-response","405","267434","0.0-405.0","","","null","","","","","","","",""
"725.0999999642372","","image-keyboard-response","406","268159","0.0-406.0","","img/set2/S4.jpg","74","4","structured_incentive","74","random,structured_incentive,structured_load,structured_normal","3,4,2,3,2,1","true","",""
"null","","html-keyboard-response","407","268510","0.0-407.0","","<img src=""img/set2/S4.jpg"" width=""540"" height = ""360"" style=""border:16px solid Violet"">","null","","","","","","","",""
"null","","html-keyboard-response","408","268716","0.0-408.0","","","null","","","","","","","",""
"746.6000000238419","","image-keyboard-response","409","269463","0.0-409.0","","img/set2/S3.jpg","72","3","structured_incentive","72","random,structured_incentive,structured_load,structured_normal","3,4,2,3,2,1","true","",""
"null","","html-keyboard-response","410","269815","0.0-410.0","","<img src=""img/set2/S3.jpg"" width=""540"" height = ""360"" style=""border:16px solid orange"">","null","","","","","","","",""
"null","","html-keyboard-response","411","270016","0.0-411.0","","","null","","","","","","","",""
"454.69999998807907","","image-keyboard-response","412","270471","0.0-412.0","","img/set2/S4.jpg","74","4","structured_incentive","74","random,structured_incentive,structured_load,structured_normal","3,4,2,3,2,1","true","",""
"null","","html-keyboard-response","413","270824","0.0-413.0","","<img src=""img/set2/S4.jpg"" width=""540"" height = ""360"" style=""border:16px solid Violet"">","null","","","","","","","",""
"null","","html-keyboard-response","414","271025","0.0-414.0","","","null","","","","","","","",""
"781.6000000238419","","image-keyboard-response","415","271807","0.0-415.0","","img/set2/S1.jpg","83","1","structured_incentive","83","random,structured_incentive,structured_load,structured_normal","3,4,2,3,2,1","true","",""
"null","","html-keyboard-response","416","272160","0.0-416.0","","<img src=""img/set2/S1.jpg"" width=""540"" height = ""360"" style=""border:16px solid orange"">","null","","","","","","","",""
"null","","html-keyboard-response","417","272361","0.0-417.0","","","null","","","","","","","",""
"398.2000000476837","","image-keyboard-response","418","272759","0.0-418.0","","img/set2/S1.jpg","83","1","structured_incentive","83","random,structured_incentive,structured_load,structured_normal","3,4,2,3,2,1","true","",""
"null","","html-keyboard-response","419","273111","0.0-419.0","","<img src=""img/set2/S1.jpg"" width=""540"" height = ""360"" style=""border:16px solid orange"">","null","","","","","","","",""
"null","","html-keyboard-response","420","273312","0.0-420.0","","","null","","","","","","","",""
"830.0999999642372","","image-keyboard-response","421","274143","0.0-421.0","","img/set2/S3.jpg","72","3","structured_incentive","72","random,structured_incentive,structured_load,structured_normal","3,4,2,3,2,1","true","",""
"null","","html-keyboard-response","422","274495","0.0-422.0","","<img src=""img/set2/S3.jpg"" width=""540"" height = ""360"" style=""border:16px solid orange"">","null","","","","","","","",""
"null","","html-keyboard-response","423","274696","0.0-423.0","","","null","","","","","","","",""
"606.5999999642372","","image-keyboard-response","424","275303","0.0-424.0","","img/set2/S4.jpg","74","4","structured_incentive","74","random,structured_incentive,structured_load,structured_normal","3,4,2,3,2,1","true","",""
"null","","html-keyboard-response","425","275655","0.0-425.0","","<img src=""img/set2/S4.jpg"" width=""540"" height = ""360"" style=""border:16px solid Violet"">","null","","","","","","","",""
"null","","html-keyboard-response","426","275856","0.0-426.0","","","null","","","","","","","",""
"590.3000000119209","","image-keyboard-response","427","276447","0.0-427.0","","img/set2/S1.jpg","83","1","structured_incentive","83","random,structured_incentive,structured_load,structured_normal","3,4,2,3,2,1","true","",""
"null","","html-keyboard-response","428","276799","0.0-428.0","","<img src=""img/set2/S1.jpg"" width=""540"" height = ""360"" style=""border:16px solid orange"">","null","","","","","","","",""
"null","","html-keyboard-response","429","277000","0.0-429.0","","","null","","","","","","","",""
"366.60000002384186","","image-keyboard-response","430","277367","0.0-430.0","","img/set2/S1.jpg","83","1","structured_incentive","83","random,structured_incentive,structured_load,structured_normal","3,4,2,3,2,1","true","",""
"null","","html-keyboard-response","431","277719","0.0-431.0","","<img src=""img/set2/S1.jpg"" width=""540"" height = ""360"" style=""border:16px solid orange"">","null","","","","","","","",""
"null","","html-keyboard-response","432","277920","0.0-432.0","","","null","","","","","","","",""
"670","","image-keyboard-response","433","278591","0.0-433.0","","img/set2/S2.jpg","68","2","structured_incentive","68","random,structured_incentive,structured_load,structured_normal","3,4,2,3,2,1","true","",""
"null","","html-keyboard-response","434","278943","0.0-434.0","","<img src=""img/set2/S2.jpg"" width=""540"" height = ""360"" style=""border:16px solid orange"">","null","","","","","","","",""
"null","","html-keyboard-response","435","279144","0.0-435.0","","","null","","","","","","","",""
"574.5","","image-keyboard-response","436","279720","0.0-436.0","","img/set2/S1.jpg","83","1","structured_incentive","83","random,structured_incentive,structured_load,structured_normal","3,4,2,3,2,1","true","",""
"null","","html-keyboard-response","437","280071","0.0-437.0","","<img src=""img/set2/S1.jpg"" width=""540"" height = ""360"" style=""border:16px solid orange"">","null","","","","","","","",""
"null","","html-keyboard-response","438","280272","0.0-438.0","","","null","","","","","","","",""
"550.8999999761581","","image-keyboard-response","439","280824","0.0-439.0","","img/set2/S3.jpg","72","3","structured_incentive","72","random,structured_incentive,structured_load,structured_normal","3,4,2,3,2,1","true","",""
"null","","html-keyboard-response","440","281175","0.0-440.0","","<img src=""img/set2/S3.jpg"" width=""540"" height = ""360"" style=""border:16px solid orange"">","null","","","","","","","",""
"null","","html-keyboard-response","441","281376","0.0-441.0","","","null","","","","","","","",""
"454.60000002384186","","image-keyboard-response","442","281832","0.0-442.0","","img/set2/S4.jpg","74","4","structured_incentive","74","random,structured_incentive,structured_load,structured_normal","3,4,2,3,2,1","true","",""
"null","","html-keyboard-response","443","282183","0.0-443.0","","<img src=""img/set2/S4.jpg"" width=""540"" height = ""360"" style=""border:16px solid Violet"">","null","","","","","","","",""
"null","","html-keyboard-response","444","282384","0.0-444.0","","","null","","","","","","","",""
"1158.5999999642372","","image-keyboard-response","445","283544","0.0-445.0","","img/set2/S3.jpg","72","3","structured_incentive","72","random,structured_incentive,structured_load,structured_normal","3,4,2,3,2,1","true","",""
"null","","html-keyboard-response","446","283896","0.0-446.0","","<img src=""img/set2/S3.jpg"" width=""540"" height = ""360"" style=""border:16px solid orange"">","null","","","","","","","",""
"null","","html-keyboard-response","447","284097","0.0-447.0","","","null","","","","","","","",""
"558.1000000238419","","image-keyboard-response","448","284656","0.0-448.0","","img/set2/S4.jpg","74","4","structured_incentive","74","random,structured_incentive,structured_load,structured_normal","3,4,2,3,2,1","true","",""
"null","","html-keyboard-response","449","285007","0.0-449.0","","<img src=""img/set2/S4.jpg"" width=""540"" height = ""360"" style=""border:16px solid Violet"">","null","","","","","","","",""
"null","","html-keyboard-response","450","285208","0.0-450.0","","","null","","","","","","","",""
"598.8999999761581","","image-keyboard-response","451","285808","0.0-451.0","","img/set2/S1.jpg","83","1","structured_incentive","83","random,structured_incentive,structured_load,structured_normal","3,4,2,3,2,1","true","",""
"null","","html-keyboard-response","452","286160","0.0-452.0","","<img src=""img/set2/S1.jpg"" width=""540"" height = ""360"" style=""border:16px solid orange"">","null","","","","","","","",""
"null","","html-keyboard-response","453","286361","0.0-453.0","","","null","","","","","","","",""
"414","","image-keyboard-response","454","286776","0.0-454.0","","img/set2/S2.jpg","68","2","structured_incentive","68","random,structured_incentive,structured_load,structured_normal","3,4,2,3,2,1","true","",""
"null","","html-keyboard-response","455","287128","0.0-455.0","","<img src=""img/set2/S2.jpg"" width=""540"" height = ""360"" style=""border:16px solid orange"">","null","","","","","","","",""
"null","","html-keyboard-response","456","287329","0.0-456.0","","","null","","","","","","","",""
"461.69999998807907","","image-keyboard-response","457","287792","0.0-457.0","","img/set2/S3.jpg","72","3","structured_incentive","72","random,structured_incentive,structured_load,structured_normal","3,4,2,3,2,1","true","",""
"null","","html-keyboard-response","458","288144","0.0-458.0","","<img src=""img/set2/S3.jpg"" width=""540"" height = ""360"" style=""border:16px solid orange"">","null","","","","","","","",""
"null","","html-keyboard-response","459","288345","0.0-459.0","","","null","","","","","","","",""
"405.69999998807907","","image-keyboard-response","460","288752","0.0-460.0","","img/set2/S4.jpg","74","4","structured_incentive","74","random,structured_incentive,structured_load,structured_normal","3,4,2,3,2,1","true","",""
"null","","html-keyboard-response","461","289104","0.0-461.0","","<img src=""img/set2/S4.jpg"" width=""540"" height = ""360"" style=""border:16px solid Violet"">","null","","","","","","","",""
"null","","html-keyboard-response","462","289305","0.0-462.0","","","null","","","","","","","",""
"845.8000000119209","","image-keyboard-response","463","290152","0.0-463.0","","img/set2/S2.jpg","68","2","structured_incentive","68","random,structured_incentive,structured_load,structured_normal","3,4,2,3,2,1","true","",""
"null","","html-keyboard-response","464","290504","0.0-464.0","","<img src=""img/set2/S2.jpg"" width=""540"" height = ""360"" style=""border:16px solid orange"">","null","","","","","","","",""
"null","","html-keyboard-response","465","290705","0.0-465.0","","","null","","","","","","","",""
"414.30000001192093","","image-keyboard-response","466","291120","0.0-466.0","","img/set2/S2.jpg","68","2","structured_incentive","68","random,structured_incentive,structured_load,structured_normal","3,4,2,3,2,1","true","",""
"null","","html-keyboard-response","467","291472","0.0-467.0","","<img src=""img/set2/S2.jpg"" width=""540"" height = ""360"" style=""border:16px solid orange"">","null","","","","","","","",""
"null","","html-keyboard-response","468","291686","0.0-468.0","","","null","","","","","","","",""
"329.30000001192093","","image-keyboard-response","469","292016","0.0-469.0","","img/set2/S2.jpg","68","2","structured_incentive","68","random,structured_incentive,structured_load,structured_normal","3,4,2,3,2,1","true","",""
"null","","html-keyboard-response","470","292368","0.0-470.0","","<img src=""img/set2/S2.jpg"" width=""540"" height = ""360"" style=""border:16px solid orange"">","null","","","","","","","",""
"null","","html-keyboard-response","471","292569","0.0-471.0","","","null","","","","","","","",""
"518.3000000119209","","image-keyboard-response","472","293088","0.0-472.0","","img/set2/S1.jpg","83","1","structured_incentive","83","random,structured_incentive,structured_load,structured_normal","3,4,2,3,2,1","true","",""
"null","","html-keyboard-response","473","293439","0.0-473.0","","<img src=""img/set2/S1.jpg"" width=""540"" height = ""360"" style=""border:16px solid orange"">","null","","","","","","","",""
"null","","html-keyboard-response","474","293640","0.0-474.0","","","null","","","","","","","",""
"414.60000002384186","","image-keyboard-response","475","294056","0.0-475.0","","img/set2/S1.jpg","83","1","structured_incentive","83","random,structured_incentive,structured_load,structured_normal","3,4,2,3,2,1","true","",""
"null","","html-keyboard-response","476","294408","0.0-476.0","","<img src=""img/set2/S1.jpg"" width=""540"" height = ""360"" style=""border:16px solid orange"">","null","","","","","","","",""
"null","","html-keyboard-response","477","294609","0.0-477.0","","","null","","","","","","","",""
"1141.800000011921","","image-keyboard-response","478","295752","0.0-478.0","","img/set2/S3.jpg","72","3","structured_incentive","72","random,structured_incentive,structured_load,structured_normal","3,4,2,3,2,1","true","",""
"null","","html-keyboard-response","479","296103","0.0-479.0","","<img src=""img/set2/S3.jpg"" width=""540"" height = ""360"" style=""border:16px solid orange"">","null","","","","","","","",""
"null","","html-keyboard-response","480","296304","0.0-480.0","","","null","","","","","","","",""
"534.9000000357628","","image-keyboard-response","481","296840","0.0-481.0","","img/set2/S4.jpg","74","4","structured_incentive","74","random,structured_incentive,structured_load,structured_normal","3,4,2,3,2,1","true","",""
"null","","html-keyboard-response","482","297192","0.0-482.0","","<img src=""img/set2/S4.jpg"" width=""540"" height = ""360"" style=""border:16px solid Violet"">","null","","","","","","","",""
"null","","html-keyboard-response","483","297393","0.0-483.0","","","null","","","","","","","",""
"646.1999999880791","","image-keyboard-response","484","298040","0.0-484.0","","img/set2/S3.jpg","72","3","structured_incentive","72","random,structured_incentive,structured_load,structured_normal","3,4,2,3,2,1","true","",""
"null","","html-keyboard-response","485","298392","0.0-485.0","","<img src=""img/set2/S3.jpg"" width=""540"" height = ""360"" style=""border:16px solid orange"">","null","","","","","","","",""
"null","","html-keyboard-response","486","298593","0.0-486.0","","","null","","","","","","","",""
"398.5","","image-keyboard-response","487","298992","0.0-487.0","","img/set2/S4.jpg","74","4","structured_incentive","74","random,structured_incentive,structured_load,structured_normal","3,4,2,3,2,1","true","",""
"null","","html-keyboard-response","488","299344","0.0-488.0","","<img src=""img/set2/S4.jpg"" width=""540"" height = ""360"" style=""border:16px solid Violet"">","null","","","","","","","",""
"null","","html-keyboard-response","489","299545","0.0-489.0","","","null","","","","","","","",""
"565.6999999880791","","image-keyboard-response","490","300112","0.0-490.0","","img/set2/S1.jpg","83","1","structured_incentive","83","random,structured_incentive,structured_load,structured_normal","3,4,2,3,2,1","true","",""
"null","","html-keyboard-response","491","300464","0.0-491.0","","<img src=""img/set2/S1.jpg"" width=""540"" height = ""360"" style=""border:16px solid orange"">","null","","","","","","","",""
"null","","html-keyboard-response","492","300665","0.0-492.0","","","null","","","","","","","",""
"422.10000002384186","","image-keyboard-response","493","301088","0.0-493.0","","img/set2/S1.jpg","83","1","structured_incentive","83","random,structured_incentive,structured_load,structured_normal","3,4,2,3,2,1","true","",""
"null","","html-keyboard-response","494","301439","0.0-494.0","","<img src=""img/set2/S1.jpg"" width=""540"" height = ""360"" style=""border:16px solid orange"">","null","","","","","","","",""
"null","","html-keyboard-response","495","301640","0.0-495.0","","","null","","","","","","","",""
"575.3000000119209","","image-keyboard-response","496","302216","0.0-496.0","","img/set2/S2.jpg","68","2","structured_incentive","68","random,structured_incentive,structured_load,structured_normal","3,4,2,3,2,1","true","",""
"null","","html-keyboard-response","497","302567","0.0-497.0","","<img src=""img/set2/S2.jpg"" width=""540"" height = ""360"" style=""border:16px solid orange"">","null","","","","","","","",""
"null","","html-keyboard-response","498","302768","0.0-498.0","","","null","","","","","","","",""
"542.8999999761581","","image-keyboard-response","499","303312","0.0-499.0","","img/set2/S3.jpg","72","3","structured_incentive","72","random,structured_incentive,structured_load,structured_normal","3,4,2,3,2,1","true","",""
"null","","html-keyboard-response","500","303664","0.0-500.0","","<img src=""img/set2/S3.jpg"" width=""540"" height = ""360"" style=""border:16px solid orange"">","null","","","","","","","",""
"null","","html-keyboard-response","501","303865","0.0-501.0","","","null","","","","","","","",""
"1126.699999988079","","image-keyboard-response","502","304992","0.0-502.0","","img/set2/S4.jpg","74","4","structured_incentive","74","random,structured_incentive,structured_load,structured_normal","3,4,2,3,2,1","true","",""
"null","","html-keyboard-response","503","305344","0.0-503.0","","<img src=""img/set2/S4.jpg"" width=""540"" height = ""360"" style=""border:16px solid Violet"">","null","","","","","","","",""
"null","","html-keyboard-response","504","305545","0.0-504.0","","","null","","","","","","","",""
"622.5","","image-keyboard-response","505","306168","0.0-505.0","","img/set2/S2.jpg","68","2","structured_incentive","68","random,structured_incentive,structured_load,structured_normal","3,4,2,3,2,1","true","",""
"null","","html-keyboard-response","506","306520","0.0-506.0","","<img src=""img/set2/S2.jpg"" width=""540"" height = ""360"" style=""border:16px solid orange"">","null","","","","","","","",""
"null","","html-keyboard-response","507","306720","0.0-507.0","","","null","","","","","","","",""
"415","","image-keyboard-response","508","307136","0.0-508.0","","img/set2/S2.jpg","68","2","structured_incentive","68","random,structured_incentive,structured_load,structured_normal","3,4,2,3,2,1","true","",""
"null","","html-keyboard-response","509","307487","0.0-509.0","","<img src=""img/set2/S2.jpg"" width=""540"" height = ""360"" style=""border:16px solid orange"">","null","","","","","","","",""
"null","","html-keyboard-response","510","307689","0.0-510.0","","","null","","","","","","","",""
"382.69999998807907","","image-keyboard-response","511","308072","0.0-511.0","","img/set2/S2.jpg","68","2","structured_incentive","68","random,structured_incentive,structured_load,structured_normal","3,4,2,3,2,1","true","",""
"null","","html-keyboard-response","512","308424","0.0-512.0","","<img src=""img/set2/S2.jpg"" width=""540"" height = ""360"" style=""border:16px solid orange"">","null","","","","","","","",""
"null","","html-keyboard-response","513","308625","0.0-513.0","","","null","","","","","","","",""
"526.1999999880791","","image-keyboard-response","514","309152","0.0-514.0","","img/set2/S3.jpg","72","3","structured_incentive","72","random,structured_incentive,structured_load,structured_normal","3,4,2,3,2,1","true","",""
"null","","html-keyboard-response","515","309504","0.0-515.0","","<img src=""img/set2/S3.jpg"" width=""540"" height = ""360"" style=""border:16px solid orange"">","null","","","","","","","",""
"null","","html-keyboard-response","516","309705","0.0-516.0","","","null","","","","","","","",""
"478.30000001192093","","image-keyboard-response","517","310184","0.0-517.0","","img/set2/S4.jpg","74","4","structured_incentive","74","random,structured_incentive,structured_load,structured_normal","3,4,2,3,2,1","true","",""
"null","","html-keyboard-response","518","310535","0.0-518.0","","<img src=""img/set2/S4.jpg"" width=""540"" height = ""360"" style=""border:16px solid Violet"">","null","","","","","","","",""
"null","","html-keyboard-response","519","310737","0.0-519.0","","","null","","","","","","","",""
"686.6000000238419","","image-keyboard-response","520","311424","0.0-520.0","","img/set2/S1.jpg","83","1","structured_incentive","83","random,structured_incentive,structured_load,structured_normal","3,4,2,3,2,1","true","",""
"null","","html-keyboard-response","521","311775","0.0-521.0","","<img src=""img/set2/S1.jpg"" width=""540"" height = ""360"" style=""border:16px solid orange"">","null","","","","","","","",""
"null","","html-keyboard-response","522","311976","0.0-522.0","","","null","","","","","","","",""
"487.4000000357628","","image-keyboard-response","523","312464","0.0-523.0","","img/set2/S2.jpg","68","2","structured_incentive","68","random,structured_incentive,structured_load,structured_normal","3,4,2,3,2,1","true","",""
"null","","html-keyboard-response","524","312816","0.0-524.0","","<img src=""img/set2/S2.jpg"" width=""540"" height = ""360"" style=""border:16px solid orange"">","null","","","","","","","",""
"null","","html-keyboard-response","525","313017","0.0-525.0","","","null","","","","","","","",""
"478.5","","image-keyboard-response","526","313496","0.0-526.0","","img/set2/S2.jpg","68","2","structured_incentive","68","random,structured_incentive,structured_load,structured_normal","3,4,2,3,2,1","true","",""
"null","","html-keyboard-response","527","313848","0.0-527.0","","<img src=""img/set2/S2.jpg"" width=""540"" height = ""360"" style=""border:16px solid orange"">","null","","","","","","","",""
"null","","html-keyboard-response","528","314048","0.0-528.0","","","null","","","","","","","",""
"566.7000000476837","","image-keyboard-response","529","314616","0.0-529.0","","img/set2/S3.jpg","72","3","structured_incentive","72","random,structured_incentive,structured_load,structured_normal","3,4,2,3,2,1","true","",""
"null","","html-keyboard-response","530","314968","0.0-530.0","","<img src=""img/set2/S3.jpg"" width=""540"" height = ""360"" style=""border:16px solid orange"">","null","","","","","","","",""
"null","","html-keyboard-response","531","315169","0.0-531.0","","","null","","","","","","","",""
"422.19999998807907","","image-keyboard-response","532","315592","0.0-532.0","","img/set2/S4.jpg","74","4","structured_incentive","74","random,structured_incentive,structured_load,structured_normal","3,4,2,3,2,1","true","",""
"null","","html-keyboard-response","533","315944","0.0-533.0","","<img src=""img/set2/S4.jpg"" width=""540"" height = ""360"" style=""border:16px solid Violet"">","null","","","","","","","",""
"null","","html-keyboard-response","534","316145","0.0-534.0","","","null","","","","","","","",""
"854.2000000476837","","image-keyboard-response","535","317000","0.0-535.0","","img/set2/S3.jpg","72","3","structured_incentive","72","random,structured_incentive,structured_load,structured_normal","3,4,2,3,2,1","true","",""
"null","","html-keyboard-response","536","317352","0.0-536.0","","<img src=""img/set2/S3.jpg"" width=""540"" height = ""360"" style=""border:16px solid orange"">","null","","","","","","","",""
"null","","html-keyboard-response","537","317553","0.0-537.0","","","null","","","","","","","",""
"422.5","","image-keyboard-response","538","317976","0.0-538.0","","img/set2/S4.jpg","74","4","structured_incentive","74","random,structured_incentive,structured_load,structured_normal","3,4,2,3,2,1","true","",""
"null","","html-keyboard-response","539","318328","0.0-539.0","","<img src=""img/set2/S4.jpg"" width=""540"" height = ""360"" style=""border:16px solid Violet"">","null","","","","","","","",""
"null","","html-keyboard-response","540","318529","0.0-540.0","","","null","","","","","","","",""
"502","","image-keyboard-response","541","319032","0.0-541.0","","img/set2/S2.jpg","83","2","structured_incentive","68","random,structured_incentive,structured_load,structured_normal","3,4,2,3,2,1","false","",""
"null","","html-keyboard-response","542","319384","0.0-542.0","","<img src=""img/set2/S2.jpg"" width=""540"" height = ""360"">","null","","","","","","","",""
"null","","html-keyboard-response","543","319584","0.0-543.0","","","null","","","","","","","",""
"454.9000000357628","","image-keyboard-response","544","320040","0.0-544.0","","img/set2/S2.jpg","68","2","structured_incentive","68","random,structured_incentive,structured_load,structured_normal","3,4,2,3,2,1","true","",""
"null","","html-keyboard-response","545","320392","0.0-545.0","","<img src=""img/set2/S2.jpg"" width=""540"" height = ""360"" style=""border:16px solid orange"">","null","","","","","","","",""
"null","","html-keyboard-response","546","320592","0.0-546.0","","","null","","","","","","","",""
"534.6000000238419","","image-keyboard-response","547","321128","0.0-547.0","","img/set2/S3.jpg","72","3","structured_incentive","72","random,structured_incentive,structured_load,structured_normal","3,4,2,3,2,1","true","",""
"null","","html-keyboard-response","548","321480","0.0-548.0","","<img src=""img/set2/S3.jpg"" width=""540"" height = ""360"" style=""border:16px solid orange"">","null","","","","","","","",""
"null","","html-keyboard-response","549","321687","0.0-549.0","","","null","","","","","","","",""
"560.5","","image-keyboard-response","550","322248","0.0-550.0","","img/set2/S4.jpg","74","4","structured_incentive","74","random,structured_incentive,structured_load,structured_normal","3,4,2,3,2,1","true","",""
"null","","html-keyboard-response","551","322600","0.0-551.0","","<img src=""img/set2/S4.jpg"" width=""540"" height = ""360"" style=""border:16px solid Violet"">","null","","","","","","","",""
"null","","html-keyboard-response","552","322802","0.0-552.0","","","null","","","","","","","",""
"604.9000000357628","","image-keyboard-response","553","323408","0.0-553.0","","img/set2/S1.jpg","83","1","structured_incentive","83","random,structured_incentive,structured_load,structured_normal","3,4,2,3,2,1","true","",""
"null","","html-keyboard-response","554","323760","0.0-554.0","","<img src=""img/set2/S1.jpg"" width=""540"" height = ""360"" style=""border:16px solid orange"">","null","","","","","","","",""
"null","","html-keyboard-response","555","323961","0.0-555.0","","","null","","","","","","","",""
"542.6000000238419","","image-keyboard-response","556","324504","0.0-556.0","","img/set2/S2.jpg","68","2","structured_incentive","68","random,structured_incentive,structured_load,structured_normal","3,4,2,3,2,1","true","",""
"null","","html-keyboard-response","557","324855","0.0-557.0","","<img src=""img/set2/S2.jpg"" width=""540"" height = ""360"" style=""border:16px solid orange"">","null","","","","","","","",""
"null","","html-keyboard-response","558","325056","0.0-558.0","","","null","","","","","","","",""
"623.1000000238419","","image-keyboard-response","559","325680","0.0-559.0","","img/set2/S1.jpg","68","1","structured_incentive","83","random,structured_incentive,structured_load,structured_normal","3,4,2,3,2,1","false","",""
"null","","html-keyboard-response","560","326032","0.0-560.0","","<img src=""img/set2/S1.jpg"" width=""540"" height = ""360"">","null","","","","","","","",""
"null","","html-keyboard-response","561","326242","0.0-561.0","","","null","","","","","","","",""
"597.5","","image-keyboard-response","562","326840","0.0-562.0","","img/set2/S2.jpg","68","2","structured_incentive","68","random,structured_incentive,structured_load,structured_normal","3,4,2,3,2,1","true","",""
"null","","html-keyboard-response","563","327191","0.0-563.0","","<img src=""img/set2/S2.jpg"" width=""540"" height = ""360"" style=""border:16px solid orange"">","null","","","","","","","",""
"null","","html-keyboard-response","564","327392","0.0-564.0","","","null","","","","","","","",""
"486.7000000476837","","image-keyboard-response","565","327880","0.0-565.0","","img/set2/S1.jpg","83","1","structured_incentive","83","random,structured_incentive,structured_load,structured_normal","3,4,2,3,2,1","true","",""
"null","","html-keyboard-response","566","328232","0.0-566.0","","<img src=""img/set2/S1.jpg"" width=""540"" height = ""360"" style=""border:16px solid orange"">","null","","","","","","","",""
"null","","html-keyboard-response","567","328433","0.0-567.0","","","null","","","","","","","",""
"550.3000000119209","","image-keyboard-response","568","328984","0.0-568.0","","img/set2/S3.jpg","72","3","structured_incentive","72","random,structured_incentive,structured_load,structured_normal","3,4,2,3,2,1","true","",""
"null","","html-keyboard-response","569","329336","0.0-569.0","","<img src=""img/set2/S3.jpg"" width=""540"" height = ""360"" style=""border:16px solid orange"">","null","","","","","","","",""
"null","","html-keyboard-response","570","329537","0.0-570.0","","","null","","","","","","","",""
"598","","image-keyboard-response","571","330136","0.0-571.0","","img/set2/S4.jpg","74","4","structured_incentive","74","random,structured_incentive,structured_load,structured_normal","3,4,2,3,2,1","true","",""
"null","","html-keyboard-response","572","330488","0.0-572.0","","<img src=""img/set2/S4.jpg"" width=""540"" height = ""360"" style=""border:16px solid Violet"">","null","","","","","","","",""
"null","","html-keyboard-response","573","330689","0.0-573.0","","","null","","","","","","","",""
"550.1000000238419","","image-keyboard-response","574","331240","0.0-574.0","","img/set2/S2.jpg","68","2","structured_incentive","68","random,structured_incentive,structured_load,structured_normal","3,4,2,3,2,1","true","",""
"null","","html-keyboard-response","575","331592","0.0-575.0","","<img src=""img/set2/S2.jpg"" width=""540"" height = ""360"" style=""border:16px solid orange"">","null","","","","","","","",""
"null","","html-keyboard-response","576","331796","0.0-576.0","","","null","","","","","","","",""
"363.5","","image-keyboard-response","577","332160","0.0-577.0","","img/set2/S2.jpg","68","2","structured_incentive","68","random,structured_incentive,structured_load,structured_normal","3,4,2,3,2,1","true","",""
"null","","html-keyboard-response","578","332512","0.0-578.0","","<img src=""img/set2/S2.jpg"" width=""540"" height = ""360"" style=""border:16px solid orange"">","null","","","","","","","",""
"null","","html-keyboard-response","579","332712","0.0-579.0","","","null","","","","","","","",""
"590.8000000119209","","image-keyboard-response","580","333304","0.0-580.0","","img/set2/S1.jpg","83","1","structured_incentive","83","random,structured_incentive,structured_load,structured_normal","3,4,2,3,2,1","true","",""
"null","","html-keyboard-response","581","333656","0.0-581.0","","<img src=""img/set2/S1.jpg"" width=""540"" height = ""360"" style=""border:16px solid orange"">","null","","","","","","","",""
"null","","html-keyboard-response","582","333857","0.0-582.0","","","null","","","","","","","",""
"414.5","","image-keyboard-response","583","334272","0.0-583.0","","img/set2/S1.jpg","83","1","structured_incentive","83","random,structured_incentive,structured_load,structured_normal","3,4,2,3,2,1","true","",""
"null","","html-keyboard-response","584","334624","0.0-584.0","","<img src=""img/set2/S1.jpg"" width=""540"" height = ""360"" style=""border:16px solid orange"">","null","","","","","","","",""
"null","","html-keyboard-response","585","334825","0.0-585.0","","","null","","","","","","","",""
"518","","image-keyboard-response","586","335344","0.0-586.0","","img/set2/S3.jpg","72","3","structured_incentive","72","random,structured_incentive,structured_load,structured_normal","3,4,2,3,2,1","true","",""
"null","","html-keyboard-response","587","335695","0.0-587.0","","<img src=""img/set2/S3.jpg"" width=""540"" height = ""360"" style=""border:16px solid orange"">","null","","","","","","","",""
"null","","html-keyboard-response","588","335896","0.0-588.0","","","null","","","","","","","",""
