"rt","url","trial_type","trial_index","time_elapsed","internal_node_id","view_history","stimulus","key_press","state","test_part","correct_response","order_block","order_chunk","correct","responses","question_order","bonus"
"4679.900000035763","consent.html","external-html","0","4862","0.0-0.0","","","","","","","","","","","",""
"106710.39999997616","","instructions","1","111573","0.0-1.0","[{""page_index"":0,""viewing_time"":2275.5},{""page_index"":1,""viewing_time"":4997.600000023842},{""page_index"":2,""viewing_time"":7243.5},{""page_index"":3,""viewing_time"":10000.099999964237},{""page_index"":4,""viewing_time"":4791.199999988079},{""page_index"":5,""viewing_time"":9768.100000023842},{""page_index"":6,""viewing_time"":6364.600000023842},{""page_index"":5,""viewing_time"":57803},{""page_index"":6,""viewing_time"":3465.2999999523163}]","","","","","","","","","","",""
"13795.099999964237","","instructions","2","125378","0.0-2.0","[{""page_index"":0,""viewing_time"":13794.299999952316}]","","","","","","","","","","",""
"10569.600000023842","","instructions","3","135951","0.0-3.0","[{""page_index"":0,""viewing_time"":8492.800000011921},{""page_index"":1,""viewing_time"":2076.199999988079}]","","","","","","","","","","",""
"1077.1000000238419","","image-keyboard-response","4","137033","0.0-4.0","","img/set1/S2.jpg","72","2","structured_load","68","structured_load,structured_incentive,structured_normal,random","2,3,2,1,3,4","false","","",""
"null","","html-keyboard-response","5","137430","0.0-5.0","","<img src=""img/set1/S2.jpg"" width=""540"" height = ""360"">","null","","","","","","","","",""
"null","","html-keyboard-response","6","137636","0.0-6.0","","","null","","","","","","","","",""
"945.1000000238419","","image-keyboard-response","7","138584","0.0-7.0","","img/set1/S3.jpg","83","3","structured_load","72","structured_load,structured_incentive,structured_normal,random","2,3,2,1,3,4","false","","",""
"null","","html-keyboard-response","8","138945","0.0-8.0","","<img src=""img/set1/S3.jpg"" width=""540"" height = ""360"">","null","","","","","","","","",""
"null","","html-keyboard-response","9","139160","0.0-9.0","","","null","","","","","","","","",""
"1102","","image-keyboard-response","10","140264","0.0-10.0","","img/set1/S4.jpg","83","4","structured_load","74","structured_load,structured_incentive,structured_normal,random","2,3,2,1,3,4","false","","",""
"null","","html-keyboard-response","11","140626","0.0-11.0","","<img src=""img/set1/S4.jpg"" width=""540"" height = ""360"">","null","","","","","","","","",""
"null","","html-keyboard-response","12","140829","0.0-12.0","","","null","","","","","","","","",""
"574.1999999880791","","image-keyboard-response","13","141405","0.0-13.0","","img/set1/S4.jpg","74","4","structured_load","74","structured_load,structured_incentive,structured_normal,random","2,3,2,1,3,4","true","","",""
"null","","html-keyboard-response","14","141762","0.0-14.0","","<img src=""img/set1/S4.jpg"" width=""540"" height = ""360"" style=""border:16px solid orange"">","null","","","","","","","","",""
"null","","html-keyboard-response","15","141965","0.0-15.0","","","null","","","","","","","","",""
"542.8999999761581","","image-keyboard-response","16","142509","0.0-16.0","","img/set1/S4.jpg","74","4","structured_load","74","structured_load,structured_incentive,structured_normal,random","2,3,2,1,3,4","true","","",""
"null","","html-keyboard-response","17","142903","0.0-17.0","","<img src=""img/set1/S4.jpg"" width=""540"" height = ""360"" style=""border:16px solid orange"">","null","","","","","","","","",""
"null","","html-keyboard-response","18","143107","0.0-18.0","","","null","","","","","","","","",""
"1285.5999999642372","","image-keyboard-response","19","144394","0.0-19.0","","img/set1/S2.jpg","68","2","structured_load","68","structured_load,structured_incentive,structured_normal,random","2,3,2,1,3,4","true","","",""
"null","","html-keyboard-response","20","144753","0.0-20.0","","<img src=""img/set1/S2.jpg"" width=""540"" height = ""360"" style=""border:16px solid orange"">","null","","","","","","","","",""
"null","","html-keyboard-response","21","144958","0.0-21.0","","","null","","","","","","","","",""
"862.5999999642372","","image-keyboard-response","22","145822","0.0-22.0","","img/set1/S3.jpg","72","3","structured_load","72","structured_load,structured_incentive,structured_normal,random","2,3,2,1,3,4","true","","",""
"null","","html-keyboard-response","23","146179","0.0-23.0","","<img src=""img/set1/S3.jpg"" width=""540"" height = ""360"" style=""border:16px solid orange"">","null","","","","","","","","",""
"null","","html-keyboard-response","24","146384","0.0-24.0","","","null","","","","","","","","",""
"896","","image-keyboard-response","25","147282","0.0-25.0","","img/set1/S2.jpg","68","2","structured_load","68","structured_load,structured_incentive,structured_normal,random","2,3,2,1,3,4","true","","",""
"null","","html-keyboard-response","26","147637","0.0-26.0","","<img src=""img/set1/S2.jpg"" width=""540"" height = ""360"" style=""border:16px solid orange"">","null","","","","","","","","",""
"null","","html-keyboard-response","27","147842","0.0-27.0","","","null","","","","","","","","",""
"451.19999998807907","","image-keyboard-response","28","148295","0.0-28.0","","img/set1/S3.jpg","74","3","structured_load","72","structured_load,structured_incentive,structured_normal,random","2,3,2,1,3,4","false","","",""
"null","","html-keyboard-response","29","148647","0.0-29.0","","<img src=""img/set1/S3.jpg"" width=""540"" height = ""360"">","null","","","","","","","","",""
"null","","html-keyboard-response","30","148857","0.0-30.0","","","null","","","","","","","","",""
"979.5","","image-keyboard-response","31","149838","0.0-31.0","","img/set1/S4.jpg","74","4","structured_load","74","structured_load,structured_incentive,structured_normal,random","2,3,2,1,3,4","true","","",""
"null","","html-keyboard-response","32","150201","0.0-32.0","","<img src=""img/set1/S4.jpg"" width=""540"" height = ""360"" style=""border:16px solid orange"">","null","","","","","","","","",""
"null","","html-keyboard-response","33","150403","0.0-33.0","","","null","","","","","","","","",""
"545.3000000119209","","image-keyboard-response","34","150949","0.0-34.0","","img/set1/S4.jpg","74","4","structured_load","74","structured_load,structured_incentive,structured_normal,random","2,3,2,1,3,4","true","","",""
"null","","html-keyboard-response","35","151303","0.0-35.0","","<img src=""img/set1/S4.jpg"" width=""540"" height = ""360"" style=""border:16px solid orange"">","null","","","","","","","","",""
"null","","html-keyboard-response","36","151506","0.0-36.0","","","null","","","","","","","","",""
"757.9000000357628","","image-keyboard-response","37","152265","0.0-37.0","","img/set1/S2.jpg","68","2","structured_load","68","structured_load,structured_incentive,structured_normal,random","2,3,2,1,3,4","true","","",""
"null","","html-keyboard-response","38","152624","0.0-38.0","","<img src=""img/set1/S2.jpg"" width=""540"" height = ""360"" style=""border:16px solid orange"">","null","","","","","","","","",""
"null","","html-keyboard-response","39","152829","0.0-39.0","","","null","","","","","","","","",""
"446.69999998807907","","image-keyboard-response","40","153277","0.0-40.0","","img/set1/S3.jpg","72","3","structured_load","72","structured_load,structured_incentive,structured_normal,random","2,3,2,1,3,4","true","","",""
"null","","html-keyboard-response","41","153632","0.0-41.0","","<img src=""img/set1/S3.jpg"" width=""540"" height = ""360"" style=""border:16px solid orange"">","null","","","","","","","","",""
"null","","html-keyboard-response","42","153841","0.0-42.0","","","null","","","","","","","","",""
"651.6000000238419","","image-keyboard-response","43","154494","0.0-43.0","","img/set1/S4.jpg","72","4","structured_load","74","structured_load,structured_incentive,structured_normal,random","2,3,2,1,3,4","false","","",""
"null","","html-keyboard-response","44","154849","0.0-44.0","","<img src=""img/set1/S4.jpg"" width=""540"" height = ""360"">","null","","","","","","","","",""
"null","","html-keyboard-response","45","155068","0.0-45.0","","","null","","","","","","","","",""
"710","","image-keyboard-response","46","155780","0.0-46.0","","img/set1/S2.jpg","68","2","structured_load","68","structured_load,structured_incentive,structured_normal,random","2,3,2,1,3,4","true","","",""
"null","","html-keyboard-response","47","156134","0.0-47.0","","<img src=""img/set1/S2.jpg"" width=""540"" height = ""360"" style=""border:16px solid orange"">","null","","","","","","","","",""
"null","","html-keyboard-response","48","156342","0.0-48.0","","","null","","","","","","","","",""
"588.1000000238419","","image-keyboard-response","49","156932","0.0-49.0","","img/set1/S3.jpg","72","3","structured_load","72","structured_load,structured_incentive,structured_normal,random","2,3,2,1,3,4","true","","",""
"null","","html-keyboard-response","50","157292","0.0-50.0","","<img src=""img/set1/S3.jpg"" width=""540"" height = ""360"" style=""border:16px solid orange"">","null","","","","","","","","",""
"null","","html-keyboard-response","51","157497","0.0-51.0","","","null","","","","","","","","",""
"821.8000000119209","","image-keyboard-response","52","158321","0.0-52.0","","img/set1/S4.jpg","74","4","structured_load","74","structured_load,structured_incentive,structured_normal,random","2,3,2,1,3,4","true","","",""
"null","","html-keyboard-response","53","158677","0.0-53.0","","<img src=""img/set1/S4.jpg"" width=""540"" height = ""360"" style=""border:16px solid orange"">","null","","","","","","","","",""
"null","","html-keyboard-response","54","158883","0.0-54.0","","","null","","","","","","","","",""
"715.2000000476837","","image-keyboard-response","55","159603","0.0-55.0","","img/set1/S1.jpg","83","1","structured_load","83","structured_load,structured_incentive,structured_normal,random","2,3,2,1,3,4","true","","",""
"null","","html-keyboard-response","56","159958","0.0-56.0","","<img src=""img/set1/S1.jpg"" width=""540"" height = ""360"" style=""border:16px solid orange"">","null","","","","","","","","",""
"null","","html-keyboard-response","57","160160","0.0-57.0","","","null","","","","","","","","",""
"352.5999999642372","","image-keyboard-response","58","160514","0.0-58.0","","img/set1/S1.jpg","83","1","structured_load","83","structured_load,structured_incentive,structured_normal,random","2,3,2,1,3,4","true","","",""
"null","","html-keyboard-response","59","160870","0.0-59.0","","<img src=""img/set1/S1.jpg"" width=""540"" height = ""360"" style=""border:16px solid orange"">","null","","","","","","","","",""
"null","","html-keyboard-response","60","161071","0.0-60.0","","","null","","","","","","","","",""
"532.6000000238419","","image-keyboard-response","61","161605","0.0-61.0","","img/set1/S4.jpg","74","4","structured_load","74","structured_load,structured_incentive,structured_normal,random","2,3,2,1,3,4","true","","",""
"null","","html-keyboard-response","62","161963","0.0-62.0","","<img src=""img/set1/S4.jpg"" width=""540"" height = ""360"" style=""border:16px solid orange"">","null","","","","","","","","",""
"null","","html-keyboard-response","63","162164","0.0-63.0","","","null","","","","","","","","",""
"555.3000000119209","","image-keyboard-response","64","162721","0.0-64.0","","img/set1/S2.jpg","72","2","structured_load","68","structured_load,structured_incentive,structured_normal,random","2,3,2,1,3,4","false","","",""
"null","","html-keyboard-response","65","163075","0.0-65.0","","<img src=""img/set1/S2.jpg"" width=""540"" height = ""360"">","null","","","","","","","","",""
"null","","html-keyboard-response","66","163284","0.0-66.0","","","null","","","","","","","","",""
"709.5","","image-keyboard-response","67","163995","0.0-67.0","","img/set1/S3.jpg","72","3","structured_load","72","structured_load,structured_incentive,structured_normal,random","2,3,2,1,3,4","true","","",""
"null","","html-keyboard-response","68","164351","0.0-68.0","","<img src=""img/set1/S3.jpg"" width=""540"" height = ""360"" style=""border:16px solid orange"">","null","","","","","","","","",""
"null","","html-keyboard-response","69","164553","0.0-69.0","","","null","","","","","","","","",""
"491.4000000357628","","image-keyboard-response","70","165059","0.0-70.0","","img/set1/S2.jpg","68","2","structured_load","68","structured_load,structured_incentive,structured_normal,random","2,3,2,1,3,4","true","","",""
"null","","html-keyboard-response","71","165414","0.0-71.0","","<img src=""img/set1/S2.jpg"" width=""540"" height = ""360"" style=""border:16px solid orange"">","null","","","","","","","","",""
"null","","html-keyboard-response","72","165620","0.0-72.0","","","null","","","","","","","","",""
"479.89999997615814","","image-keyboard-response","73","166101","0.0-73.0","","img/set1/S3.jpg","72","3","structured_load","72","structured_load,structured_incentive,structured_normal,random","2,3,2,1,3,4","true","","",""
"null","","html-keyboard-response","74","166461","0.0-74.0","","<img src=""img/set1/S3.jpg"" width=""540"" height = ""360"" style=""border:16px solid orange"">","null","","","","","","","","",""
"null","","html-keyboard-response","75","166668","0.0-75.0","","","null","","","","","","","","",""
"645.4000000357628","","image-keyboard-response","76","167315","0.0-76.0","","img/set1/S1.jpg","83","1","structured_load","83","structured_load,structured_incentive,structured_normal,random","2,3,2,1,3,4","true","","",""
"null","","html-keyboard-response","77","167671","0.0-77.0","","<img src=""img/set1/S1.jpg"" width=""540"" height = ""360"" style=""border:16px solid orange"">","null","","","","","","","","",""
"null","","html-keyboard-response","78","167875","0.0-78.0","","","null","","","","","","","","",""
"678.7999999523163","","image-keyboard-response","79","168556","0.0-79.0","","img/set1/S4.jpg","74","4","structured_load","74","structured_load,structured_incentive,structured_normal,random","2,3,2,1,3,4","true","","",""
"null","","html-keyboard-response","80","168911","0.0-80.0","","<img src=""img/set1/S4.jpg"" width=""540"" height = ""360"" style=""border:16px solid orange"">","null","","","","","","","","",""
"null","","html-keyboard-response","81","169116","0.0-81.0","","","null","","","","","","","","",""
"802.1000000238419","","image-keyboard-response","82","169920","0.0-82.0","","img/set1/S2.jpg","68","2","structured_load","68","structured_load,structured_incentive,structured_normal,random","2,3,2,1,3,4","true","","",""
"null","","html-keyboard-response","83","170274","0.0-83.0","","<img src=""img/set1/S2.jpg"" width=""540"" height = ""360"" style=""border:16px solid orange"">","null","","","","","","","","",""
"null","","html-keyboard-response","84","170478","0.0-84.0","","","null","","","","","","","","",""
"529.3000000119209","","image-keyboard-response","85","171010","0.0-85.0","","img/set1/S3.jpg","74","3","structured_load","72","structured_load,structured_incentive,structured_normal,random","2,3,2,1,3,4","false","","",""
"null","","html-keyboard-response","86","171369","0.0-86.0","","<img src=""img/set1/S3.jpg"" width=""540"" height = ""360"">","null","","","","","","","","",""
"null","","html-keyboard-response","87","171573","0.0-87.0","","","null","","","","","","","","",""
"672.1999999880791","","image-keyboard-response","88","172248","0.0-88.0","","img/set1/S4.jpg","74","4","structured_load","74","structured_load,structured_incentive,structured_normal,random","2,3,2,1,3,4","true","","",""
"null","","html-keyboard-response","89","172603","0.0-89.0","","<img src=""img/set1/S4.jpg"" width=""540"" height = ""360"" style=""border:16px solid orange"">","null","","","","","","","","",""
"null","","html-keyboard-response","90","172812","0.0-90.0","","","null","","","","","","","","",""
"464.7000000476837","","image-keyboard-response","91","173279","0.0-91.0","","img/set1/S4.jpg","74","4","structured_load","74","structured_load,structured_incentive,structured_normal,random","2,3,2,1,3,4","true","","",""
"null","","html-keyboard-response","92","173635","0.0-92.0","","<img src=""img/set1/S4.jpg"" width=""540"" height = ""360"" style=""border:16px solid orange"">","null","","","","","","","","",""
"null","","html-keyboard-response","93","173846","0.0-93.0","","","null","","","","","","","","",""
"701.1000000238419","","image-keyboard-response","94","174549","0.0-94.0","","img/set1/S1.jpg","83","1","structured_load","83","structured_load,structured_incentive,structured_normal,random","2,3,2,1,3,4","true","","",""
"null","","html-keyboard-response","95","174902","0.0-95.0","","<img src=""img/set1/S1.jpg"" width=""540"" height = ""360"" style=""border:16px solid orange"">","null","","","","","","","","",""
"null","","html-keyboard-response","96","175107","0.0-96.0","","","null","","","","","","","","",""
"454.5999999642372","","image-keyboard-response","97","175566","0.0-97.0","","img/set1/S1.jpg","83","1","structured_load","83","structured_load,structured_incentive,structured_normal,random","2,3,2,1,3,4","true","","",""
"null","","html-keyboard-response","98","175922","0.0-98.0","","<img src=""img/set1/S1.jpg"" width=""540"" height = ""360"" style=""border:16px solid orange"">","null","","","","","","","","",""
"null","","html-keyboard-response","99","176132","0.0-99.0","","","null","","","","","","","","",""
"431.4000000357628","","image-keyboard-response","100","176565","0.0-100.0","","img/set1/S4.jpg","83","4","structured_load","74","structured_load,structured_incentive,structured_normal,random","2,3,2,1,3,4","false","","",""
"null","","html-keyboard-response","101","176924","0.0-101.0","","<img src=""img/set1/S4.jpg"" width=""540"" height = ""360"">","null","","","","","","","","",""
"null","","html-keyboard-response","102","177131","0.0-102.0","","","null","","","","","","","","",""
"441.80000001192093","","image-keyboard-response","103","177574","0.0-103.0","","img/set1/S1.jpg","83","1","structured_load","83","structured_load,structured_incentive,structured_normal,random","2,3,2,1,3,4","true","","",""
"null","","html-keyboard-response","104","177927","0.0-104.0","","<img src=""img/set1/S1.jpg"" width=""540"" height = ""360"" style=""border:16px solid orange"">","null","","","","","","","","",""
"null","","html-keyboard-response","105","178138","0.0-105.0","","","null","","","","","","","","",""
"345.60000002384186","","image-keyboard-response","106","178486","0.0-106.0","","img/set1/S1.jpg","83","1","structured_load","83","structured_load,structured_incentive,structured_normal,random","2,3,2,1,3,4","true","","",""
"null","","html-keyboard-response","107","178848","0.0-107.0","","<img src=""img/set1/S1.jpg"" width=""540"" height = ""360"" style=""border:16px solid orange"">","null","","","","","","","","",""
"null","","html-keyboard-response","108","179054","0.0-108.0","","","null","","","","","","","","",""
"756.4000000357628","","image-keyboard-response","109","179812","0.0-109.0","","img/set1/S2.jpg","72","2","structured_load","68","structured_load,structured_incentive,structured_normal,random","2,3,2,1,3,4","false","","",""
"null","","html-keyboard-response","110","180167","0.0-110.0","","<img src=""img/set1/S2.jpg"" width=""540"" height = ""360"">","null","","","","","","","","",""
"null","","html-keyboard-response","111","180373","0.0-111.0","","","null","","","","","","","","",""
"409.19999998807907","","image-keyboard-response","112","180784","0.0-112.0","","img/set1/S3.jpg","74","3","structured_load","72","structured_load,structured_incentive,structured_normal,random","2,3,2,1,3,4","false","","",""
"null","","html-keyboard-response","113","181137","0.0-113.0","","<img src=""img/set1/S3.jpg"" width=""540"" height = ""360"">","null","","","","","","","","",""
"null","","html-keyboard-response","114","181345","0.0-114.0","","","null","","","","","","","","",""
"439.89999997615814","","image-keyboard-response","115","181787","0.0-115.0","","img/set1/S4.jpg","74","4","structured_load","74","structured_load,structured_incentive,structured_normal,random","2,3,2,1,3,4","true","","",""
"null","","html-keyboard-response","116","182145","0.0-116.0","","<img src=""img/set1/S4.jpg"" width=""540"" height = ""360"" style=""border:16px solid orange"">","null","","","","","","","","",""
"null","","html-keyboard-response","117","182354","0.0-117.0","","","null","","","","","","","","",""
"411.80000001192093","","image-keyboard-response","118","182767","0.0-118.0","","img/set1/S4.jpg","74","4","structured_load","74","structured_load,structured_incentive,structured_normal,random","2,3,2,1,3,4","true","","",""
"null","","html-keyboard-response","119","183120","0.0-119.0","","<img src=""img/set1/S4.jpg"" width=""540"" height = ""360"" style=""border:16px solid orange"">","null","","","","","","","","",""
"null","","html-keyboard-response","120","183326","0.0-120.0","","","null","","","","","","","","",""
"369.9000000357628","","image-keyboard-response","121","183697","0.0-121.0","","img/set1/S4.jpg","74","4","structured_load","74","structured_load,structured_incentive,structured_normal,random","2,3,2,1,3,4","true","","",""
"null","","html-keyboard-response","122","184052","0.0-122.0","","<img src=""img/set1/S4.jpg"" width=""540"" height = ""360"" style=""border:16px solid orange"">","null","","","","","","","","",""
"null","","html-keyboard-response","123","184260","0.0-123.0","","","null","","","","","","","","",""
"676.5999999642372","","image-keyboard-response","124","184939","0.0-124.0","","img/set1/S2.jpg","68","2","structured_load","68","structured_load,structured_incentive,structured_normal,random","2,3,2,1,3,4","true","","",""
"null","","html-keyboard-response","125","185297","0.0-125.0","","<img src=""img/set1/S2.jpg"" width=""540"" height = ""360"" style=""border:16px solid orange"">","null","","","","","","","","",""
"null","","html-keyboard-response","126","185505","0.0-126.0","","","null","","","","","","","","",""
"491.69999998807907","","image-keyboard-response","127","186001","0.0-127.0","","img/set1/S3.jpg","72","3","structured_load","72","structured_load,structured_incentive,structured_normal,random","2,3,2,1,3,4","true","","",""
"null","","html-keyboard-response","128","186358","0.0-128.0","","<img src=""img/set1/S3.jpg"" width=""540"" height = ""360"" style=""border:16px solid orange"">","null","","","","","","","","",""
"null","","html-keyboard-response","129","186561","0.0-129.0","","","null","","","","","","","","",""
"471.9000000357628","","image-keyboard-response","130","187034","0.0-130.0","","img/set1/S4.jpg","68","4","structured_load","74","structured_load,structured_incentive,structured_normal,random","2,3,2,1,3,4","false","","",""
"null","","html-keyboard-response","131","187390","0.0-131.0","","<img src=""img/set1/S4.jpg"" width=""540"" height = ""360"">","null","","","","","","","","",""
"null","","html-keyboard-response","132","187593","0.0-132.0","","","null","","","","","","","","",""
"491.5","","image-keyboard-response","133","188086","0.0-133.0","","img/set1/S4.jpg","74","4","structured_load","74","structured_load,structured_incentive,structured_normal,random","2,3,2,1,3,4","true","","",""
"null","","html-keyboard-response","134","188445","0.0-134.0","","<img src=""img/set1/S4.jpg"" width=""540"" height = ""360"" style=""border:16px solid orange"">","null","","","","","","","","",""
"null","","html-keyboard-response","135","188651","0.0-135.0","","","null","","","","","","","","",""
"393.39999997615814","","image-keyboard-response","136","189046","0.0-136.0","","img/set1/S4.jpg","74","4","structured_load","74","structured_load,structured_incentive,structured_normal,random","2,3,2,1,3,4","true","","",""
"null","","html-keyboard-response","137","189400","0.0-137.0","","<img src=""img/set1/S4.jpg"" width=""540"" height = ""360"" style=""border:16px solid orange"">","null","","","","","","","","",""
"null","","html-keyboard-response","138","189608","0.0-138.0","","","null","","","","","","","","",""
"604.1000000238419","","image-keyboard-response","139","190214","0.0-139.0","","img/set1/S1.jpg","83","1","structured_load","83","structured_load,structured_incentive,structured_normal,random","2,3,2,1,3,4","true","","",""
"null","","html-keyboard-response","140","190568","0.0-140.0","","<img src=""img/set1/S1.jpg"" width=""540"" height = ""360"" style=""border:16px solid orange"">","null","","","","","","","","",""
"null","","html-keyboard-response","141","190776","0.0-141.0","","","null","","","","","","","","",""
"350.89999997615814","","image-keyboard-response","142","191128","0.0-142.0","","img/set1/S1.jpg","83","1","structured_load","83","structured_load,structured_incentive,structured_normal,random","2,3,2,1,3,4","true","","",""
"null","","html-keyboard-response","143","191487","0.0-143.0","","<img src=""img/set1/S1.jpg"" width=""540"" height = ""360"" style=""border:16px solid orange"">","null","","","","","","","","",""
"null","","html-keyboard-response","144","191694","0.0-144.0","","","null","","","","","","","","",""
"380.5999999642372","","image-keyboard-response","145","192076","0.0-145.0","","img/set1/S1.jpg","83","1","structured_load","83","structured_load,structured_incentive,structured_normal,random","2,3,2,1,3,4","true","","",""
"null","","html-keyboard-response","146","192433","0.0-146.0","","<img src=""img/set1/S1.jpg"" width=""540"" height = ""360"" style=""border:16px solid orange"">","null","","","","","","","","",""
"null","","html-keyboard-response","147","192643","0.0-147.0","","","null","","","","","","","","",""
"613.5","","image-keyboard-response","148","193258","0.0-148.0","","img/set1/S2.jpg","72","2","structured_load","68","structured_load,structured_incentive,structured_normal,random","2,3,2,1,3,4","false","","",""
"null","","html-keyboard-response","149","193619","0.0-149.0","","<img src=""img/set1/S2.jpg"" width=""540"" height = ""360"">","null","","","","","","","","",""
"null","","html-keyboard-response","150","193822","0.0-150.0","","","null","","","","","","","","",""
"658","","image-keyboard-response","151","194482","0.0-151.0","","img/set1/S3.jpg","72","3","structured_load","72","structured_load,structured_incentive,structured_normal,random","2,3,2,1,3,4","true","","",""
"null","","html-keyboard-response","152","194843","0.0-152.0","","<img src=""img/set1/S3.jpg"" width=""540"" height = ""360"" style=""border:16px solid orange"">","null","","","","","","","","",""
"null","","html-keyboard-response","153","195052","0.0-153.0","","","null","","","","","","","","",""
"682","","image-keyboard-response","154","195736","0.0-154.0","","img/set1/S1.jpg","68","1","structured_load","83","structured_load,structured_incentive,structured_normal,random","2,3,2,1,3,4","false","","",""
"null","","html-keyboard-response","155","196102","0.0-155.0","","<img src=""img/set1/S1.jpg"" width=""540"" height = ""360"">","null","","","","","","","","",""
"null","","html-keyboard-response","156","196307","0.0-156.0","","","null","","","","","","","","",""
"742.3999999761581","","image-keyboard-response","157","197052","0.0-157.0","","img/set1/S2.jpg","72","2","structured_load","68","structured_load,structured_incentive,structured_normal,random","2,3,2,1,3,4","false","","",""
"null","","html-keyboard-response","158","197419","0.0-158.0","","<img src=""img/set1/S2.jpg"" width=""540"" height = ""360"">","null","","","","","","","","",""
"null","","html-keyboard-response","159","197633","0.0-159.0","","","null","","","","","","","","",""
"598","","image-keyboard-response","160","198233","0.0-160.0","","img/set1/S3.jpg","72","3","structured_load","72","structured_load,structured_incentive,structured_normal,random","2,3,2,1,3,4","true","","",""
"null","","html-keyboard-response","161","198588","0.0-161.0","","<img src=""img/set1/S3.jpg"" width=""540"" height = ""360"" style=""border:16px solid orange"">","null","","","","","","","","",""
"null","","html-keyboard-response","162","198791","0.0-162.0","","","null","","","","","","","","",""
"1146.699999988079","","image-keyboard-response","163","199939","0.0-163.0","","img/set1/S4.jpg","74","4","structured_load","74","structured_load,structured_incentive,structured_normal,random","2,3,2,1,3,4","true","","",""
"null","","html-keyboard-response","164","200300","0.0-164.0","","<img src=""img/set1/S4.jpg"" width=""540"" height = ""360"" style=""border:16px solid orange"">","null","","","","","","","","",""
"null","","html-keyboard-response","165","200508","0.0-165.0","","","null","","","","","","","","",""
"879.5","","image-keyboard-response","166","201390","0.0-166.0","","img/set1/S4.jpg","74","4","structured_load","74","structured_load,structured_incentive,structured_normal,random","2,3,2,1,3,4","true","","",""
"null","","html-keyboard-response","167","201745","0.0-167.0","","<img src=""img/set1/S4.jpg"" width=""540"" height = ""360"" style=""border:16px solid orange"">","null","","","","","","","","",""
"null","","html-keyboard-response","168","201953","0.0-168.0","","","null","","","","","","","","",""
"412.19999998807907","","image-keyboard-response","169","202367","0.0-169.0","","img/set1/S4.jpg","74","4","structured_load","74","structured_load,structured_incentive,structured_normal,random","2,3,2,1,3,4","true","","",""
"null","","html-keyboard-response","170","202720","0.0-170.0","","<img src=""img/set1/S4.jpg"" width=""540"" height = ""360"" style=""border:16px solid orange"">","null","","","","","","","","",""
"null","","html-keyboard-response","171","202925","0.0-171.0","","","null","","","","","","","","",""
"344.69999998807907","","image-keyboard-response","172","203271","0.0-172.0","","img/set1/S4.jpg","74","4","structured_load","74","structured_load,structured_incentive,structured_normal,random","2,3,2,1,3,4","true","","",""
"null","","html-keyboard-response","173","203623","0.0-173.0","","<img src=""img/set1/S4.jpg"" width=""540"" height = ""360"" style=""border:16px solid orange"">","null","","","","","","","","",""
"null","","html-keyboard-response","174","203831","0.0-174.0","","","null","","","","","","","","",""
"330","","image-keyboard-response","175","204162","0.0-175.0","","img/set1/S4.jpg","74","4","structured_load","74","structured_load,structured_incentive,structured_normal,random","2,3,2,1,3,4","true","","",""
"null","","html-keyboard-response","176","204520","0.0-176.0","","<img src=""img/set1/S4.jpg"" width=""540"" height = ""360"" style=""border:16px solid orange"">","null","","","","","","","","",""
"null","","html-keyboard-response","177","204730","0.0-177.0","","","null","","","","","","","","",""
"309.69999998807907","","image-keyboard-response","178","205041","0.0-178.0","","img/set1/S4.jpg","74","4","structured_load","74","structured_load,structured_incentive,structured_normal,random","2,3,2,1,3,4","true","","",""
"null","","html-keyboard-response","179","205402","0.0-179.0","","<img src=""img/set1/S4.jpg"" width=""540"" height = ""360"" style=""border:16px solid orange"">","null","","","","","","","","",""
"null","","html-keyboard-response","180","205613","0.0-180.0","","","null","","","","","","","","",""
"901","","image-keyboard-response","181","206515","0.0-181.0","","img/set1/S2.jpg","72","2","structured_load","68","structured_load,structured_incentive,structured_normal,random","2,3,2,1,3,4","false","","",""
"null","","html-keyboard-response","182","206871","0.0-182.0","","<img src=""img/set1/S2.jpg"" width=""540"" height = ""360"">","null","","","","","","","","",""
"null","","html-keyboard-response","183","207074","0.0-183.0","","","null","","","","","","","","",""
"715.3000000119209","","image-keyboard-response","184","207792","0.0-184.0","","img/set1/S3.jpg","72","3","structured_load","72","structured_load,structured_incentive,structured_normal,random","2,3,2,1,3,4","true","","",""
"null","","html-keyboard-response","185","208145","0.0-185.0","","<img src=""img/set1/S3.jpg"" width=""540"" height = ""360"" style=""border:16px solid orange"">","null","","","","","","","","",""
"null","","html-keyboard-response","186","208349","0.0-186.0","","","null","","","","","","","","",""
"515.0999999642372","","image-keyboard-response","187","208865","0.0-187.0","","img/set1/S1.jpg","83","1","structured_load","83","structured_load,structured_incentive,structured_normal,random","2,3,2,1,3,4","true","","",""
"null","","html-keyboard-response","188","209218","0.0-188.0","","<img src=""img/set1/S1.jpg"" width=""540"" height = ""360"" style=""border:16px solid orange"">","null","","","","","","","","",""
"null","","html-keyboard-response","189","209419","0.0-189.0","","","null","","","","","","","","",""
"688","","image-keyboard-response","190","210109","0.0-190.0","","img/set1/S2.jpg","68","2","structured_load","68","structured_load,structured_incentive,structured_normal,random","2,3,2,1,3,4","true","","",""
"null","","html-keyboard-response","191","210473","0.0-191.0","","<img src=""img/set1/S2.jpg"" width=""540"" height = ""360"" style=""border:16px solid orange"">","null","","","","","","","","",""
"null","","html-keyboard-response","192","210677","0.0-192.0","","","null","","","","","","","","",""
"430.80000001192093","","image-keyboard-response","193","211109","0.0-193.0","","img/set1/S3.jpg","72","3","structured_load","72","structured_load,structured_incentive,structured_normal,random","2,3,2,1,3,4","true","","",""
"null","","html-keyboard-response","194","211463","0.0-194.0","","<img src=""img/set1/S3.jpg"" width=""540"" height = ""360"" style=""border:16px solid orange"">","null","","","","","","","","",""
"null","","html-keyboard-response","195","211669","0.0-195.0","","","null","","","","","","","","",""
"369.9000000357628","","image-keyboard-response","196","212041","0.0-196.0","","img/set1/S2.jpg","68","2","structured_load","68","structured_load,structured_incentive,structured_normal,random","2,3,2,1,3,4","true","","",""
"null","","html-keyboard-response","197","212398","0.0-197.0","","<img src=""img/set1/S2.jpg"" width=""540"" height = ""360"" style=""border:16px solid orange"">","null","","","","","","","","",""
"null","","html-keyboard-response","198","212602","0.0-198.0","","","null","","","","","","","","",""
"428.5999999642372","","image-keyboard-response","199","213032","0.0-199.0","","img/set1/S3.jpg","72","3","structured_load","72","structured_load,structured_incentive,structured_normal,random","2,3,2,1,3,4","true","","",""
"null","","html-keyboard-response","200","213387","0.0-200.0","","<img src=""img/set1/S3.jpg"" width=""540"" height = ""360"" style=""border:16px solid orange"">","null","","","","","","","","",""
"null","","html-keyboard-response","201","213597","0.0-201.0","","","null","","","","","","","","",""
"392.80000001192093","","image-keyboard-response","202","213991","0.0-202.0","","img/set1/S2.jpg","68","2","structured_load","68","structured_load,structured_incentive,structured_normal,random","2,3,2,1,3,4","true","","",""
"null","","html-keyboard-response","203","214355","0.0-203.0","","<img src=""img/set1/S2.jpg"" width=""540"" height = ""360"" style=""border:16px solid orange"">","null","","","","","","","","",""
"null","","html-keyboard-response","204","214565","0.0-204.0","","","null","","","","","","","","",""
"426.5","","image-keyboard-response","205","214993","0.0-205.0","","img/set1/S3.jpg","72","3","structured_load","72","structured_load,structured_incentive,structured_normal,random","2,3,2,1,3,4","true","","",""
"null","","html-keyboard-response","206","215382","0.0-206.0","","<img src=""img/set1/S3.jpg"" width=""540"" height = ""360"" style=""border:16px solid orange"">","null","","","","","","","","",""
"null","","html-keyboard-response","207","215587","0.0-207.0","","","null","","","","","","","","",""
"417.69999998807907","","image-keyboard-response","208","216006","0.0-208.0","","img/set1/S2.jpg","68","2","structured_load","68","structured_load,structured_incentive,structured_normal,random","2,3,2,1,3,4","true","","",""
"null","","html-keyboard-response","209","216359","0.0-209.0","","<img src=""img/set1/S2.jpg"" width=""540"" height = ""360"" style=""border:16px solid orange"">","null","","","","","","","","",""
"null","","html-keyboard-response","210","216568","0.0-210.0","","","null","","","","","","","","",""
"366.30000001192093","","image-keyboard-response","211","216936","0.0-211.0","","img/set1/S3.jpg","72","3","structured_load","72","structured_load,structured_incentive,structured_normal,random","2,3,2,1,3,4","true","","",""
"null","","html-keyboard-response","212","217289","0.0-212.0","","<img src=""img/set1/S3.jpg"" width=""540"" height = ""360"" style=""border:16px solid orange"">","null","","","","","","","","",""
"null","","html-keyboard-response","213","217499","0.0-213.0","","","null","","","","","","","","",""
"550.3999999761581","","image-keyboard-response","214","218051","0.0-214.0","","img/set1/S1.jpg","83","1","structured_load","83","structured_load,structured_incentive,structured_normal,random","2,3,2,1,3,4","true","","",""
"null","","html-keyboard-response","215","218406","0.0-215.0","","<img src=""img/set1/S1.jpg"" width=""540"" height = ""360"" style=""border:16px solid orange"">","null","","","","","","","","",""
"null","","html-keyboard-response","216","218611","0.0-216.0","","","null","","","","","","","","",""
"620.7999999523163","","image-keyboard-response","217","219234","0.0-217.0","","img/set1/S2.jpg","68","2","structured_load","68","structured_load,structured_incentive,structured_normal,random","2,3,2,1,3,4","true","","",""
"null","","html-keyboard-response","218","219596","0.0-218.0","","<img src=""img/set1/S2.jpg"" width=""540"" height = ""360"" style=""border:16px solid orange"">","null","","","","","","","","",""
"null","","html-keyboard-response","219","219803","0.0-219.0","","","null","","","","","","","","",""
"420.30000001192093","","image-keyboard-response","220","220226","0.0-220.0","","img/set1/S3.jpg","72","3","structured_load","72","structured_load,structured_incentive,structured_normal,random","2,3,2,1,3,4","true","","",""
"null","","html-keyboard-response","221","220586","0.0-221.0","","<img src=""img/set1/S3.jpg"" width=""540"" height = ""360"" style=""border:16px solid orange"">","null","","","","","","","","",""
"null","","html-keyboard-response","222","220795","0.0-222.0","","","null","","","","","","","","",""
"689","","image-keyboard-response","223","221485","0.0-223.0","","img/set1/S1.jpg","74","1","structured_load","83","structured_load,structured_incentive,structured_normal,random","2,3,2,1,3,4","false","","",""
"null","","html-keyboard-response","224","221838","0.0-224.0","","<img src=""img/set1/S1.jpg"" width=""540"" height = ""360"">","null","","","","","","","","",""
"null","","html-keyboard-response","225","222043","0.0-225.0","","","null","","","","","","","","",""
"622.1000000238419","","image-keyboard-response","226","222669","0.0-226.0","","img/set1/S4.jpg","68","4","structured_load","74","structured_load,structured_incentive,structured_normal,random","2,3,2,1,3,4","false","","",""
"null","","html-keyboard-response","227","223030","0.0-227.0","","<img src=""img/set1/S4.jpg"" width=""540"" height = ""360"">","null","","","","","","","","",""
"null","","html-keyboard-response","228","223240","0.0-228.0","","","null","","","","","","","","",""
"745","","image-keyboard-response","229","223986","0.0-229.0","","img/set1/S1.jpg","83","1","structured_load","83","structured_load,structured_incentive,structured_normal,random","2,3,2,1,3,4","true","","",""
"null","","html-keyboard-response","230","224349","0.0-230.0","","<img src=""img/set1/S1.jpg"" width=""540"" height = ""360"" style=""border:16px solid orange"">","null","","","","","","","","",""
"null","","html-keyboard-response","231","224552","0.0-231.0","","","null","","","","","","","","",""
"590.8999999761581","","image-keyboard-response","232","225147","0.0-232.0","","img/set1/S4.jpg","74","4","structured_load","74","structured_load,structured_incentive,structured_normal,random","2,3,2,1,3,4","true","","",""
"null","","html-keyboard-response","233","225501","0.0-233.0","","<img src=""img/set1/S4.jpg"" width=""540"" height = ""360"" style=""border:16px solid orange"">","null","","","","","","","","",""
"null","","html-keyboard-response","234","225711","0.0-234.0","","","null","","","","","","","","",""
"713.2999999523163","","image-keyboard-response","235","226426","0.0-235.0","","img/set1/S2.jpg","68","2","structured_load","68","structured_load,structured_incentive,structured_normal,random","2,3,2,1,3,4","true","","",""
"null","","html-keyboard-response","236","226784","0.0-236.0","","<img src=""img/set1/S2.jpg"" width=""540"" height = ""360"" style=""border:16px solid orange"">","null","","","","","","","","",""
"null","","html-keyboard-response","237","226989","0.0-237.0","","","null","","","","","","","","",""
"487.5999999642372","","image-keyboard-response","238","227478","0.0-238.0","","img/set1/S3.jpg","72","3","structured_load","72","structured_load,structured_incentive,structured_normal,random","2,3,2,1,3,4","true","","",""
"null","","html-keyboard-response","239","227835","0.0-239.0","","<img src=""img/set1/S3.jpg"" width=""540"" height = ""360"" style=""border:16px solid orange"">","null","","","","","","","","",""
"null","","html-keyboard-response","240","228037","0.0-240.0","","","null","","","","","","","","",""
"632.7000000476837","","image-keyboard-response","241","228671","0.0-241.0","","img/set1/S1.jpg","83","1","structured_load","83","structured_load,structured_incentive,structured_normal,random","2,3,2,1,3,4","true","","",""
"null","","html-keyboard-response","242","229037","0.0-242.0","","<img src=""img/set1/S1.jpg"" width=""540"" height = ""360"" style=""border:16px solid orange"">","null","","","","","","","","",""
"null","","html-keyboard-response","243","229246","0.0-243.0","","","null","","","","","","","","",""
"454.0999999642372","","image-keyboard-response","244","229701","0.0-244.0","","img/set1/S1.jpg","83","1","structured_load","83","structured_load,structured_incentive,structured_normal,random","2,3,2,1,3,4","true","","",""
"null","","html-keyboard-response","245","230056","0.0-245.0","","<img src=""img/set1/S1.jpg"" width=""540"" height = ""360"" style=""border:16px solid orange"">","null","","","","","","","","",""
"null","","html-keyboard-response","246","230265","0.0-246.0","","","null","","","","","","","","",""
"836.6000000238419","","image-keyboard-response","247","231103","0.0-247.0","","img/set1/S2.jpg","68","2","structured_load","68","structured_load,structured_incentive,structured_normal,random","2,3,2,1,3,4","true","","",""
"null","","html-keyboard-response","248","231463","0.0-248.0","","<img src=""img/set1/S2.jpg"" width=""540"" height = ""360"" style=""border:16px solid orange"">","null","","","","","","","","",""
"null","","html-keyboard-response","249","231685","0.0-249.0","","","null","","","","","","","","",""
"397.19999998807907","","image-keyboard-response","250","232085","0.0-250.0","","img/set1/S3.jpg","72","3","structured_load","72","structured_load,structured_incentive,structured_normal,random","2,3,2,1,3,4","true","","",""
"null","","html-keyboard-response","251","232441","0.0-251.0","","<img src=""img/set1/S3.jpg"" width=""540"" height = ""360"" style=""border:16px solid orange"">","null","","","","","","","","",""
"null","","html-keyboard-response","252","232644","0.0-252.0","","","null","","","","","","","","",""
"431.39999997615814","","image-keyboard-response","253","233076","0.0-253.0","","img/set1/S2.jpg","68","2","structured_load","68","structured_load,structured_incentive,structured_normal,random","2,3,2,1,3,4","true","","",""
"null","","html-keyboard-response","254","233435","0.0-254.0","","<img src=""img/set1/S2.jpg"" width=""540"" height = ""360"" style=""border:16px solid orange"">","null","","","","","","","","",""
"null","","html-keyboard-response","255","233639","0.0-255.0","","","null","","","","","","","","",""
"553.1999999880791","","image-keyboard-response","256","234193","0.0-256.0","","img/set1/S3.jpg","72","3","structured_load","72","structured_load,structured_incentive,structured_normal,random","2,3,2,1,3,4","true","","",""
"null","","html-keyboard-response","257","234555","0.0-257.0","","<img src=""img/set1/S3.jpg"" width=""540"" height = ""360"" style=""border:16px solid orange"">","null","","","","","","","","",""
"null","","html-keyboard-response","258","234764","0.0-258.0","","","null","","","","","","","","",""
"318","","image-keyboard-response","259","235083","0.0-259.0","","img/set1/S2.jpg","68","2","structured_load","68","structured_load,structured_incentive,structured_normal,random","2,3,2,1,3,4","true","","",""
"null","","html-keyboard-response","260","235437","0.0-260.0","","<img src=""img/set1/S2.jpg"" width=""540"" height = ""360"" style=""border:16px solid orange"">","null","","","","","","","","",""
"null","","html-keyboard-response","261","235644","0.0-261.0","","","null","","","","","","","","",""
"274.69999998807907","","image-keyboard-response","262","235920","0.0-262.0","","img/set1/S3.jpg","72","3","structured_load","72","structured_load,structured_incentive,structured_normal,random","2,3,2,1,3,4","true","","",""
"null","","html-keyboard-response","263","236274","0.0-263.0","","<img src=""img/set1/S3.jpg"" width=""540"" height = ""360"" style=""border:16px solid orange"">","null","","","","","","","","",""
"null","","html-keyboard-response","264","236476","0.0-264.0","","","null","","","","","","","","",""
"496","","image-keyboard-response","265","236973","0.0-265.0","","img/set1/S4.jpg","74","4","structured_load","74","structured_load,structured_incentive,structured_normal,random","2,3,2,1,3,4","true","","",""
"null","","html-keyboard-response","266","237326","0.0-266.0","","<img src=""img/set1/S4.jpg"" width=""540"" height = ""360"" style=""border:16px solid orange"">","null","","","","","","","","",""
"null","","html-keyboard-response","267","237535","0.0-267.0","","","null","","","","","","","","",""
"538.1000000238419","","image-keyboard-response","268","238075","0.0-268.0","","img/set1/S2.jpg","68","2","structured_load","68","structured_load,structured_incentive,structured_normal,random","2,3,2,1,3,4","true","","",""
"null","","html-keyboard-response","269","238431","0.0-269.0","","<img src=""img/set1/S2.jpg"" width=""540"" height = ""360"" style=""border:16px solid orange"">","null","","","","","","","","",""
"null","","html-keyboard-response","270","238635","0.0-270.0","","","null","","","","","","","","",""
"323.39999997615814","","image-keyboard-response","271","238960","0.0-271.0","","img/set1/S3.jpg","72","3","structured_load","72","structured_load,structured_incentive,structured_normal,random","2,3,2,1,3,4","true","","",""
"null","","html-keyboard-response","272","239315","0.0-272.0","","<img src=""img/set1/S3.jpg"" width=""540"" height = ""360"" style=""border:16px solid orange"">","null","","","","","","","","",""
"null","","html-keyboard-response","273","239539","0.0-273.0","","","null","","","","","","","","",""
"408.19999998807907","","image-keyboard-response","274","239949","0.0-274.0","","img/set1/S1.jpg","83","1","structured_load","83","structured_load,structured_incentive,structured_normal,random","2,3,2,1,3,4","true","","",""
"null","","html-keyboard-response","275","240306","0.0-275.0","","<img src=""img/set1/S1.jpg"" width=""540"" height = ""360"" style=""border:16px solid orange"">","null","","","","","","","","",""
"null","","html-keyboard-response","276","240510","0.0-276.0","","","null","","","","","","","","",""
"419.7000000476837","","image-keyboard-response","277","240931","0.0-277.0","","img/set1/S1.jpg","83","1","structured_load","83","structured_load,structured_incentive,structured_normal,random","2,3,2,1,3,4","true","","",""
"null","","html-keyboard-response","278","241285","0.0-278.0","","<img src=""img/set1/S1.jpg"" width=""540"" height = ""360"" style=""border:16px solid orange"">","null","","","","","","","","",""
"null","","html-keyboard-response","279","241495","0.0-279.0","","","null","","","","","","","","",""
"989.8000000119209","","image-keyboard-response","280","242486","0.0-280.0","","img/set1/S2.jpg","72","2","structured_load","68","structured_load,structured_incentive,structured_normal,random","2,3,2,1,3,4","false","","",""
"null","","html-keyboard-response","281","242839","0.0-281.0","","<img src=""img/set1/S2.jpg"" width=""540"" height = ""360"">","null","","","","","","","","",""
"null","","html-keyboard-response","282","243044","0.0-282.0","","","null","","","","","","","","",""
"482.5999999642372","","image-keyboard-response","283","243528","0.0-283.0","","img/set1/S3.jpg","72","3","structured_load","72","structured_load,structured_incentive,structured_normal,random","2,3,2,1,3,4","true","","",""
"null","","html-keyboard-response","284","243883","0.0-284.0","","<img src=""img/set1/S3.jpg"" width=""540"" height = ""360"" style=""border:16px solid orange"">","null","","","","","","","","",""
"null","","html-keyboard-response","285","244090","0.0-285.0","","","null","","","","","","","","",""
"598.6999999880791","","image-keyboard-response","286","244690","0.0-286.0","","img/set1/S2.jpg","68","2","structured_load","68","structured_load,structured_incentive,structured_normal,random","2,3,2,1,3,4","true","","",""
"null","","html-keyboard-response","287","245046","0.0-287.0","","<img src=""img/set1/S2.jpg"" width=""540"" height = ""360"" style=""border:16px solid orange"">","null","","","","","","","","",""
"null","","html-keyboard-response","288","245249","0.0-288.0","","","null","","","","","","","","",""
"637.0999999642372","","image-keyboard-response","289","245887","0.0-289.0","","img/set1/S3.jpg","68","3","structured_load","72","structured_load,structured_incentive,structured_normal,random","2,3,2,1,3,4","false","","",""
"null","","html-keyboard-response","290","246240","0.0-290.0","","<img src=""img/set1/S3.jpg"" width=""540"" height = ""360"">","null","","","","","","","","",""
"null","","html-keyboard-response","291","246447","0.0-291.0","","","null","","","","","","","","",""
"533.5999999642372","","image-keyboard-response","292","246982","0.0-292.0","","img/set1/S2.jpg","72","2","structured_load","68","structured_load,structured_incentive,structured_normal,random","2,3,2,1,3,4","false","","",""
"null","","html-keyboard-response","293","247341","0.0-293.0","","<img src=""img/set1/S2.jpg"" width=""540"" height = ""360"">","null","","","","","","","","",""
"null","","html-keyboard-response","294","247545","0.0-294.0","","","null","","","","","","","","",""
"1020.7000000476837","","image-keyboard-response","295","248567","0.0-295.0","","img/set1/S3.jpg","72","3","structured_load","72","structured_load,structured_incentive,structured_normal,random","2,3,2,1,3,4","true","","",""
"null","","html-keyboard-response","296","248925","0.0-296.0","","<img src=""img/set1/S3.jpg"" width=""540"" height = ""360"" style=""border:16px solid orange"">","null","","","","","","","","",""
"null","","html-keyboard-response","297","249135","0.0-297.0","","","null","","","","","","","","",""
"532.1999999880791","","image-keyboard-response","298","249668","0.0-298.0","","img/set1/S1.jpg","83","1","structured_load","83","structured_load,structured_incentive,structured_normal,random","2,3,2,1,3,4","true","","",""
"null","","html-keyboard-response","299","250024","0.0-299.0","","<img src=""img/set1/S1.jpg"" width=""540"" height = ""360"" style=""border:16px solid orange"">","null","","","","","","","","",""
"null","","html-keyboard-response","300","250230","0.0-300.0","","","null","","","","","","","","",""
"368.5","","image-keyboard-response","301","250599","0.0-301.0","","img/set1/S1.jpg","83","1","structured_load","83","structured_load,structured_incentive,structured_normal,random","2,3,2,1,3,4","true","","",""
"null","","html-keyboard-response","302","250954","0.0-302.0","","<img src=""img/set1/S1.jpg"" width=""540"" height = ""360"" style=""border:16px solid orange"">","null","","","","","","","","",""
"null","","html-keyboard-response","303","251157","0.0-303.0","","","null","","","","","","","","",""
"392.69999998807907","","image-keyboard-response","304","251551","0.0-304.0","","img/set1/S1.jpg","83","1","structured_load","83","structured_load,structured_incentive,structured_normal,random","2,3,2,1,3,4","true","","",""
"null","","html-keyboard-response","305","251906","0.0-305.0","","<img src=""img/set1/S1.jpg"" width=""540"" height = ""360"" style=""border:16px solid orange"">","null","","","","","","","","",""
"null","","html-keyboard-response","306","252115","0.0-306.0","","","null","","","","","","","","",""
"673.3000000119209","","image-keyboard-response","307","252790","0.0-307.0","","img/set1/S4.jpg","74","4","structured_load","74","structured_load,structured_incentive,structured_normal,random","2,3,2,1,3,4","true","","",""
"null","","html-keyboard-response","308","253148","0.0-308.0","","<img src=""img/set1/S4.jpg"" width=""540"" height = ""360"" style=""border:16px solid orange"">","null","","","","","","","","",""
"null","","html-keyboard-response","309","253351","0.0-309.0","","","null","","","","","","","","",""
"490.30000001192093","","image-keyboard-response","310","253842","0.0-310.0","","img/set1/S1.jpg","74","1","structured_load","83","structured_load,structured_incentive,structured_normal,random","2,3,2,1,3,4","false","","",""
"null","","html-keyboard-response","311","254203","0.0-311.0","","<img src=""img/set1/S1.jpg"" width=""540"" height = ""360"">","null","","","","","","","","",""
"null","","html-keyboard-response","312","254405","0.0-312.0","","","null","","","","","","","","",""
"667.1999999880791","","image-keyboard-response","313","255074","0.0-313.0","","img/set1/S2.jpg","68","2","structured_load","68","structured_load,structured_incentive,structured_normal,random","2,3,2,1,3,4","true","","",""
"null","","html-keyboard-response","314","255428","0.0-314.0","","<img src=""img/set1/S2.jpg"" width=""540"" height = ""360"" style=""border:16px solid orange"">","null","","","","","","","","",""
"null","","html-keyboard-response","315","255635","0.0-315.0","","","null","","","","","","","","",""
"579.8000000119209","","image-keyboard-response","316","256216","0.0-316.0","","img/set1/S3.jpg","72","3","structured_load","72","structured_load,structured_incentive,structured_normal,random","2,3,2,1,3,4","true","","",""
"null","","html-keyboard-response","317","256569","0.0-317.0","","<img src=""img/set1/S3.jpg"" width=""540"" height = ""360"" style=""border:16px solid orange"">","null","","","","","","","","",""
"null","","html-keyboard-response","318","256772","0.0-318.0","","","null","","","","","","","","",""
"496.80000001192093","","image-keyboard-response","319","257271","0.0-319.0","","img/set1/S1.jpg","68","1","structured_load","83","structured_load,structured_incentive,structured_normal,random","2,3,2,1,3,4","false","","",""
"null","","html-keyboard-response","320","257631","0.0-320.0","","<img src=""img/set1/S1.jpg"" width=""540"" height = ""360"">","null","","","","","","","","",""
"null","","html-keyboard-response","321","257834","0.0-321.0","","","null","","","","","","","","",""
"364.5","","image-keyboard-response","322","258200","0.0-322.0","","img/set1/S1.jpg","83","1","structured_load","83","structured_load,structured_incentive,structured_normal,random","2,3,2,1,3,4","true","","",""
"null","","html-keyboard-response","323","258555","0.0-323.0","","<img src=""img/set1/S1.jpg"" width=""540"" height = ""360"" style=""border:16px solid orange"">","null","","","","","","","","",""
"null","","html-keyboard-response","324","258758","0.0-324.0","","","null","","","","","","","","",""
"323.7999999523163","","image-keyboard-response","325","259083","0.0-325.0","","img/set1/S1.jpg","83","1","structured_load","83","structured_load,structured_incentive,structured_normal,random","2,3,2,1,3,4","true","","",""
"null","","html-keyboard-response","326","259437","0.0-326.0","","<img src=""img/set1/S1.jpg"" width=""540"" height = ""360"" style=""border:16px solid orange"">","null","","","","","","","","",""
"null","","html-keyboard-response","327","259643","0.0-327.0","","","null","","","","","","","","",""
"721.8000000119209","","image-keyboard-response","328","260368","0.0-328.0","","img/set1/S2.jpg","68","2","structured_load","68","structured_load,structured_incentive,structured_normal,random","2,3,2,1,3,4","true","","",""
"null","","html-keyboard-response","329","260733","0.0-329.0","","<img src=""img/set1/S2.jpg"" width=""540"" height = ""360"" style=""border:16px solid orange"">","null","","","","","","","","",""
"null","","html-keyboard-response","330","260936","0.0-330.0","","","null","","","","","","","","",""
"507.89999997615814","","image-keyboard-response","331","261447","0.0-331.0","","img/set1/S3.jpg","72","3","structured_load","72","structured_load,structured_incentive,structured_normal,random","2,3,2,1,3,4","true","","",""
"null","","html-keyboard-response","332","261802","0.0-332.0","","<img src=""img/set1/S3.jpg"" width=""540"" height = ""360"" style=""border:16px solid orange"">","null","","","","","","","","",""
"null","","html-keyboard-response","333","262014","0.0-333.0","","","null","","","","","","","","",""
"620.1999999880791","","image-keyboard-response","334","262636","0.0-334.0","","img/set1/S1.jpg","68","1","structured_load","83","structured_load,structured_incentive,structured_normal,random","2,3,2,1,3,4","false","","",""
"null","","html-keyboard-response","335","263002","0.0-335.0","","<img src=""img/set1/S1.jpg"" width=""540"" height = ""360"">","null","","","","","","","","",""
"null","","html-keyboard-response","336","263217","0.0-336.0","","","null","","","","","","","","",""
"554.0999999642372","","image-keyboard-response","337","263772","0.0-337.0","","img/set1/S2.jpg","68","2","structured_load","68","structured_load,structured_incentive,structured_normal,random","2,3,2,1,3,4","true","","",""
"null","","html-keyboard-response","338","264123","0.0-338.0","","<img src=""img/set1/S2.jpg"" width=""540"" height = ""360"" style=""border:16px solid orange"">","null","","","","","","","","",""
"null","","html-keyboard-response","339","264331","0.0-339.0","","","null","","","","","","","","",""
"618.2999999523163","","image-keyboard-response","340","264950","0.0-340.0","","img/set1/S3.jpg","72","3","structured_load","72","structured_load,structured_incentive,structured_normal,random","2,3,2,1,3,4","true","","",""
"null","","html-keyboard-response","341","265304","0.0-341.0","","<img src=""img/set1/S3.jpg"" width=""540"" height = ""360"" style=""border:16px solid orange"">","null","","","","","","","","",""
"null","","html-keyboard-response","342","265530","0.0-342.0","","","null","","","","","","","","",""
"462.19999998807907","","image-keyboard-response","343","265993","0.0-343.0","","img/set1/S1.jpg","83","1","structured_load","83","structured_load,structured_incentive,structured_normal,random","2,3,2,1,3,4","true","","",""
"null","","html-keyboard-response","344","266358","0.0-344.0","","<img src=""img/set1/S1.jpg"" width=""540"" height = ""360"" style=""border:16px solid orange"">","null","","","","","","","","",""
"null","","html-keyboard-response","345","266570","0.0-345.0","","","null","","","","","","","","",""
"402.39999997615814","","image-keyboard-response","346","266973","0.0-346.0","","img/set1/S1.jpg","83","1","structured_load","83","structured_load,structured_incentive,structured_normal,random","2,3,2,1,3,4","true","","",""
"null","","html-keyboard-response","347","267333","0.0-347.0","","<img src=""img/set1/S1.jpg"" width=""540"" height = ""360"" style=""border:16px solid orange"">","null","","","","","","","","",""
"null","","html-keyboard-response","348","267537","0.0-348.0","","","null","","","","","","","","",""
"365.5","","image-keyboard-response","349","267904","0.0-349.0","","img/set1/S1.jpg","83","1","structured_load","83","structured_load,structured_incentive,structured_normal,random","2,3,2,1,3,4","true","","",""
"null","","html-keyboard-response","350","268264","0.0-350.0","","<img src=""img/set1/S1.jpg"" width=""540"" height = ""360"" style=""border:16px solid orange"">","null","","","","","","","","",""
"null","","html-keyboard-response","351","268471","0.0-351.0","","","null","","","","","","","","",""
"1020.7999999523163","","image-keyboard-response","352","269494","0.0-352.0","","img/set1/S2.jpg","68","2","structured_load","68","structured_load,structured_incentive,structured_normal,random","2,3,2,1,3,4","true","","",""
"null","","html-keyboard-response","353","269853","0.0-353.0","","<img src=""img/set1/S2.jpg"" width=""540"" height = ""360"" style=""border:16px solid orange"">","null","","","","","","","","",""
"null","","html-keyboard-response","354","270061","0.0-354.0","","","null","","","","","","","","",""
"462.10000002384186","","image-keyboard-response","355","270525","0.0-355.0","","img/set1/S3.jpg","72","3","structured_load","72","structured_load,structured_incentive,structured_normal,random","2,3,2,1,3,4","true","","",""
"null","","html-keyboard-response","356","270879","0.0-356.0","","<img src=""img/set1/S3.jpg"" width=""540"" height = ""360"" style=""border:16px solid orange"">","null","","","","","","","","",""
"null","","html-keyboard-response","357","271088","0.0-357.0","","","null","","","","","","","","",""
"1045.7999999523163","","image-keyboard-response","358","272135","0.0-358.0","","img/set1/S4.jpg","74","4","structured_load","74","structured_load,structured_incentive,structured_normal,random","2,3,2,1,3,4","true","","",""
"null","","html-keyboard-response","359","272489","0.0-359.0","","<img src=""img/set1/S4.jpg"" width=""540"" height = ""360"" style=""border:16px solid orange"">","null","","","","","","","","",""
"null","","html-keyboard-response","360","272698","0.0-360.0","","","null","","","","","","","","",""
"459.30000001192093","","image-keyboard-response","361","273159","0.0-361.0","","img/set1/S4.jpg","74","4","structured_load","74","structured_load,structured_incentive,structured_normal,random","2,3,2,1,3,4","true","","",""
"null","","html-keyboard-response","362","273523","0.0-362.0","","<img src=""img/set1/S4.jpg"" width=""540"" height = ""360"" style=""border:16px solid orange"">","null","","","","","","","","",""
"null","","html-keyboard-response","363","273733","0.0-363.0","","","null","","","","","","","","",""
"4415.300000011921","","survey-multi-choice","364","278152","0.0-364.0","","","","","","","","","","{""Q0"":""Picture A""}","[0]",""
"5073.600000023842","","html-keyboard-response","365","283227","0.0-365.0","","<p class=""center-content"">You have completed a block! </p><p class=""center-content"">Press any key on the keyboard to continue, </p><p class=""center-content"">or wait for the automatic progression to the next block after one minute.</p>","72","","","","","","","","",""
"10454.699999988079","","instructions","366","293683","0.0-366.0","[{""page_index"":0,""viewing_time"":10454.099999964237}]","","","","","","","","","","",""
"15665.599999964237","","instructions","367","309350","0.0-367.0","[{""page_index"":0,""viewing_time"":8447.899999976158},{""page_index"":1,""viewing_time"":7216.699999988079}]","","","","","","","","","","",""
"1427.9000000357628","","image-keyboard-response","368","310781","0.0-368.0","","img/set2/S4.jpg","68","4","structured_incentive","74","structured_load,structured_incentive,structured_normal,random","2,3,2,1,3,4","false","","",""
"null","","html-keyboard-response","369","311136","0.0-369.0","","<img src=""img/set2/S4.jpg"" width=""540"" height = ""360"">","null","","","","","","","","",""
"null","","html-keyboard-response","370","311338","0.0-370.0","","","null","","","","","","","","",""
"625.4000000357628","","image-keyboard-response","371","311965","0.0-371.0","","img/set2/S4.jpg","83","4","structured_incentive","74","structured_load,structured_incentive,structured_normal,random","2,3,2,1,3,4","false","","",""
"null","","html-keyboard-response","372","312327","0.0-372.0","","<img src=""img/set2/S4.jpg"" width=""540"" height = ""360"">","null","","","","","","","","",""
"null","","html-keyboard-response","373","312533","0.0-373.0","","","null","","","","","","","","",""
"1432.5","","image-keyboard-response","374","313967","0.0-374.0","","img/set2/S3.jpg","68","3","structured_incentive","72","structured_load,structured_incentive,structured_normal,random","2,3,2,1,3,4","false","","",""
"null","","html-keyboard-response","375","314321","0.0-375.0","","<img src=""img/set2/S3.jpg"" width=""540"" height = ""360"">","null","","","","","","","","",""
"null","","html-keyboard-response","376","314526","0.0-376.0","","","null","","","","","","","","",""
"847.7999999523163","","image-keyboard-response","377","315377","0.0-377.0","","img/set2/S4.jpg","72","4","structured_incentive","74","structured_load,structured_incentive,structured_normal,random","2,3,2,1,3,4","false","","",""
"null","","html-keyboard-response","378","315735","0.0-378.0","","<img src=""img/set2/S4.jpg"" width=""540"" height = ""360"">","null","","","","","","","","",""
"null","","html-keyboard-response","379","315945","0.0-379.0","","","null","","","","","","","","",""
"1131.7000000476837","","image-keyboard-response","380","317078","0.0-380.0","","img/set2/S2.jpg","74","2","structured_incentive","68","structured_load,structured_incentive,structured_normal,random","2,3,2,1,3,4","false","","",""
"null","","html-keyboard-response","381","317434","0.0-381.0","","<img src=""img/set2/S2.jpg"" width=""540"" height = ""360"">","null","","","","","","","","",""
"null","","html-keyboard-response","382","317640","0.0-382.0","","","null","","","","","","","","",""
"1191.3999999761581","","image-keyboard-response","383","318833","0.0-383.0","","img/set2/S1.jpg","83","1","structured_incentive","83","structured_load,structured_incentive,structured_normal,random","2,3,2,1,3,4","true","","",""
"null","","html-keyboard-response","384","319185","0.0-384.0","","<img src=""img/set2/S1.jpg"" width=""540"" height = ""360"" style=""border:16px solid Violet"">","null","","","","","","","","",""
"null","","html-keyboard-response","385","319392","0.0-385.0","","","null","","","","","","","","",""
"1030.9000000357628","","image-keyboard-response","386","320425","0.0-386.0","","img/set2/S4.jpg","72","4","structured_incentive","74","structured_load,structured_incentive,structured_normal,random","2,3,2,1,3,4","false","","",""
"null","","html-keyboard-response","387","320782","0.0-387.0","","<img src=""img/set2/S4.jpg"" width=""540"" height = ""360"">","null","","","","","","","","",""
"null","","html-keyboard-response","388","320991","0.0-388.0","","","null","","","","","","","","",""
"1098.5","","image-keyboard-response","389","322091","0.0-389.0","","img/set2/S2.jpg","74","2","structured_incentive","68","structured_load,structured_incentive,structured_normal,random","2,3,2,1,3,4","false","","",""
"null","","html-keyboard-response","390","322454","0.0-390.0","","<img src=""img/set2/S2.jpg"" width=""540"" height = ""360"">","null","","","","","","","","",""
"null","","html-keyboard-response","391","322660","0.0-391.0","","","null","","","","","","","","",""
"847.8000000119209","","image-keyboard-response","392","323509","0.0-392.0","","img/set2/S1.jpg","83","1","structured_incentive","83","structured_load,structured_incentive,structured_normal,random","2,3,2,1,3,4","true","","",""
"null","","html-keyboard-response","393","323868","0.0-393.0","","<img src=""img/set2/S1.jpg"" width=""540"" height = ""360"" style=""border:16px solid Violet"">","null","","","","","","","","",""
"null","","html-keyboard-response","394","324074","0.0-394.0","","","null","","","","","","","","",""
"799.1000000238419","","image-keyboard-response","395","324874","0.0-395.0","","img/set2/S3.jpg","68","3","structured_incentive","72","structured_load,structured_incentive,structured_normal,random","2,3,2,1,3,4","false","","",""
"null","","html-keyboard-response","396","325231","0.0-396.0","","<img src=""img/set2/S3.jpg"" width=""540"" height = ""360"">","null","","","","","","","","",""
"null","","html-keyboard-response","397","325439","0.0-397.0","","","null","","","","","","","","",""
"688.1999999880791","","image-keyboard-response","398","326130","0.0-398.0","","img/set2/S4.jpg","72","4","structured_incentive","74","structured_load,structured_incentive,structured_normal,random","2,3,2,1,3,4","false","","",""
"null","","html-keyboard-response","399","326490","0.0-399.0","","<img src=""img/set2/S4.jpg"" width=""540"" height = ""360"">","null","","","","","","","","",""
"null","","html-keyboard-response","400","326693","0.0-400.0","","","null","","","","","","","","",""
"1000","","image-keyboard-response","401","327695","0.0-401.0","","img/set2/S2.jpg","72","2","structured_incentive","68","structured_load,structured_incentive,structured_normal,random","2,3,2,1,3,4","false","","",""
"null","","html-keyboard-response","402","328061","0.0-402.0","","<img src=""img/set2/S2.jpg"" width=""540"" height = ""360"">","null","","","","","","","","",""
"null","","html-keyboard-response","403","328268","0.0-403.0","","","null","","","","","","","","",""
"834","","image-keyboard-response","404","329104","0.0-404.0","","img/set2/S1.jpg","83","1","structured_incentive","83","structured_load,structured_incentive,structured_normal,random","2,3,2,1,3,4","true","","",""
"null","","html-keyboard-response","405","329458","0.0-405.0","","<img src=""img/set2/S1.jpg"" width=""540"" height = ""360"" style=""border:16px solid Violet"">","null","","","","","","","","",""
"null","","html-keyboard-response","406","329664","0.0-406.0","","","null","","","","","","","","",""
"542.1000000238419","","image-keyboard-response","407","330207","0.0-407.0","","img/set2/S2.jpg","83","2","structured_incentive","68","structured_load,structured_incentive,structured_normal,random","2,3,2,1,3,4","false","","",""
"null","","html-keyboard-response","408","330564","0.0-408.0","","<img src=""img/set2/S2.jpg"" width=""540"" height = ""360"">","null","","","","","","","","",""
"null","","html-keyboard-response","409","330772","0.0-409.0","","","null","","","","","","","","",""
"728.3999999761581","","image-keyboard-response","410","331502","0.0-410.0","","img/set2/S1.jpg","83","1","structured_incentive","83","structured_load,structured_incentive,structured_normal,random","2,3,2,1,3,4","true","","",""
"null","","html-keyboard-response","411","331855","0.0-411.0","","<img src=""img/set2/S1.jpg"" width=""540"" height = ""360"" style=""border:16px solid Violet"">","null","","","","","","","","",""
"null","","html-keyboard-response","412","332061","0.0-412.0","","","null","","","","","","","","",""
"863.6999999880791","","image-keyboard-response","413","332926","0.0-413.0","","img/set2/S2.jpg","68","2","structured_incentive","68","structured_load,structured_incentive,structured_normal,random","2,3,2,1,3,4","true","","",""
"null","","html-keyboard-response","414","333287","0.0-414.0","","<img src=""img/set2/S2.jpg"" width=""540"" height = ""360"" style=""border:16px solid orange"">","null","","","","","","","","",""
"null","","html-keyboard-response","415","333495","0.0-415.0","","","null","","","","","","","","",""
"525.5999999642372","","image-keyboard-response","416","334022","0.0-416.0","","img/set2/S1.jpg","83","1","structured_incentive","83","structured_load,structured_incentive,structured_normal,random","2,3,2,1,3,4","true","","",""
"null","","html-keyboard-response","417","334381","0.0-417.0","","<img src=""img/set2/S1.jpg"" width=""540"" height = ""360"" style=""border:16px solid Violet"">","null","","","","","","","","",""
"null","","html-keyboard-response","418","334586","0.0-418.0","","","null","","","","","","","","",""
"391.80000001192093","","image-keyboard-response","419","334979","0.0-419.0","","img/set2/S2.jpg","68","2","structured_incentive","68","structured_load,structured_incentive,structured_normal,random","2,3,2,1,3,4","true","","",""
"null","","html-keyboard-response","420","335337","0.0-420.0","","<img src=""img/set2/S2.jpg"" width=""540"" height = ""360"" style=""border:16px solid orange"">","null","","","","","","","","",""
"null","","html-keyboard-response","421","335545","0.0-421.0","","","null","","","","","","","","",""
"495.69999998807907","","image-keyboard-response","422","336042","0.0-422.0","","img/set2/S1.jpg","83","1","structured_incentive","83","structured_load,structured_incentive,structured_normal,random","2,3,2,1,3,4","true","","",""
"null","","html-keyboard-response","423","336398","0.0-423.0","","<img src=""img/set2/S1.jpg"" width=""540"" height = ""360"" style=""border:16px solid Violet"">","null","","","","","","","","",""
"null","","html-keyboard-response","424","336602","0.0-424.0","","","null","","","","","","","","",""
"957.3999999761581","","image-keyboard-response","425","337561","0.0-425.0","","img/set2/S3.jpg","74","3","structured_incentive","72","structured_load,structured_incentive,structured_normal,random","2,3,2,1,3,4","false","","",""
"null","","html-keyboard-response","426","337920","0.0-426.0","","<img src=""img/set2/S3.jpg"" width=""540"" height = ""360"">","null","","","","","","","","",""
"null","","html-keyboard-response","427","338124","0.0-427.0","","","null","","","","","","","","",""
"1065.699999988079","","image-keyboard-response","428","339191","0.0-428.0","","img/set2/S4.jpg","72","4","structured_incentive","74","structured_load,structured_incentive,structured_normal,random","2,3,2,1,3,4","false","","",""
"null","","html-keyboard-response","429","339551","0.0-429.0","","<img src=""img/set2/S4.jpg"" width=""540"" height = ""360"">","null","","","","","","","","",""
"null","","html-keyboard-response","430","339760","0.0-430.0","","","null","","","","","","","","",""
"619","","image-keyboard-response","431","340380","0.0-431.0","","img/set2/S4.jpg","83","4","structured_incentive","74","structured_load,structured_incentive,structured_normal,random","2,3,2,1,3,4","false","","",""
"null","","html-keyboard-response","432","340736","0.0-432.0","","<img src=""img/set2/S4.jpg"" width=""540"" height = ""360"">","null","","","","","","","","",""
"null","","html-keyboard-response","433","340947","0.0-433.0","","","null","","","","","","","","",""
"546.6000000238419","","image-keyboard-response","434","341495","0.0-434.0","","img/set2/S4.jpg","72","4","structured_incentive","74","structured_load,structured_incentive,structured_normal,random","2,3,2,1,3,4","false","","",""
"null","","html-keyboard-response","435","341852","0.0-435.0","","<img src=""img/set2/S4.jpg"" width=""540"" height = ""360"">","null","","","","","","","","",""
"null","","html-keyboard-response","436","342058","0.0-436.0","","","null","","","","","","","","",""
"834.4000000357628","","image-keyboard-response","437","342894","0.0-437.0","","img/set2/S3.jpg","74","3","structured_incentive","72","structured_load,structured_incentive,structured_normal,random","2,3,2,1,3,4","false","","",""
"null","","html-keyboard-response","438","343256","0.0-438.0","","<img src=""img/set2/S3.jpg"" width=""540"" height = ""360"">","null","","","","","","","","",""
"null","","html-keyboard-response","439","343459","0.0-439.0","","","null","","","","","","","","",""
"752.8000000119209","","image-keyboard-response","440","344214","0.0-440.0","","img/set2/S2.jpg","68","2","structured_incentive","68","structured_load,structured_incentive,structured_normal,random","2,3,2,1,3,4","true","","",""
"null","","html-keyboard-response","441","344572","0.0-441.0","","<img src=""img/set2/S2.jpg"" width=""540"" height = ""360"" style=""border:16px solid orange"">","null","","","","","","","","",""
"null","","html-keyboard-response","442","344778","0.0-442.0","","","null","","","","","","","","",""
"485.4000000357628","","image-keyboard-response","443","345266","0.0-443.0","","img/set2/S1.jpg","83","1","structured_incentive","83","structured_load,structured_incentive,structured_normal,random","2,3,2,1,3,4","true","","",""
"null","","html-keyboard-response","444","345627","0.0-444.0","","<img src=""img/set2/S1.jpg"" width=""540"" height = ""360"" style=""border:16px solid Violet"">","null","","","","","","","","",""
"null","","html-keyboard-response","445","345831","0.0-445.0","","","null","","","","","","","","",""
"1280","","image-keyboard-response","446","347113","0.0-446.0","","img/set2/S4.jpg","68","4","structured_incentive","74","structured_load,structured_incentive,structured_normal,random","2,3,2,1,3,4","false","","",""
"null","","html-keyboard-response","447","347470","0.0-447.0","","<img src=""img/set2/S4.jpg"" width=""540"" height = ""360"">","null","","","","","","","","",""
"null","","html-keyboard-response","448","347676","0.0-448.0","","","null","","","","","","","","",""
"538.9000000357628","","image-keyboard-response","449","348216","0.0-449.0","","img/set2/S3.jpg","72","3","structured_incentive","72","structured_load,structured_incentive,structured_normal,random","2,3,2,1,3,4","true","","",""
"null","","html-keyboard-response","450","348573","0.0-450.0","","<img src=""img/set2/S3.jpg"" width=""540"" height = ""360"" style=""border:16px solid orange"">","null","","","","","","","","",""
"null","","html-keyboard-response","451","348783","0.0-451.0","","","null","","","","","","","","",""
"953.3000000119209","","image-keyboard-response","452","349739","0.0-452.0","","img/set2/S4.jpg","74","4","structured_incentive","74","structured_load,structured_incentive,structured_normal,random","2,3,2,1,3,4","true","","",""
"null","","html-keyboard-response","453","350095","0.0-453.0","","<img src=""img/set2/S4.jpg"" width=""540"" height = ""360"" style=""border:16px solid orange"">","null","","","","","","","","",""
"null","","html-keyboard-response","454","350304","0.0-454.0","","","null","","","","","","","","",""
"597.3000000119209","","image-keyboard-response","455","350903","0.0-455.0","","img/set2/S3.jpg","72","3","structured_incentive","72","structured_load,structured_incentive,structured_normal,random","2,3,2,1,3,4","true","","",""
"null","","html-keyboard-response","456","351266","0.0-456.0","","<img src=""img/set2/S3.jpg"" width=""540"" height = ""360"" style=""border:16px solid orange"">","null","","","","","","","","",""
"null","","html-keyboard-response","457","351472","0.0-457.0","","","null","","","","","","","","",""
"784.3999999761581","","image-keyboard-response","458","352258","0.0-458.0","","img/set2/S2.jpg","68","2","structured_incentive","68","structured_load,structured_incentive,structured_normal,random","2,3,2,1,3,4","true","","",""
"null","","html-keyboard-response","459","352611","0.0-459.0","","<img src=""img/set2/S2.jpg"" width=""540"" height = ""360"" style=""border:16px solid orange"">","null","","","","","","","","",""
"null","","html-keyboard-response","460","352815","0.0-460.0","","","null","","","","","","","","",""
"383.5","","image-keyboard-response","461","353200","0.0-461.0","","img/set2/S1.jpg","83","1","structured_incentive","83","structured_load,structured_incentive,structured_normal,random","2,3,2,1,3,4","true","","",""
"null","","html-keyboard-response","462","353558","0.0-462.0","","<img src=""img/set2/S1.jpg"" width=""540"" height = ""360"" style=""border:16px solid Violet"">","null","","","","","","","","",""
"null","","html-keyboard-response","463","353764","0.0-463.0","","","null","","","","","","","","",""
"525.3999999761581","","image-keyboard-response","464","354291","0.0-464.0","","img/set2/S3.jpg","68","3","structured_incentive","72","structured_load,structured_incentive,structured_normal,random","2,3,2,1,3,4","false","","",""
"null","","html-keyboard-response","465","354644","0.0-465.0","","<img src=""img/set2/S3.jpg"" width=""540"" height = ""360"">","null","","","","","","","","",""
"null","","html-keyboard-response","466","354853","0.0-466.0","","","null","","","","","","","","",""
"569.1000000238419","","image-keyboard-response","467","355423","0.0-467.0","","img/set2/S3.jpg","72","3","structured_incentive","72","structured_load,structured_incentive,structured_normal,random","2,3,2,1,3,4","true","","",""
"null","","html-keyboard-response","468","355777","0.0-468.0","","<img src=""img/set2/S3.jpg"" width=""540"" height = ""360"" style=""border:16px solid orange"">","null","","","","","","","","",""
"null","","html-keyboard-response","469","355980","0.0-469.0","","","null","","","","","","","","",""
"387.30000001192093","","image-keyboard-response","470","356372","0.0-470.0","","img/set2/S3.jpg","72","3","structured_incentive","72","structured_load,structured_incentive,structured_normal,random","2,3,2,1,3,4","true","","",""
"null","","html-keyboard-response","471","356733","0.0-471.0","","<img src=""img/set2/S3.jpg"" width=""540"" height = ""360"" style=""border:16px solid orange"">","null","","","","","","","","",""
"null","","html-keyboard-response","472","356937","0.0-472.0","","","null","","","","","","","","",""
"749.8999999761581","","image-keyboard-response","473","357690","0.0-473.0","","img/set2/S4.jpg","74","4","structured_incentive","74","structured_load,structured_incentive,structured_normal,random","2,3,2,1,3,4","true","","",""
"null","","html-keyboard-response","474","358054","0.0-474.0","","<img src=""img/set2/S4.jpg"" width=""540"" height = ""360"" style=""border:16px solid orange"">","null","","","","","","","","",""
"null","","html-keyboard-response","475","358265","0.0-475.0","","","null","","","","","","","","",""
"753.4000000357628","","image-keyboard-response","476","359020","0.0-476.0","","img/set2/S2.jpg","68","2","structured_incentive","68","structured_load,structured_incentive,structured_normal,random","2,3,2,1,3,4","true","","",""
"null","","html-keyboard-response","477","359374","0.0-477.0","","<img src=""img/set2/S2.jpg"" width=""540"" height = ""360"" style=""border:16px solid orange"">","null","","","","","","","","",""
"null","","html-keyboard-response","478","359587","0.0-478.0","","","null","","","","","","","","",""
"410.5","","image-keyboard-response","479","359999","0.0-479.0","","img/set2/S1.jpg","83","1","structured_incentive","83","structured_load,structured_incentive,structured_normal,random","2,3,2,1,3,4","true","","",""
"null","","html-keyboard-response","480","360361","0.0-480.0","","<img src=""img/set2/S1.jpg"" width=""540"" height = ""360"" style=""border:16px solid Violet"">","null","","","","","","","","",""
"null","","html-keyboard-response","481","360567","0.0-481.0","","","null","","","","","","","","",""
"612.4000000357628","","image-keyboard-response","482","361181","0.0-482.0","","img/set2/S2.jpg","68","2","structured_incentive","68","structured_load,structured_incentive,structured_normal,random","2,3,2,1,3,4","true","","",""
"null","","html-keyboard-response","483","361544","0.0-483.0","","<img src=""img/set2/S2.jpg"" width=""540"" height = ""360"" style=""border:16px solid orange"">","null","","","","","","","","",""
"null","","html-keyboard-response","484","361759","0.0-484.0","","","null","","","","","","","","",""
"593.3999999761581","","image-keyboard-response","485","362354","0.0-485.0","","img/set2/S1.jpg","83","1","structured_incentive","83","structured_load,structured_incentive,structured_normal,random","2,3,2,1,3,4","true","","",""
"null","","html-keyboard-response","486","362710","0.0-486.0","","<img src=""img/set2/S1.jpg"" width=""540"" height = ""360"" style=""border:16px solid Violet"">","null","","","","","","","","",""
"null","","html-keyboard-response","487","362916","0.0-487.0","","","null","","","","","","","","",""
"656.8999999761581","","image-keyboard-response","488","363574","0.0-488.0","","img/set2/S2.jpg","68","2","structured_incentive","68","structured_load,structured_incentive,structured_normal,random","2,3,2,1,3,4","true","","",""
"null","","html-keyboard-response","489","363928","0.0-489.0","","<img src=""img/set2/S2.jpg"" width=""540"" height = ""360"" style=""border:16px solid orange"">","null","","","","","","","","",""
"null","","html-keyboard-response","490","364138","0.0-490.0","","","null","","","","","","","","",""
"436","","image-keyboard-response","491","364576","0.0-491.0","","img/set2/S1.jpg","83","1","structured_incentive","83","structured_load,structured_incentive,structured_normal,random","2,3,2,1,3,4","true","","",""
"null","","html-keyboard-response","492","364937","0.0-492.0","","<img src=""img/set2/S1.jpg"" width=""540"" height = ""360"" style=""border:16px solid Violet"">","null","","","","","","","","",""
"null","","html-keyboard-response","493","365147","0.0-493.0","","","null","","","","","","","","",""
"726.0999999642372","","image-keyboard-response","494","365875","0.0-494.0","","img/set2/S3.jpg","74","3","structured_incentive","72","structured_load,structured_incentive,structured_normal,random","2,3,2,1,3,4","false","","",""
"null","","html-keyboard-response","495","366233","0.0-495.0","","<img src=""img/set2/S3.jpg"" width=""540"" height = ""360"">","null","","","","","","","","",""
"null","","html-keyboard-response","496","366440","0.0-496.0","","","null","","","","","","","","",""
"654.3000000119209","","image-keyboard-response","497","367096","0.0-497.0","","img/set2/S4.jpg","74","4","structured_incentive","74","structured_load,structured_incentive,structured_normal,random","2,3,2,1,3,4","true","","",""
"null","","html-keyboard-response","498","367459","0.0-498.0","","<img src=""img/set2/S4.jpg"" width=""540"" height = ""360"" style=""border:16px solid orange"">","null","","","","","","","","",""
"null","","html-keyboard-response","499","367666","0.0-499.0","","","null","","","","","","","","",""
"698.5999999642372","","image-keyboard-response","500","368367","0.0-500.0","","img/set2/S4.jpg","74","4","structured_incentive","74","structured_load,structured_incentive,structured_normal,random","2,3,2,1,3,4","true","","",""
"null","","html-keyboard-response","501","368724","0.0-501.0","","<img src=""img/set2/S4.jpg"" width=""540"" height = ""360"" style=""border:16px solid orange"">","null","","","","","","","","",""
"null","","html-keyboard-response","502","368929","0.0-502.0","","","null","","","","","","","","",""
"956.8999999761581","","image-keyboard-response","503","369888","0.0-503.0","","img/set2/S3.jpg","72","3","structured_incentive","72","structured_load,structured_incentive,structured_normal,random","2,3,2,1,3,4","true","","",""
"null","","html-keyboard-response","504","370249","0.0-504.0","","<img src=""img/set2/S3.jpg"" width=""540"" height = ""360"" style=""border:16px solid orange"">","null","","","","","","","","",""
"null","","html-keyboard-response","505","370457","0.0-505.0","","","null","","","","","","","","",""
"848.1000000238419","","image-keyboard-response","506","371333","0.0-506.0","","img/set2/S2.jpg","68","2","structured_incentive","68","structured_load,structured_incentive,structured_normal,random","2,3,2,1,3,4","true","","",""
"null","","html-keyboard-response","507","371688","0.0-507.0","","<img src=""img/set2/S2.jpg"" width=""540"" height = ""360"" style=""border:16px solid orange"">","null","","","","","","","","",""
"null","","html-keyboard-response","508","371890","0.0-508.0","","","null","","","","","","","","",""
"616.1999999880791","","image-keyboard-response","509","372508","0.0-509.0","","img/set2/S1.jpg","83","1","structured_incentive","83","structured_load,structured_incentive,structured_normal,random","2,3,2,1,3,4","true","","",""
"null","","html-keyboard-response","510","372877","0.0-510.0","","<img src=""img/set2/S1.jpg"" width=""540"" height = ""360"" style=""border:16px solid Violet"">","null","","","","","","","","",""
"null","","html-keyboard-response","511","373086","0.0-511.0","","","null","","","","","","","","",""
"759.6999999880791","","image-keyboard-response","512","373848","0.0-512.0","","img/set2/S4.jpg","74","4","structured_incentive","74","structured_load,structured_incentive,structured_normal,random","2,3,2,1,3,4","true","","",""
"null","","html-keyboard-response","513","374202","0.0-513.0","","<img src=""img/set2/S4.jpg"" width=""540"" height = ""360"" style=""border:16px solid orange"">","null","","","","","","","","",""
"null","","html-keyboard-response","514","374411","0.0-514.0","","","null","","","","","","","","",""
"619.3000000119209","","image-keyboard-response","515","375032","0.0-515.0","","img/set2/S2.jpg","68","2","structured_incentive","68","structured_load,structured_incentive,structured_normal,random","2,3,2,1,3,4","true","","",""
"null","","html-keyboard-response","516","375385","0.0-516.0","","<img src=""img/set2/S2.jpg"" width=""540"" height = ""360"" style=""border:16px solid orange"">","null","","","","","","","","",""
"null","","html-keyboard-response","517","375593","0.0-517.0","","","null","","","","","","","","",""
"508.7999999523163","","image-keyboard-response","518","376104","0.0-518.0","","img/set2/S1.jpg","83","1","structured_incentive","83","structured_load,structured_incentive,structured_normal,random","2,3,2,1,3,4","true","","",""
"null","","html-keyboard-response","519","376459","0.0-519.0","","<img src=""img/set2/S1.jpg"" width=""540"" height = ""360"" style=""border:16px solid Violet"">","null","","","","","","","","",""
"null","","html-keyboard-response","520","376665","0.0-520.0","","","null","","","","","","","","",""
"714.9000000357628","","image-keyboard-response","521","377382","0.0-521.0","","img/set2/S3.jpg","74","3","structured_incentive","72","structured_load,structured_incentive,structured_normal,random","2,3,2,1,3,4","false","","",""
"null","","html-keyboard-response","522","377740","0.0-522.0","","<img src=""img/set2/S3.jpg"" width=""540"" height = ""360"">","null","","","","","","","","",""
"null","","html-keyboard-response","523","377945","0.0-523.0","","","null","","","","","","","","",""
"397.7999999523163","","image-keyboard-response","524","378345","0.0-524.0","","img/set2/S3.jpg","72","3","structured_incentive","72","structured_load,structured_incentive,structured_normal,random","2,3,2,1,3,4","true","","",""
"null","","html-keyboard-response","525","378705","0.0-525.0","","<img src=""img/set2/S3.jpg"" width=""540"" height = ""360"" style=""border:16px solid orange"">","null","","","","","","","","",""
"null","","html-keyboard-response","526","378914","0.0-526.0","","","null","","","","","","","","",""
"1047","","image-keyboard-response","527","379962","0.0-527.0","","img/set2/S2.jpg","68","2","structured_incentive","68","structured_load,structured_incentive,structured_normal,random","2,3,2,1,3,4","true","","",""
"null","","html-keyboard-response","528","380324","0.0-528.0","","<img src=""img/set2/S2.jpg"" width=""540"" height = ""360"" style=""border:16px solid orange"">","null","","","","","","","","",""
"null","","html-keyboard-response","529","380535","0.0-529.0","","","null","","","","","","","","",""
"697.3999999761581","","image-keyboard-response","530","381235","0.0-530.0","","img/set2/S1.jpg","83","1","structured_incentive","83","structured_load,structured_incentive,structured_normal,random","2,3,2,1,3,4","true","","",""
"null","","html-keyboard-response","531","381589","0.0-531.0","","<img src=""img/set2/S1.jpg"" width=""540"" height = ""360"" style=""border:16px solid Violet"">","null","","","","","","","","",""
"null","","html-keyboard-response","532","381794","0.0-532.0","","","null","","","","","","","","",""
"1078.800000011921","","image-keyboard-response","533","382875","0.0-533.0","","img/set2/S3.jpg","72","3","structured_incentive","72","structured_load,structured_incentive,structured_normal,random","2,3,2,1,3,4","true","","",""
"null","","html-keyboard-response","534","383232","0.0-534.0","","<img src=""img/set2/S3.jpg"" width=""540"" height = ""360"" style=""border:16px solid orange"">","null","","","","","","","","",""
"null","","html-keyboard-response","535","383440","0.0-535.0","","","null","","","","","","","","",""
"427.0999999642372","","image-keyboard-response","536","383870","0.0-536.0","","img/set2/S3.jpg","72","3","structured_incentive","72","structured_load,structured_incentive,structured_normal,random","2,3,2,1,3,4","true","","",""
"null","","html-keyboard-response","537","384227","0.0-537.0","","<img src=""img/set2/S3.jpg"" width=""540"" height = ""360"" style=""border:16px solid orange"">","null","","","","","","","","",""
"null","","html-keyboard-response","538","384440","0.0-538.0","","","null","","","","","","","","",""
"366.9000000357628","","image-keyboard-response","539","384809","0.0-539.0","","img/set2/S3.jpg","72","3","structured_incentive","72","structured_load,structured_incentive,structured_normal,random","2,3,2,1,3,4","true","","",""
"null","","html-keyboard-response","540","385170","0.0-540.0","","<img src=""img/set2/S3.jpg"" width=""540"" height = ""360"" style=""border:16px solid orange"">","null","","","","","","","","",""
"null","","html-keyboard-response","541","385374","0.0-541.0","","","null","","","","","","","","",""
"643.6000000238419","","image-keyboard-response","542","386019","0.0-542.0","","img/set2/S2.jpg","68","2","structured_incentive","68","structured_load,structured_incentive,structured_normal,random","2,3,2,1,3,4","true","","",""
"null","","html-keyboard-response","543","386373","0.0-543.0","","<img src=""img/set2/S2.jpg"" width=""540"" height = ""360"" style=""border:16px solid orange"">","null","","","","","","","","",""
"null","","html-keyboard-response","544","386602","0.0-544.0","","","null","","","","","","","","",""
"546.6999999880791","","image-keyboard-response","545","387151","0.0-545.0","","img/set2/S1.jpg","83","1","structured_incentive","83","structured_load,structured_incentive,structured_normal,random","2,3,2,1,3,4","true","","",""
"null","","html-keyboard-response","546","387511","0.0-546.0","","<img src=""img/set2/S1.jpg"" width=""540"" height = ""360"" style=""border:16px solid Violet"">","null","","","","","","","","",""
"null","","html-keyboard-response","547","387717","0.0-547.0","","","null","","","","","","","","",""
"840.6999999880791","","image-keyboard-response","548","388566","0.0-548.0","","img/set2/S3.jpg","72","3","structured_incentive","72","structured_load,structured_incentive,structured_normal,random","2,3,2,1,3,4","true","","",""
"null","","html-keyboard-response","549","388924","0.0-549.0","","<img src=""img/set2/S3.jpg"" width=""540"" height = ""360"" style=""border:16px solid orange"">","null","","","","","","","","",""
"null","","html-keyboard-response","550","389130","0.0-550.0","","","null","","","","","","","","",""
"659.6000000238419","","image-keyboard-response","551","389792","0.0-551.0","","img/set2/S2.jpg","68","2","structured_incentive","68","structured_load,structured_incentive,structured_normal,random","2,3,2,1,3,4","true","","",""
"null","","html-keyboard-response","552","390156","0.0-552.0","","<img src=""img/set2/S2.jpg"" width=""540"" height = ""360"" style=""border:16px solid orange"">","null","","","","","","","","",""
"null","","html-keyboard-response","553","390359","0.0-553.0","","","null","","","","","","","","",""
"603.8000000119209","","image-keyboard-response","554","390964","0.0-554.0","","img/set2/S1.jpg","83","1","structured_incentive","83","structured_load,structured_incentive,structured_normal,random","2,3,2,1,3,4","true","","",""
"null","","html-keyboard-response","555","391320","0.0-555.0","","<img src=""img/set2/S1.jpg"" width=""540"" height = ""360"" style=""border:16px solid Violet"">","null","","","","","","","","",""
"null","","html-keyboard-response","556","391528","0.0-556.0","","","null","","","","","","","","",""
"1001.3000000119209","","image-keyboard-response","557","392531","0.0-557.0","","img/set2/S2.jpg","68","2","structured_incentive","68","structured_load,structured_incentive,structured_normal,random","2,3,2,1,3,4","true","","",""
"null","","html-keyboard-response","558","392892","0.0-558.0","","<img src=""img/set2/S2.jpg"" width=""540"" height = ""360"" style=""border:16px solid orange"">","null","","","","","","","","",""
"null","","html-keyboard-response","559","393101","0.0-559.0","","","null","","","","","","","","",""
"644.6999999880791","","image-keyboard-response","560","393747","0.0-560.0","","img/set2/S1.jpg","83","1","structured_incentive","83","structured_load,structured_incentive,structured_normal,random","2,3,2,1,3,4","true","","",""
"null","","html-keyboard-response","561","394107","0.0-561.0","","<img src=""img/set2/S1.jpg"" width=""540"" height = ""360"" style=""border:16px solid Violet"">","null","","","","","","","","",""
"null","","html-keyboard-response","562","394313","0.0-562.0","","","null","","","","","","","","",""
"988.5","","image-keyboard-response","563","395303","0.0-563.0","","img/set2/S4.jpg","72","4","structured_incentive","74","structured_load,structured_incentive,structured_normal,random","2,3,2,1,3,4","false","","",""
"null","","html-keyboard-response","564","395663","0.0-564.0","","<img src=""img/set2/S4.jpg"" width=""540"" height = ""360"">","null","","","","","","","","",""
"null","","html-keyboard-response","565","395865","0.0-565.0","","","null","","","","","","","","",""
"679.5","","image-keyboard-response","566","396547","0.0-566.0","","img/set2/S2.jpg","68","2","structured_incentive","68","structured_load,structured_incentive,structured_normal,random","2,3,2,1,3,4","true","","",""
"null","","html-keyboard-response","567","396905","0.0-567.0","","<img src=""img/set2/S2.jpg"" width=""540"" height = ""360"" style=""border:16px solid orange"">","null","","","","","","","","",""
"null","","html-keyboard-response","568","397112","0.0-568.0","","","null","","","","","","","","",""
"712","","image-keyboard-response","569","397825","0.0-569.0","","img/set2/S1.jpg","83","1","structured_incentive","83","structured_load,structured_incentive,structured_normal,random","2,3,2,1,3,4","true","","",""
"null","","html-keyboard-response","570","398186","0.0-570.0","","<img src=""img/set2/S1.jpg"" width=""540"" height = ""360"" style=""border:16px solid Violet"">","null","","","","","","","","",""
"null","","html-keyboard-response","571","398391","0.0-571.0","","","null","","","","","","","","",""
"694.6999999880791","","image-keyboard-response","572","399087","0.0-572.0","","img/set2/S2.jpg","68","2","structured_incentive","68","structured_load,structured_incentive,structured_normal,random","2,3,2,1,3,4","true","","",""
"null","","html-keyboard-response","573","399444","0.0-573.0","","<img src=""img/set2/S2.jpg"" width=""540"" height = ""360"" style=""border:16px solid orange"">","null","","","","","","","","",""
"null","","html-keyboard-response","574","399649","0.0-574.0","","","null","","","","","","","","",""
"748.5","","image-keyboard-response","575","400399","0.0-575.0","","img/set2/S1.jpg","83","1","structured_incentive","83","structured_load,structured_incentive,structured_normal,random","2,3,2,1,3,4","true","","",""
"null","","html-keyboard-response","576","400754","0.0-576.0","","<img src=""img/set2/S1.jpg"" width=""540"" height = ""360"" style=""border:16px solid Violet"">","null","","","","","","","","",""
