"rt","url","trial_type","trial_index","time_elapsed","internal_node_id","assignmentID","mturkID","hitID","view_history","stimulus","key_press","state","test_part","correct_response","order_block","order_chunk","order_freq","correct","responses","question_order","bonus"
"20061.900000035763","consent.html","external-html","0","20429","0.0-0.0","3DI28L7YXB0AC6HN257XOMANSMT1ED","A2J51BI7XS5ZYU","3G9UA71JVVGUCOKNEKUVXTI6SA17JG","","","","","","","","","","","","",""
"128702.89999997616","","instructions","1","149136","0.0-1.0","3DI28L7YXB0AC6HN257XOMANSMT1ED","A2J51BI7XS5ZYU","3G9UA71JVVGUCOKNEKUVXTI6SA17JG","[{""page_index"":0,""viewing_time"":10719.5},{""page_index"":1,""viewing_time"":12567.800000011921},{""page_index"":2,""viewing_time"":17462.399999976158},{""page_index"":3,""viewing_time"":16098},{""page_index"":4,""viewing_time"":8561.199999988079},{""page_index"":5,""viewing_time"":47236.69999998808},{""page_index"":6,""viewing_time"":16055.800000011921}]","","","","","","","","","","","",""
"69782.69999998808","","instructions","2","218922","0.0-2.0","3DI28L7YXB0AC6HN257XOMANSMT1ED","A2J51BI7XS5ZYU","3G9UA71JVVGUCOKNEKUVXTI6SA17JG","[{""page_index"":0,""viewing_time"":69782.30000001192}]","","","","","","","","","","","",""
"8024.099999964237","","instructions","3","226949","0.0-3.0","3DI28L7YXB0AC6HN257XOMANSMT1ED","A2J51BI7XS5ZYU","3G9UA71JVVGUCOKNEKUVXTI6SA17JG","[{""page_index"":0,""viewing_time"":8023.699999988079}]","","","","","","","","","","","",""
"null","","image-keyboard-response","4","229464","0.0-4.0","3DI28L7YXB0AC6HN257XOMANSMT1ED","A2J51BI7XS5ZYU","3G9UA71JVVGUCOKNEKUVXTI6SA17JG","","img/set1/S1.jpg","null","1","random","83","random,structured_load,structured_normal,structured_incentive","2,3,4,2,1,2","4,2,3,1","false","","",""
"null","","html-keyboard-response","5","229823","0.0-5.0","3DI28L7YXB0AC6HN257XOMANSMT1ED","A2J51BI7XS5ZYU","3G9UA71JVVGUCOKNEKUVXTI6SA17JG","","<img src=""img/set1/S1.jpg"" width=""540"" height = ""360"">","null","","","","","","","","","",""
"null","","html-keyboard-response","6","230032","0.0-6.0","3DI28L7YXB0AC6HN257XOMANSMT1ED","A2J51BI7XS5ZYU","3G9UA71JVVGUCOKNEKUVXTI6SA17JG","","","null","","","","","","","","","",""
"44.5","","image-keyboard-response","7","230081","0.0-7.0","3DI28L7YXB0AC6HN257XOMANSMT1ED","A2J51BI7XS5ZYU","3G9UA71JVVGUCOKNEKUVXTI6SA17JG","","img/set1/S2.jpg","74","2","random","68","random,structured_load,structured_normal,structured_incentive","2,3,4,2,1,2","4,2,3,1","false","","",""
"null","","html-keyboard-response","8","230446","0.0-8.0","3DI28L7YXB0AC6HN257XOMANSMT1ED","A2J51BI7XS5ZYU","3G9UA71JVVGUCOKNEKUVXTI6SA17JG","","<img src=""img/set1/S2.jpg"" width=""540"" height = ""360"">","null","","","","","","","","","",""
"null","","html-keyboard-response","9","230651","0.0-9.0","3DI28L7YXB0AC6HN257XOMANSMT1ED","A2J51BI7XS5ZYU","3G9UA71JVVGUCOKNEKUVXTI6SA17JG","","","null","","","","","","","","","",""
"345.0999999642372","","image-keyboard-response","10","230999","0.0-10.0","3DI28L7YXB0AC6HN257XOMANSMT1ED","A2J51BI7XS5ZYU","3G9UA71JVVGUCOKNEKUVXTI6SA17JG","","img/set1/S4.jpg","72","4","random","74","random,structured_load,structured_normal,structured_incentive","2,3,4,2,1,2","4,2,3,1","false","","",""
"null","","html-keyboard-response","11","231358","0.0-11.0","3DI28L7YXB0AC6HN257XOMANSMT1ED","A2J51BI7XS5ZYU","3G9UA71JVVGUCOKNEKUVXTI6SA17JG","","<img src=""img/set1/S4.jpg"" width=""540"" height = ""360"">","null","","","","","","","","","",""
"null","","html-keyboard-response","12","231579","0.0-12.0","3DI28L7YXB0AC6HN257XOMANSMT1ED","A2J51BI7XS5ZYU","3G9UA71JVVGUCOKNEKUVXTI6SA17JG","","","null","","","","","","","","","",""
"458.10000002384186","","image-keyboard-response","13","232040","0.0-13.0","3DI28L7YXB0AC6HN257XOMANSMT1ED","A2J51BI7XS5ZYU","3G9UA71JVVGUCOKNEKUVXTI6SA17JG","","img/set1/S1.jpg","83","1","random","83","random,structured_load,structured_normal,structured_incentive","2,3,4,2,1,2","4,2,3,1","true","","",""
"null","","html-keyboard-response","14","232408","0.0-14.0","3DI28L7YXB0AC6HN257XOMANSMT1ED","A2J51BI7XS5ZYU","3G9UA71JVVGUCOKNEKUVXTI6SA17JG","","<img src=""img/set1/S1.jpg"" width=""540"" height = ""360"" style=""border:16px solid orange"">","null","","","","","","","","","",""
"null","","html-keyboard-response","15","232624","0.0-15.0","3DI28L7YXB0AC6HN257XOMANSMT1ED","A2J51BI7XS5ZYU","3G9UA71JVVGUCOKNEKUVXTI6SA17JG","","","null","","","","","","","","","",""
"1148","","image-keyboard-response","16","233776","0.0-16.0","3DI28L7YXB0AC6HN257XOMANSMT1ED","A2J51BI7XS5ZYU","3G9UA71JVVGUCOKNEKUVXTI6SA17JG","","img/set1/S4.jpg","83","4","random","74","random,structured_load,structured_normal,structured_incentive","2,3,4,2,1,2","4,2,3,1","false","","",""
"null","","html-keyboard-response","17","234132","0.0-17.0","3DI28L7YXB0AC6HN257XOMANSMT1ED","A2J51BI7XS5ZYU","3G9UA71JVVGUCOKNEKUVXTI6SA17JG","","<img src=""img/set1/S4.jpg"" width=""540"" height = ""360"">","null","","","","","","","","","",""
"null","","html-keyboard-response","18","234345","0.0-18.0","3DI28L7YXB0AC6HN257XOMANSMT1ED","A2J51BI7XS5ZYU","3G9UA71JVVGUCOKNEKUVXTI6SA17JG","","","null","","","","","","","","","",""
"2171.7999999523163","","image-keyboard-response","19","236520","0.0-19.0","3DI28L7YXB0AC6HN257XOMANSMT1ED","A2J51BI7XS5ZYU","3G9UA71JVVGUCOKNEKUVXTI6SA17JG","","img/set1/S2.jpg","72","2","random","68","random,structured_load,structured_normal,structured_incentive","2,3,4,2,1,2","4,2,3,1","false","","",""
"null","","html-keyboard-response","20","236887","0.0-20.0","3DI28L7YXB0AC6HN257XOMANSMT1ED","A2J51BI7XS5ZYU","3G9UA71JVVGUCOKNEKUVXTI6SA17JG","","<img src=""img/set1/S2.jpg"" width=""540"" height = ""360"">","null","","","","","","","","","",""
"null","","html-keyboard-response","21","237101","0.0-21.0","3DI28L7YXB0AC6HN257XOMANSMT1ED","A2J51BI7XS5ZYU","3G9UA71JVVGUCOKNEKUVXTI6SA17JG","","","null","","","","","","","","","",""
"1551.699999988079","","image-keyboard-response","22","238656","0.0-22.0","3DI28L7YXB0AC6HN257XOMANSMT1ED","A2J51BI7XS5ZYU","3G9UA71JVVGUCOKNEKUVXTI6SA17JG","","img/set1/S4.jpg","83","4","random","74","random,structured_load,structured_normal,structured_incentive","2,3,4,2,1,2","4,2,3,1","false","","",""
"null","","html-keyboard-response","23","239023","0.0-23.0","3DI28L7YXB0AC6HN257XOMANSMT1ED","A2J51BI7XS5ZYU","3G9UA71JVVGUCOKNEKUVXTI6SA17JG","","<img src=""img/set1/S4.jpg"" width=""540"" height = ""360"">","null","","","","","","","","","",""
"null","","html-keyboard-response","24","239252","0.0-24.0","3DI28L7YXB0AC6HN257XOMANSMT1ED","A2J51BI7XS5ZYU","3G9UA71JVVGUCOKNEKUVXTI6SA17JG","","","null","","","","","","","","","",""
"697.9000000357628","","image-keyboard-response","25","239953","0.0-25.0","3DI28L7YXB0AC6HN257XOMANSMT1ED","A2J51BI7XS5ZYU","3G9UA71JVVGUCOKNEKUVXTI6SA17JG","","img/set1/S3.jpg","74","3","random","72","random,structured_load,structured_normal,structured_incentive","2,3,4,2,1,2","4,2,3,1","false","","",""
"null","","html-keyboard-response","26","240326","0.0-26.0","3DI28L7YXB0AC6HN257XOMANSMT1ED","A2J51BI7XS5ZYU","3G9UA71JVVGUCOKNEKUVXTI6SA17JG","","<img src=""img/set1/S3.jpg"" width=""540"" height = ""360"">","null","","","","","","","","","",""
"null","","html-keyboard-response","27","240535","0.0-27.0","3DI28L7YXB0AC6HN257XOMANSMT1ED","A2J51BI7XS5ZYU","3G9UA71JVVGUCOKNEKUVXTI6SA17JG","","","null","","","","","","","","","",""
"728.6999999880791","","image-keyboard-response","28","241267","0.0-28.0","3DI28L7YXB0AC6HN257XOMANSMT1ED","A2J51BI7XS5ZYU","3G9UA71JVVGUCOKNEKUVXTI6SA17JG","","img/set1/S2.jpg","83","2","random","68","random,structured_load,structured_normal,structured_incentive","2,3,4,2,1,2","4,2,3,1","false","","",""
"null","","html-keyboard-response","29","241629","0.0-29.0","3DI28L7YXB0AC6HN257XOMANSMT1ED","A2J51BI7XS5ZYU","3G9UA71JVVGUCOKNEKUVXTI6SA17JG","","<img src=""img/set1/S2.jpg"" width=""540"" height = ""360"">","null","","","","","","","","","",""
"null","","html-keyboard-response","30","241843","0.0-30.0","3DI28L7YXB0AC6HN257XOMANSMT1ED","A2J51BI7XS5ZYU","3G9UA71JVVGUCOKNEKUVXTI6SA17JG","","","null","","","","","","","","","",""
"970","","image-keyboard-response","31","242816","0.0-31.0","3DI28L7YXB0AC6HN257XOMANSMT1ED","A2J51BI7XS5ZYU","3G9UA71JVVGUCOKNEKUVXTI6SA17JG","","img/set1/S2.jpg","72","2","random","68","random,structured_load,structured_normal,structured_incentive","2,3,4,2,1,2","4,2,3,1","false","","",""
"null","","html-keyboard-response","32","243178","0.0-32.0","3DI28L7YXB0AC6HN257XOMANSMT1ED","A2J51BI7XS5ZYU","3G9UA71JVVGUCOKNEKUVXTI6SA17JG","","<img src=""img/set1/S2.jpg"" width=""540"" height = ""360"">","null","","","","","","","","","",""
"null","","html-keyboard-response","33","243395","0.0-33.0","3DI28L7YXB0AC6HN257XOMANSMT1ED","A2J51BI7XS5ZYU","3G9UA71JVVGUCOKNEKUVXTI6SA17JG","","","null","","","","","","","","","",""
"1049.7999999523163","","image-keyboard-response","34","244448","0.0-34.0","3DI28L7YXB0AC6HN257XOMANSMT1ED","A2J51BI7XS5ZYU","3G9UA71JVVGUCOKNEKUVXTI6SA17JG","","img/set1/S1.jpg","83","1","random","83","random,structured_load,structured_normal,structured_incentive","2,3,4,2,1,2","4,2,3,1","true","","",""
"null","","html-keyboard-response","35","244813","0.0-35.0","3DI28L7YXB0AC6HN257XOMANSMT1ED","A2J51BI7XS5ZYU","3G9UA71JVVGUCOKNEKUVXTI6SA17JG","","<img src=""img/set1/S1.jpg"" width=""540"" height = ""360"" style=""border:16px solid orange"">","null","","","","","","","","","",""
"null","","html-keyboard-response","36","245030","0.0-36.0","3DI28L7YXB0AC6HN257XOMANSMT1ED","A2J51BI7XS5ZYU","3G9UA71JVVGUCOKNEKUVXTI6SA17JG","","","null","","","","","","","","","",""
"1206.0999999642372","","image-keyboard-response","37","246239","0.0-37.0","3DI28L7YXB0AC6HN257XOMANSMT1ED","A2J51BI7XS5ZYU","3G9UA71JVVGUCOKNEKUVXTI6SA17JG","","img/set1/S3.jpg","68","3","random","72","random,structured_load,structured_normal,structured_incentive","2,3,4,2,1,2","4,2,3,1","false","","",""
"null","","html-keyboard-response","38","246606","0.0-38.0","3DI28L7YXB0AC6HN257XOMANSMT1ED","A2J51BI7XS5ZYU","3G9UA71JVVGUCOKNEKUVXTI6SA17JG","","<img src=""img/set1/S3.jpg"" width=""540"" height = ""360"">","null","","","","","","","","","",""
"null","","html-keyboard-response","39","246824","0.0-39.0","3DI28L7YXB0AC6HN257XOMANSMT1ED","A2J51BI7XS5ZYU","3G9UA71JVVGUCOKNEKUVXTI6SA17JG","","","null","","","","","","","","","",""
"972","","image-keyboard-response","40","247799","0.0-40.0","3DI28L7YXB0AC6HN257XOMANSMT1ED","A2J51BI7XS5ZYU","3G9UA71JVVGUCOKNEKUVXTI6SA17JG","","img/set1/S1.jpg","83","1","random","83","random,structured_load,structured_normal,structured_incentive","2,3,4,2,1,2","4,2,3,1","true","","",""
"null","","html-keyboard-response","41","248164","0.0-41.0","3DI28L7YXB0AC6HN257XOMANSMT1ED","A2J51BI7XS5ZYU","3G9UA71JVVGUCOKNEKUVXTI6SA17JG","","<img src=""img/set1/S1.jpg"" width=""540"" height = ""360"" style=""border:16px solid orange"">","null","","","","","","","","","",""
"null","","html-keyboard-response","42","248380","0.0-42.0","3DI28L7YXB0AC6HN257XOMANSMT1ED","A2J51BI7XS5ZYU","3G9UA71JVVGUCOKNEKUVXTI6SA17JG","","","null","","","","","","","","","",""
"1057.4000000357628","","image-keyboard-response","43","249441","0.0-43.0","3DI28L7YXB0AC6HN257XOMANSMT1ED","A2J51BI7XS5ZYU","3G9UA71JVVGUCOKNEKUVXTI6SA17JG","","img/set1/S3.jpg","83","3","random","72","random,structured_load,structured_normal,structured_incentive","2,3,4,2,1,2","4,2,3,1","false","","",""
"null","","html-keyboard-response","44","249797","0.0-44.0","3DI28L7YXB0AC6HN257XOMANSMT1ED","A2J51BI7XS5ZYU","3G9UA71JVVGUCOKNEKUVXTI6SA17JG","","<img src=""img/set1/S3.jpg"" width=""540"" height = ""360"">","null","","","","","","","","","",""
"null","","html-keyboard-response","45","250014","0.0-45.0","3DI28L7YXB0AC6HN257XOMANSMT1ED","A2J51BI7XS5ZYU","3G9UA71JVVGUCOKNEKUVXTI6SA17JG","","","null","","","","","","","","","",""
"669.8000000119209","","image-keyboard-response","46","250687","0.0-46.0","3DI28L7YXB0AC6HN257XOMANSMT1ED","A2J51BI7XS5ZYU","3G9UA71JVVGUCOKNEKUVXTI6SA17JG","","img/set1/S4.jpg","72","4","random","74","random,structured_load,structured_normal,structured_incentive","2,3,4,2,1,2","4,2,3,1","false","","",""
"null","","html-keyboard-response","47","251044","0.0-47.0","3DI28L7YXB0AC6HN257XOMANSMT1ED","A2J51BI7XS5ZYU","3G9UA71JVVGUCOKNEKUVXTI6SA17JG","","<img src=""img/set1/S4.jpg"" width=""540"" height = ""360"">","null","","","","","","","","","",""
"null","","html-keyboard-response","48","251246","0.0-48.0","3DI28L7YXB0AC6HN257XOMANSMT1ED","A2J51BI7XS5ZYU","3G9UA71JVVGUCOKNEKUVXTI6SA17JG","","","null","","","","","","","","","",""
"1315.6000000238419","","image-keyboard-response","49","252564","0.0-49.0","3DI28L7YXB0AC6HN257XOMANSMT1ED","A2J51BI7XS5ZYU","3G9UA71JVVGUCOKNEKUVXTI6SA17JG","","img/set1/S4.jpg","74","4","random","74","random,structured_load,structured_normal,structured_incentive","2,3,4,2,1,2","4,2,3,1","true","","",""
"null","","html-keyboard-response","50","252926","0.0-50.0","3DI28L7YXB0AC6HN257XOMANSMT1ED","A2J51BI7XS5ZYU","3G9UA71JVVGUCOKNEKUVXTI6SA17JG","","<img src=""img/set1/S4.jpg"" width=""540"" height = ""360"" style=""border:16px solid orange"">","null","","","","","","","","","",""
"null","","html-keyboard-response","51","253128","0.0-51.0","3DI28L7YXB0AC6HN257XOMANSMT1ED","A2J51BI7XS5ZYU","3G9UA71JVVGUCOKNEKUVXTI6SA17JG","","","null","","","","","","","","","",""
"2308.400000035763","","image-keyboard-response","52","255442","0.0-52.0","3DI28L7YXB0AC6HN257XOMANSMT1ED","A2J51BI7XS5ZYU","3G9UA71JVVGUCOKNEKUVXTI6SA17JG","","img/set1/S1.jpg","68","1","random","83","random,structured_load,structured_normal,structured_incentive","2,3,4,2,1,2","4,2,3,1","false","","",""
"null","","html-keyboard-response","53","255805","0.0-53.0","3DI28L7YXB0AC6HN257XOMANSMT1ED","A2J51BI7XS5ZYU","3G9UA71JVVGUCOKNEKUVXTI6SA17JG","","<img src=""img/set1/S1.jpg"" width=""540"" height = ""360"">","null","","","","","","","","","",""
"null","","html-keyboard-response","54","256024","0.0-54.0","3DI28L7YXB0AC6HN257XOMANSMT1ED","A2J51BI7XS5ZYU","3G9UA71JVVGUCOKNEKUVXTI6SA17JG","","","null","","","","","","","","","",""
"2077","","image-keyboard-response","55","258104","0.0-55.0","3DI28L7YXB0AC6HN257XOMANSMT1ED","A2J51BI7XS5ZYU","3G9UA71JVVGUCOKNEKUVXTI6SA17JG","","img/set1/S3.jpg","72","3","random","72","random,structured_load,structured_normal,structured_incentive","2,3,4,2,1,2","4,2,3,1","true","","",""
"null","","html-keyboard-response","56","258466","0.0-56.0","3DI28L7YXB0AC6HN257XOMANSMT1ED","A2J51BI7XS5ZYU","3G9UA71JVVGUCOKNEKUVXTI6SA17JG","","<img src=""img/set1/S3.jpg"" width=""540"" height = ""360"" style=""border:16px solid orange"">","null","","","","","","","","","",""
"null","","html-keyboard-response","57","258684","0.0-57.0","3DI28L7YXB0AC6HN257XOMANSMT1ED","A2J51BI7XS5ZYU","3G9UA71JVVGUCOKNEKUVXTI6SA17JG","","","null","","","","","","","","","",""
"1304.3999999761581","","image-keyboard-response","58","259992","0.0-58.0","3DI28L7YXB0AC6HN257XOMANSMT1ED","A2J51BI7XS5ZYU","3G9UA71JVVGUCOKNEKUVXTI6SA17JG","","img/set1/S4.jpg","83","4","random","74","random,structured_load,structured_normal,structured_incentive","2,3,4,2,1,2","4,2,3,1","false","","",""
"null","","html-keyboard-response","59","260350","0.0-59.0","3DI28L7YXB0AC6HN257XOMANSMT1ED","A2J51BI7XS5ZYU","3G9UA71JVVGUCOKNEKUVXTI6SA17JG","","<img src=""img/set1/S4.jpg"" width=""540"" height = ""360"">","null","","","","","","","","","",""
"null","","html-keyboard-response","60","260568","0.0-60.0","3DI28L7YXB0AC6HN257XOMANSMT1ED","A2J51BI7XS5ZYU","3G9UA71JVVGUCOKNEKUVXTI6SA17JG","","","null","","","","","","","","","",""
"1404.800000011921","","image-keyboard-response","61","261976","0.0-61.0","3DI28L7YXB0AC6HN257XOMANSMT1ED","A2J51BI7XS5ZYU","3G9UA71JVVGUCOKNEKUVXTI6SA17JG","","img/set1/S1.jpg","72","1","random","83","random,structured_load,structured_normal,structured_incentive","2,3,4,2,1,2","4,2,3,1","false","","",""
"null","","html-keyboard-response","62","262339","0.0-62.0","3DI28L7YXB0AC6HN257XOMANSMT1ED","A2J51BI7XS5ZYU","3G9UA71JVVGUCOKNEKUVXTI6SA17JG","","<img src=""img/set1/S1.jpg"" width=""540"" height = ""360"">","null","","","","","","","","","",""
"null","","html-keyboard-response","63","262557","0.0-63.0","3DI28L7YXB0AC6HN257XOMANSMT1ED","A2J51BI7XS5ZYU","3G9UA71JVVGUCOKNEKUVXTI6SA17JG","","","null","","","","","","","","","",""
"1368.800000011921","","image-keyboard-response","64","263928","0.0-64.0","3DI28L7YXB0AC6HN257XOMANSMT1ED","A2J51BI7XS5ZYU","3G9UA71JVVGUCOKNEKUVXTI6SA17JG","","img/set1/S1.jpg","74","1","random","83","random,structured_load,structured_normal,structured_incentive","2,3,4,2,1,2","4,2,3,1","false","","",""
"null","","html-keyboard-response","65","264288","0.0-65.0","3DI28L7YXB0AC6HN257XOMANSMT1ED","A2J51BI7XS5ZYU","3G9UA71JVVGUCOKNEKUVXTI6SA17JG","","<img src=""img/set1/S1.jpg"" width=""540"" height = ""360"">","null","","","","","","","","","",""
"null","","html-keyboard-response","66","264504","0.0-66.0","3DI28L7YXB0AC6HN257XOMANSMT1ED","A2J51BI7XS5ZYU","3G9UA71JVVGUCOKNEKUVXTI6SA17JG","","","null","","","","","","","","","",""
"549.4000000357628","","image-keyboard-response","67","265056","0.0-67.0","3DI28L7YXB0AC6HN257XOMANSMT1ED","A2J51BI7XS5ZYU","3G9UA71JVVGUCOKNEKUVXTI6SA17JG","","img/set1/S1.jpg","68","1","random","83","random,structured_load,structured_normal,structured_incentive","2,3,4,2,1,2","4,2,3,1","false","","",""
"null","","html-keyboard-response","68","265430","0.0-68.0","3DI28L7YXB0AC6HN257XOMANSMT1ED","A2J51BI7XS5ZYU","3G9UA71JVVGUCOKNEKUVXTI6SA17JG","","<img src=""img/set1/S1.jpg"" width=""540"" height = ""360"">","null","","","","","","","","","",""
"null","","html-keyboard-response","69","265641","0.0-69.0","3DI28L7YXB0AC6HN257XOMANSMT1ED","A2J51BI7XS5ZYU","3G9UA71JVVGUCOKNEKUVXTI6SA17JG","","","null","","","","","","","","","",""
"1909.199999988079","","image-keyboard-response","70","267559","0.0-70.0","3DI28L7YXB0AC6HN257XOMANSMT1ED","A2J51BI7XS5ZYU","3G9UA71JVVGUCOKNEKUVXTI6SA17JG","","img/set1/S2.jpg","74","2","random","68","random,structured_load,structured_normal,structured_incentive","2,3,4,2,1,2","4,2,3,1","false","","",""
"null","","html-keyboard-response","71","267927","0.0-71.0","3DI28L7YXB0AC6HN257XOMANSMT1ED","A2J51BI7XS5ZYU","3G9UA71JVVGUCOKNEKUVXTI6SA17JG","","<img src=""img/set1/S2.jpg"" width=""540"" height = ""360"">","null","","","","","","","","","",""
"null","","html-keyboard-response","72","268129","0.0-72.0","3DI28L7YXB0AC6HN257XOMANSMT1ED","A2J51BI7XS5ZYU","3G9UA71JVVGUCOKNEKUVXTI6SA17JG","","","null","","","","","","","","","",""
"1859.3999999761581","","image-keyboard-response","73","269992","0.0-73.0","3DI28L7YXB0AC6HN257XOMANSMT1ED","A2J51BI7XS5ZYU","3G9UA71JVVGUCOKNEKUVXTI6SA17JG","","img/set1/S4.jpg","83","4","random","74","random,structured_load,structured_normal,structured_incentive","2,3,4,2,1,2","4,2,3,1","false","","",""
"null","","html-keyboard-response","74","270349","0.0-74.0","3DI28L7YXB0AC6HN257XOMANSMT1ED","A2J51BI7XS5ZYU","3G9UA71JVVGUCOKNEKUVXTI6SA17JG","","<img src=""img/set1/S4.jpg"" width=""540"" height = ""360"">","null","","","","","","","","","",""
"null","","html-keyboard-response","75","270557","0.0-75.0","3DI28L7YXB0AC6HN257XOMANSMT1ED","A2J51BI7XS5ZYU","3G9UA71JVVGUCOKNEKUVXTI6SA17JG","","","null","","","","","","","","","",""
"975.4000000357628","","image-keyboard-response","76","271535","0.0-76.0","3DI28L7YXB0AC6HN257XOMANSMT1ED","A2J51BI7XS5ZYU","3G9UA71JVVGUCOKNEKUVXTI6SA17JG","","img/set1/S2.jpg","68","2","random","68","random,structured_load,structured_normal,structured_incentive","2,3,4,2,1,2","4,2,3,1","true","","",""
"null","","html-keyboard-response","77","271907","0.0-77.0","3DI28L7YXB0AC6HN257XOMANSMT1ED","A2J51BI7XS5ZYU","3G9UA71JVVGUCOKNEKUVXTI6SA17JG","","<img src=""img/set1/S2.jpg"" width=""540"" height = ""360"" style=""border:16px solid orange"">","null","","","","","","","","","",""
"null","","html-keyboard-response","78","272124","0.0-78.0","3DI28L7YXB0AC6HN257XOMANSMT1ED","A2J51BI7XS5ZYU","3G9UA71JVVGUCOKNEKUVXTI6SA17JG","","","null","","","","","","","","","",""
"1456.800000011921","","image-keyboard-response","79","273587","0.0-79.0","3DI28L7YXB0AC6HN257XOMANSMT1ED","A2J51BI7XS5ZYU","3G9UA71JVVGUCOKNEKUVXTI6SA17JG","","img/set1/S1.jpg","72","1","random","83","random,structured_load,structured_normal,structured_incentive","2,3,4,2,1,2","4,2,3,1","false","","",""
"null","","html-keyboard-response","80","273944","0.0-80.0","3DI28L7YXB0AC6HN257XOMANSMT1ED","A2J51BI7XS5ZYU","3G9UA71JVVGUCOKNEKUVXTI6SA17JG","","<img src=""img/set1/S1.jpg"" width=""540"" height = ""360"">","null","","","","","","","","","",""
"null","","html-keyboard-response","81","274161","0.0-81.0","3DI28L7YXB0AC6HN257XOMANSMT1ED","A2J51BI7XS5ZYU","3G9UA71JVVGUCOKNEKUVXTI6SA17JG","","","null","","","","","","","","","",""
"942.1999999880791","","image-keyboard-response","82","275106","0.0-82.0","3DI28L7YXB0AC6HN257XOMANSMT1ED","A2J51BI7XS5ZYU","3G9UA71JVVGUCOKNEKUVXTI6SA17JG","","img/set1/S3.jpg","83","3","random","72","random,structured_load,structured_normal,structured_incentive","2,3,4,2,1,2","4,2,3,1","false","","",""
"null","","html-keyboard-response","83","275472","0.0-83.0","3DI28L7YXB0AC6HN257XOMANSMT1ED","A2J51BI7XS5ZYU","3G9UA71JVVGUCOKNEKUVXTI6SA17JG","","<img src=""img/set1/S3.jpg"" width=""540"" height = ""360"">","null","","","","","","","","","",""
"null","","html-keyboard-response","84","275688","0.0-84.0","3DI28L7YXB0AC6HN257XOMANSMT1ED","A2J51BI7XS5ZYU","3G9UA71JVVGUCOKNEKUVXTI6SA17JG","","","null","","","","","","","","","",""
"517.1999999880791","","image-keyboard-response","85","276208","0.0-85.0","3DI28L7YXB0AC6HN257XOMANSMT1ED","A2J51BI7XS5ZYU","3G9UA71JVVGUCOKNEKUVXTI6SA17JG","","img/set1/S3.jpg","68","3","random","72","random,structured_load,structured_normal,structured_incentive","2,3,4,2,1,2","4,2,3,1","false","","",""
"null","","html-keyboard-response","86","276571","0.0-86.0","3DI28L7YXB0AC6HN257XOMANSMT1ED","A2J51BI7XS5ZYU","3G9UA71JVVGUCOKNEKUVXTI6SA17JG","","<img src=""img/set1/S3.jpg"" width=""540"" height = ""360"">","null","","","","","","","","","",""
"null","","html-keyboard-response","87","276777","0.0-87.0","3DI28L7YXB0AC6HN257XOMANSMT1ED","A2J51BI7XS5ZYU","3G9UA71JVVGUCOKNEKUVXTI6SA17JG","","","null","","","","","","","","","",""
"898.8999999761581","","image-keyboard-response","88","277680","0.0-88.0","3DI28L7YXB0AC6HN257XOMANSMT1ED","A2J51BI7XS5ZYU","3G9UA71JVVGUCOKNEKUVXTI6SA17JG","","img/set1/S4.jpg","68","4","random","74","random,structured_load,structured_normal,structured_incentive","2,3,4,2,1,2","4,2,3,1","false","","",""
"null","","html-keyboard-response","89","278042","0.0-89.0","3DI28L7YXB0AC6HN257XOMANSMT1ED","A2J51BI7XS5ZYU","3G9UA71JVVGUCOKNEKUVXTI6SA17JG","","<img src=""img/set1/S4.jpg"" width=""540"" height = ""360"">","null","","","","","","","","","",""
"null","","html-keyboard-response","90","278281","0.0-90.0","3DI28L7YXB0AC6HN257XOMANSMT1ED","A2J51BI7XS5ZYU","3G9UA71JVVGUCOKNEKUVXTI6SA17JG","","","null","","","","","","","","","",""
"1100.800000011921","","image-keyboard-response","91","279384","0.0-91.0","3DI28L7YXB0AC6HN257XOMANSMT1ED","A2J51BI7XS5ZYU","3G9UA71JVVGUCOKNEKUVXTI6SA17JG","","img/set1/S1.jpg","74","1","random","83","random,structured_load,structured_normal,structured_incentive","2,3,4,2,1,2","4,2,3,1","false","","",""
"null","","html-keyboard-response","92","279752","0.0-92.0","3DI28L7YXB0AC6HN257XOMANSMT1ED","A2J51BI7XS5ZYU","3G9UA71JVVGUCOKNEKUVXTI6SA17JG","","<img src=""img/set1/S1.jpg"" width=""540"" height = ""360"">","null","","","","","","","","","",""
"null","","html-keyboard-response","93","279968","0.0-93.0","3DI28L7YXB0AC6HN257XOMANSMT1ED","A2J51BI7XS5ZYU","3G9UA71JVVGUCOKNEKUVXTI6SA17JG","","","null","","","","","","","","","",""
"548.3000000119209","","image-keyboard-response","94","280519","0.0-94.0","3DI28L7YXB0AC6HN257XOMANSMT1ED","A2J51BI7XS5ZYU","3G9UA71JVVGUCOKNEKUVXTI6SA17JG","","img/set1/S4.jpg","72","4","random","74","random,structured_load,structured_normal,structured_incentive","2,3,4,2,1,2","4,2,3,1","false","","",""
"null","","html-keyboard-response","95","280875","0.0-95.0","3DI28L7YXB0AC6HN257XOMANSMT1ED","A2J51BI7XS5ZYU","3G9UA71JVVGUCOKNEKUVXTI6SA17JG","","<img src=""img/set1/S4.jpg"" width=""540"" height = ""360"">","null","","","","","","","","","",""
"null","","html-keyboard-response","96","281083","0.0-96.0","3DI28L7YXB0AC6HN257XOMANSMT1ED","A2J51BI7XS5ZYU","3G9UA71JVVGUCOKNEKUVXTI6SA17JG","","","null","","","","","","","","","",""
"1025.5999999642372","","image-keyboard-response","97","282112","0.0-97.0","3DI28L7YXB0AC6HN257XOMANSMT1ED","A2J51BI7XS5ZYU","3G9UA71JVVGUCOKNEKUVXTI6SA17JG","","img/set1/S1.jpg","83","1","random","83","random,structured_load,structured_normal,structured_incentive","2,3,4,2,1,2","4,2,3,1","true","","",""
"null","","html-keyboard-response","98","282479","0.0-98.0","3DI28L7YXB0AC6HN257XOMANSMT1ED","A2J51BI7XS5ZYU","3G9UA71JVVGUCOKNEKUVXTI6SA17JG","","<img src=""img/set1/S1.jpg"" width=""540"" height = ""360"" style=""border:16px solid orange"">","null","","","","","","","","","",""
"null","","html-keyboard-response","99","282688","0.0-99.0","3DI28L7YXB0AC6HN257XOMANSMT1ED","A2J51BI7XS5ZYU","3G9UA71JVVGUCOKNEKUVXTI6SA17JG","","","null","","","","","","","","","",""
"1516","","image-keyboard-response","100","284208","0.0-100.0","3DI28L7YXB0AC6HN257XOMANSMT1ED","A2J51BI7XS5ZYU","3G9UA71JVVGUCOKNEKUVXTI6SA17JG","","img/set1/S4.jpg","83","4","random","74","random,structured_load,structured_normal,structured_incentive","2,3,4,2,1,2","4,2,3,1","false","","",""
"null","","html-keyboard-response","101","284569","0.0-101.0","3DI28L7YXB0AC6HN257XOMANSMT1ED","A2J51BI7XS5ZYU","3G9UA71JVVGUCOKNEKUVXTI6SA17JG","","<img src=""img/set1/S4.jpg"" width=""540"" height = ""360"">","null","","","","","","","","","",""
"null","","html-keyboard-response","102","284779","0.0-102.0","3DI28L7YXB0AC6HN257XOMANSMT1ED","A2J51BI7XS5ZYU","3G9UA71JVVGUCOKNEKUVXTI6SA17JG","","","null","","","","","","","","","",""
"932.3999999761581","","image-keyboard-response","103","285715","0.0-103.0","3DI28L7YXB0AC6HN257XOMANSMT1ED","A2J51BI7XS5ZYU","3G9UA71JVVGUCOKNEKUVXTI6SA17JG","","img/set1/S1.jpg","68","1","random","83","random,structured_load,structured_normal,structured_incentive","2,3,4,2,1,2","4,2,3,1","false","","",""
"null","","html-keyboard-response","104","286072","0.0-104.0","3DI28L7YXB0AC6HN257XOMANSMT1ED","A2J51BI7XS5ZYU","3G9UA71JVVGUCOKNEKUVXTI6SA17JG","","<img src=""img/set1/S1.jpg"" width=""540"" height = ""360"">","null","","","","","","","","","",""
"null","","html-keyboard-response","105","286282","0.0-105.0","3DI28L7YXB0AC6HN257XOMANSMT1ED","A2J51BI7XS5ZYU","3G9UA71JVVGUCOKNEKUVXTI6SA17JG","","","null","","","","","","","","","",""
"1290.1000000238419","","image-keyboard-response","106","287576","0.0-106.0","3DI28L7YXB0AC6HN257XOMANSMT1ED","A2J51BI7XS5ZYU","3G9UA71JVVGUCOKNEKUVXTI6SA17JG","","img/set1/S3.jpg","72","3","random","72","random,structured_load,structured_normal,structured_incentive","2,3,4,2,1,2","4,2,3,1","true","","",""
"null","","html-keyboard-response","107","287943","0.0-107.0","3DI28L7YXB0AC6HN257XOMANSMT1ED","A2J51BI7XS5ZYU","3G9UA71JVVGUCOKNEKUVXTI6SA17JG","","<img src=""img/set1/S3.jpg"" width=""540"" height = ""360"" style=""border:16px solid orange"">","null","","","","","","","","","",""
"null","","html-keyboard-response","108","288155","0.0-108.0","3DI28L7YXB0AC6HN257XOMANSMT1ED","A2J51BI7XS5ZYU","3G9UA71JVVGUCOKNEKUVXTI6SA17JG","","","null","","","","","","","","","",""
"1625.3999999761581","","image-keyboard-response","109","289784","0.0-109.0","3DI28L7YXB0AC6HN257XOMANSMT1ED","A2J51BI7XS5ZYU","3G9UA71JVVGUCOKNEKUVXTI6SA17JG","","img/set1/S3.jpg","74","3","random","72","random,structured_load,structured_normal,structured_incentive","2,3,4,2,1,2","4,2,3,1","false","","",""
"null","","html-keyboard-response","110","290150","0.0-110.0","3DI28L7YXB0AC6HN257XOMANSMT1ED","A2J51BI7XS5ZYU","3G9UA71JVVGUCOKNEKUVXTI6SA17JG","","<img src=""img/set1/S3.jpg"" width=""540"" height = ""360"">","null","","","","","","","","","",""
"null","","html-keyboard-response","111","290360","0.0-111.0","3DI28L7YXB0AC6HN257XOMANSMT1ED","A2J51BI7XS5ZYU","3G9UA71JVVGUCOKNEKUVXTI6SA17JG","","","null","","","","","","","","","",""
"1044.8999999761581","","image-keyboard-response","112","291409","0.0-112.0","3DI28L7YXB0AC6HN257XOMANSMT1ED","A2J51BI7XS5ZYU","3G9UA71JVVGUCOKNEKUVXTI6SA17JG","","img/set1/S2.jpg","68","2","random","68","random,structured_load,structured_normal,structured_incentive","2,3,4,2,1,2","4,2,3,1","true","","",""
"null","","html-keyboard-response","113","291770","0.0-113.0","3DI28L7YXB0AC6HN257XOMANSMT1ED","A2J51BI7XS5ZYU","3G9UA71JVVGUCOKNEKUVXTI6SA17JG","","<img src=""img/set1/S2.jpg"" width=""540"" height = ""360"" style=""border:16px solid orange"">","null","","","","","","","","","",""
"null","","html-keyboard-response","114","291987","0.0-114.0","3DI28L7YXB0AC6HN257XOMANSMT1ED","A2J51BI7XS5ZYU","3G9UA71JVVGUCOKNEKUVXTI6SA17JG","","","null","","","","","","","","","",""
"1153.3999999761581","","image-keyboard-response","115","293143","0.0-115.0","3DI28L7YXB0AC6HN257XOMANSMT1ED","A2J51BI7XS5ZYU","3G9UA71JVVGUCOKNEKUVXTI6SA17JG","","img/set1/S3.jpg","83","3","random","72","random,structured_load,structured_normal,structured_incentive","2,3,4,2,1,2","4,2,3,1","false","","",""
"null","","html-keyboard-response","116","293501","0.0-116.0","3DI28L7YXB0AC6HN257XOMANSMT1ED","A2J51BI7XS5ZYU","3G9UA71JVVGUCOKNEKUVXTI6SA17JG","","<img src=""img/set1/S3.jpg"" width=""540"" height = ""360"">","null","","","","","","","","","",""
"null","","html-keyboard-response","117","293722","0.0-117.0","3DI28L7YXB0AC6HN257XOMANSMT1ED","A2J51BI7XS5ZYU","3G9UA71JVVGUCOKNEKUVXTI6SA17JG","","","null","","","","","","","","","",""
"1195.5","","image-keyboard-response","118","294919","0.0-118.0","3DI28L7YXB0AC6HN257XOMANSMT1ED","A2J51BI7XS5ZYU","3G9UA71JVVGUCOKNEKUVXTI6SA17JG","","img/set1/S1.jpg","72","1","random","83","random,structured_load,structured_normal,structured_incentive","2,3,4,2,1,2","4,2,3,1","false","","",""
"null","","html-keyboard-response","119","295280","0.0-119.0","3DI28L7YXB0AC6HN257XOMANSMT1ED","A2J51BI7XS5ZYU","3G9UA71JVVGUCOKNEKUVXTI6SA17JG","","<img src=""img/set1/S1.jpg"" width=""540"" height = ""360"">","null","","","","","","","","","",""
"null","","html-keyboard-response","120","295507","0.0-120.0","3DI28L7YXB0AC6HN257XOMANSMT1ED","A2J51BI7XS5ZYU","3G9UA71JVVGUCOKNEKUVXTI6SA17JG","","","null","","","","","","","","","",""
"477.19999998807907","","image-keyboard-response","121","295987","0.0-121.0","3DI28L7YXB0AC6HN257XOMANSMT1ED","A2J51BI7XS5ZYU","3G9UA71JVVGUCOKNEKUVXTI6SA17JG","","img/set1/S1.jpg","68","1","random","83","random,structured_load,structured_normal,structured_incentive","2,3,4,2,1,2","4,2,3,1","false","","",""
"null","","html-keyboard-response","122","296349","0.0-122.0","3DI28L7YXB0AC6HN257XOMANSMT1ED","A2J51BI7XS5ZYU","3G9UA71JVVGUCOKNEKUVXTI6SA17JG","","<img src=""img/set1/S1.jpg"" width=""540"" height = ""360"">","null","","","","","","","","","",""
"null","","html-keyboard-response","123","296558","0.0-123.0","3DI28L7YXB0AC6HN257XOMANSMT1ED","A2J51BI7XS5ZYU","3G9UA71JVVGUCOKNEKUVXTI6SA17JG","","","null","","","","","","","","","",""
"542.8000000119209","","image-keyboard-response","124","297104","0.0-124.0","3DI28L7YXB0AC6HN257XOMANSMT1ED","A2J51BI7XS5ZYU","3G9UA71JVVGUCOKNEKUVXTI6SA17JG","","img/set1/S1.jpg","74","1","random","83","random,structured_load,structured_normal,structured_incentive","2,3,4,2,1,2","4,2,3,1","false","","",""
"null","","html-keyboard-response","125","297460","0.0-125.0","3DI28L7YXB0AC6HN257XOMANSMT1ED","A2J51BI7XS5ZYU","3G9UA71JVVGUCOKNEKUVXTI6SA17JG","","<img src=""img/set1/S1.jpg"" width=""540"" height = ""360"">","null","","","","","","","","","",""
"null","","html-keyboard-response","126","297673","0.0-126.0","3DI28L7YXB0AC6HN257XOMANSMT1ED","A2J51BI7XS5ZYU","3G9UA71JVVGUCOKNEKUVXTI6SA17JG","","","null","","","","","","","","","",""
"370.69999998807907","","image-keyboard-response","127","298048","0.0-127.0","3DI28L7YXB0AC6HN257XOMANSMT1ED","A2J51BI7XS5ZYU","3G9UA71JVVGUCOKNEKUVXTI6SA17JG","","img/set1/S2.jpg","83","2","random","68","random,structured_load,structured_normal,structured_incentive","2,3,4,2,1,2","4,2,3,1","false","","",""
"null","","html-keyboard-response","128","298408","0.0-128.0","3DI28L7YXB0AC6HN257XOMANSMT1ED","A2J51BI7XS5ZYU","3G9UA71JVVGUCOKNEKUVXTI6SA17JG","","<img src=""img/set1/S2.jpg"" width=""540"" height = ""360"">","null","","","","","","","","","",""
"null","","html-keyboard-response","129","298627","0.0-129.0","3DI28L7YXB0AC6HN257XOMANSMT1ED","A2J51BI7XS5ZYU","3G9UA71JVVGUCOKNEKUVXTI6SA17JG","","","null","","","","","","","","","",""
"1081","","image-keyboard-response","130","299712","0.0-130.0","3DI28L7YXB0AC6HN257XOMANSMT1ED","A2J51BI7XS5ZYU","3G9UA71JVVGUCOKNEKUVXTI6SA17JG","","img/set1/S3.jpg","68","3","random","72","random,structured_load,structured_normal,structured_incentive","2,3,4,2,1,2","4,2,3,1","false","","",""
"null","","html-keyboard-response","131","300072","0.0-131.0","3DI28L7YXB0AC6HN257XOMANSMT1ED","A2J51BI7XS5ZYU","3G9UA71JVVGUCOKNEKUVXTI6SA17JG","","<img src=""img/set1/S3.jpg"" width=""540"" height = ""360"">","null","","","","","","","","","",""
"null","","html-keyboard-response","132","300289","0.0-132.0","3DI28L7YXB0AC6HN257XOMANSMT1ED","A2J51BI7XS5ZYU","3G9UA71JVVGUCOKNEKUVXTI6SA17JG","","","null","","","","","","","","","",""
"739.4000000357628","","image-keyboard-response","133","301032","0.0-133.0","3DI28L7YXB0AC6HN257XOMANSMT1ED","A2J51BI7XS5ZYU","3G9UA71JVVGUCOKNEKUVXTI6SA17JG","","img/set1/S3.jpg","72","3","random","72","random,structured_load,structured_normal,structured_incentive","2,3,4,2,1,2","4,2,3,1","true","","",""
"null","","html-keyboard-response","134","301400","0.0-134.0","3DI28L7YXB0AC6HN257XOMANSMT1ED","A2J51BI7XS5ZYU","3G9UA71JVVGUCOKNEKUVXTI6SA17JG","","<img src=""img/set1/S3.jpg"" width=""540"" height = ""360"" style=""border:16px solid orange"">","null","","","","","","","","","",""
"null","","html-keyboard-response","135","301617","0.0-135.0","3DI28L7YXB0AC6HN257XOMANSMT1ED","A2J51BI7XS5ZYU","3G9UA71JVVGUCOKNEKUVXTI6SA17JG","","","null","","","","","","","","","",""
"1379.7999999523163","","image-keyboard-response","136","303000","0.0-136.0","3DI28L7YXB0AC6HN257XOMANSMT1ED","A2J51BI7XS5ZYU","3G9UA71JVVGUCOKNEKUVXTI6SA17JG","","img/set1/S4.jpg","68","4","random","74","random,structured_load,structured_normal,structured_incentive","2,3,4,2,1,2","4,2,3,1","false","","",""
"null","","html-keyboard-response","137","303357","0.0-137.0","3DI28L7YXB0AC6HN257XOMANSMT1ED","A2J51BI7XS5ZYU","3G9UA71JVVGUCOKNEKUVXTI6SA17JG","","<img src=""img/set1/S4.jpg"" width=""540"" height = ""360"">","null","","","","","","","","","",""
"null","","html-keyboard-response","138","303561","0.0-138.0","3DI28L7YXB0AC6HN257XOMANSMT1ED","A2J51BI7XS5ZYU","3G9UA71JVVGUCOKNEKUVXTI6SA17JG","","","null","","","","","","","","","",""
"null","","image-keyboard-response","139","306066","0.0-139.0","3DI28L7YXB0AC6HN257XOMANSMT1ED","A2J51BI7XS5ZYU","3G9UA71JVVGUCOKNEKUVXTI6SA17JG","","img/set1/S3.jpg","null","3","random","72","random,structured_load,structured_normal,structured_incentive","2,3,4,2,1,2","4,2,3,1","false","","",""
"null","","html-keyboard-response","140","306425","0.0-140.0","3DI28L7YXB0AC6HN257XOMANSMT1ED","A2J51BI7XS5ZYU","3G9UA71JVVGUCOKNEKUVXTI6SA17JG","","<img src=""img/set1/S3.jpg"" width=""540"" height = ""360"">","null","","","","","","","","","",""
"null","","html-keyboard-response","141","306641","0.0-141.0","3DI28L7YXB0AC6HN257XOMANSMT1ED","A2J51BI7XS5ZYU","3G9UA71JVVGUCOKNEKUVXTI6SA17JG","","","null","","","","","","","","","",""
"889.1999999880791","","image-keyboard-response","142","307533","0.0-142.0","3DI28L7YXB0AC6HN257XOMANSMT1ED","A2J51BI7XS5ZYU","3G9UA71JVVGUCOKNEKUVXTI6SA17JG","","img/set1/S1.jpg","68","1","random","83","random,structured_load,structured_normal,structured_incentive","2,3,4,2,1,2","4,2,3,1","false","","",""
"null","","html-keyboard-response","143","307898","0.0-143.0","3DI28L7YXB0AC6HN257XOMANSMT1ED","A2J51BI7XS5ZYU","3G9UA71JVVGUCOKNEKUVXTI6SA17JG","","<img src=""img/set1/S1.jpg"" width=""540"" height = ""360"">","null","","","","","","","","","",""
"null","","html-keyboard-response","144","308118","0.0-144.0","3DI28L7YXB0AC6HN257XOMANSMT1ED","A2J51BI7XS5ZYU","3G9UA71JVVGUCOKNEKUVXTI6SA17JG","","","null","","","","","","","","","",""
"723.6000000238419","","image-keyboard-response","145","308847","0.0-145.0","3DI28L7YXB0AC6HN257XOMANSMT1ED","A2J51BI7XS5ZYU","3G9UA71JVVGUCOKNEKUVXTI6SA17JG","","img/set1/S1.jpg","68","1","random","83","random,structured_load,structured_normal,structured_incentive","2,3,4,2,1,2","4,2,3,1","false","","",""
"null","","html-keyboard-response","146","309234","0.0-146.0","3DI28L7YXB0AC6HN257XOMANSMT1ED","A2J51BI7XS5ZYU","3G9UA71JVVGUCOKNEKUVXTI6SA17JG","","<img src=""img/set1/S1.jpg"" width=""540"" height = ""360"">","null","","","","","","","","","",""
"null","","html-keyboard-response","147","309443","0.0-147.0","3DI28L7YXB0AC6HN257XOMANSMT1ED","A2J51BI7XS5ZYU","3G9UA71JVVGUCOKNEKUVXTI6SA17JG","","","null","","","","","","","","","",""
"414.60000002384186","","image-keyboard-response","148","309862","0.0-148.0","3DI28L7YXB0AC6HN257XOMANSMT1ED","A2J51BI7XS5ZYU","3G9UA71JVVGUCOKNEKUVXTI6SA17JG","","img/set1/S1.jpg","72","1","random","83","random,structured_load,structured_normal,structured_incentive","2,3,4,2,1,2","4,2,3,1","false","","",""
"null","","html-keyboard-response","149","310221","0.0-149.0","3DI28L7YXB0AC6HN257XOMANSMT1ED","A2J51BI7XS5ZYU","3G9UA71JVVGUCOKNEKUVXTI6SA17JG","","<img src=""img/set1/S1.jpg"" width=""540"" height = ""360"">","null","","","","","","","","","",""
"null","","html-keyboard-response","150","310437","0.0-150.0","3DI28L7YXB0AC6HN257XOMANSMT1ED","A2J51BI7XS5ZYU","3G9UA71JVVGUCOKNEKUVXTI6SA17JG","","","null","","","","","","","","","",""
"639.6999999880791","","image-keyboard-response","151","311080","0.0-151.0","3DI28L7YXB0AC6HN257XOMANSMT1ED","A2J51BI7XS5ZYU","3G9UA71JVVGUCOKNEKUVXTI6SA17JG","","img/set1/S3.jpg","83","3","random","72","random,structured_load,structured_normal,structured_incentive","2,3,4,2,1,2","4,2,3,1","false","","",""
"null","","html-keyboard-response","152","311446","0.0-152.0","3DI28L7YXB0AC6HN257XOMANSMT1ED","A2J51BI7XS5ZYU","3G9UA71JVVGUCOKNEKUVXTI6SA17JG","","<img src=""img/set1/S3.jpg"" width=""540"" height = ""360"">","null","","","","","","","","","",""
"null","","html-keyboard-response","153","311662","0.0-153.0","3DI28L7YXB0AC6HN257XOMANSMT1ED","A2J51BI7XS5ZYU","3G9UA71JVVGUCOKNEKUVXTI6SA17JG","","","null","","","","","","","","","",""
"535.5999999642372","","image-keyboard-response","154","312200","0.0-154.0","3DI28L7YXB0AC6HN257XOMANSMT1ED","A2J51BI7XS5ZYU","3G9UA71JVVGUCOKNEKUVXTI6SA17JG","","img/set1/S1.jpg","74","1","random","83","random,structured_load,structured_normal,structured_incentive","2,3,4,2,1,2","4,2,3,1","false","","",""
"null","","html-keyboard-response","155","312564","0.0-155.0","3DI28L7YXB0AC6HN257XOMANSMT1ED","A2J51BI7XS5ZYU","3G9UA71JVVGUCOKNEKUVXTI6SA17JG","","<img src=""img/set1/S1.jpg"" width=""540"" height = ""360"">","null","","","","","","","","","",""
"null","","html-keyboard-response","156","312768","0.0-156.0","3DI28L7YXB0AC6HN257XOMANSMT1ED","A2J51BI7XS5ZYU","3G9UA71JVVGUCOKNEKUVXTI6SA17JG","","","null","","","","","","","","","",""
"644.0999999642372","","image-keyboard-response","157","313416","0.0-157.0","3DI28L7YXB0AC6HN257XOMANSMT1ED","A2J51BI7XS5ZYU","3G9UA71JVVGUCOKNEKUVXTI6SA17JG","","img/set1/S1.jpg","72","1","random","83","random,structured_load,structured_normal,structured_incentive","2,3,4,2,1,2","4,2,3,1","false","","",""
"null","","html-keyboard-response","158","313778","0.0-158.0","3DI28L7YXB0AC6HN257XOMANSMT1ED","A2J51BI7XS5ZYU","3G9UA71JVVGUCOKNEKUVXTI6SA17JG","","<img src=""img/set1/S1.jpg"" width=""540"" height = ""360"">","null","","","","","","","","","",""
"null","","html-keyboard-response","159","313995","0.0-159.0","3DI28L7YXB0AC6HN257XOMANSMT1ED","A2J51BI7XS5ZYU","3G9UA71JVVGUCOKNEKUVXTI6SA17JG","","","null","","","","","","","","","",""
"432.2000000476837","","image-keyboard-response","160","314430","0.0-160.0","3DI28L7YXB0AC6HN257XOMANSMT1ED","A2J51BI7XS5ZYU","3G9UA71JVVGUCOKNEKUVXTI6SA17JG","","img/set1/S2.jpg","68","2","random","68","random,structured_load,structured_normal,structured_incentive","2,3,4,2,1,2","4,2,3,1","true","","",""
"null","","html-keyboard-response","161","314789","0.0-161.0","3DI28L7YXB0AC6HN257XOMANSMT1ED","A2J51BI7XS5ZYU","3G9UA71JVVGUCOKNEKUVXTI6SA17JG","","<img src=""img/set1/S2.jpg"" width=""540"" height = ""360"" style=""border:16px solid orange"">","null","","","","","","","","","",""
"null","","html-keyboard-response","162","314992","0.0-162.0","3DI28L7YXB0AC6HN257XOMANSMT1ED","A2J51BI7XS5ZYU","3G9UA71JVVGUCOKNEKUVXTI6SA17JG","","","null","","","","","","","","","",""
"1468","","image-keyboard-response","163","316462","0.0-163.0","3DI28L7YXB0AC6HN257XOMANSMT1ED","A2J51BI7XS5ZYU","3G9UA71JVVGUCOKNEKUVXTI6SA17JG","","img/set1/S4.jpg","83","4","random","74","random,structured_load,structured_normal,structured_incentive","2,3,4,2,1,2","4,2,3,1","false","","",""
"null","","html-keyboard-response","164","316817","0.0-164.0","3DI28L7YXB0AC6HN257XOMANSMT1ED","A2J51BI7XS5ZYU","3G9UA71JVVGUCOKNEKUVXTI6SA17JG","","<img src=""img/set1/S4.jpg"" width=""540"" height = ""360"">","null","","","","","","","","","",""
"null","","html-keyboard-response","165","317033","0.0-165.0","3DI28L7YXB0AC6HN257XOMANSMT1ED","A2J51BI7XS5ZYU","3G9UA71JVVGUCOKNEKUVXTI6SA17JG","","","null","","","","","","","","","",""
"1229.5999999642372","","image-keyboard-response","166","318266","0.0-166.0","3DI28L7YXB0AC6HN257XOMANSMT1ED","A2J51BI7XS5ZYU","3G9UA71JVVGUCOKNEKUVXTI6SA17JG","","img/set1/S2.jpg","72","2","random","68","random,structured_load,structured_normal,structured_incentive","2,3,4,2,1,2","4,2,3,1","false","","",""
"null","","html-keyboard-response","167","318632","0.0-167.0","3DI28L7YXB0AC6HN257XOMANSMT1ED","A2J51BI7XS5ZYU","3G9UA71JVVGUCOKNEKUVXTI6SA17JG","","<img src=""img/set1/S2.jpg"" width=""540"" height = ""360"">","null","","","","","","","","","",""
"null","","html-keyboard-response","168","318849","0.0-168.0","3DI28L7YXB0AC6HN257XOMANSMT1ED","A2J51BI7XS5ZYU","3G9UA71JVVGUCOKNEKUVXTI6SA17JG","","","null","","","","","","","","","",""
"1435.199999988079","","image-keyboard-response","169","320287","0.0-169.0","3DI28L7YXB0AC6HN257XOMANSMT1ED","A2J51BI7XS5ZYU","3G9UA71JVVGUCOKNEKUVXTI6SA17JG","","img/set1/S3.jpg","68","3","random","72","random,structured_load,structured_normal,structured_incentive","2,3,4,2,1,2","4,2,3,1","false","","",""
"null","","html-keyboard-response","170","320656","0.0-170.0","3DI28L7YXB0AC6HN257XOMANSMT1ED","A2J51BI7XS5ZYU","3G9UA71JVVGUCOKNEKUVXTI6SA17JG","","<img src=""img/set1/S3.jpg"" width=""540"" height = ""360"">","null","","","","","","","","","",""
"null","","html-keyboard-response","171","320873","0.0-171.0","3DI28L7YXB0AC6HN257XOMANSMT1ED","A2J51BI7XS5ZYU","3G9UA71JVVGUCOKNEKUVXTI6SA17JG","","","null","","","","","","","","","",""
"891.5","","image-keyboard-response","172","321768","0.0-172.0","3DI28L7YXB0AC6HN257XOMANSMT1ED","A2J51BI7XS5ZYU","3G9UA71JVVGUCOKNEKUVXTI6SA17JG","","img/set1/S3.jpg","72","3","random","72","random,structured_load,structured_normal,structured_incentive","2,3,4,2,1,2","4,2,3,1","true","","",""
"null","","html-keyboard-response","173","322132","0.0-173.0","3DI28L7YXB0AC6HN257XOMANSMT1ED","A2J51BI7XS5ZYU","3G9UA71JVVGUCOKNEKUVXTI6SA17JG","","<img src=""img/set1/S3.jpg"" width=""540"" height = ""360"" style=""border:16px solid orange"">","null","","","","","","","","","",""
"null","","html-keyboard-response","174","322335","0.0-174.0","3DI28L7YXB0AC6HN257XOMANSMT1ED","A2J51BI7XS5ZYU","3G9UA71JVVGUCOKNEKUVXTI6SA17JG","","","null","","","","","","","","","",""
"1309.3999999761581","","image-keyboard-response","175","323648","0.0-175.0","3DI28L7YXB0AC6HN257XOMANSMT1ED","A2J51BI7XS5ZYU","3G9UA71JVVGUCOKNEKUVXTI6SA17JG","","img/set1/S4.jpg","74","4","random","74","random,structured_load,structured_normal,structured_incentive","2,3,4,2,1,2","4,2,3,1","true","","",""
"null","","html-keyboard-response","176","324014","0.0-176.0","3DI28L7YXB0AC6HN257XOMANSMT1ED","A2J51BI7XS5ZYU","3G9UA71JVVGUCOKNEKUVXTI6SA17JG","","<img src=""img/set1/S4.jpg"" width=""540"" height = ""360"" style=""border:16px solid orange"">","null","","","","","","","","","",""
"null","","html-keyboard-response","177","324230","0.0-177.0","3DI28L7YXB0AC6HN257XOMANSMT1ED","A2J51BI7XS5ZYU","3G9UA71JVVGUCOKNEKUVXTI6SA17JG","","","null","","","","","","","","","",""
"1815.800000011921","","image-keyboard-response","178","326049","0.0-178.0","3DI28L7YXB0AC6HN257XOMANSMT1ED","A2J51BI7XS5ZYU","3G9UA71JVVGUCOKNEKUVXTI6SA17JG","","img/set1/S1.jpg","68","1","random","83","random,structured_load,structured_normal,structured_incentive","2,3,4,2,1,2","4,2,3,1","false","","",""
"null","","html-keyboard-response","179","326404","0.0-179.0","3DI28L7YXB0AC6HN257XOMANSMT1ED","A2J51BI7XS5ZYU","3G9UA71JVVGUCOKNEKUVXTI6SA17JG","","<img src=""img/set1/S1.jpg"" width=""540"" height = ""360"">","null","","","","","","","","","",""
"null","","html-keyboard-response","180","326618","0.0-180.0","3DI28L7YXB0AC6HN257XOMANSMT1ED","A2J51BI7XS5ZYU","3G9UA71JVVGUCOKNEKUVXTI6SA17JG","","","null","","","","","","","","","",""
"938.8000000119209","","image-keyboard-response","181","327560","0.0-181.0","3DI28L7YXB0AC6HN257XOMANSMT1ED","A2J51BI7XS5ZYU","3G9UA71JVVGUCOKNEKUVXTI6SA17JG","","img/set1/S2.jpg","72","2","random","68","random,structured_load,structured_normal,structured_incentive","2,3,4,2,1,2","4,2,3,1","false","","",""
"null","","html-keyboard-response","182","327919","0.0-182.0","3DI28L7YXB0AC6HN257XOMANSMT1ED","A2J51BI7XS5ZYU","3G9UA71JVVGUCOKNEKUVXTI6SA17JG","","<img src=""img/set1/S2.jpg"" width=""540"" height = ""360"">","null","","","","","","","","","",""
"null","","html-keyboard-response","183","328127","0.0-183.0","3DI28L7YXB0AC6HN257XOMANSMT1ED","A2J51BI7XS5ZYU","3G9UA71JVVGUCOKNEKUVXTI6SA17JG","","","null","","","","","","","","","",""
"1049.3999999761581","","image-keyboard-response","184","329178","0.0-184.0","3DI28L7YXB0AC6HN257XOMANSMT1ED","A2J51BI7XS5ZYU","3G9UA71JVVGUCOKNEKUVXTI6SA17JG","","img/set1/S3.jpg","83","3","random","72","random,structured_load,structured_normal,structured_incentive","2,3,4,2,1,2","4,2,3,1","false","","",""
"null","","html-keyboard-response","185","329542","0.0-185.0","3DI28L7YXB0AC6HN257XOMANSMT1ED","A2J51BI7XS5ZYU","3G9UA71JVVGUCOKNEKUVXTI6SA17JG","","<img src=""img/set1/S3.jpg"" width=""540"" height = ""360"">","null","","","","","","","","","",""
"null","","html-keyboard-response","186","329763","0.0-186.0","3DI28L7YXB0AC6HN257XOMANSMT1ED","A2J51BI7XS5ZYU","3G9UA71JVVGUCOKNEKUVXTI6SA17JG","","","null","","","","","","","","","",""
"945.4000000357628","","image-keyboard-response","187","330710","0.0-187.0","3DI28L7YXB0AC6HN257XOMANSMT1ED","A2J51BI7XS5ZYU","3G9UA71JVVGUCOKNEKUVXTI6SA17JG","","img/set1/S2.jpg","68","2","random","68","random,structured_load,structured_normal,structured_incentive","2,3,4,2,1,2","4,2,3,1","true","","",""
"null","","html-keyboard-response","188","331075","0.0-188.0","3DI28L7YXB0AC6HN257XOMANSMT1ED","A2J51BI7XS5ZYU","3G9UA71JVVGUCOKNEKUVXTI6SA17JG","","<img src=""img/set1/S2.jpg"" width=""540"" height = ""360"" style=""border:16px solid orange"">","null","","","","","","","","","",""
"null","","html-keyboard-response","189","331283","0.0-189.0","3DI28L7YXB0AC6HN257XOMANSMT1ED","A2J51BI7XS5ZYU","3G9UA71JVVGUCOKNEKUVXTI6SA17JG","","","null","","","","","","","","","",""
"913","","image-keyboard-response","190","332200","0.0-190.0","3DI28L7YXB0AC6HN257XOMANSMT1ED","A2J51BI7XS5ZYU","3G9UA71JVVGUCOKNEKUVXTI6SA17JG","","img/set1/S4.jpg","72","4","random","74","random,structured_load,structured_normal,structured_incentive","2,3,4,2,1,2","4,2,3,1","false","","",""
"null","","html-keyboard-response","191","332566","0.0-191.0","3DI28L7YXB0AC6HN257XOMANSMT1ED","A2J51BI7XS5ZYU","3G9UA71JVVGUCOKNEKUVXTI6SA17JG","","<img src=""img/set1/S4.jpg"" width=""540"" height = ""360"">","null","","","","","","","","","",""
"null","","html-keyboard-response","192","332776","0.0-192.0","3DI28L7YXB0AC6HN257XOMANSMT1ED","A2J51BI7XS5ZYU","3G9UA71JVVGUCOKNEKUVXTI6SA17JG","","","null","","","","","","","","","",""
"965.1999999880791","","image-keyboard-response","193","333744","0.0-193.0","3DI28L7YXB0AC6HN257XOMANSMT1ED","A2J51BI7XS5ZYU","3G9UA71JVVGUCOKNEKUVXTI6SA17JG","","img/set1/S2.jpg","68","2","random","68","random,structured_load,structured_normal,structured_incentive","2,3,4,2,1,2","4,2,3,1","true","","",""
"null","","html-keyboard-response","194","334112","0.0-194.0","3DI28L7YXB0AC6HN257XOMANSMT1ED","A2J51BI7XS5ZYU","3G9UA71JVVGUCOKNEKUVXTI6SA17JG","","<img src=""img/set1/S2.jpg"" width=""540"" height = ""360"" style=""border:16px solid orange"">","null","","","","","","","","","",""
"null","","html-keyboard-response","195","334318","0.0-195.0","3DI28L7YXB0AC6HN257XOMANSMT1ED","A2J51BI7XS5ZYU","3G9UA71JVVGUCOKNEKUVXTI6SA17JG","","","null","","","","","","","","","",""
"630.6999999880791","","image-keyboard-response","196","334952","0.0-196.0","3DI28L7YXB0AC6HN257XOMANSMT1ED","A2J51BI7XS5ZYU","3G9UA71JVVGUCOKNEKUVXTI6SA17JG","","img/set1/S4.jpg","74","4","random","74","random,structured_load,structured_normal,structured_incentive","2,3,4,2,1,2","4,2,3,1","true","","",""
"null","","html-keyboard-response","197","335316","0.0-197.0","3DI28L7YXB0AC6HN257XOMANSMT1ED","A2J51BI7XS5ZYU","3G9UA71JVVGUCOKNEKUVXTI6SA17JG","","<img src=""img/set1/S4.jpg"" width=""540"" height = ""360"" style=""border:16px solid orange"">","null","","","","","","","","","",""
"null","","html-keyboard-response","198","335542","0.0-198.0","3DI28L7YXB0AC6HN257XOMANSMT1ED","A2J51BI7XS5ZYU","3G9UA71JVVGUCOKNEKUVXTI6SA17JG","","","null","","","","","","","","","",""
"910.8000000119209","","image-keyboard-response","199","336454","0.0-199.0","3DI28L7YXB0AC6HN257XOMANSMT1ED","A2J51BI7XS5ZYU","3G9UA71JVVGUCOKNEKUVXTI6SA17JG","","img/set1/S3.jpg","72","3","random","72","random,structured_load,structured_normal,structured_incentive","2,3,4,2,1,2","4,2,3,1","true","","",""
"null","","html-keyboard-response","200","336817","0.0-200.0","3DI28L7YXB0AC6HN257XOMANSMT1ED","A2J51BI7XS5ZYU","3G9UA71JVVGUCOKNEKUVXTI6SA17JG","","<img src=""img/set1/S3.jpg"" width=""540"" height = ""360"" style=""border:16px solid orange"">","null","","","","","","","","","",""
"null","","html-keyboard-response","201","337053","0.0-201.0","3DI28L7YXB0AC6HN257XOMANSMT1ED","A2J51BI7XS5ZYU","3G9UA71JVVGUCOKNEKUVXTI6SA17JG","","","null","","","","","","","","","",""
"600.5","","image-keyboard-response","202","337655","0.0-202.0","3DI28L7YXB0AC6HN257XOMANSMT1ED","A2J51BI7XS5ZYU","3G9UA71JVVGUCOKNEKUVXTI6SA17JG","","img/set1/S3.jpg","72","3","random","72","random,structured_load,structured_normal,structured_incentive","2,3,4,2,1,2","4,2,3,1","true","","",""
"null","","html-keyboard-response","203","338010","0.0-203.0","3DI28L7YXB0AC6HN257XOMANSMT1ED","A2J51BI7XS5ZYU","3G9UA71JVVGUCOKNEKUVXTI6SA17JG","","<img src=""img/set1/S3.jpg"" width=""540"" height = ""360"" style=""border:16px solid orange"">","null","","","","","","","","","",""
"null","","html-keyboard-response","204","338213","0.0-204.0","3DI28L7YXB0AC6HN257XOMANSMT1ED","A2J51BI7XS5ZYU","3G9UA71JVVGUCOKNEKUVXTI6SA17JG","","","null","","","","","","","","","",""
"903","","image-keyboard-response","205","339120","0.0-205.0","3DI28L7YXB0AC6HN257XOMANSMT1ED","A2J51BI7XS5ZYU","3G9UA71JVVGUCOKNEKUVXTI6SA17JG","","img/set1/S4.jpg","74","4","random","74","random,structured_load,structured_normal,structured_incentive","2,3,4,2,1,2","4,2,3,1","true","","",""
"null","","html-keyboard-response","206","339483","0.0-206.0","3DI28L7YXB0AC6HN257XOMANSMT1ED","A2J51BI7XS5ZYU","3G9UA71JVVGUCOKNEKUVXTI6SA17JG","","<img src=""img/set1/S4.jpg"" width=""540"" height = ""360"" style=""border:16px solid orange"">","null","","","","","","","","","",""
"null","","html-keyboard-response","207","339720","0.0-207.0","3DI28L7YXB0AC6HN257XOMANSMT1ED","A2J51BI7XS5ZYU","3G9UA71JVVGUCOKNEKUVXTI6SA17JG","","","null","","","","","","","","","",""
"796","","image-keyboard-response","208","340518","0.0-208.0","3DI28L7YXB0AC6HN257XOMANSMT1ED","A2J51BI7XS5ZYU","3G9UA71JVVGUCOKNEKUVXTI6SA17JG","","img/set1/S3.jpg","72","3","random","72","random,structured_load,structured_normal,structured_incentive","2,3,4,2,1,2","4,2,3,1","true","","",""
"null","","html-keyboard-response","209","340881","0.0-209.0","3DI28L7YXB0AC6HN257XOMANSMT1ED","A2J51BI7XS5ZYU","3G9UA71JVVGUCOKNEKUVXTI6SA17JG","","<img src=""img/set1/S3.jpg"" width=""540"" height = ""360"" style=""border:16px solid orange"">","null","","","","","","","","","",""
"null","","html-keyboard-response","210","341095","0.0-210.0","3DI28L7YXB0AC6HN257XOMANSMT1ED","A2J51BI7XS5ZYU","3G9UA71JVVGUCOKNEKUVXTI6SA17JG","","","null","","","","","","","","","",""
"910.6999999880791","","image-keyboard-response","211","342009","0.0-211.0","3DI28L7YXB0AC6HN257XOMANSMT1ED","A2J51BI7XS5ZYU","3G9UA71JVVGUCOKNEKUVXTI6SA17JG","","img/set1/S1.jpg","83","1","random","83","random,structured_load,structured_normal,structured_incentive","2,3,4,2,1,2","4,2,3,1","true","","",""
"null","","html-keyboard-response","212","342363","0.0-212.0","3DI28L7YXB0AC6HN257XOMANSMT1ED","A2J51BI7XS5ZYU","3G9UA71JVVGUCOKNEKUVXTI6SA17JG","","<img src=""img/set1/S1.jpg"" width=""540"" height = ""360"" style=""border:16px solid orange"">","null","","","","","","","","","",""
"null","","html-keyboard-response","213","342568","0.0-213.0","3DI28L7YXB0AC6HN257XOMANSMT1ED","A2J51BI7XS5ZYU","3G9UA71JVVGUCOKNEKUVXTI6SA17JG","","","null","","","","","","","","","",""
"669.1999999880791","","image-keyboard-response","214","343239","0.0-214.0","3DI28L7YXB0AC6HN257XOMANSMT1ED","A2J51BI7XS5ZYU","3G9UA71JVVGUCOKNEKUVXTI6SA17JG","","img/set1/S3.jpg","72","3","random","72","random,structured_load,structured_normal,structured_incentive","2,3,4,2,1,2","4,2,3,1","true","","",""
"null","","html-keyboard-response","215","343600","0.0-215.0","3DI28L7YXB0AC6HN257XOMANSMT1ED","A2J51BI7XS5ZYU","3G9UA71JVVGUCOKNEKUVXTI6SA17JG","","<img src=""img/set1/S3.jpg"" width=""540"" height = ""360"" style=""border:16px solid orange"">","null","","","","","","","","","",""
"null","","html-keyboard-response","216","343816","0.0-216.0","3DI28L7YXB0AC6HN257XOMANSMT1ED","A2J51BI7XS5ZYU","3G9UA71JVVGUCOKNEKUVXTI6SA17JG","","","null","","","","","","","","","",""
"715.8999999761581","","image-keyboard-response","217","344535","0.0-217.0","3DI28L7YXB0AC6HN257XOMANSMT1ED","A2J51BI7XS5ZYU","3G9UA71JVVGUCOKNEKUVXTI6SA17JG","","img/set1/S2.jpg","68","2","random","68","random,structured_load,structured_normal,structured_incentive","2,3,4,2,1,2","4,2,3,1","true","","",""
"null","","html-keyboard-response","218","344892","0.0-218.0","3DI28L7YXB0AC6HN257XOMANSMT1ED","A2J51BI7XS5ZYU","3G9UA71JVVGUCOKNEKUVXTI6SA17JG","","<img src=""img/set1/S2.jpg"" width=""540"" height = ""360"" style=""border:16px solid orange"">","null","","","","","","","","","",""
"null","","html-keyboard-response","219","345108","0.0-219.0","3DI28L7YXB0AC6HN257XOMANSMT1ED","A2J51BI7XS5ZYU","3G9UA71JVVGUCOKNEKUVXTI6SA17JG","","","null","","","","","","","","","",""
"735.6999999880791","","image-keyboard-response","220","345846","0.0-220.0","3DI28L7YXB0AC6HN257XOMANSMT1ED","A2J51BI7XS5ZYU","3G9UA71JVVGUCOKNEKUVXTI6SA17JG","","img/set1/S1.jpg","74","1","random","83","random,structured_load,structured_normal,structured_incentive","2,3,4,2,1,2","4,2,3,1","false","","",""
"null","","html-keyboard-response","221","346217","0.0-221.0","3DI28L7YXB0AC6HN257XOMANSMT1ED","A2J51BI7XS5ZYU","3G9UA71JVVGUCOKNEKUVXTI6SA17JG","","<img src=""img/set1/S1.jpg"" width=""540"" height = ""360"">","null","","","","","","","","","",""
"null","","html-keyboard-response","222","346427","0.0-222.0","3DI28L7YXB0AC6HN257XOMANSMT1ED","A2J51BI7XS5ZYU","3G9UA71JVVGUCOKNEKUVXTI6SA17JG","","","null","","","","","","","","","",""
"1017.2999999523163","","image-keyboard-response","223","347447","0.0-223.0","3DI28L7YXB0AC6HN257XOMANSMT1ED","A2J51BI7XS5ZYU","3G9UA71JVVGUCOKNEKUVXTI6SA17JG","","img/set1/S3.jpg","72","3","random","72","random,structured_load,structured_normal,structured_incentive","2,3,4,2,1,2","4,2,3,1","true","","",""
"null","","html-keyboard-response","224","347816","0.0-224.0","3DI28L7YXB0AC6HN257XOMANSMT1ED","A2J51BI7XS5ZYU","3G9UA71JVVGUCOKNEKUVXTI6SA17JG","","<img src=""img/set1/S3.jpg"" width=""540"" height = ""360"" style=""border:16px solid orange"">","null","","","","","","","","","",""
"null","","html-keyboard-response","225","348019","0.0-225.0","3DI28L7YXB0AC6HN257XOMANSMT1ED","A2J51BI7XS5ZYU","3G9UA71JVVGUCOKNEKUVXTI6SA17JG","","","null","","","","","","","","","",""
"705.1000000238419","","image-keyboard-response","226","348728","0.0-226.0","3DI28L7YXB0AC6HN257XOMANSMT1ED","A2J51BI7XS5ZYU","3G9UA71JVVGUCOKNEKUVXTI6SA17JG","","img/set1/S4.jpg","74","4","random","74","random,structured_load,structured_normal,structured_incentive","2,3,4,2,1,2","4,2,3,1","true","","",""
"null","","html-keyboard-response","227","349084","0.0-227.0","3DI28L7YXB0AC6HN257XOMANSMT1ED","A2J51BI7XS5ZYU","3G9UA71JVVGUCOKNEKUVXTI6SA17JG","","<img src=""img/set1/S4.jpg"" width=""540"" height = ""360"" style=""border:16px solid orange"">","null","","","","","","","","","",""
"null","","html-keyboard-response","228","349301","0.0-228.0","3DI28L7YXB0AC6HN257XOMANSMT1ED","A2J51BI7XS5ZYU","3G9UA71JVVGUCOKNEKUVXTI6SA17JG","","","null","","","","","","","","","",""
"562.3999999761581","","image-keyboard-response","229","349866","0.0-229.0","3DI28L7YXB0AC6HN257XOMANSMT1ED","A2J51BI7XS5ZYU","3G9UA71JVVGUCOKNEKUVXTI6SA17JG","","img/set1/S1.jpg","68","1","random","83","random,structured_load,structured_normal,structured_incentive","2,3,4,2,1,2","4,2,3,1","false","","",""
"null","","html-keyboard-response","230","350230","0.0-230.0","3DI28L7YXB0AC6HN257XOMANSMT1ED","A2J51BI7XS5ZYU","3G9UA71JVVGUCOKNEKUVXTI6SA17JG","","<img src=""img/set1/S1.jpg"" width=""540"" height = ""360"">","null","","","","","","","","","",""
"null","","html-keyboard-response","231","350447","0.0-231.0","3DI28L7YXB0AC6HN257XOMANSMT1ED","A2J51BI7XS5ZYU","3G9UA71JVVGUCOKNEKUVXTI6SA17JG","","","null","","","","","","","","","",""
"567.9000000357628","","image-keyboard-response","232","351019","0.0-232.0","3DI28L7YXB0AC6HN257XOMANSMT1ED","A2J51BI7XS5ZYU","3G9UA71JVVGUCOKNEKUVXTI6SA17JG","","img/set1/S1.jpg","83","1","random","83","random,structured_load,structured_normal,structured_incentive","2,3,4,2,1,2","4,2,3,1","true","","",""
"null","","html-keyboard-response","233","351382","0.0-233.0","3DI28L7YXB0AC6HN257XOMANSMT1ED","A2J51BI7XS5ZYU","3G9UA71JVVGUCOKNEKUVXTI6SA17JG","","<img src=""img/set1/S1.jpg"" width=""540"" height = ""360"" style=""border:16px solid orange"">","null","","","","","","","","","",""
"null","","html-keyboard-response","234","351598","0.0-234.0","3DI28L7YXB0AC6HN257XOMANSMT1ED","A2J51BI7XS5ZYU","3G9UA71JVVGUCOKNEKUVXTI6SA17JG","","","null","","","","","","","","","",""
"1374.300000011921","","image-keyboard-response","235","352975","0.0-235.0","3DI28L7YXB0AC6HN257XOMANSMT1ED","A2J51BI7XS5ZYU","3G9UA71JVVGUCOKNEKUVXTI6SA17JG","","img/set1/S4.jpg","68","4","random","74","random,structured_load,structured_normal,structured_incentive","2,3,4,2,1,2","4,2,3,1","false","","",""
"null","","html-keyboard-response","236","353337","0.0-236.0","3DI28L7YXB0AC6HN257XOMANSMT1ED","A2J51BI7XS5ZYU","3G9UA71JVVGUCOKNEKUVXTI6SA17JG","","<img src=""img/set1/S4.jpg"" width=""540"" height = ""360"">","null","","","","","","","","","",""
"null","","html-keyboard-response","237","353546","0.0-237.0","3DI28L7YXB0AC6HN257XOMANSMT1ED","A2J51BI7XS5ZYU","3G9UA71JVVGUCOKNEKUVXTI6SA17JG","","","null","","","","","","","","","",""
"666.8000000119209","","image-keyboard-response","238","354216","0.0-238.0","3DI28L7YXB0AC6HN257XOMANSMT1ED","A2J51BI7XS5ZYU","3G9UA71JVVGUCOKNEKUVXTI6SA17JG","","img/set1/S4.jpg","74","4","random","74","random,structured_load,structured_normal,structured_incentive","2,3,4,2,1,2","4,2,3,1","true","","",""
"null","","html-keyboard-response","239","354584","0.0-239.0","3DI28L7YXB0AC6HN257XOMANSMT1ED","A2J51BI7XS5ZYU","3G9UA71JVVGUCOKNEKUVXTI6SA17JG","","<img src=""img/set1/S4.jpg"" width=""540"" height = ""360"" style=""border:16px solid orange"">","null","","","","","","","","","",""
"null","","html-keyboard-response","240","354802","0.0-240.0","3DI28L7YXB0AC6HN257XOMANSMT1ED","A2J51BI7XS5ZYU","3G9UA71JVVGUCOKNEKUVXTI6SA17JG","","","null","","","","","","","","","",""
"1042.300000011921","","image-keyboard-response","241","355849","0.0-241.0","3DI28L7YXB0AC6HN257XOMANSMT1ED","A2J51BI7XS5ZYU","3G9UA71JVVGUCOKNEKUVXTI6SA17JG","","img/set1/S1.jpg","83","1","random","83","random,structured_load,structured_normal,structured_incentive","2,3,4,2,1,2","4,2,3,1","true","","",""
"null","","html-keyboard-response","242","356218","0.0-242.0","3DI28L7YXB0AC6HN257XOMANSMT1ED","A2J51BI7XS5ZYU","3G9UA71JVVGUCOKNEKUVXTI6SA17JG","","<img src=""img/set1/S1.jpg"" width=""540"" height = ""360"" style=""border:16px solid orange"">","null","","","","","","","","","",""
"null","","html-keyboard-response","243","356424","0.0-243.0","3DI28L7YXB0AC6HN257XOMANSMT1ED","A2J51BI7XS5ZYU","3G9UA71JVVGUCOKNEKUVXTI6SA17JG","","","null","","","","","","","","","",""
"621.3000000119209","","image-keyboard-response","244","357048","0.0-244.0","3DI28L7YXB0AC6HN257XOMANSMT1ED","A2J51BI7XS5ZYU","3G9UA71JVVGUCOKNEKUVXTI6SA17JG","","img/set1/S1.jpg","83","1","random","83","random,structured_load,structured_normal,structured_incentive","2,3,4,2,1,2","4,2,3,1","true","","",""
"null","","html-keyboard-response","245","357415","0.0-245.0","3DI28L7YXB0AC6HN257XOMANSMT1ED","A2J51BI7XS5ZYU","3G9UA71JVVGUCOKNEKUVXTI6SA17JG","","<img src=""img/set1/S1.jpg"" width=""540"" height = ""360"" style=""border:16px solid orange"">","null","","","","","","","","","",""
"null","","html-keyboard-response","246","357619","0.0-246.0","3DI28L7YXB0AC6HN257XOMANSMT1ED","A2J51BI7XS5ZYU","3G9UA71JVVGUCOKNEKUVXTI6SA17JG","","","null","","","","","","","","","",""
"599.6000000238419","","image-keyboard-response","247","358223","0.0-247.0","3DI28L7YXB0AC6HN257XOMANSMT1ED","A2J51BI7XS5ZYU","3G9UA71JVVGUCOKNEKUVXTI6SA17JG","","img/set1/S1.jpg","83","1","random","83","random,structured_load,structured_normal,structured_incentive","2,3,4,2,1,2","4,2,3,1","true","","",""
"null","","html-keyboard-response","248","358581","0.0-248.0","3DI28L7YXB0AC6HN257XOMANSMT1ED","A2J51BI7XS5ZYU","3G9UA71JVVGUCOKNEKUVXTI6SA17JG","","<img src=""img/set1/S1.jpg"" width=""540"" height = ""360"" style=""border:16px solid orange"">","null","","","","","","","","","",""
"null","","html-keyboard-response","249","358798","0.0-249.0","3DI28L7YXB0AC6HN257XOMANSMT1ED","A2J51BI7XS5ZYU","3G9UA71JVVGUCOKNEKUVXTI6SA17JG","","","null","","","","","","","","","",""
"527","","image-keyboard-response","250","359328","0.0-250.0","3DI28L7YXB0AC6HN257XOMANSMT1ED","A2J51BI7XS5ZYU","3G9UA71JVVGUCOKNEKUVXTI6SA17JG","","img/set1/S1.jpg","83","1","random","83","random,structured_load,structured_normal,structured_incentive","2,3,4,2,1,2","4,2,3,1","true","","",""
"null","","html-keyboard-response","251","359686","0.0-251.0","3DI28L7YXB0AC6HN257XOMANSMT1ED","A2J51BI7XS5ZYU","3G9UA71JVVGUCOKNEKUVXTI6SA17JG","","<img src=""img/set1/S1.jpg"" width=""540"" height = ""360"" style=""border:16px solid orange"">","null","","","","","","","","","",""
"null","","html-keyboard-response","252","359903","0.0-252.0","3DI28L7YXB0AC6HN257XOMANSMT1ED","A2J51BI7XS5ZYU","3G9UA71JVVGUCOKNEKUVXTI6SA17JG","","","null","","","","","","","","","",""
"717","","image-keyboard-response","253","360624","0.0-253.0","3DI28L7YXB0AC6HN257XOMANSMT1ED","A2J51BI7XS5ZYU","3G9UA71JVVGUCOKNEKUVXTI6SA17JG","","img/set1/S4.jpg","74","4","random","74","random,structured_load,structured_normal,structured_incentive","2,3,4,2,1,2","4,2,3,1","true","","",""
"null","","html-keyboard-response","254","360980","0.0-254.0","3DI28L7YXB0AC6HN257XOMANSMT1ED","A2J51BI7XS5ZYU","3G9UA71JVVGUCOKNEKUVXTI6SA17JG","","<img src=""img/set1/S4.jpg"" width=""540"" height = ""360"" style=""border:16px solid orange"">","null","","","","","","","","","",""
"null","","html-keyboard-response","255","361195","0.0-255.0","3DI28L7YXB0AC6HN257XOMANSMT1ED","A2J51BI7XS5ZYU","3G9UA71JVVGUCOKNEKUVXTI6SA17JG","","","null","","","","","","","","","",""
"612.7000000476837","","image-keyboard-response","256","361811","0.0-256.0","3DI28L7YXB0AC6HN257XOMANSMT1ED","A2J51BI7XS5ZYU","3G9UA71JVVGUCOKNEKUVXTI6SA17JG","","img/set1/S1.jpg","83","1","random","83","random,structured_load,structured_normal,structured_incentive","2,3,4,2,1,2","4,2,3,1","true","","",""
"null","","html-keyboard-response","257","362180","0.0-257.0","3DI28L7YXB0AC6HN257XOMANSMT1ED","A2J51BI7XS5ZYU","3G9UA71JVVGUCOKNEKUVXTI6SA17JG","","<img src=""img/set1/S1.jpg"" width=""540"" height = ""360"" style=""border:16px solid orange"">","null","","","","","","","","","",""
"null","","html-keyboard-response","258","362382","0.0-258.0","3DI28L7YXB0AC6HN257XOMANSMT1ED","A2J51BI7XS5ZYU","3G9UA71JVVGUCOKNEKUVXTI6SA17JG","","","null","","","","","","","","","",""
"782","","image-keyboard-response","259","363168","0.0-259.0","3DI28L7YXB0AC6HN257XOMANSMT1ED","A2J51BI7XS5ZYU","3G9UA71JVVGUCOKNEKUVXTI6SA17JG","","img/set1/S3.jpg","72","3","random","72","random,structured_load,structured_normal,structured_incentive","2,3,4,2,1,2","4,2,3,1","true","","",""
"null","","html-keyboard-response","260","363533","0.0-260.0","3DI28L7YXB0AC6HN257XOMANSMT1ED","A2J51BI7XS5ZYU","3G9UA71JVVGUCOKNEKUVXTI6SA17JG","","<img src=""img/set1/S3.jpg"" width=""540"" height = ""360"" style=""border:16px solid orange"">","null","","","","","","","","","",""
"null","","html-keyboard-response","261","363750","0.0-261.0","3DI28L7YXB0AC6HN257XOMANSMT1ED","A2J51BI7XS5ZYU","3G9UA71JVVGUCOKNEKUVXTI6SA17JG","","","null","","","","","","","","","",""
"485.80000001192093","","image-keyboard-response","262","364238","0.0-262.0","3DI28L7YXB0AC6HN257XOMANSMT1ED","A2J51BI7XS5ZYU","3G9UA71JVVGUCOKNEKUVXTI6SA17JG","","img/set1/S3.jpg","72","3","random","72","random,structured_load,structured_normal,structured_incentive","2,3,4,2,1,2","4,2,3,1","true","","",""
"null","","html-keyboard-response","263","364606","0.0-263.0","3DI28L7YXB0AC6HN257XOMANSMT1ED","A2J51BI7XS5ZYU","3G9UA71JVVGUCOKNEKUVXTI6SA17JG","","<img src=""img/set1/S3.jpg"" width=""540"" height = ""360"" style=""border:16px solid orange"">","null","","","","","","","","","",""
"null","","html-keyboard-response","264","364823","0.0-264.0","3DI28L7YXB0AC6HN257XOMANSMT1ED","A2J51BI7XS5ZYU","3G9UA71JVVGUCOKNEKUVXTI6SA17JG","","","null","","","","","","","","","",""
"754","","image-keyboard-response","265","365583","0.0-265.0","3DI28L7YXB0AC6HN257XOMANSMT1ED","A2J51BI7XS5ZYU","3G9UA71JVVGUCOKNEKUVXTI6SA17JG","","img/set1/S1.jpg","83","1","random","83","random,structured_load,structured_normal,structured_incentive","2,3,4,2,1,2","4,2,3,1","true","","",""
"null","","html-keyboard-response","266","365943","0.0-266.0","3DI28L7YXB0AC6HN257XOMANSMT1ED","A2J51BI7XS5ZYU","3G9UA71JVVGUCOKNEKUVXTI6SA17JG","","<img src=""img/set1/S1.jpg"" width=""540"" height = ""360"" style=""border:16px solid orange"">","null","","","","","","","","","",""
"null","","html-keyboard-response","267","366162","0.0-267.0","3DI28L7YXB0AC6HN257XOMANSMT1ED","A2J51BI7XS5ZYU","3G9UA71JVVGUCOKNEKUVXTI6SA17JG","","","null","","","","","","","","","",""
"546.5","","image-keyboard-response","268","366712","0.0-268.0","3DI28L7YXB0AC6HN257XOMANSMT1ED","A2J51BI7XS5ZYU","3G9UA71JVVGUCOKNEKUVXTI6SA17JG","","img/set1/S3.jpg","72","3","random","72","random,structured_load,structured_normal,structured_incentive","2,3,4,2,1,2","4,2,3,1","true","","",""
"null","","html-keyboard-response","269","367081","0.0-269.0","3DI28L7YXB0AC6HN257XOMANSMT1ED","A2J51BI7XS5ZYU","3G9UA71JVVGUCOKNEKUVXTI6SA17JG","","<img src=""img/set1/S3.jpg"" width=""540"" height = ""360"" style=""border:16px solid orange"">","null","","","","","","","","","",""
"null","","html-keyboard-response","270","367284","0.0-270.0","3DI28L7YXB0AC6HN257XOMANSMT1ED","A2J51BI7XS5ZYU","3G9UA71JVVGUCOKNEKUVXTI6SA17JG","","","null","","","","","","","","","",""
"617.5999999642372","","image-keyboard-response","271","367904","0.0-271.0","3DI28L7YXB0AC6HN257XOMANSMT1ED","A2J51BI7XS5ZYU","3G9UA71JVVGUCOKNEKUVXTI6SA17JG","","img/set1/S1.jpg","83","1","random","83","random,structured_load,structured_normal,structured_incentive","2,3,4,2,1,2","4,2,3,1","true","","",""
"null","","html-keyboard-response","272","368264","0.0-272.0","3DI28L7YXB0AC6HN257XOMANSMT1ED","A2J51BI7XS5ZYU","3G9UA71JVVGUCOKNEKUVXTI6SA17JG","","<img src=""img/set1/S1.jpg"" width=""540"" height = ""360"" style=""border:16px solid orange"">","null","","","","","","","","","",""
"null","","html-keyboard-response","273","368487","0.0-273.0","3DI28L7YXB0AC6HN257XOMANSMT1ED","A2J51BI7XS5ZYU","3G9UA71JVVGUCOKNEKUVXTI6SA17JG","","","null","","","","","","","","","",""
"651.1999999880791","","image-keyboard-response","274","369168","0.0-274.0","3DI28L7YXB0AC6HN257XOMANSMT1ED","A2J51BI7XS5ZYU","3G9UA71JVVGUCOKNEKUVXTI6SA17JG","","img/set1/S3.jpg","72","3","random","72","random,structured_load,structured_normal,structured_incentive","2,3,4,2,1,2","4,2,3,1","true","","",""
"null","","html-keyboard-response","275","369537","0.0-275.0","3DI28L7YXB0AC6HN257XOMANSMT1ED","A2J51BI7XS5ZYU","3G9UA71JVVGUCOKNEKUVXTI6SA17JG","","<img src=""img/set1/S3.jpg"" width=""540"" height = ""360"" style=""border:16px solid orange"">","null","","","","","","","","","",""
"null","","html-keyboard-response","276","369741","0.0-276.0","3DI28L7YXB0AC6HN257XOMANSMT1ED","A2J51BI7XS5ZYU","3G9UA71JVVGUCOKNEKUVXTI6SA17JG","","","null","","","","","","","","","",""
"759.6000000238419","","image-keyboard-response","277","370504","0.0-277.0","3DI28L7YXB0AC6HN257XOMANSMT1ED","A2J51BI7XS5ZYU","3G9UA71JVVGUCOKNEKUVXTI6SA17JG","","img/set1/S4.jpg","74","4","random","74","random,structured_load,structured_normal,structured_incentive","2,3,4,2,1,2","4,2,3,1","true","","",""
"null","","html-keyboard-response","278","370861","0.0-278.0","3DI28L7YXB0AC6HN257XOMANSMT1ED","A2J51BI7XS5ZYU","3G9UA71JVVGUCOKNEKUVXTI6SA17JG","","<img src=""img/set1/S4.jpg"" width=""540"" height = ""360"" style=""border:16px solid orange"">","null","","","","","","","","","",""
"null","","html-keyboard-response","279","371080","0.0-279.0","3DI28L7YXB0AC6HN257XOMANSMT1ED","A2J51BI7XS5ZYU","3G9UA71JVVGUCOKNEKUVXTI6SA17JG","","","null","","","","","","","","","",""
"704.6999999880791","","image-keyboard-response","280","371791","0.0-280.0","3DI28L7YXB0AC6HN257XOMANSMT1ED","A2J51BI7XS5ZYU","3G9UA71JVVGUCOKNEKUVXTI6SA17JG","","img/set1/S1.jpg","83","1","random","83","random,structured_load,structured_normal,structured_incentive","2,3,4,2,1,2","4,2,3,1","true","","",""
"null","","html-keyboard-response","281","372153","0.0-281.0","3DI28L7YXB0AC6HN257XOMANSMT1ED","A2J51BI7XS5ZYU","3G9UA71JVVGUCOKNEKUVXTI6SA17JG","","<img src=""img/set1/S1.jpg"" width=""540"" height = ""360"" style=""border:16px solid orange"">","null","","","","","","","","","",""
"null","","html-keyboard-response","282","372355","0.0-282.0","3DI28L7YXB0AC6HN257XOMANSMT1ED","A2J51BI7XS5ZYU","3G9UA71JVVGUCOKNEKUVXTI6SA17JG","","","null","","","","","","","","","",""
"717.1999999880791","","image-keyboard-response","283","373075","0.0-283.0","3DI28L7YXB0AC6HN257XOMANSMT1ED","A2J51BI7XS5ZYU","3G9UA71JVVGUCOKNEKUVXTI6SA17JG","","img/set1/S2.jpg","68","2","random","68","random,structured_load,structured_normal,structured_incentive","2,3,4,2,1,2","4,2,3,1","true","","",""
"null","","html-keyboard-response","284","373440","0.0-284.0","3DI28L7YXB0AC6HN257XOMANSMT1ED","A2J51BI7XS5ZYU","3G9UA71JVVGUCOKNEKUVXTI6SA17JG","","<img src=""img/set1/S2.jpg"" width=""540"" height = ""360"" style=""border:16px solid orange"">","null","","","","","","","","","",""
"null","","html-keyboard-response","285","373649","0.0-285.0","3DI28L7YXB0AC6HN257XOMANSMT1ED","A2J51BI7XS5ZYU","3G9UA71JVVGUCOKNEKUVXTI6SA17JG","","","null","","","","","","","","","",""
"602.8999999761581","","image-keyboard-response","286","374255","0.0-286.0","3DI28L7YXB0AC6HN257XOMANSMT1ED","A2J51BI7XS5ZYU","3G9UA71JVVGUCOKNEKUVXTI6SA17JG","","img/set1/S1.jpg","83","1","random","83","random,structured_load,structured_normal,structured_incentive","2,3,4,2,1,2","4,2,3,1","true","","",""
"null","","html-keyboard-response","287","374611","0.0-287.0","3DI28L7YXB0AC6HN257XOMANSMT1ED","A2J51BI7XS5ZYU","3G9UA71JVVGUCOKNEKUVXTI6SA17JG","","<img src=""img/set1/S1.jpg"" width=""540"" height = ""360"" style=""border:16px solid orange"">","null","","","","","","","","","",""
"null","","html-keyboard-response","288","374829","0.0-288.0","3DI28L7YXB0AC6HN257XOMANSMT1ED","A2J51BI7XS5ZYU","3G9UA71JVVGUCOKNEKUVXTI6SA17JG","","","null","","","","","","","","","",""
"759.8000000119209","","image-keyboard-response","289","375592","0.0-289.0","3DI28L7YXB0AC6HN257XOMANSMT1ED","A2J51BI7XS5ZYU","3G9UA71JVVGUCOKNEKUVXTI6SA17JG","","img/set1/S2.jpg","68","2","random","68","random,structured_load,structured_normal,structured_incentive","2,3,4,2,1,2","4,2,3,1","true","","",""
"null","","html-keyboard-response","290","375959","0.0-290.0","3DI28L7YXB0AC6HN257XOMANSMT1ED","A2J51BI7XS5ZYU","3G9UA71JVVGUCOKNEKUVXTI6SA17JG","","<img src=""img/set1/S2.jpg"" width=""540"" height = ""360"" style=""border:16px solid orange"">","null","","","","","","","","","",""
"null","","html-keyboard-response","291","376175","0.0-291.0","3DI28L7YXB0AC6HN257XOMANSMT1ED","A2J51BI7XS5ZYU","3G9UA71JVVGUCOKNEKUVXTI6SA17JG","","","null","","","","","","","","","",""
"709.5","","image-keyboard-response","292","376888","0.0-292.0","3DI28L7YXB0AC6HN257XOMANSMT1ED","A2J51BI7XS5ZYU","3G9UA71JVVGUCOKNEKUVXTI6SA17JG","","img/set1/S4.jpg","74","4","random","74","random,structured_load,structured_normal,structured_incentive","2,3,4,2,1,2","4,2,3,1","true","","",""
"null","","html-keyboard-response","293","377247","0.0-293.0","3DI28L7YXB0AC6HN257XOMANSMT1ED","A2J51BI7XS5ZYU","3G9UA71JVVGUCOKNEKUVXTI6SA17JG","","<img src=""img/set1/S4.jpg"" width=""540"" height = ""360"" style=""border:16px solid orange"">","null","","","","","","","","","",""
"null","","html-keyboard-response","294","377465","0.0-294.0","3DI28L7YXB0AC6HN257XOMANSMT1ED","A2J51BI7XS5ZYU","3G9UA71JVVGUCOKNEKUVXTI6SA17JG","","","null","","","","","","","","","",""
"908.3999999761581","","image-keyboard-response","295","378377","0.0-295.0","3DI28L7YXB0AC6HN257XOMANSMT1ED","A2J51BI7XS5ZYU","3G9UA71JVVGUCOKNEKUVXTI6SA17JG","","img/set1/S2.jpg","68","2","random","68","random,structured_load,structured_normal,structured_incentive","2,3,4,2,1,2","4,2,3,1","true","","",""
"null","","html-keyboard-response","296","378740","0.0-296.0","3DI28L7YXB0AC6HN257XOMANSMT1ED","A2J51BI7XS5ZYU","3G9UA71JVVGUCOKNEKUVXTI6SA17JG","","<img src=""img/set1/S2.jpg"" width=""540"" height = ""360"" style=""border:16px solid orange"">","null","","","","","","","","","",""
"null","","html-keyboard-response","297","378957","0.0-297.0","3DI28L7YXB0AC6HN257XOMANSMT1ED","A2J51BI7XS5ZYU","3G9UA71JVVGUCOKNEKUVXTI6SA17JG","","","null","","","","","","","","","",""
"613.5","","image-keyboard-response","298","379576","0.0-298.0","3DI28L7YXB0AC6HN257XOMANSMT1ED","A2J51BI7XS5ZYU","3G9UA71JVVGUCOKNEKUVXTI6SA17JG","","img/set1/S1.jpg","83","1","random","83","random,structured_load,structured_normal,structured_incentive","2,3,4,2,1,2","4,2,3,1","true","","",""
"null","","html-keyboard-response","299","379941","0.0-299.0","3DI28L7YXB0AC6HN257XOMANSMT1ED","A2J51BI7XS5ZYU","3G9UA71JVVGUCOKNEKUVXTI6SA17JG","","<img src=""img/set1/S1.jpg"" width=""540"" height = ""360"" style=""border:16px solid orange"">","null","","","","","","","","","",""
"null","","html-keyboard-response","300","380153","0.0-300.0","3DI28L7YXB0AC6HN257XOMANSMT1ED","A2J51BI7XS5ZYU","3G9UA71JVVGUCOKNEKUVXTI6SA17JG","","","null","","","","","","","","","",""
"914.8999999761581","","image-keyboard-response","301","381072","0.0-301.0","3DI28L7YXB0AC6HN257XOMANSMT1ED","A2J51BI7XS5ZYU","3G9UA71JVVGUCOKNEKUVXTI6SA17JG","","img/set1/S4.jpg","74","4","random","74","random,structured_load,structured_normal,structured_incentive","2,3,4,2,1,2","4,2,3,1","true","","",""
"null","","html-keyboard-response","302","381441","0.0-302.0","3DI28L7YXB0AC6HN257XOMANSMT1ED","A2J51BI7XS5ZYU","3G9UA71JVVGUCOKNEKUVXTI6SA17JG","","<img src=""img/set1/S4.jpg"" width=""540"" height = ""360"" style=""border:16px solid orange"">","null","","","","","","","","","",""
"null","","html-keyboard-response","303","381646","0.0-303.0","3DI28L7YXB0AC6HN257XOMANSMT1ED","A2J51BI7XS5ZYU","3G9UA71JVVGUCOKNEKUVXTI6SA17JG","","","null","","","","","","","","","",""
"742.1000000238419","","image-keyboard-response","304","382392","0.0-304.0","3DI28L7YXB0AC6HN257XOMANSMT1ED","A2J51BI7XS5ZYU","3G9UA71JVVGUCOKNEKUVXTI6SA17JG","","img/set1/S1.jpg","83","1","random","83","random,structured_load,structured_normal,structured_incentive","2,3,4,2,1,2","4,2,3,1","true","","",""
"null","","html-keyboard-response","305","382750","0.0-305.0","3DI28L7YXB0AC6HN257XOMANSMT1ED","A2J51BI7XS5ZYU","3G9UA71JVVGUCOKNEKUVXTI6SA17JG","","<img src=""img/set1/S1.jpg"" width=""540"" height = ""360"" style=""border:16px solid orange"">","null","","","","","","","","","",""
"null","","html-keyboard-response","306","382953","0.0-306.0","3DI28L7YXB0AC6HN257XOMANSMT1ED","A2J51BI7XS5ZYU","3G9UA71JVVGUCOKNEKUVXTI6SA17JG","","","null","","","","","","","","","",""
"978.6999999880791","","image-keyboard-response","307","383937","0.0-307.0","3DI28L7YXB0AC6HN257XOMANSMT1ED","A2J51BI7XS5ZYU","3G9UA71JVVGUCOKNEKUVXTI6SA17JG","","img/set1/S3.jpg","74","3","random","72","random,structured_load,structured_normal,structured_incentive","2,3,4,2,1,2","4,2,3,1","false","","",""
"null","","html-keyboard-response","308","384301","0.0-308.0","3DI28L7YXB0AC6HN257XOMANSMT1ED","A2J51BI7XS5ZYU","3G9UA71JVVGUCOKNEKUVXTI6SA17JG","","<img src=""img/set1/S3.jpg"" width=""540"" height = ""360"">","null","","","","","","","","","",""
"null","","html-keyboard-response","309","384504","0.0-309.0","3DI28L7YXB0AC6HN257XOMANSMT1ED","A2J51BI7XS5ZYU","3G9UA71JVVGUCOKNEKUVXTI6SA17JG","","","null","","","","","","","","","",""
"740.5999999642372","","image-keyboard-response","310","385247","0.0-310.0","3DI28L7YXB0AC6HN257XOMANSMT1ED","A2J51BI7XS5ZYU","3G9UA71JVVGUCOKNEKUVXTI6SA17JG","","img/set1/S2.jpg","68","2","random","68","random,structured_load,structured_normal,structured_incentive","2,3,4,2,1,2","4,2,3,1","true","","",""
"null","","html-keyboard-response","311","385610","0.0-311.0","3DI28L7YXB0AC6HN257XOMANSMT1ED","A2J51BI7XS5ZYU","3G9UA71JVVGUCOKNEKUVXTI6SA17JG","","<img src=""img/set1/S2.jpg"" width=""540"" height = ""360"" style=""border:16px solid orange"">","null","","","","","","","","","",""
"null","","html-keyboard-response","312","385828","0.0-312.0","3DI28L7YXB0AC6HN257XOMANSMT1ED","A2J51BI7XS5ZYU","3G9UA71JVVGUCOKNEKUVXTI6SA17JG","","","null","","","","","","","","","",""
"1296","","image-keyboard-response","313","387126","0.0-313.0","3DI28L7YXB0AC6HN257XOMANSMT1ED","A2J51BI7XS5ZYU","3G9UA71JVVGUCOKNEKUVXTI6SA17JG","","img/set1/S3.jpg","72","3","random","72","random,structured_load,structured_normal,structured_incentive","2,3,4,2,1,2","4,2,3,1","true","","",""
"null","","html-keyboard-response","314","387490","0.0-314.0","3DI28L7YXB0AC6HN257XOMANSMT1ED","A2J51BI7XS5ZYU","3G9UA71JVVGUCOKNEKUVXTI6SA17JG","","<img src=""img/set1/S3.jpg"" width=""540"" height = ""360"" style=""border:16px solid orange"">","null","","","","","","","","","",""
"null","","html-keyboard-response","315","387708","0.0-315.0","3DI28L7YXB0AC6HN257XOMANSMT1ED","A2J51BI7XS5ZYU","3G9UA71JVVGUCOKNEKUVXTI6SA17JG","","","null","","","","","","","","","",""
"1241","","image-keyboard-response","316","388952","0.0-316.0","3DI28L7YXB0AC6HN257XOMANSMT1ED","A2J51BI7XS5ZYU","3G9UA71JVVGUCOKNEKUVXTI6SA17JG","","img/set1/S4.jpg","74","4","random","74","random,structured_load,structured_normal,structured_incentive","2,3,4,2,1,2","4,2,3,1","true","","",""
"null","","html-keyboard-response","317","389314","0.0-317.0","3DI28L7YXB0AC6HN257XOMANSMT1ED","A2J51BI7XS5ZYU","3G9UA71JVVGUCOKNEKUVXTI6SA17JG","","<img src=""img/set1/S4.jpg"" width=""540"" height = ""360"" style=""border:16px solid orange"">","null","","","","","","","","","",""
"null","","html-keyboard-response","318","389518","0.0-318.0","3DI28L7YXB0AC6HN257XOMANSMT1ED","A2J51BI7XS5ZYU","3G9UA71JVVGUCOKNEKUVXTI6SA17JG","","","null","","","","","","","","","",""
"758.5","","image-keyboard-response","319","390280","0.0-319.0","3DI28L7YXB0AC6HN257XOMANSMT1ED","A2J51BI7XS5ZYU","3G9UA71JVVGUCOKNEKUVXTI6SA17JG","","img/set1/S3.jpg","72","3","random","72","random,structured_load,structured_normal,structured_incentive","2,3,4,2,1,2","4,2,3,1","true","","",""
"null","","html-keyboard-response","320","390644","0.0-320.0","3DI28L7YXB0AC6HN257XOMANSMT1ED","A2J51BI7XS5ZYU","3G9UA71JVVGUCOKNEKUVXTI6SA17JG","","<img src=""img/set1/S3.jpg"" width=""540"" height = ""360"" style=""border:16px solid orange"">","null","","","","","","","","","",""
"null","","html-keyboard-response","321","390859","0.0-321.0","3DI28L7YXB0AC6HN257XOMANSMT1ED","A2J51BI7XS5ZYU","3G9UA71JVVGUCOKNEKUVXTI6SA17JG","","","null","","","","","","","","","",""
"609","","image-keyboard-response","322","391471","0.0-322.0","3DI28L7YXB0AC6HN257XOMANSMT1ED","A2J51BI7XS5ZYU","3G9UA71JVVGUCOKNEKUVXTI6SA17JG","","img/set1/S4.jpg","74","4","random","74","random,structured_load,structured_normal,structured_incentive","2,3,4,2,1,2","4,2,3,1","true","","",""
"null","","html-keyboard-response","323","391834","0.0-323.0","3DI28L7YXB0AC6HN257XOMANSMT1ED","A2J51BI7XS5ZYU","3G9UA71JVVGUCOKNEKUVXTI6SA17JG","","<img src=""img/set1/S4.jpg"" width=""540"" height = ""360"" style=""border:16px solid orange"">","null","","","","","","","","","",""
"null","","html-keyboard-response","324","392050","0.0-324.0","3DI28L7YXB0AC6HN257XOMANSMT1ED","A2J51BI7XS5ZYU","3G9UA71JVVGUCOKNEKUVXTI6SA17JG","","","null","","","","","","","","","",""
"866.5","","image-keyboard-response","325","392920","0.0-325.0","3DI28L7YXB0AC6HN257XOMANSMT1ED","A2J51BI7XS5ZYU","3G9UA71JVVGUCOKNEKUVXTI6SA17JG","","img/set1/S2.jpg","68","2","random","68","random,structured_load,structured_normal,structured_incentive","2,3,4,2,1,2","4,2,3,1","true","","",""
"null","","html-keyboard-response","326","393282","0.0-326.0","3DI28L7YXB0AC6HN257XOMANSMT1ED","A2J51BI7XS5ZYU","3G9UA71JVVGUCOKNEKUVXTI6SA17JG","","<img src=""img/set1/S2.jpg"" width=""540"" height = ""360"" style=""border:16px solid orange"">","null","","","","","","","","","",""
"null","","html-keyboard-response","327","393502","0.0-327.0","3DI28L7YXB0AC6HN257XOMANSMT1ED","A2J51BI7XS5ZYU","3G9UA71JVVGUCOKNEKUVXTI6SA17JG","","","null","","","","","","","","","",""
"505.5","","image-keyboard-response","328","394011","0.0-328.0","3DI28L7YXB0AC6HN257XOMANSMT1ED","A2J51BI7XS5ZYU","3G9UA71JVVGUCOKNEKUVXTI6SA17JG","","img/set1/S2.jpg","68","2","random","68","random,structured_load,structured_normal,structured_incentive","2,3,4,2,1,2","4,2,3,1","true","","",""
"null","","html-keyboard-response","329","394370","0.0-329.0","3DI28L7YXB0AC6HN257XOMANSMT1ED","A2J51BI7XS5ZYU","3G9UA71JVVGUCOKNEKUVXTI6SA17JG","","<img src=""img/set1/S2.jpg"" width=""540"" height = ""360"" style=""border:16px solid orange"">","null","","","","","","","","","",""
"null","","html-keyboard-response","330","394576","0.0-330.0","3DI28L7YXB0AC6HN257XOMANSMT1ED","A2J51BI7XS5ZYU","3G9UA71JVVGUCOKNEKUVXTI6SA17JG","","","null","","","","","","","","","",""
"492.30000001192093","","image-keyboard-response","331","395072","0.0-331.0","3DI28L7YXB0AC6HN257XOMANSMT1ED","A2J51BI7XS5ZYU","3G9UA71JVVGUCOKNEKUVXTI6SA17JG","","img/set1/S2.jpg","68","2","random","68","random,structured_load,structured_normal,structured_incentive","2,3,4,2,1,2","4,2,3,1","true","","",""
"null","","html-keyboard-response","332","395427","0.0-332.0","3DI28L7YXB0AC6HN257XOMANSMT1ED","A2J51BI7XS5ZYU","3G9UA71JVVGUCOKNEKUVXTI6SA17JG","","<img src=""img/set1/S2.jpg"" width=""540"" height = ""360"" style=""border:16px solid orange"">","null","","","","","","","","","",""
"null","","html-keyboard-response","333","395639","0.0-333.0","3DI28L7YXB0AC6HN257XOMANSMT1ED","A2J51BI7XS5ZYU","3G9UA71JVVGUCOKNEKUVXTI6SA17JG","","","null","","","","","","","","","",""
"789.5999999642372","","image-keyboard-response","334","396431","0.0-334.0","3DI28L7YXB0AC6HN257XOMANSMT1ED","A2J51BI7XS5ZYU","3G9UA71JVVGUCOKNEKUVXTI6SA17JG","","img/set1/S1.jpg","83","1","random","83","random,structured_load,structured_normal,structured_incentive","2,3,4,2,1,2","4,2,3,1","true","","",""
"null","","html-keyboard-response","335","396801","0.0-335.0","3DI28L7YXB0AC6HN257XOMANSMT1ED","A2J51BI7XS5ZYU","3G9UA71JVVGUCOKNEKUVXTI6SA17JG","","<img src=""img/set1/S1.jpg"" width=""540"" height = ""360"" style=""border:16px solid orange"">","null","","","","","","","","","",""
"null","","html-keyboard-response","336","397018","0.0-336.0","3DI28L7YXB0AC6HN257XOMANSMT1ED","A2J51BI7XS5ZYU","3G9UA71JVVGUCOKNEKUVXTI6SA17JG","","","null","","","","","","","","","",""
"769.4000000357628","","image-keyboard-response","337","397790","0.0-337.0","3DI28L7YXB0AC6HN257XOMANSMT1ED","A2J51BI7XS5ZYU","3G9UA71JVVGUCOKNEKUVXTI6SA17JG","","img/set1/S2.jpg","68","2","random","68","random,structured_load,structured_normal,structured_incentive","2,3,4,2,1,2","4,2,3,1","true","","",""
"null","","html-keyboard-response","338","398147","0.0-338.0","3DI28L7YXB0AC6HN257XOMANSMT1ED","A2J51BI7XS5ZYU","3G9UA71JVVGUCOKNEKUVXTI6SA17JG","","<img src=""img/set1/S2.jpg"" width=""540"" height = ""360"" style=""border:16px solid orange"">","null","","","","","","","","","",""
"null","","html-keyboard-response","339","398365","0.0-339.0","3DI28L7YXB0AC6HN257XOMANSMT1ED","A2J51BI7XS5ZYU","3G9UA71JVVGUCOKNEKUVXTI6SA17JG","","","null","","","","","","","","","",""
"615.5999999642372","","image-keyboard-response","340","398984","0.0-340.0","3DI28L7YXB0AC6HN257XOMANSMT1ED","A2J51BI7XS5ZYU","3G9UA71JVVGUCOKNEKUVXTI6SA17JG","","img/set1/S4.jpg","74","4","random","74","random,structured_load,structured_normal,structured_incentive","2,3,4,2,1,2","4,2,3,1","true","","",""
"null","","html-keyboard-response","341","399341","0.0-341.0","3DI28L7YXB0AC6HN257XOMANSMT1ED","A2J51BI7XS5ZYU","3G9UA71JVVGUCOKNEKUVXTI6SA17JG","","<img src=""img/set1/S4.jpg"" width=""540"" height = ""360"" style=""border:16px solid orange"">","null","","","","","","","","","",""
"null","","html-keyboard-response","342","399547","0.0-342.0","3DI28L7YXB0AC6HN257XOMANSMT1ED","A2J51BI7XS5ZYU","3G9UA71JVVGUCOKNEKUVXTI6SA17JG","","","null","","","","","","","","","",""
"777.3999999761581","","image-keyboard-response","343","400328","0.0-343.0","3DI28L7YXB0AC6HN257XOMANSMT1ED","A2J51BI7XS5ZYU","3G9UA71JVVGUCOKNEKUVXTI6SA17JG","","img/set1/S1.jpg","83","1","random","83","random,structured_load,structured_normal,structured_incentive","2,3,4,2,1,2","4,2,3,1","true","","",""
"null","","html-keyboard-response","344","400697","0.0-344.0","3DI28L7YXB0AC6HN257XOMANSMT1ED","A2J51BI7XS5ZYU","3G9UA71JVVGUCOKNEKUVXTI6SA17JG","","<img src=""img/set1/S1.jpg"" width=""540"" height = ""360"" style=""border:16px solid orange"">","null","","","","","","","","","",""
"null","","html-keyboard-response","345","400905","0.0-345.0","3DI28L7YXB0AC6HN257XOMANSMT1ED","A2J51BI7XS5ZYU","3G9UA71JVVGUCOKNEKUVXTI6SA17JG","","","null","","","","","","","","","",""
"708.2999999523163","","image-keyboard-response","346","401616","0.0-346.0","3DI28L7YXB0AC6HN257XOMANSMT1ED","A2J51BI7XS5ZYU","3G9UA71JVVGUCOKNEKUVXTI6SA17JG","","img/set1/S4.jpg","74","4","random","74","random,structured_load,structured_normal,structured_incentive","2,3,4,2,1,2","4,2,3,1","true","","",""
"null","","html-keyboard-response","347","401978","0.0-347.0","3DI28L7YXB0AC6HN257XOMANSMT1ED","A2J51BI7XS5ZYU","3G9UA71JVVGUCOKNEKUVXTI6SA17JG","","<img src=""img/set1/S4.jpg"" width=""540"" height = ""360"" style=""border:16px solid orange"">","null","","","","","","","","","",""
"null","","html-keyboard-response","348","402193","0.0-348.0","3DI28L7YXB0AC6HN257XOMANSMT1ED","A2J51BI7XS5ZYU","3G9UA71JVVGUCOKNEKUVXTI6SA17JG","","","null","","","","","","","","","",""
"724","","image-keyboard-response","349","402920","0.0-349.0","3DI28L7YXB0AC6HN257XOMANSMT1ED","A2J51BI7XS5ZYU","3G9UA71JVVGUCOKNEKUVXTI6SA17JG","","img/set1/S1.jpg","83","1","random","83","random,structured_load,structured_normal,structured_incentive","2,3,4,2,1,2","4,2,3,1","true","","",""
"null","","html-keyboard-response","350","403285","0.0-350.0","3DI28L7YXB0AC6HN257XOMANSMT1ED","A2J51BI7XS5ZYU","3G9UA71JVVGUCOKNEKUVXTI6SA17JG","","<img src=""img/set1/S1.jpg"" width=""540"" height = ""360"" style=""border:16px solid orange"">","null","","","","","","","","","",""
"null","","html-keyboard-response","351","403503","0.0-351.0","3DI28L7YXB0AC6HN257XOMANSMT1ED","A2J51BI7XS5ZYU","3G9UA71JVVGUCOKNEKUVXTI6SA17JG","","","null","","","","","","","","","",""
"658.1999999880791","","image-keyboard-response","352","404163","0.0-352.0","3DI28L7YXB0AC6HN257XOMANSMT1ED","A2J51BI7XS5ZYU","3G9UA71JVVGUCOKNEKUVXTI6SA17JG","","img/set1/S1.jpg","83","1","random","83","random,structured_load,structured_normal,structured_incentive","2,3,4,2,1,2","4,2,3,1","true","","",""
"null","","html-keyboard-response","353","404524","0.0-353.0","3DI28L7YXB0AC6HN257XOMANSMT1ED","A2J51BI7XS5ZYU","3G9UA71JVVGUCOKNEKUVXTI6SA17JG","","<img src=""img/set1/S1.jpg"" width=""540"" height = ""360"" style=""border:16px solid orange"">","null","","","","","","","","","",""
"null","","html-keyboard-response","354","404746","0.0-354.0","3DI28L7YXB0AC6HN257XOMANSMT1ED","A2J51BI7XS5ZYU","3G9UA71JVVGUCOKNEKUVXTI6SA17JG","","","null","","","","","","","","","",""
"1258.0999999642372","","image-keyboard-response","355","406008","0.0-355.0","3DI28L7YXB0AC6HN257XOMANSMT1ED","A2J51BI7XS5ZYU","3G9UA71JVVGUCOKNEKUVXTI6SA17JG","","img/set1/S2.jpg","68","2","random","68","random,structured_load,structured_normal,structured_incentive","2,3,4,2,1,2","4,2,3,1","true","","",""
"null","","html-keyboard-response","356","406371","0.0-356.0","3DI28L7YXB0AC6HN257XOMANSMT1ED","A2J51BI7XS5ZYU","3G9UA71JVVGUCOKNEKUVXTI6SA17JG","","<img src=""img/set1/S2.jpg"" width=""540"" height = ""360"" style=""border:16px solid orange"">","null","","","","","","","","","",""
"null","","html-keyboard-response","357","406578","0.0-357.0","3DI28L7YXB0AC6HN257XOMANSMT1ED","A2J51BI7XS5ZYU","3G9UA71JVVGUCOKNEKUVXTI6SA17JG","","","null","","","","","","","","","",""
"755.8999999761581","","image-keyboard-response","358","407337","0.0-358.0","3DI28L7YXB0AC6HN257XOMANSMT1ED","A2J51BI7XS5ZYU","3G9UA71JVVGUCOKNEKUVXTI6SA17JG","","img/set1/S1.jpg","83","1","random","83","random,structured_load,structured_normal,structured_incentive","2,3,4,2,1,2","4,2,3,1","true","","",""
"null","","html-keyboard-response","359","407697","0.0-359.0","3DI28L7YXB0AC6HN257XOMANSMT1ED","A2J51BI7XS5ZYU","3G9UA71JVVGUCOKNEKUVXTI6SA17JG","","<img src=""img/set1/S1.jpg"" width=""540"" height = ""360"" style=""border:16px solid orange"">","null","","","","","","","","","",""
"null","","html-keyboard-response","360","407916","0.0-360.0","3DI28L7YXB0AC6HN257XOMANSMT1ED","A2J51BI7XS5ZYU","3G9UA71JVVGUCOKNEKUVXTI6SA17JG","","","null","","","","","","","","","",""
"1212.7000000476837","","image-keyboard-response","361","409136","0.0-361.0","3DI28L7YXB0AC6HN257XOMANSMT1ED","A2J51BI7XS5ZYU","3G9UA71JVVGUCOKNEKUVXTI6SA17JG","","img/set1/S3.jpg","72","3","random","72","random,structured_load,structured_normal,structured_incentive","2,3,4,2,1,2","4,2,3,1","true","","",""
"null","","html-keyboard-response","362","409492","0.0-362.0","3DI28L7YXB0AC6HN257XOMANSMT1ED","A2J51BI7XS5ZYU","3G9UA71JVVGUCOKNEKUVXTI6SA17JG","","<img src=""img/set1/S3.jpg"" width=""540"" height = ""360"" style=""border:16px solid orange"">","null","","","","","","","","","",""
"null","","html-keyboard-response","363","409708","0.0-363.0","3DI28L7YXB0AC6HN257XOMANSMT1ED","A2J51BI7XS5ZYU","3G9UA71JVVGUCOKNEKUVXTI6SA17JG","","","null","","","","","","","","","",""
"807.8000000119209","","image-keyboard-response","364","410519","0.0-364.0","3DI28L7YXB0AC6HN257XOMANSMT1ED","A2J51BI7XS5ZYU","3G9UA71JVVGUCOKNEKUVXTI6SA17JG","","img/set1/S1.jpg","83","1","random","83","random,structured_load,structured_normal,structured_incentive","2,3,4,2,1,2","4,2,3,1","true","","",""
"null","","html-keyboard-response","365","410873","0.0-365.0","3DI28L7YXB0AC6HN257XOMANSMT1ED","A2J51BI7XS5ZYU","3G9UA71JVVGUCOKNEKUVXTI6SA17JG","","<img src=""img/set1/S1.jpg"" width=""540"" height = ""360"" style=""border:16px solid orange"">","null","","","","","","","","","",""
"null","","html-keyboard-response","366","411086","0.0-366.0","3DI28L7YXB0AC6HN257XOMANSMT1ED","A2J51BI7XS5ZYU","3G9UA71JVVGUCOKNEKUVXTI6SA17JG","","","null","","","","","","","","","",""
"558.3000000119209","","image-keyboard-response","367","411648","0.0-367.0","3DI28L7YXB0AC6HN257XOMANSMT1ED","A2J51BI7XS5ZYU","3G9UA71JVVGUCOKNEKUVXTI6SA17JG","","img/set1/S1.jpg","83","1","random","83","random,structured_load,structured_normal,structured_incentive","2,3,4,2,1,2","4,2,3,1","true","","",""
"null","","html-keyboard-response","368","412006","0.0-368.0","3DI28L7YXB0AC6HN257XOMANSMT1ED","A2J51BI7XS5ZYU","3G9UA71JVVGUCOKNEKUVXTI6SA17JG","","<img src=""img/set1/S1.jpg"" width=""540"" height = ""360"" style=""border:16px solid orange"">","null","","","","","","","","","",""
"null","","html-keyboard-response","369","412227","0.0-369.0","3DI28L7YXB0AC6HN257XOMANSMT1ED","A2J51BI7XS5ZYU","3G9UA71JVVGUCOKNEKUVXTI6SA17JG","","","null","","","","","","","","","",""
"594.6999999880791","","image-keyboard-response","370","412824","0.0-370.0","3DI28L7YXB0AC6HN257XOMANSMT1ED","A2J51BI7XS5ZYU","3G9UA71JVVGUCOKNEKUVXTI6SA17JG","","img/set1/S3.jpg","72","3","random","72","random,structured_load,structured_normal,structured_incentive","2,3,4,2,1,2","4,2,3,1","true","","",""
"null","","html-keyboard-response","371","413183","0.0-371.0","3DI28L7YXB0AC6HN257XOMANSMT1ED","A2J51BI7XS5ZYU","3G9UA71JVVGUCOKNEKUVXTI6SA17JG","","<img src=""img/set1/S3.jpg"" width=""540"" height = ""360"" style=""border:16px solid orange"">","null","","","","","","","","","",""
"null","","html-keyboard-response","372","413399","0.0-372.0","3DI28L7YXB0AC6HN257XOMANSMT1ED","A2J51BI7XS5ZYU","3G9UA71JVVGUCOKNEKUVXTI6SA17JG","","","null","","","","","","","","","",""
"517.9000000357628","","image-keyboard-response","373","413920","0.0-373.0","3DI28L7YXB0AC6HN257XOMANSMT1ED","A2J51BI7XS5ZYU","3G9UA71JVVGUCOKNEKUVXTI6SA17JG","","img/set1/S3.jpg","72","3","random","72","random,structured_load,structured_normal,structured_incentive","2,3,4,2,1,2","4,2,3,1","true","","",""
"null","","html-keyboard-response","374","414287","0.0-374.0","3DI28L7YXB0AC6HN257XOMANSMT1ED","A2J51BI7XS5ZYU","3G9UA71JVVGUCOKNEKUVXTI6SA17JG","","<img src=""img/set1/S3.jpg"" width=""540"" height = ""360"" style=""border:16px solid orange"">","null","","","","","","","","","",""
"null","","html-keyboard-response","375","414502","0.0-375.0","3DI28L7YXB0AC6HN257XOMANSMT1ED","A2J51BI7XS5ZYU","3G9UA71JVVGUCOKNEKUVXTI6SA17JG","","","null","","","","","","","","","",""
"497.7999999523163","","image-keyboard-response","376","415003","0.0-376.0","3DI28L7YXB0AC6HN257XOMANSMT1ED","A2J51BI7XS5ZYU","3G9UA71JVVGUCOKNEKUVXTI6SA17JG","","img/set1/S4.jpg","74","4","random","74","random,structured_load,structured_normal,structured_incentive","2,3,4,2,1,2","4,2,3,1","true","","",""
"null","","html-keyboard-response","377","415375","0.0-377.0","3DI28L7YXB0AC6HN257XOMANSMT1ED","A2J51BI7XS5ZYU","3G9UA71JVVGUCOKNEKUVXTI6SA17JG","","<img src=""img/set1/S4.jpg"" width=""540"" height = ""360"" style=""border:16px solid orange"">","null","","","","","","","","","",""
"null","","html-keyboard-response","378","415588","0.0-378.0","3DI28L7YXB0AC6HN257XOMANSMT1ED","A2J51BI7XS5ZYU","3G9UA71JVVGUCOKNEKUVXTI6SA17JG","","","null","","","","","","","","","",""
"737.8999999761581","","image-keyboard-response","379","416328","0.0-379.0","3DI28L7YXB0AC6HN257XOMANSMT1ED","A2J51BI7XS5ZYU","3G9UA71JVVGUCOKNEKUVXTI6SA17JG","","img/set1/S1.jpg","83","1","random","83","random,structured_load,structured_normal,structured_incentive","2,3,4,2,1,2","4,2,3,1","true","","",""
"null","","html-keyboard-response","380","416685","0.0-380.0","3DI28L7YXB0AC6HN257XOMANSMT1ED","A2J51BI7XS5ZYU","3G9UA71JVVGUCOKNEKUVXTI6SA17JG","","<img src=""img/set1/S1.jpg"" width=""540"" height = ""360"" style=""border:16px solid orange"">","null","","","","","","","","","",""
"null","","html-keyboard-response","381","416889","0.0-381.0","3DI28L7YXB0AC6HN257XOMANSMT1ED","A2J51BI7XS5ZYU","3G9UA71JVVGUCOKNEKUVXTI6SA17JG","","","null","","","","","","","","","",""
"490.69999998807907","","image-keyboard-response","382","417384","0.0-382.0","3DI28L7YXB0AC6HN257XOMANSMT1ED","A2J51BI7XS5ZYU","3G9UA71JVVGUCOKNEKUVXTI6SA17JG","","img/set1/S1.jpg","83","1","random","83","random,structured_load,structured_normal,structured_incentive","2,3,4,2,1,2","4,2,3,1","true","","",""
"null","","html-keyboard-response","383","417740","0.0-383.0","3DI28L7YXB0AC6HN257XOMANSMT1ED","A2J51BI7XS5ZYU","3G9UA71JVVGUCOKNEKUVXTI6SA17JG","","<img src=""img/set1/S1.jpg"" width=""540"" height = ""360"" style=""border:16px solid orange"">","null","","","","","","","","","",""
"null","","html-keyboard-response","384","417956","0.0-384.0","3DI28L7YXB0AC6HN257XOMANSMT1ED","A2J51BI7XS5ZYU","3G9UA71JVVGUCOKNEKUVXTI6SA17JG","","","null","","","","","","","","","",""
"592.1999999880791","","image-keyboard-response","385","418550","0.0-385.0","3DI28L7YXB0AC6HN257XOMANSMT1ED","A2J51BI7XS5ZYU","3G9UA71JVVGUCOKNEKUVXTI6SA17JG","","img/set1/S3.jpg","72","3","random","72","random,structured_load,structured_normal,structured_incentive","2,3,4,2,1,2","4,2,3,1","true","","",""
"null","","html-keyboard-response","386","418911","0.0-386.0","3DI28L7YXB0AC6HN257XOMANSMT1ED","A2J51BI7XS5ZYU","3G9UA71JVVGUCOKNEKUVXTI6SA17JG","","<img src=""img/set1/S3.jpg"" width=""540"" height = ""360"" style=""border:16px solid orange"">","null","","","","","","","","","",""
"null","","html-keyboard-response","387","419128","0.0-387.0","3DI28L7YXB0AC6HN257XOMANSMT1ED","A2J51BI7XS5ZYU","3G9UA71JVVGUCOKNEKUVXTI6SA17JG","","","null","","","","","","","","","",""
"733","","image-keyboard-response","388","419864","0.0-388.0","3DI28L7YXB0AC6HN257XOMANSMT1ED","A2J51BI7XS5ZYU","3G9UA71JVVGUCOKNEKUVXTI6SA17JG","","img/set1/S1.jpg","83","1","random","83","random,structured_load,structured_normal,structured_incentive","2,3,4,2,1,2","4,2,3,1","true","","",""
"null","","html-keyboard-response","389","420233","0.0-389.0","3DI28L7YXB0AC6HN257XOMANSMT1ED","A2J51BI7XS5ZYU","3G9UA71JVVGUCOKNEKUVXTI6SA17JG","","<img src=""img/set1/S1.jpg"" width=""540"" height = ""360"" style=""border:16px solid orange"">","null","","","","","","","","","",""
"null","","html-keyboard-response","390","420450","0.0-390.0","3DI28L7YXB0AC6HN257XOMANSMT1ED","A2J51BI7XS5ZYU","3G9UA71JVVGUCOKNEKUVXTI6SA17JG","","","null","","","","","","","","","",""
