"rt","url","trial_type","trial_index","time_elapsed","internal_node_id","view_history","stimulus","key_press","state","test_part","correct_response","order_block","order_chunk","correct","responses","bonus"
"50486","consent.html","external-html","0","51662","0.0-0.0","","","","","","","","","","",""
"97032","","instructions","1","148696","0.0-1.0","[{""page_index"":0,""viewing_time"":7125},{""page_index"":1,""viewing_time"":6657},{""page_index"":2,""viewing_time"":2874},{""page_index"":3,""viewing_time"":12277},{""page_index"":4,""viewing_time"":7424},{""page_index"":5,""viewing_time"":2969},{""page_index"":6,""viewing_time"":22649},{""page_index"":5,""viewing_time"":8774},{""page_index"":4,""viewing_time"":2337},{""page_index"":3,""viewing_time"":17759},{""page_index"":4,""viewing_time"":1585},{""page_index"":5,""viewing_time"":1399},{""page_index"":6,""viewing_time"":3202}]","","","","","","","","","",""
"8749","","instructions","2","157447","0.0-2.0","[{""page_index"":0,""viewing_time"":8748}]","","","","","","","","","",""
"1757","","instructions","3","159206","0.0-3.0","[{""page_index"":0,""viewing_time"":1757}]","","","","","","","","","",""
"1743","","image-keyboard-response","4","160950","0.0-4.0","","img/set1/S1.jpg","68","1","random","83","random,structured_load,structured_normal,structured_incentive","3,4,2,1,2,3","false","",""
"null","","html-keyboard-response","5","161301","0.0-5.0","","<img src=""img/set1/S1.jpg"" width=""540"" height = ""360"">","null","","","","","","","",""
"null","","html-keyboard-response","6","161513","0.0-6.0","","","null","","","","","","","",""
"1273","","image-keyboard-response","7","162788","0.0-7.0","","img/set1/S2.jpg","72","2","random","68","random,structured_load,structured_normal,structured_incentive","3,4,2,1,2,3","false","",""
"null","","html-keyboard-response","8","163144","0.0-8.0","","<img src=""img/set1/S2.jpg"" width=""540"" height = ""360"">","null","","","","","","","",""
"null","","html-keyboard-response","9","163345","0.0-9.0","","","null","","","","","","","",""
"925","","image-keyboard-response","10","164283","0.0-10.0","","img/set1/S3.jpg","83","3","random","72","random,structured_load,structured_normal,structured_incentive","3,4,2,1,2,3","false","",""
"null","","html-keyboard-response","11","164649","0.0-11.0","","<img src=""img/set1/S3.jpg"" width=""540"" height = ""360"">","null","","","","","","","",""
"null","","html-keyboard-response","12","164857","0.0-12.0","","","null","","","","","","","",""
"540","","image-keyboard-response","13","165398","0.0-13.0","","img/set1/S2.jpg","72","2","random","68","random,structured_load,structured_normal,structured_incentive","3,4,2,1,2,3","false","",""
"null","","html-keyboard-response","14","165750","0.0-14.0","","<img src=""img/set1/S2.jpg"" width=""540"" height = ""360"">","null","","","","","","","",""
"null","","html-keyboard-response","15","165951","0.0-15.0","","","null","","","","","","","",""
"647","","image-keyboard-response","16","166613","0.0-16.0","","img/set1/S4.jpg","83","4","random","74","random,structured_load,structured_normal,structured_incentive","3,4,2,1,2,3","false","",""
"null","","html-keyboard-response","17","166976","0.0-17.0","","<img src=""img/set1/S4.jpg"" width=""540"" height = ""360"">","null","","","","","","","",""
"null","","html-keyboard-response","18","167214","0.0-18.0","","","null","","","","","","","",""
"895","","image-keyboard-response","19","168114","0.0-19.0","","img/set1/S3.jpg","68","3","random","72","random,structured_load,structured_normal,structured_incentive","3,4,2,1,2,3","false","",""
"null","","html-keyboard-response","20","168467","0.0-20.0","","<img src=""img/set1/S3.jpg"" width=""540"" height = ""360"">","null","","","","","","","",""
"null","","html-keyboard-response","21","168670","0.0-21.0","","","null","","","","","","","",""
"556","","image-keyboard-response","22","169232","0.0-22.0","","img/set1/S3.jpg","83","3","random","72","random,structured_load,structured_normal,structured_incentive","3,4,2,1,2,3","false","",""
"null","","html-keyboard-response","23","169592","0.0-23.0","","<img src=""img/set1/S3.jpg"" width=""540"" height = ""360"">","null","","","","","","","",""
"null","","html-keyboard-response","24","169807","0.0-24.0","","","null","","","","","","","",""
"null","","image-keyboard-response","25","172316","0.0-25.0","","img/set1/S3.jpg","null","3","random","72","random,structured_load,structured_normal,structured_incentive","3,4,2,1,2,3","false","",""
"null","","html-keyboard-response","26","172670","0.0-26.0","","<img src=""img/set1/S3.jpg"" width=""540"" height = ""360"">","null","","","","","","","",""
"null","","html-keyboard-response","27","172873","0.0-27.0","","","null","","","","","","","",""
"1208","","image-keyboard-response","28","174093","0.0-28.0","","img/set1/S4.jpg","72","4","random","74","random,structured_load,structured_normal,structured_incentive","3,4,2,1,2,3","false","",""
"null","","html-keyboard-response","29","174457","0.0-29.0","","<img src=""img/set1/S4.jpg"" width=""540"" height = ""360"">","null","","","","","","","",""
"null","","html-keyboard-response","30","174681","0.0-30.0","","","null","","","","","","","",""
"1083","","image-keyboard-response","31","175807","0.0-31.0","","img/set1/S2.jpg","68","2","random","68","random,structured_load,structured_normal,structured_incentive","3,4,2,1,2,3","true","",""
"null","","html-keyboard-response","32","176160","0.0-32.0","","<img src=""img/set1/S2.jpg"" width=""540"" height = ""360"" style=""border:16px solid orange"">","null","","","","","","","",""
"null","","html-keyboard-response","33","176373","0.0-33.0","","","null","","","","","","","",""
"753","","image-keyboard-response","34","177127","0.0-34.0","","img/set1/S2.jpg","72","2","random","68","random,structured_load,structured_normal,structured_incentive","3,4,2,1,2,3","false","",""
"null","","html-keyboard-response","35","177479","0.0-35.0","","<img src=""img/set1/S2.jpg"" width=""540"" height = ""360"">","null","","","","","","","",""
"null","","html-keyboard-response","36","177679","0.0-36.0","","","null","","","","","","","",""
"708","","image-keyboard-response","37","178396","0.0-37.0","","img/set1/S3.jpg","83","3","random","72","random,structured_load,structured_normal,structured_incentive","3,4,2,1,2,3","false","",""
"null","","html-keyboard-response","38","178750","0.0-38.0","","<img src=""img/set1/S3.jpg"" width=""540"" height = ""360"">","null","","","","","","","",""
"null","","html-keyboard-response","39","178959","0.0-39.0","","","null","","","","","","","",""
"1578","","image-keyboard-response","40","180538","0.0-40.0","","img/set1/S1.jpg","72","1","random","83","random,structured_load,structured_normal,structured_incentive","3,4,2,1,2,3","false","",""
"null","","html-keyboard-response","41","180898","0.0-41.0","","<img src=""img/set1/S1.jpg"" width=""540"" height = ""360"">","null","","","","","","","",""
"null","","html-keyboard-response","42","181098","0.0-42.0","","","null","","","","","","","",""
"808","","image-keyboard-response","43","181908","0.0-43.0","","img/set1/S3.jpg","68","3","random","72","random,structured_load,structured_normal,structured_incentive","3,4,2,1,2,3","false","",""
"null","","html-keyboard-response","44","182260","0.0-44.0","","<img src=""img/set1/S3.jpg"" width=""540"" height = ""360"">","null","","","","","","","",""
"null","","html-keyboard-response","45","182461","0.0-45.0","","","null","","","","","","","",""
"1775","","image-keyboard-response","46","184238","0.0-46.0","","img/set1/S4.jpg","83","4","random","74","random,structured_load,structured_normal,structured_incentive","3,4,2,1,2,3","false","",""
"null","","html-keyboard-response","47","184589","0.0-47.0","","<img src=""img/set1/S4.jpg"" width=""540"" height = ""360"">","null","","","","","","","",""
"null","","html-keyboard-response","48","184789","0.0-48.0","","","null","","","","","","","",""
"716","","image-keyboard-response","49","185505","0.0-49.0","","img/set1/S3.jpg","83","3","random","72","random,structured_load,structured_normal,structured_incentive","3,4,2,1,2,3","false","",""
"null","","html-keyboard-response","50","185856","0.0-50.0","","<img src=""img/set1/S3.jpg"" width=""540"" height = ""360"">","null","","","","","","","",""
"null","","html-keyboard-response","51","186057","0.0-51.0","","","null","","","","","","","",""
"504","","image-keyboard-response","52","186562","0.0-52.0","","img/set1/S3.jpg","72","3","random","72","random,structured_load,structured_normal,structured_incentive","3,4,2,1,2,3","true","",""
"null","","html-keyboard-response","53","186913","0.0-53.0","","<img src=""img/set1/S3.jpg"" width=""540"" height = ""360"" style=""border:16px solid orange"">","null","","","","","","","",""
"null","","html-keyboard-response","54","187113","0.0-54.0","","","null","","","","","","","",""
"631","","image-keyboard-response","55","187746","0.0-55.0","","img/set1/S2.jpg","83","2","random","68","random,structured_load,structured_normal,structured_incentive","3,4,2,1,2,3","false","",""
"null","","html-keyboard-response","56","188098","0.0-56.0","","<img src=""img/set1/S2.jpg"" width=""540"" height = ""360"">","null","","","","","","","",""
"null","","html-keyboard-response","57","188299","0.0-57.0","","","null","","","","","","","",""
"592","","image-keyboard-response","58","188893","0.0-58.0","","img/set1/S4.jpg","83","4","random","74","random,structured_load,structured_normal,structured_incentive","3,4,2,1,2,3","false","",""
"null","","html-keyboard-response","59","189248","0.0-59.0","","<img src=""img/set1/S4.jpg"" width=""540"" height = ""360"">","null","","","","","","","",""
"null","","html-keyboard-response","60","189453","0.0-60.0","","","null","","","","","","","",""
"591","","image-keyboard-response","61","190056","0.0-61.0","","img/set1/S1.jpg","72","1","random","83","random,structured_load,structured_normal,structured_incentive","3,4,2,1,2,3","false","",""
"null","","html-keyboard-response","62","190410","0.0-62.0","","<img src=""img/set1/S1.jpg"" width=""540"" height = ""360"">","null","","","","","","","",""
"null","","html-keyboard-response","63","190625","0.0-63.0","","","null","","","","","","","",""
"623","","image-keyboard-response","64","191249","0.0-64.0","","img/set1/S3.jpg","83","3","random","72","random,structured_load,structured_normal,structured_incentive","3,4,2,1,2,3","false","",""
"null","","html-keyboard-response","65","191601","0.0-65.0","","<img src=""img/set1/S3.jpg"" width=""540"" height = ""360"">","null","","","","","","","",""
"null","","html-keyboard-response","66","191803","0.0-66.0","","","null","","","","","","","",""
"472","","image-keyboard-response","67","192276","0.0-67.0","","img/set1/S2.jpg","72","2","random","68","random,structured_load,structured_normal,structured_incentive","3,4,2,1,2,3","false","",""
"null","","html-keyboard-response","68","192628","0.0-68.0","","<img src=""img/set1/S2.jpg"" width=""540"" height = ""360"">","null","","","","","","","",""
"null","","html-keyboard-response","69","192842","0.0-69.0","","","null","","","","","","","",""
"621","","image-keyboard-response","70","193478","0.0-70.0","","img/set1/S2.jpg","83","2","random","68","random,structured_load,structured_normal,structured_incentive","3,4,2,1,2,3","false","",""
"null","","html-keyboard-response","71","193831","0.0-71.0","","<img src=""img/set1/S2.jpg"" width=""540"" height = ""360"">","null","","","","","","","",""
"null","","html-keyboard-response","72","194032","0.0-72.0","","","null","","","","","","","",""
"670","","image-keyboard-response","73","194704","0.0-73.0","","img/set1/S3.jpg","74","3","random","72","random,structured_load,structured_normal,structured_incentive","3,4,2,1,2,3","false","",""
"null","","html-keyboard-response","74","195063","0.0-74.0","","<img src=""img/set1/S3.jpg"" width=""540"" height = ""360"">","null","","","","","","","",""
"null","","html-keyboard-response","75","195263","0.0-75.0","","","null","","","","","","","",""
"1280","","image-keyboard-response","76","196555","0.0-76.0","","img/set1/S1.jpg","72","1","random","83","random,structured_load,structured_normal,structured_incentive","3,4,2,1,2,3","false","",""
"null","","html-keyboard-response","77","196913","0.0-77.0","","<img src=""img/set1/S1.jpg"" width=""540"" height = ""360"">","null","","","","","","","",""
"null","","html-keyboard-response","78","197123","0.0-78.0","","","null","","","","","","","",""
"550","","image-keyboard-response","79","197684","0.0-79.0","","img/set1/S3.jpg","83","3","random","72","random,structured_load,structured_normal,structured_incentive","3,4,2,1,2,3","false","",""
"null","","html-keyboard-response","80","198047","0.0-80.0","","<img src=""img/set1/S3.jpg"" width=""540"" height = ""360"">","null","","","","","","","",""
"null","","html-keyboard-response","81","198262","0.0-81.0","","","null","","","","","","","",""
"578","","image-keyboard-response","82","198849","0.0-82.0","","img/set1/S4.jpg","83","4","random","74","random,structured_load,structured_normal,structured_incentive","3,4,2,1,2,3","false","",""
"null","","html-keyboard-response","83","199201","0.0-83.0","","<img src=""img/set1/S4.jpg"" width=""540"" height = ""360"">","null","","","","","","","",""
"null","","html-keyboard-response","84","199403","0.0-84.0","","","null","","","","","","","",""
"678","","image-keyboard-response","85","200083","0.0-85.0","","img/set1/S2.jpg","83","2","random","68","random,structured_load,structured_normal,structured_incentive","3,4,2,1,2,3","false","",""
"null","","html-keyboard-response","86","200435","0.0-86.0","","<img src=""img/set1/S2.jpg"" width=""540"" height = ""360"">","null","","","","","","","",""
"null","","html-keyboard-response","87","200637","0.0-87.0","","","null","","","","","","","",""
"400","","image-keyboard-response","88","201039","0.0-88.0","","img/set1/S4.jpg","74","4","random","74","random,structured_load,structured_normal,structured_incentive","3,4,2,1,2,3","true","",""
"null","","html-keyboard-response","89","201403","0.0-89.0","","<img src=""img/set1/S4.jpg"" width=""540"" height = ""360"" style=""border:16px solid orange"">","null","","","","","","","",""
"null","","html-keyboard-response","90","201606","0.0-90.0","","","null","","","","","","","",""
"750","","image-keyboard-response","91","202372","0.0-91.0","","img/set1/S1.jpg","83","1","random","83","random,structured_load,structured_normal,structured_incentive","3,4,2,1,2,3","true","",""
"null","","html-keyboard-response","92","202731","0.0-92.0","","<img src=""img/set1/S1.jpg"" width=""540"" height = ""360"" style=""border:16px solid orange"">","null","","","","","","","",""
"null","","html-keyboard-response","93","202934","0.0-93.0","","","null","","","","","","","",""
"255","","image-keyboard-response","94","203190","0.0-94.0","","img/set1/S2.jpg","74","2","random","68","random,structured_load,structured_normal,structured_incentive","3,4,2,1,2,3","false","",""
"null","","html-keyboard-response","95","203544","0.0-95.0","","<img src=""img/set1/S2.jpg"" width=""540"" height = ""360"">","null","","","","","","","",""
"null","","html-keyboard-response","96","203747","0.0-96.0","","","null","","","","","","","",""
"1040","","image-keyboard-response","97","204788","0.0-97.0","","img/set1/S1.jpg","68","1","random","83","random,structured_load,structured_normal,structured_incentive","3,4,2,1,2,3","false","",""
"null","","html-keyboard-response","98","205154","0.0-98.0","","<img src=""img/set1/S1.jpg"" width=""540"" height = ""360"">","null","","","","","","","",""
"null","","html-keyboard-response","99","205356","0.0-99.0","","","null","","","","","","","",""
"640","","image-keyboard-response","100","205997","0.0-100.0","","img/set1/S3.jpg","74","3","random","72","random,structured_load,structured_normal,structured_incentive","3,4,2,1,2,3","false","",""
"null","","html-keyboard-response","101","206356","0.0-101.0","","<img src=""img/set1/S3.jpg"" width=""540"" height = ""360"">","null","","","","","","","",""
"null","","html-keyboard-response","102","206567","0.0-102.0","","","null","","","","","","","",""
"882","","image-keyboard-response","103","207464","0.0-103.0","","img/set1/S4.jpg","83","4","random","74","random,structured_load,structured_normal,structured_incentive","3,4,2,1,2,3","false","",""
"null","","html-keyboard-response","104","207830","0.0-104.0","","<img src=""img/set1/S4.jpg"" width=""540"" height = ""360"">","null","","","","","","","",""
"null","","html-keyboard-response","105","208045","0.0-105.0","","","null","","","","","","","",""
"544","","image-keyboard-response","106","208599","0.0-106.0","","img/set1/S4.jpg","72","4","random","74","random,structured_load,structured_normal,structured_incentive","3,4,2,1,2,3","false","",""
"null","","html-keyboard-response","107","208955","0.0-107.0","","<img src=""img/set1/S4.jpg"" width=""540"" height = ""360"">","null","","","","","","","",""
"null","","html-keyboard-response","108","209158","0.0-108.0","","","null","","","","","","","",""
"653","","image-keyboard-response","109","209817","0.0-109.0","","img/set1/S3.jpg","83","3","random","72","random,structured_load,structured_normal,structured_incentive","3,4,2,1,2,3","false","",""
"null","","html-keyboard-response","110","210169","0.0-110.0","","<img src=""img/set1/S3.jpg"" width=""540"" height = ""360"">","null","","","","","","","",""
"null","","html-keyboard-response","111","210372","0.0-111.0","","","null","","","","","","","",""
"975","","image-keyboard-response","112","211348","0.0-112.0","","img/set1/S4.jpg","68","4","random","74","random,structured_load,structured_normal,structured_incentive","3,4,2,1,2,3","false","",""
"null","","html-keyboard-response","113","211698","0.0-113.0","","<img src=""img/set1/S4.jpg"" width=""540"" height = ""360"">","null","","","","","","","",""
"null","","html-keyboard-response","114","211898","0.0-114.0","","","null","","","","","","","",""
"1120","","image-keyboard-response","115","213024","0.0-115.0","","img/set1/S4.jpg","72","4","random","74","random,structured_load,structured_normal,structured_incentive","3,4,2,1,2,3","false","",""
"null","","html-keyboard-response","116","213384","0.0-116.0","","<img src=""img/set1/S4.jpg"" width=""540"" height = ""360"">","null","","","","","","","",""
"null","","html-keyboard-response","117","213589","0.0-117.0","","","null","","","","","","","",""
"500","","image-keyboard-response","118","214089","0.0-118.0","","img/set1/S1.jpg","83","1","random","83","random,structured_load,structured_normal,structured_incentive","3,4,2,1,2,3","true","",""
"null","","html-keyboard-response","119","214441","0.0-119.0","","<img src=""img/set1/S1.jpg"" width=""540"" height = ""360"" style=""border:16px solid orange"">","null","","","","","","","",""
"null","","html-keyboard-response","120","214642","0.0-120.0","","","null","","","","","","","",""
"696","","image-keyboard-response","121","215339","0.0-121.0","","img/set1/S2.jpg","72","2","random","68","random,structured_load,structured_normal,structured_incentive","3,4,2,1,2,3","false","",""
"null","","html-keyboard-response","122","215694","0.0-122.0","","<img src=""img/set1/S2.jpg"" width=""540"" height = ""360"">","null","","","","","","","",""
"null","","html-keyboard-response","123","215894","0.0-123.0","","","null","","","","","","","",""
"429","","image-keyboard-response","124","216331","0.0-124.0","","img/set1/S1.jpg","83","1","random","83","random,structured_load,structured_normal,structured_incentive","3,4,2,1,2,3","true","",""
"null","","html-keyboard-response","125","216684","0.0-125.0","","<img src=""img/set1/S1.jpg"" width=""540"" height = ""360"" style=""border:16px solid orange"">","null","","","","","","","",""
"null","","html-keyboard-response","126","216887","0.0-126.0","","","null","","","","","","","",""
"632","","image-keyboard-response","127","217524","0.0-127.0","","img/set1/S1.jpg","72","1","random","83","random,structured_load,structured_normal,structured_incentive","3,4,2,1,2,3","false","",""
"null","","html-keyboard-response","128","217875","0.0-128.0","","<img src=""img/set1/S1.jpg"" width=""540"" height = ""360"">","null","","","","","","","",""
"null","","html-keyboard-response","129","218075","0.0-129.0","","","null","","","","","","","",""
"539","","image-keyboard-response","130","218616","0.0-130.0","","img/set1/S3.jpg","83","3","random","72","random,structured_load,structured_normal,structured_incentive","3,4,2,1,2,3","false","",""
"null","","html-keyboard-response","131","218968","0.0-131.0","","<img src=""img/set1/S3.jpg"" width=""540"" height = ""360"">","null","","","","","","","",""
"null","","html-keyboard-response","132","219175","0.0-132.0","","","null","","","","","","","",""
"630","","image-keyboard-response","133","219820","0.0-133.0","","img/set1/S1.jpg","72","1","random","83","random,structured_load,structured_normal,structured_incentive","3,4,2,1,2,3","false","",""
"null","","html-keyboard-response","134","220177","0.0-134.0","","<img src=""img/set1/S1.jpg"" width=""540"" height = ""360"">","null","","","","","","","",""
"null","","html-keyboard-response","135","220387","0.0-135.0","","","null","","","","","","","",""
"1132","","image-keyboard-response","136","221535","0.0-136.0","","img/set1/S3.jpg","83","3","random","72","random,structured_load,structured_normal,structured_incentive","3,4,2,1,2,3","false","",""
"null","","html-keyboard-response","137","221895","0.0-137.0","","<img src=""img/set1/S3.jpg"" width=""540"" height = ""360"">","null","","","","","","","",""
"null","","html-keyboard-response","138","222101","0.0-138.0","","","null","","","","","","","",""
"858","","image-keyboard-response","139","222964","0.0-139.0","","img/set1/S1.jpg","72","1","random","83","random,structured_load,structured_normal,structured_incentive","3,4,2,1,2,3","false","",""
"null","","html-keyboard-response","140","223316","0.0-140.0","","<img src=""img/set1/S1.jpg"" width=""540"" height = ""360"">","null","","","","","","","",""
"null","","html-keyboard-response","141","223518","0.0-141.0","","","null","","","","","","","",""
"683","","image-keyboard-response","142","224212","0.0-142.0","","img/set1/S3.jpg","83","3","random","72","random,structured_load,structured_normal,structured_incentive","3,4,2,1,2,3","false","",""
"null","","html-keyboard-response","143","224580","0.0-143.0","","<img src=""img/set1/S3.jpg"" width=""540"" height = ""360"">","null","","","","","","","",""
"null","","html-keyboard-response","144","224794","0.0-144.0","","","null","","","","","","","",""
"600","","image-keyboard-response","145","225404","0.0-145.0","","img/set1/S1.jpg","83","1","random","83","random,structured_load,structured_normal,structured_incentive","3,4,2,1,2,3","true","",""
"null","","html-keyboard-response","146","225768","0.0-146.0","","<img src=""img/set1/S1.jpg"" width=""540"" height = ""360"" style=""border:16px solid orange"">","null","","","","","","","",""
"null","","html-keyboard-response","147","225978","0.0-147.0","","","null","","","","","","","",""
"871","","image-keyboard-response","148","226858","0.0-148.0","","img/set1/S1.jpg","83","1","random","83","random,structured_load,structured_normal,structured_incentive","3,4,2,1,2,3","true","",""
"null","","html-keyboard-response","149","227217","0.0-149.0","","<img src=""img/set1/S1.jpg"" width=""540"" height = ""360"" style=""border:16px solid orange"">","null","","","","","","","",""
"null","","html-keyboard-response","150","227445","0.0-150.0","","","null","","","","","","","",""
"651","","image-keyboard-response","151","228112","0.0-151.0","","img/set1/S3.jpg","83","3","random","72","random,structured_load,structured_normal,structured_incentive","3,4,2,1,2,3","false","",""
"null","","html-keyboard-response","152","228466","0.0-152.0","","<img src=""img/set1/S3.jpg"" width=""540"" height = ""360"">","null","","","","","","","",""
"null","","html-keyboard-response","153","228669","0.0-153.0","","","null","","","","","","","",""
"623","","image-keyboard-response","154","229292","0.0-154.0","","img/set1/S3.jpg","72","3","random","72","random,structured_load,structured_normal,structured_incentive","3,4,2,1,2,3","true","",""
"null","","html-keyboard-response","155","229654","0.0-155.0","","<img src=""img/set1/S3.jpg"" width=""540"" height = ""360"" style=""border:16px solid orange"">","null","","","","","","","",""
"null","","html-keyboard-response","156","229858","0.0-156.0","","","null","","","","","","","",""
"707","","image-keyboard-response","157","230578","0.0-157.0","","img/set1/S1.jpg","83","1","random","83","random,structured_load,structured_normal,structured_incentive","3,4,2,1,2,3","true","",""
"null","","html-keyboard-response","158","230935","0.0-158.0","","<img src=""img/set1/S1.jpg"" width=""540"" height = ""360"" style=""border:16px solid orange"">","null","","","","","","","",""
"null","","html-keyboard-response","159","231137","0.0-159.0","","","null","","","","","","","",""
"609","","image-keyboard-response","160","231759","0.0-160.0","","img/set1/S2.jpg","74","2","random","68","random,structured_load,structured_normal,structured_incentive","3,4,2,1,2,3","false","",""
"null","","html-keyboard-response","161","232126","0.0-161.0","","<img src=""img/set1/S2.jpg"" width=""540"" height = ""360"">","null","","","","","","","",""
"null","","html-keyboard-response","162","232339","0.0-162.0","","","null","","","","","","","",""
"728","","image-keyboard-response","163","233067","0.0-163.0","","img/set1/S4.jpg","83","4","random","74","random,structured_load,structured_normal,structured_incentive","3,4,2,1,2,3","false","",""
"null","","html-keyboard-response","164","233418","0.0-164.0","","<img src=""img/set1/S4.jpg"" width=""540"" height = ""360"">","null","","","","","","","",""
"null","","html-keyboard-response","165","233618","0.0-165.0","","","null","","","","","","","",""
"990","","image-keyboard-response","166","234621","0.0-166.0","","img/set1/S2.jpg","83","2","random","68","random,structured_load,structured_normal,structured_incentive","3,4,2,1,2,3","false","",""
"null","","html-keyboard-response","167","234981","0.0-167.0","","<img src=""img/set1/S2.jpg"" width=""540"" height = ""360"">","null","","","","","","","",""
"null","","html-keyboard-response","168","235184","0.0-168.0","","","null","","","","","","","",""
"574","","image-keyboard-response","169","235766","0.0-169.0","","img/set1/S1.jpg","72","1","random","83","random,structured_load,structured_normal,structured_incentive","3,4,2,1,2,3","false","",""
"null","","html-keyboard-response","170","236123","0.0-170.0","","<img src=""img/set1/S1.jpg"" width=""540"" height = ""360"">","null","","","","","","","",""
"null","","html-keyboard-response","171","236323","0.0-171.0","","","null","","","","","","","",""
"587","","image-keyboard-response","172","236923","0.0-172.0","","img/set1/S4.jpg","83","4","random","74","random,structured_load,structured_normal,structured_incentive","3,4,2,1,2,3","false","",""
"null","","html-keyboard-response","173","237280","0.0-173.0","","<img src=""img/set1/S4.jpg"" width=""540"" height = ""360"">","null","","","","","","","",""
"null","","html-keyboard-response","174","237481","0.0-174.0","","","null","","","","","","","",""
"829","","image-keyboard-response","175","238311","0.0-175.0","","img/set1/S3.jpg","83","3","random","72","random,structured_load,structured_normal,structured_incentive","3,4,2,1,2,3","false","",""
"null","","html-keyboard-response","176","238662","0.0-176.0","","<img src=""img/set1/S3.jpg"" width=""540"" height = ""360"">","null","","","","","","","",""
"null","","html-keyboard-response","177","238862","0.0-177.0","","","null","","","","","","","",""
"619","","image-keyboard-response","178","239488","0.0-178.0","","img/set1/S4.jpg","74","4","random","74","random,structured_load,structured_normal,structured_incentive","3,4,2,1,2,3","true","",""
"null","","html-keyboard-response","179","239846","0.0-179.0","","<img src=""img/set1/S4.jpg"" width=""540"" height = ""360"" style=""border:16px solid orange"">","null","","","","","","","",""
"null","","html-keyboard-response","180","240048","0.0-180.0","","","null","","","","","","","",""
"458","","image-keyboard-response","181","240516","0.0-181.0","","img/set1/S2.jpg","83","2","random","68","random,structured_load,structured_normal,structured_incentive","3,4,2,1,2,3","false","",""
"null","","html-keyboard-response","182","240872","0.0-182.0","","<img src=""img/set1/S2.jpg"" width=""540"" height = ""360"">","null","","","","","","","",""
"null","","html-keyboard-response","183","241082","0.0-183.0","","","null","","","","","","","",""
"740","","image-keyboard-response","184","241853","0.0-184.0","","img/set1/S4.jpg","83","4","random","74","random,structured_load,structured_normal,structured_incentive","3,4,2,1,2,3","false","",""
"null","","html-keyboard-response","185","242208","0.0-185.0","","<img src=""img/set1/S4.jpg"" width=""540"" height = ""360"">","null","","","","","","","",""
"null","","html-keyboard-response","186","242419","0.0-186.0","","","null","","","","","","","",""
"504","","image-keyboard-response","187","242932","0.0-187.0","","img/set1/S3.jpg","72","3","random","72","random,structured_load,structured_normal,structured_incentive","3,4,2,1,2,3","true","",""
"null","","html-keyboard-response","188","243293","0.0-188.0","","<img src=""img/set1/S3.jpg"" width=""540"" height = ""360"" style=""border:16px solid orange"">","null","","","","","","","",""
"null","","html-keyboard-response","189","243497","0.0-189.0","","","null","","","","","","","",""
"512","","image-keyboard-response","190","244022","0.0-190.0","","img/set1/S3.jpg","83","3","random","72","random,structured_load,structured_normal,structured_incentive","3,4,2,1,2,3","false","",""
"null","","html-keyboard-response","191","244373","0.0-191.0","","<img src=""img/set1/S3.jpg"" width=""540"" height = ""360"">","null","","","","","","","",""
"null","","html-keyboard-response","192","244574","0.0-192.0","","","null","","","","","","","",""
"543","","image-keyboard-response","193","245132","0.0-193.0","","img/set1/S4.jpg","74","4","random","74","random,structured_load,structured_normal,structured_incentive","3,4,2,1,2,3","true","",""
"null","","html-keyboard-response","194","245495","0.0-194.0","","<img src=""img/set1/S4.jpg"" width=""540"" height = ""360"" style=""border:16px solid orange"">","null","","","","","","","",""
"null","","html-keyboard-response","195","245701","0.0-195.0","","","null","","","","","","","",""
"502","","image-keyboard-response","196","246208","0.0-196.0","","img/set1/S2.jpg","83","2","random","68","random,structured_load,structured_normal,structured_incentive","3,4,2,1,2,3","false","",""
"null","","html-keyboard-response","197","246559","0.0-197.0","","<img src=""img/set1/S2.jpg"" width=""540"" height = ""360"">","null","","","","","","","",""
"null","","html-keyboard-response","198","246762","0.0-198.0","","","null","","","","","","","",""
"544","","image-keyboard-response","199","247309","0.0-199.0","","img/set1/S1.jpg","72","1","random","83","random,structured_load,structured_normal,structured_incentive","3,4,2,1,2,3","false","",""
"null","","html-keyboard-response","200","247664","0.0-200.0","","<img src=""img/set1/S1.jpg"" width=""540"" height = ""360"">","null","","","","","","","",""
"null","","html-keyboard-response","201","247872","0.0-201.0","","","null","","","","","","","",""
"588","","image-keyboard-response","202","248460","0.0-202.0","","img/set1/S2.jpg","83","2","random","68","random,structured_load,structured_normal,structured_incentive","3,4,2,1,2,3","false","",""
"null","","html-keyboard-response","203","248812","0.0-203.0","","<img src=""img/set1/S2.jpg"" width=""540"" height = ""360"">","null","","","","","","","",""
"null","","html-keyboard-response","204","249013","0.0-204.0","","","null","","","","","","","",""
"522","","image-keyboard-response","205","249536","0.0-205.0","","img/set1/S1.jpg","83","1","random","83","random,structured_load,structured_normal,structured_incentive","3,4,2,1,2,3","true","",""
"null","","html-keyboard-response","206","249888","0.0-206.0","","<img src=""img/set1/S1.jpg"" width=""540"" height = ""360"" style=""border:16px solid orange"">","null","","","","","","","",""
"null","","html-keyboard-response","207","250089","0.0-207.0","","","null","","","","","","","",""
"556","","image-keyboard-response","208","250645","0.0-208.0","","img/set1/S2.jpg","72","2","random","68","random,structured_load,structured_normal,structured_incentive","3,4,2,1,2,3","false","",""
"null","","html-keyboard-response","209","250998","0.0-209.0","","<img src=""img/set1/S2.jpg"" width=""540"" height = ""360"">","null","","","","","","","",""
"null","","html-keyboard-response","210","251200","0.0-210.0","","","null","","","","","","","",""
"448","","image-keyboard-response","211","251648","0.0-211.0","","img/set1/S4.jpg","83","4","random","74","random,structured_load,structured_normal,structured_incentive","3,4,2,1,2,3","false","",""
"null","","html-keyboard-response","212","252010","0.0-212.0","","<img src=""img/set1/S4.jpg"" width=""540"" height = ""360"">","null","","","","","","","",""
"null","","html-keyboard-response","213","252213","0.0-213.0","","","null","","","","","","","",""
"705","","image-keyboard-response","214","252921","0.0-214.0","","img/set1/S2.jpg","83","2","random","68","random,structured_load,structured_normal,structured_incentive","3,4,2,1,2,3","false","",""
"null","","html-keyboard-response","215","253272","0.0-215.0","","<img src=""img/set1/S2.jpg"" width=""540"" height = ""360"">","null","","","","","","","",""
"null","","html-keyboard-response","216","253472","0.0-216.0","","","null","","","","","","","",""
"592","","image-keyboard-response","217","254074","0.0-217.0","","img/set1/S4.jpg","72","4","random","74","random,structured_load,structured_normal,structured_incentive","3,4,2,1,2,3","false","",""
"null","","html-keyboard-response","218","254430","0.0-218.0","","<img src=""img/set1/S4.jpg"" width=""540"" height = ""360"">","null","","","","","","","",""
"null","","html-keyboard-response","219","254641","0.0-219.0","","","null","","","","","","","",""
"761","","image-keyboard-response","220","255410","0.0-220.0","","img/set1/S4.jpg","83","4","random","74","random,structured_load,structured_normal,structured_incentive","3,4,2,1,2,3","false","",""
"null","","html-keyboard-response","221","255763","0.0-221.0","","<img src=""img/set1/S4.jpg"" width=""540"" height = ""360"">","null","","","","","","","",""
"null","","html-keyboard-response","222","255978","0.0-222.0","","","null","","","","","","","",""
"634","","image-keyboard-response","223","256624","0.0-223.0","","img/set1/S2.jpg","72","2","random","68","random,structured_load,structured_normal,structured_incentive","3,4,2,1,2,3","false","",""
"null","","html-keyboard-response","224","256987","0.0-224.0","","<img src=""img/set1/S2.jpg"" width=""540"" height = ""360"">","null","","","","","","","",""
"null","","html-keyboard-response","225","257209","0.0-225.0","","","null","","","","","","","",""
"650","","image-keyboard-response","226","257860","0.0-226.0","","img/set1/S3.jpg","83","3","random","72","random,structured_load,structured_normal,structured_incentive","3,4,2,1,2,3","false","",""
"null","","html-keyboard-response","227","258212","0.0-227.0","","<img src=""img/set1/S3.jpg"" width=""540"" height = ""360"">","null","","","","","","","",""
"null","","html-keyboard-response","228","258419","0.0-228.0","","","null","","","","","","","",""
"662","","image-keyboard-response","229","259095","0.0-229.0","","img/set1/S4.jpg","72","4","random","74","random,structured_load,structured_normal,structured_incentive","3,4,2,1,2,3","false","",""
"null","","html-keyboard-response","230","259446","0.0-230.0","","<img src=""img/set1/S4.jpg"" width=""540"" height = ""360"">","null","","","","","","","",""
"null","","html-keyboard-response","231","259660","0.0-231.0","","","null","","","","","","","",""
"15","","image-keyboard-response","232","259675","0.0-232.0","","img/set1/S3.jpg","72","3","random","72","random,structured_load,structured_normal,structured_incentive","3,4,2,1,2,3","true","",""
"null","","html-keyboard-response","233","260037","0.0-233.0","","<img src=""img/set1/S3.jpg"" width=""540"" height = ""360"" style=""border:16px solid orange"">","null","","","","","","","",""
"null","","html-keyboard-response","234","260254","0.0-234.0","","","null","","","","","","","",""
"397","","image-keyboard-response","235","260671","0.0-235.0","","img/set1/S4.jpg","83","4","random","74","random,structured_load,structured_normal,structured_incentive","3,4,2,1,2,3","false","",""
"null","","html-keyboard-response","236","261028","0.0-236.0","","<img src=""img/set1/S4.jpg"" width=""540"" height = ""360"">","null","","","","","","","",""
"null","","html-keyboard-response","237","261248","0.0-237.0","","","null","","","","","","","",""
"405","","image-keyboard-response","238","261658","0.0-238.0","","img/set1/S3.jpg","74","3","random","72","random,structured_load,structured_normal,structured_incentive","3,4,2,1,2,3","false","",""
"null","","html-keyboard-response","239","262022","0.0-239.0","","<img src=""img/set1/S3.jpg"" width=""540"" height = ""360"">","null","","","","","","","",""
"null","","html-keyboard-response","240","262224","0.0-240.0","","","null","","","","","","","",""
"672","","image-keyboard-response","241","262898","0.0-241.0","","img/set1/S1.jpg","83","1","random","83","random,structured_load,structured_normal,structured_incentive","3,4,2,1,2,3","true","",""
"null","","html-keyboard-response","242","263253","0.0-242.0","","<img src=""img/set1/S1.jpg"" width=""540"" height = ""360"" style=""border:16px solid orange"">","null","","","","","","","",""
"null","","html-keyboard-response","243","263465","0.0-243.0","","","null","","","","","","","",""
"559","","image-keyboard-response","244","264024","0.0-244.0","","img/set1/S1.jpg","74","1","random","83","random,structured_load,structured_normal,structured_incentive","3,4,2,1,2,3","false","",""
"null","","html-keyboard-response","245","264377","0.0-245.0","","<img src=""img/set1/S1.jpg"" width=""540"" height = ""360"">","null","","","","","","","",""
"null","","html-keyboard-response","246","264578","0.0-246.0","","","null","","","","","","","",""
"442","","image-keyboard-response","247","265021","0.0-247.0","","img/set1/S2.jpg","83","2","random","68","random,structured_load,structured_normal,structured_incentive","3,4,2,1,2,3","false","",""
"null","","html-keyboard-response","248","265379","0.0-248.0","","<img src=""img/set1/S2.jpg"" width=""540"" height = ""360"">","null","","","","","","","",""
"null","","html-keyboard-response","249","265593","0.0-249.0","","","null","","","","","","","",""
"555","","image-keyboard-response","250","266149","0.0-250.0","","img/set1/S2.jpg","72","2","random","68","random,structured_load,structured_normal,structured_incentive","3,4,2,1,2,3","false","",""
"null","","html-keyboard-response","251","266506","0.0-251.0","","<img src=""img/set1/S2.jpg"" width=""540"" height = ""360"">","null","","","","","","","",""
"null","","html-keyboard-response","252","266708","0.0-252.0","","","null","","","","","","","",""
"489","","image-keyboard-response","253","267199","0.0-253.0","","img/set1/S2.jpg","83","2","random","68","random,structured_load,structured_normal,structured_incentive","3,4,2,1,2,3","false","",""
"null","","html-keyboard-response","254","267551","0.0-254.0","","<img src=""img/set1/S2.jpg"" width=""540"" height = ""360"">","null","","","","","","","",""
"null","","html-keyboard-response","255","267784","0.0-255.0","","","null","","","","","","","",""
"622","","image-keyboard-response","256","268408","0.0-256.0","","img/set1/S2.jpg","74","2","random","68","random,structured_load,structured_normal,structured_incentive","3,4,2,1,2,3","false","",""
"null","","html-keyboard-response","257","268759","0.0-257.0","","<img src=""img/set1/S2.jpg"" width=""540"" height = ""360"">","null","","","","","","","",""
"null","","html-keyboard-response","258","268959","0.0-258.0","","","null","","","","","","","",""
"463","","image-keyboard-response","259","269422","0.0-259.0","","img/set1/S2.jpg","83","2","random","68","random,structured_load,structured_normal,structured_incentive","3,4,2,1,2,3","false","",""
"null","","html-keyboard-response","260","269774","0.0-260.0","","<img src=""img/set1/S2.jpg"" width=""540"" height = ""360"">","null","","","","","","","",""
"null","","html-keyboard-response","261","269976","0.0-261.0","","","null","","","","","","","",""
"599","","image-keyboard-response","262","270577","0.0-262.0","","img/set1/S4.jpg","72","4","random","74","random,structured_load,structured_normal,structured_incentive","3,4,2,1,2,3","false","",""
"null","","html-keyboard-response","263","270952","0.0-263.0","","<img src=""img/set1/S4.jpg"" width=""540"" height = ""360"">","null","","","","","","","",""
"null","","html-keyboard-response","264","271153","0.0-264.0","","","null","","","","","","","",""
"636","","image-keyboard-response","265","271789","0.0-265.0","","img/set1/S1.jpg","83","1","random","83","random,structured_load,structured_normal,structured_incentive","3,4,2,1,2,3","true","",""
"null","","html-keyboard-response","266","272141","0.0-266.0","","<img src=""img/set1/S1.jpg"" width=""540"" height = ""360"" style=""border:16px solid orange"">","null","","","","","","","",""
"null","","html-keyboard-response","267","272341","0.0-267.0","","","null","","","","","","","",""
"545","","image-keyboard-response","268","272887","0.0-268.0","","img/set1/S1.jpg","74","1","random","83","random,structured_load,structured_normal,structured_incentive","3,4,2,1,2,3","false","",""
"null","","html-keyboard-response","269","273253","0.0-269.0","","<img src=""img/set1/S1.jpg"" width=""540"" height = ""360"">","null","","","","","","","",""
"null","","html-keyboard-response","270","273541","0.0-270.0","","","null","","","","","","","",""
"556","","image-keyboard-response","271","274114","0.0-271.0","","img/set1/S3.jpg","83","3","random","72","random,structured_load,structured_normal,structured_incentive","3,4,2,1,2,3","false","",""
"null","","html-keyboard-response","272","274466","0.0-272.0","","<img src=""img/set1/S3.jpg"" width=""540"" height = ""360"">","null","","","","","","","",""
"null","","html-keyboard-response","273","274713","0.0-273.0","","","null","","","","","","","",""
"424","","image-keyboard-response","274","275152","0.0-274.0","","img/set1/S4.jpg","74","4","random","74","random,structured_load,structured_normal,structured_incentive","3,4,2,1,2,3","true","",""
"null","","html-keyboard-response","275","275512","0.0-275.0","","<img src=""img/set1/S4.jpg"" width=""540"" height = ""360"" style=""border:16px solid orange"">","null","","","","","","","",""
"null","","html-keyboard-response","276","275716","0.0-276.0","","","null","","","","","","","",""
"324","","image-keyboard-response","277","276041","0.0-277.0","","img/set1/S1.jpg","83","1","random","83","random,structured_load,structured_normal,structured_incentive","3,4,2,1,2,3","true","",""
"null","","html-keyboard-response","278","276419","0.0-278.0","","<img src=""img/set1/S1.jpg"" width=""540"" height = ""360"" style=""border:16px solid orange"">","null","","","","","","","",""
"null","","html-keyboard-response","279","276623","0.0-279.0","","","null","","","","","","","",""
"526","","image-keyboard-response","280","277158","0.0-280.0","","img/set1/S1.jpg","72","1","random","83","random,structured_load,structured_normal,structured_incentive","3,4,2,1,2,3","false","",""
"null","","html-keyboard-response","281","277513","0.0-281.0","","<img src=""img/set1/S1.jpg"" width=""540"" height = ""360"">","null","","","","","","","",""
"null","","html-keyboard-response","282","277716","0.0-282.0","","","null","","","","","","","",""
"375","","image-keyboard-response","283","278100","0.0-283.0","","img/set1/S1.jpg","83","1","random","83","random,structured_load,structured_normal,structured_incentive","3,4,2,1,2,3","true","",""
"null","","html-keyboard-response","284","278492","0.0-284.0","","<img src=""img/set1/S1.jpg"" width=""540"" height = ""360"" style=""border:16px solid orange"">","null","","","","","","","",""
"null","","html-keyboard-response","285","278700","0.0-285.0","","","null","","","","","","","",""
"335","","image-keyboard-response","286","279042","0.0-286.0","","img/set1/S3.jpg","72","3","random","72","random,structured_load,structured_normal,structured_incentive","3,4,2,1,2,3","true","",""
"null","","html-keyboard-response","287","279403","0.0-287.0","","<img src=""img/set1/S3.jpg"" width=""540"" height = ""360"" style=""border:16px solid orange"">","null","","","","","","","",""
"null","","html-keyboard-response","288","279606","0.0-288.0","","","null","","","","","","","",""
"334","","image-keyboard-response","289","279946","0.0-289.0","","img/set1/S1.jpg","83","1","random","83","random,structured_load,structured_normal,structured_incentive","3,4,2,1,2,3","true","",""
"null","","html-keyboard-response","290","280298","0.0-290.0","","<img src=""img/set1/S1.jpg"" width=""540"" height = ""360"" style=""border:16px solid orange"">","null","","","","","","","",""
"null","","html-keyboard-response","291","280513","0.0-291.0","","","null","","","","","","","",""
"475","","image-keyboard-response","292","281004","0.0-292.0","","img/set1/S4.jpg","72","4","random","74","random,structured_load,structured_normal,structured_incentive","3,4,2,1,2,3","false","",""
"null","","html-keyboard-response","293","281361","0.0-293.0","","<img src=""img/set1/S4.jpg"" width=""540"" height = ""360"">","null","","","","","","","",""
"null","","html-keyboard-response","294","281565","0.0-294.0","","","null","","","","","","","",""
"478","","image-keyboard-response","295","282057","0.0-295.0","","img/set1/S1.jpg","83","1","random","83","random,structured_load,structured_normal,structured_incentive","3,4,2,1,2,3","true","",""
"null","","html-keyboard-response","296","282418","0.0-296.0","","<img src=""img/set1/S1.jpg"" width=""540"" height = ""360"" style=""border:16px solid orange"">","null","","","","","","","",""
"null","","html-keyboard-response","297","282625","0.0-297.0","","","null","","","","","","","",""
"398","","image-keyboard-response","298","283036","0.0-298.0","","img/set1/S2.jpg","74","2","random","68","random,structured_load,structured_normal,structured_incentive","3,4,2,1,2,3","false","",""
"null","","html-keyboard-response","299","283403","0.0-299.0","","<img src=""img/set1/S2.jpg"" width=""540"" height = ""360"">","null","","","","","","","",""
"null","","html-keyboard-response","300","283606","0.0-300.0","","","null","","","","","","","",""
"445","","image-keyboard-response","301","284051","0.0-301.0","","img/set1/S1.jpg","83","1","random","83","random,structured_load,structured_normal,structured_incentive","3,4,2,1,2,3","true","",""
"null","","html-keyboard-response","302","284403","0.0-302.0","","<img src=""img/set1/S1.jpg"" width=""540"" height = ""360"" style=""border:16px solid orange"">","null","","","","","","","",""
"null","","html-keyboard-response","303","284603","0.0-303.0","","","null","","","","","","","",""
"424","","image-keyboard-response","304","285027","0.0-304.0","","img/set1/S4.jpg","74","4","random","74","random,structured_load,structured_normal,structured_incentive","3,4,2,1,2,3","true","",""
"null","","html-keyboard-response","305","285389","0.0-305.0","","<img src=""img/set1/S4.jpg"" width=""540"" height = ""360"" style=""border:16px solid orange"">","null","","","","","","","",""
"null","","html-keyboard-response","306","285591","0.0-306.0","","","null","","","","","","","",""
"389","","image-keyboard-response","307","285986","0.0-307.0","","img/set1/S1.jpg","83","1","random","83","random,structured_load,structured_normal,structured_incentive","3,4,2,1,2,3","true","",""
"null","","html-keyboard-response","308","286337","0.0-308.0","","<img src=""img/set1/S1.jpg"" width=""540"" height = ""360"" style=""border:16px solid orange"">","null","","","","","","","",""
"null","","html-keyboard-response","309","286537","0.0-309.0","","","null","","","","","","","",""
"509","","image-keyboard-response","310","287049","0.0-310.0","","img/set1/S4.jpg","72","4","random","74","random,structured_load,structured_normal,structured_incentive","3,4,2,1,2,3","false","",""
"null","","html-keyboard-response","311","287422","0.0-311.0","","<img src=""img/set1/S4.jpg"" width=""540"" height = ""360"">","null","","","","","","","",""
"null","","html-keyboard-response","312","287638","0.0-312.0","","","null","","","","","","","",""
"442","","image-keyboard-response","313","288088","0.0-313.0","","img/set1/S2.jpg","83","2","random","68","random,structured_load,structured_normal,structured_incentive","3,4,2,1,2,3","false","",""
"null","","html-keyboard-response","314","288450","0.0-314.0","","<img src=""img/set1/S2.jpg"" width=""540"" height = ""360"">","null","","","","","","","",""
"null","","html-keyboard-response","315","288664","0.0-315.0","","","null","","","","","","","",""
"492","","image-keyboard-response","316","289171","0.0-316.0","","img/set1/S4.jpg","72","4","random","74","random,structured_load,structured_normal,structured_incentive","3,4,2,1,2,3","false","",""
"null","","html-keyboard-response","317","289536","0.0-317.0","","<img src=""img/set1/S4.jpg"" width=""540"" height = ""360"">","null","","","","","","","",""
"null","","html-keyboard-response","318","289746","0.0-318.0","","","null","","","","","","","",""
"400","","image-keyboard-response","319","290155","0.0-319.0","","img/set1/S2.jpg","83","2","random","68","random,structured_load,structured_normal,structured_incentive","3,4,2,1,2,3","false","",""
"null","","html-keyboard-response","320","290514","0.0-320.0","","<img src=""img/set1/S2.jpg"" width=""540"" height = ""360"">","null","","","","","","","",""
"null","","html-keyboard-response","321","290716","0.0-321.0","","","null","","","","","","","",""
"480","","image-keyboard-response","322","291197","0.0-322.0","","img/set1/S1.jpg","83","1","random","83","random,structured_load,structured_normal,structured_incentive","3,4,2,1,2,3","true","",""
"null","","html-keyboard-response","323","291549","0.0-323.0","","<img src=""img/set1/S1.jpg"" width=""540"" height = ""360"" style=""border:16px solid orange"">","null","","","","","","","",""
"null","","html-keyboard-response","324","291750","0.0-324.0","","","null","","","","","","","",""
"534","","image-keyboard-response","325","292285","0.0-325.0","","img/set1/S4.jpg","74","4","random","74","random,structured_load,structured_normal,structured_incentive","3,4,2,1,2,3","true","",""
"null","","html-keyboard-response","326","292653","0.0-326.0","","<img src=""img/set1/S4.jpg"" width=""540"" height = ""360"" style=""border:16px solid orange"">","null","","","","","","","",""
"null","","html-keyboard-response","327","292860","0.0-327.0","","","null","","","","","","","",""
"542","","image-keyboard-response","328","293406","0.0-328.0","","img/set1/S4.jpg","74","4","random","74","random,structured_load,structured_normal,structured_incentive","3,4,2,1,2,3","true","",""
"null","","html-keyboard-response","329","293761","0.0-329.0","","<img src=""img/set1/S4.jpg"" width=""540"" height = ""360"" style=""border:16px solid orange"">","null","","","","","","","",""
"null","","html-keyboard-response","330","293966","0.0-330.0","","","null","","","","","","","",""
"587","","image-keyboard-response","331","294566","0.0-331.0","","img/set1/S2.jpg","72","2","random","68","random,structured_load,structured_normal,structured_incentive","3,4,2,1,2,3","false","",""
"null","","html-keyboard-response","332","294919","0.0-332.0","","<img src=""img/set1/S2.jpg"" width=""540"" height = ""360"">","null","","","","","","","",""
"null","","html-keyboard-response","333","295129","0.0-333.0","","","null","","","","","","","",""
"498","","image-keyboard-response","334","295643","0.0-334.0","","img/set1/S2.jpg","83","2","random","68","random,structured_load,structured_normal,structured_incentive","3,4,2,1,2,3","false","",""
"null","","html-keyboard-response","335","295997","0.0-335.0","","<img src=""img/set1/S2.jpg"" width=""540"" height = ""360"">","null","","","","","","","",""
"null","","html-keyboard-response","336","296199","0.0-336.0","","","null","","","","","","","",""
"576","","image-keyboard-response","337","296781","0.0-337.0","","img/set1/S3.jpg","74","3","random","72","random,structured_load,structured_normal,structured_incentive","3,4,2,1,2,3","false","",""
"null","","html-keyboard-response","338","297145","0.0-338.0","","<img src=""img/set1/S3.jpg"" width=""540"" height = ""360"">","null","","","","","","","",""
"null","","html-keyboard-response","339","297356","0.0-339.0","","","null","","","","","","","",""
"624","","image-keyboard-response","340","297984","0.0-340.0","","img/set1/S3.jpg","68","3","random","72","random,structured_load,structured_normal,structured_incentive","3,4,2,1,2,3","false","",""
"null","","html-keyboard-response","341","298361","0.0-341.0","","<img src=""img/set1/S3.jpg"" width=""540"" height = ""360"">","null","","","","","","","",""
"null","","html-keyboard-response","342","298575","0.0-342.0","","","null","","","","","","","",""
"530","","image-keyboard-response","343","299107","0.0-343.0","","img/set1/S2.jpg","74","2","random","68","random,structured_load,structured_normal,structured_incentive","3,4,2,1,2,3","false","",""
"null","","html-keyboard-response","344","299459","0.0-344.0","","<img src=""img/set1/S2.jpg"" width=""540"" height = ""360"">","null","","","","","","","",""
"null","","html-keyboard-response","345","299661","0.0-345.0","","","null","","","","","","","",""
"501","","image-keyboard-response","346","300165","0.0-346.0","","img/set1/S4.jpg","83","4","random","74","random,structured_load,structured_normal,structured_incentive","3,4,2,1,2,3","false","",""
"null","","html-keyboard-response","347","300528","0.0-347.0","","<img src=""img/set1/S4.jpg"" width=""540"" height = ""360"">","null","","","","","","","",""
"null","","html-keyboard-response","348","300731","0.0-348.0","","","null","","","","","","","",""
"522","","image-keyboard-response","349","301262","0.0-349.0","","img/set1/S3.jpg","74","3","random","72","random,structured_load,structured_normal,structured_incentive","3,4,2,1,2,3","false","",""
"null","","html-keyboard-response","350","301623","0.0-350.0","","<img src=""img/set1/S3.jpg"" width=""540"" height = ""360"">","null","","","","","","","",""
"null","","html-keyboard-response","351","301828","0.0-351.0","","","null","","","","","","","",""
"505","","image-keyboard-response","352","302334","0.0-352.0","","img/set1/S4.jpg","72","4","random","74","random,structured_load,structured_normal,structured_incentive","3,4,2,1,2,3","false","",""
"null","","html-keyboard-response","353","302700","0.0-353.0","","<img src=""img/set1/S4.jpg"" width=""540"" height = ""360"">","null","","","","","","","",""
"null","","html-keyboard-response","354","302902","0.0-354.0","","","null","","","","","","","",""
"574","","image-keyboard-response","355","303492","0.0-355.0","","img/set1/S1.jpg","72","1","random","83","random,structured_load,structured_normal,structured_incentive","3,4,2,1,2,3","false","",""
"null","","html-keyboard-response","356","303859","0.0-356.0","","<img src=""img/set1/S1.jpg"" width=""540"" height = ""360"">","null","","","","","","","",""
"null","","html-keyboard-response","357","304061","0.0-357.0","","","null","","","","","","","",""
"420","","image-keyboard-response","358","304486","0.0-358.0","","img/set1/S3.jpg","83","3","random","72","random,structured_load,structured_normal,structured_incentive","3,4,2,1,2,3","false","",""
"null","","html-keyboard-response","359","304846","0.0-359.0","","<img src=""img/set1/S3.jpg"" width=""540"" height = ""360"">","null","","","","","","","",""
"null","","html-keyboard-response","360","305061","0.0-360.0","","","null","","","","","","","",""
"391","","image-keyboard-response","361","305467","0.0-361.0","","img/set1/S2.jpg","68","2","random","68","random,structured_load,structured_normal,structured_incentive","3,4,2,1,2,3","true","",""
"null","","html-keyboard-response","362","305826","0.0-362.0","","<img src=""img/set1/S2.jpg"" width=""540"" height = ""360"" style=""border:16px solid orange"">","null","","","","","","","",""
"null","","html-keyboard-response","363","306033","0.0-363.0","","","null","","","","","","","",""
"null","","html-keyboard-response","364","366037","0.0-364.0","","<p class=""center-content"">You have completed a block! </p><p class=""center-content"">Press any key on the keyboard to continue, </p><p class=""center-content"">or wait for the automatic progression to the next block after one minute.</p>","null","","","","","","","",""
"15491","","instructions","365","381528","0.0-365.0","[{""page_index"":0,""viewing_time"":15490}]","","","","","","","","","",""
"4205","","instructions","366","385734","0.0-366.0","[{""page_index"":0,""viewing_time"":2757},{""page_index"":1,""viewing_time"":1447}]","","","","","","","","","",""
"null","","image-keyboard-response","367","388253","0.0-367.0","","img/set2/S3.jpg","null","3","structured_load","72","random,structured_load,structured_normal,structured_incentive","3,4,2,1,2,3","false","",""
"null","","html-keyboard-response","368","388606","0.0-368.0","","<img src=""img/set2/S3.jpg"" width=""540"" height = ""360"">","null","","","","","","","",""
"null","","html-keyboard-response","369","388819","0.0-369.0","","","null","","","","","","","",""
"456","","image-keyboard-response","370","389276","0.0-370.0","","img/set2/S4.jpg","83","4","structured_load","74","random,structured_load,structured_normal,structured_incentive","3,4,2,1,2,3","false","",""
"null","","html-keyboard-response","371","389633","0.0-371.0","","<img src=""img/set2/S4.jpg"" width=""540"" height = ""360"">","null","","","","","","","",""
"null","","html-keyboard-response","372","389841","0.0-372.0","","","null","","","","","","","",""
"557","","image-keyboard-response","373","390400","0.0-373.0","","img/set2/S3.jpg","72","3","structured_load","72","random,structured_load,structured_normal,structured_incentive","3,4,2,1,2,3","true","",""
"null","","html-keyboard-response","374","390752","0.0-374.0","","<img src=""img/set2/S3.jpg"" width=""540"" height = ""360"" style=""border:16px solid orange"">","null","","","","","","","",""
"null","","html-keyboard-response","375","390953","0.0-375.0","","","null","","","","","","","",""
"595","","image-keyboard-response","376","391559","0.0-376.0","","img/set2/S4.jpg","83","4","structured_load","74","random,structured_load,structured_normal,structured_incentive","3,4,2,1,2,3","false","",""
"null","","html-keyboard-response","377","391916","0.0-377.0","","<img src=""img/set2/S4.jpg"" width=""540"" height = ""360"">","null","","","","","","","",""
"null","","html-keyboard-response","378","392129","0.0-378.0","","","null","","","","","","","",""
"1080","","image-keyboard-response","379","393222","0.0-379.0","","img/set2/S3.jpg","68","3","structured_load","72","random,structured_load,structured_normal,structured_incentive","3,4,2,1,2,3","false","",""
"null","","html-keyboard-response","380","393575","0.0-380.0","","<img src=""img/set2/S3.jpg"" width=""540"" height = ""360"">","null","","","","","","","",""
"null","","html-keyboard-response","381","393778","0.0-381.0","","","null","","","","","","","",""
"632","","image-keyboard-response","382","394410","0.0-382.0","","img/set2/S4.jpg","72","4","structured_load","74","random,structured_load,structured_normal,structured_incentive","3,4,2,1,2,3","false","",""
"null","","html-keyboard-response","383","394762","0.0-383.0","","<img src=""img/set2/S4.jpg"" width=""540"" height = ""360"">","null","","","","","","","",""
"null","","html-keyboard-response","384","394962","0.0-384.0","","","null","","","","","","","",""
"360","","image-keyboard-response","385","395324","0.0-385.0","","img/set2/S1.jpg","68","1","structured_load","83","random,structured_load,structured_normal,structured_incentive","3,4,2,1,2,3","false","",""
"null","","html-keyboard-response","386","395687","0.0-386.0","","<img src=""img/set2/S1.jpg"" width=""540"" height = ""360"">","null","","","","","","","",""
"null","","html-keyboard-response","387","395902","0.0-387.0","","","null","","","","","","","",""
"375","","image-keyboard-response","388","396279","0.0-388.0","","img/set2/S1.jpg","83","1","structured_load","83","random,structured_load,structured_normal,structured_incentive","3,4,2,1,2,3","true","",""
"null","","html-keyboard-response","389","396637","0.0-389.0","","<img src=""img/set2/S1.jpg"" width=""540"" height = ""360"" style=""border:16px solid orange"">","null","","","","","","","",""
"null","","html-keyboard-response","390","396841","0.0-390.0","","","null","","","","","","","",""
"1050","","image-keyboard-response","391","397905","0.0-391.0","","img/set2/S2.jpg","68","2","structured_load","68","random,structured_load,structured_normal,structured_incentive","3,4,2,1,2,3","true","",""
"null","","html-keyboard-response","392","398271","0.0-392.0","","<img src=""img/set2/S2.jpg"" width=""540"" height = ""360"" style=""border:16px solid orange"">","null","","","","","","","",""
"null","","html-keyboard-response","393","398482","0.0-393.0","","","null","","","","","","","",""
"719","","image-keyboard-response","394","399216","0.0-394.0","","img/set2/S1.jpg","68","1","structured_load","83","random,structured_load,structured_normal,structured_incentive","3,4,2,1,2,3","false","",""
"null","","html-keyboard-response","395","399576","0.0-395.0","","<img src=""img/set2/S1.jpg"" width=""540"" height = ""360"">","null","","","","","","","",""
"null","","html-keyboard-response","396","399778","0.0-396.0","","","null","","","","","","","",""
"1267","","image-keyboard-response","397","401046","0.0-397.0","","img/set2/S2.jpg","68","2","structured_load","68","random,structured_load,structured_normal,structured_incentive","3,4,2,1,2,3","true","",""
"null","","html-keyboard-response","398","401396","0.0-398.0","","<img src=""img/set2/S2.jpg"" width=""540"" height = ""360"" style=""border:16px solid orange"">","null","","","","","","","",""
"null","","html-keyboard-response","399","401597","0.0-399.0","","","null","","","","","","","",""
"512","","image-keyboard-response","400","402122","0.0-400.0","","img/set2/S3.jpg","72","3","structured_load","72","random,structured_load,structured_normal,structured_incentive","3,4,2,1,2,3","true","",""
"null","","html-keyboard-response","401","402482","0.0-401.0","","<img src=""img/set2/S3.jpg"" width=""540"" height = ""360"" style=""border:16px solid orange"">","null","","","","","","","",""
"null","","html-keyboard-response","402","402685","0.0-402.0","","","null","","","","","","","",""
"840","","image-keyboard-response","403","403531","0.0-403.0","","img/set2/S4.jpg","68","4","structured_load","74","random,structured_load,structured_normal,structured_incentive","3,4,2,1,2,3","false","",""
"null","","html-keyboard-response","404","403887","0.0-404.0","","<img src=""img/set2/S4.jpg"" width=""540"" height = ""360"">","null","","","","","","","",""
"null","","html-keyboard-response","405","404088","0.0-405.0","","","null","","","","","","","",""
"776","","image-keyboard-response","406","404866","0.0-406.0","","img/set2/S2.jpg","68","2","structured_load","68","random,structured_load,structured_normal,structured_incentive","3,4,2,1,2,3","true","",""
"null","","html-keyboard-response","407","405225","0.0-407.0","","<img src=""img/set2/S2.jpg"" width=""540"" height = ""360"" style=""border:16px solid orange"">","null","","","","","","","",""
"null","","html-keyboard-response","408","405426","0.0-408.0","","","null","","","","","","","",""
"451","","image-keyboard-response","409","405878","0.0-409.0","","img/set2/S2.jpg","72","2","structured_load","68","random,structured_load,structured_normal,structured_incentive","3,4,2,1,2,3","false","",""
"null","","html-keyboard-response","410","406233","0.0-410.0","","<img src=""img/set2/S2.jpg"" width=""540"" height = ""360"">","null","","","","","","","",""
"null","","html-keyboard-response","411","406435","0.0-411.0","","","null","","","","","","","",""
"514","","image-keyboard-response","412","406953","0.0-412.0","","img/set2/S1.jpg","72","1","structured_load","83","random,structured_load,structured_normal,structured_incentive","3,4,2,1,2,3","false","",""
"null","","html-keyboard-response","413","407311","0.0-413.0","","<img src=""img/set2/S1.jpg"" width=""540"" height = ""360"">","null","","","","","","","",""
"null","","html-keyboard-response","414","407512","0.0-414.0","","","null","","","","","","","",""
"488","","image-keyboard-response","415","408000","0.0-415.0","","img/set2/S1.jpg","72","1","structured_load","83","random,structured_load,structured_normal,structured_incentive","3,4,2,1,2,3","false","",""
"null","","html-keyboard-response","416","408351","0.0-416.0","","<img src=""img/set2/S1.jpg"" width=""540"" height = ""360"">","null","","","","","","","",""
"null","","html-keyboard-response","417","408551","0.0-417.0","","","null","","","","","","","",""
"604","","image-keyboard-response","418","409156","0.0-418.0","","img/set2/S1.jpg","74","1","structured_load","83","random,structured_load,structured_normal,structured_incentive","3,4,2,1,2,3","false","",""
"null","","html-keyboard-response","419","409512","0.0-419.0","","<img src=""img/set2/S1.jpg"" width=""540"" height = ""360"">","null","","","","","","","",""
"null","","html-keyboard-response","420","409715","0.0-420.0","","","null","","","","","","","",""
"594","","image-keyboard-response","421","410311","0.0-421.0","","img/set2/S1.jpg","72","1","structured_load","83","random,structured_load,structured_normal,structured_incentive","3,4,2,1,2,3","false","",""
"null","","html-keyboard-response","422","410668","0.0-422.0","","<img src=""img/set2/S1.jpg"" width=""540"" height = ""360"">","null","","","","","","","",""
"null","","html-keyboard-response","423","410871","0.0-423.0","","","null","","","","","","","",""
"622","","image-keyboard-response","424","411498","0.0-424.0","","img/set2/S2.jpg","83","2","structured_load","68","random,structured_load,structured_normal,structured_incentive","3,4,2,1,2,3","false","",""
"null","","html-keyboard-response","425","411856","0.0-425.0","","<img src=""img/set2/S2.jpg"" width=""540"" height = ""360"">","null","","","","","","","",""
"null","","html-keyboard-response","426","412057","0.0-426.0","","","null","","","","","","","",""
"823","","image-keyboard-response","427","412881","0.0-427.0","","img/set2/S3.jpg","72","3","structured_load","72","random,structured_load,structured_normal,structured_incentive","3,4,2,1,2,3","true","",""
"null","","html-keyboard-response","428","413242","0.0-428.0","","<img src=""img/set2/S3.jpg"" width=""540"" height = ""360"" style=""border:16px solid orange"">","null","","","","","","","",""
"null","","html-keyboard-response","429","413450","0.0-429.0","","","null","","","","","","","",""
"358","","image-keyboard-response","430","413822","0.0-430.0","","img/set2/S4.jpg","83","4","structured_load","74","random,structured_load,structured_normal,structured_incentive","3,4,2,1,2,3","false","",""
"null","","html-keyboard-response","431","414174","0.0-431.0","","<img src=""img/set2/S4.jpg"" width=""540"" height = ""360"">","null","","","","","","","",""
"null","","html-keyboard-response","432","414388","0.0-432.0","","","null","","","","","","","",""
"403","","image-keyboard-response","433","414794","0.0-433.0","","img/set2/S2.jpg","83","2","structured_load","68","random,structured_load,structured_normal,structured_incentive","3,4,2,1,2,3","false","",""
"null","","html-keyboard-response","434","415147","0.0-434.0","","<img src=""img/set2/S2.jpg"" width=""540"" height = ""360"">","null","","","","","","","",""
"null","","html-keyboard-response","435","415362","0.0-435.0","","","null","","","","","","","",""
"511","","image-keyboard-response","436","415879","0.0-436.0","","img/set2/S1.jpg","72","1","structured_load","83","random,structured_load,structured_normal,structured_incentive","3,4,2,1,2,3","false","",""
"null","","html-keyboard-response","437","416233","0.0-437.0","","<img src=""img/set2/S1.jpg"" width=""540"" height = ""360"">","null","","","","","","","",""
"null","","html-keyboard-response","438","416436","0.0-438.0","","","null","","","","","","","",""
"458","","image-keyboard-response","439","416901","0.0-439.0","","img/set2/S1.jpg","83","1","structured_load","83","random,structured_load,structured_normal,structured_incentive","3,4,2,1,2,3","true","",""
"null","","html-keyboard-response","440","417263","0.0-440.0","","<img src=""img/set2/S1.jpg"" width=""540"" height = ""360"" style=""border:16px solid orange"">","null","","","","","","","",""
"null","","html-keyboard-response","441","417466","0.0-441.0","","","null","","","","","","","",""
"437","","image-keyboard-response","442","417918","0.0-442.0","","img/set2/S2.jpg","74","2","structured_load","68","random,structured_load,structured_normal,structured_incentive","3,4,2,1,2,3","false","",""
"null","","html-keyboard-response","443","418269","0.0-443.0","","<img src=""img/set2/S2.jpg"" width=""540"" height = ""360"">","null","","","","","","","",""
"null","","html-keyboard-response","444","418470","0.0-444.0","","","null","","","","","","","",""
"514","","image-keyboard-response","445","418986","0.0-445.0","","img/set2/S1.jpg","68","1","structured_load","83","random,structured_load,structured_normal,structured_incentive","3,4,2,1,2,3","false","",""
"null","","html-keyboard-response","446","419338","0.0-446.0","","<img src=""img/set2/S1.jpg"" width=""540"" height = ""360"">","null","","","","","","","",""
"null","","html-keyboard-response","447","419544","0.0-447.0","","","null","","","","","","","",""
"515","","image-keyboard-response","448","420071","0.0-448.0","","img/set2/S2.jpg","72","2","structured_load","68","random,structured_load,structured_normal,structured_incentive","3,4,2,1,2,3","false","",""
"null","","html-keyboard-response","449","420434","0.0-449.0","","<img src=""img/set2/S2.jpg"" width=""540"" height = ""360"">","null","","","","","","","",""
"null","","html-keyboard-response","450","420639","0.0-450.0","","","null","","","","","","","",""
"952","","image-keyboard-response","451","421603","0.0-451.0","","img/set2/S1.jpg","72","1","structured_load","83","random,structured_load,structured_normal,structured_incentive","3,4,2,1,2,3","false","",""
"null","","html-keyboard-response","452","421966","0.0-452.0","","<img src=""img/set2/S1.jpg"" width=""540"" height = ""360"">","null","","","","","","","",""
"null","","html-keyboard-response","453","422169","0.0-453.0","","","null","","","","","","","",""
"875","","image-keyboard-response","454","423057","0.0-454.0","","img/set2/S2.jpg","72","2","structured_load","68","random,structured_load,structured_normal,structured_incentive","3,4,2,1,2,3","false","",""
"null","","html-keyboard-response","455","423420","0.0-455.0","","<img src=""img/set2/S2.jpg"" width=""540"" height = ""360"">","null","","","","","","","",""
"null","","html-keyboard-response","456","423622","0.0-456.0","","","null","","","","","","","",""
"765","","image-keyboard-response","457","424398","0.0-457.0","","img/set2/S3.jpg","68","3","structured_load","72","random,structured_load,structured_normal,structured_incentive","3,4,2,1,2,3","false","",""
"null","","html-keyboard-response","458","424757","0.0-458.0","","<img src=""img/set2/S3.jpg"" width=""540"" height = ""360"">","null","","","","","","","",""
"null","","html-keyboard-response","459","424968","0.0-459.0","","","null","","","","","","","",""
"697","","image-keyboard-response","460","425666","0.0-460.0","","img/set2/S4.jpg","68","4","structured_load","74","random,structured_load,structured_normal,structured_incentive","3,4,2,1,2,3","false","",""
"null","","html-keyboard-response","461","426017","0.0-461.0","","<img src=""img/set2/S4.jpg"" width=""540"" height = ""360"">","null","","","","","","","",""
"null","","html-keyboard-response","462","426232","0.0-462.0","","","null","","","","","","","",""
"986","","image-keyboard-response","463","427219","0.0-463.0","","img/set2/S3.jpg","72","3","structured_load","72","random,structured_load,structured_normal,structured_incentive","3,4,2,1,2,3","true","",""
"null","","html-keyboard-response","464","427575","0.0-464.0","","<img src=""img/set2/S3.jpg"" width=""540"" height = ""360"" style=""border:16px solid orange"">","null","","","","","","","",""
"null","","html-keyboard-response","465","427778","0.0-465.0","","","null","","","","","","","",""
"483","","image-keyboard-response","466","428262","0.0-466.0","","img/set2/S4.jpg","83","4","structured_load","74","random,structured_load,structured_normal,structured_incentive","3,4,2,1,2,3","false","",""
"null","","html-keyboard-response","467","428613","0.0-467.0","","<img src=""img/set2/S4.jpg"" width=""540"" height = ""360"">","null","","","","","","","",""
"null","","html-keyboard-response","468","428813","0.0-468.0","","","null","","","","","","","",""
"891","","image-keyboard-response","469","429706","0.0-469.0","","img/set2/S2.jpg","74","2","structured_load","68","random,structured_load,structured_normal,structured_incentive","3,4,2,1,2,3","false","",""
"null","","html-keyboard-response","470","430063","0.0-470.0","","<img src=""img/set2/S2.jpg"" width=""540"" height = ""360"">","null","","","","","","","",""
"null","","html-keyboard-response","471","430274","0.0-471.0","","","null","","","","","","","",""
"540","","image-keyboard-response","472","430823","0.0-472.0","","img/set2/S3.jpg","74","3","structured_load","72","random,structured_load,structured_normal,structured_incentive","3,4,2,1,2,3","false","",""
"null","","html-keyboard-response","473","431181","0.0-473.0","","<img src=""img/set2/S3.jpg"" width=""540"" height = ""360"">","null","","","","","","","",""
"null","","html-keyboard-response","474","431388","0.0-474.0","","","null","","","","","","","",""
"384","","image-keyboard-response","475","431785","0.0-475.0","","img/set2/S4.jpg","83","4","structured_load","74","random,structured_load,structured_normal,structured_incentive","3,4,2,1,2,3","false","",""
"null","","html-keyboard-response","476","432144","0.0-476.0","","<img src=""img/set2/S4.jpg"" width=""540"" height = ""360"">","null","","","","","","","",""
"null","","html-keyboard-response","477","432357","0.0-477.0","","","null","","","","","","","",""
"511","","image-keyboard-response","478","432872","0.0-478.0","","img/set2/S2.jpg","72","2","structured_load","68","random,structured_load,structured_normal,structured_incentive","3,4,2,1,2,3","false","",""
"null","","html-keyboard-response","479","433232","0.0-479.0","","<img src=""img/set2/S2.jpg"" width=""540"" height = ""360"">","null","","","","","","","",""
"null","","html-keyboard-response","480","433432","0.0-480.0","","","null","","","","","","","",""
"486","","image-keyboard-response","481","433920","0.0-481.0","","img/set2/S1.jpg","83","1","structured_load","83","random,structured_load,structured_normal,structured_incentive","3,4,2,1,2,3","true","",""
"null","","html-keyboard-response","482","434285","0.0-482.0","","<img src=""img/set2/S1.jpg"" width=""540"" height = ""360"" style=""border:16px solid orange"">","null","","","","","","","",""
"null","","html-keyboard-response","483","434487","0.0-483.0","","","null","","","","","","","",""
"576","","image-keyboard-response","484","435063","0.0-484.0","","img/set2/S3.jpg","83","3","structured_load","72","random,structured_load,structured_normal,structured_incentive","3,4,2,1,2,3","false","",""
"null","","html-keyboard-response","485","435415","0.0-485.0","","<img src=""img/set2/S3.jpg"" width=""540"" height = ""360"">","null","","","","","","","",""
"null","","html-keyboard-response","486","435615","0.0-486.0","","","null","","","","","","","",""
"751","","image-keyboard-response","487","436381","0.0-487.0","","img/set2/S4.jpg","72","4","structured_load","74","random,structured_load,structured_normal,structured_incentive","3,4,2,1,2,3","false","",""
"null","","html-keyboard-response","488","436737","0.0-488.0","","<img src=""img/set2/S4.jpg"" width=""540"" height = ""360"">","null","","","","","","","",""
"null","","html-keyboard-response","489","436950","0.0-489.0","","","null","","","","","","","",""
"374","","image-keyboard-response","490","437326","0.0-490.0","","img/set2/S3.jpg","83","3","structured_load","72","random,structured_load,structured_normal,structured_incentive","3,4,2,1,2,3","false","",""
"null","","html-keyboard-response","491","437685","0.0-491.0","","<img src=""img/set2/S3.jpg"" width=""540"" height = ""360"">","null","","","","","","","",""
"null","","html-keyboard-response","492","437887","0.0-492.0","","","null","","","","","","","",""
"634","","image-keyboard-response","493","438533","0.0-493.0","","img/set2/S4.jpg","72","4","structured_load","74","random,structured_load,structured_normal,structured_incentive","3,4,2,1,2,3","false","",""
"null","","html-keyboard-response","494","438889","0.0-494.0","","<img src=""img/set2/S4.jpg"" width=""540"" height = ""360"">","null","","","","","","","",""
"null","","html-keyboard-response","495","439090","0.0-495.0","","","null","","","","","","","",""
"481","","image-keyboard-response","496","439572","0.0-496.0","","img/set2/S3.jpg","83","3","structured_load","72","random,structured_load,structured_normal,structured_incentive","3,4,2,1,2,3","false","",""
"null","","html-keyboard-response","497","439924","0.0-497.0","","<img src=""img/set2/S3.jpg"" width=""540"" height = ""360"">","null","","","","","","","",""
"null","","html-keyboard-response","498","440128","0.0-498.0","","","null","","","","","","","",""
"496","","image-keyboard-response","499","440626","0.0-499.0","","img/set2/S4.jpg","72","4","structured_load","74","random,structured_load,structured_normal,structured_incentive","3,4,2,1,2,3","false","",""
"null","","html-keyboard-response","500","440982","0.0-500.0","","<img src=""img/set2/S4.jpg"" width=""540"" height = ""360"">","null","","","","","","","",""
"null","","html-keyboard-response","501","441183","0.0-501.0","","","null","","","","","","","",""
"976","","image-keyboard-response","502","442170","0.0-502.0","","img/set2/S1.jpg","68","1","structured_load","83","random,structured_load,structured_normal,structured_incentive","3,4,2,1,2,3","false","",""
"null","","html-keyboard-response","503","442527","0.0-503.0","","<img src=""img/set2/S1.jpg"" width=""540"" height = ""360"">","null","","","","","","","",""
"null","","html-keyboard-response","504","442731","0.0-504.0","","","null","","","","","","","",""
"875","","image-keyboard-response","505","443619","0.0-505.0","","img/set2/S3.jpg","72","3","structured_load","72","random,structured_load,structured_normal,structured_incentive","3,4,2,1,2,3","true","",""
"null","","html-keyboard-response","506","443982","0.0-506.0","","<img src=""img/set2/S3.jpg"" width=""540"" height = ""360"" style=""border:16px solid orange"">","null","","","","","","","",""
"null","","html-keyboard-response","507","444185","0.0-507.0","","","null","","","","","","","",""
"693","","image-keyboard-response","508","444883","0.0-508.0","","img/set2/S4.jpg","83","4","structured_load","74","random,structured_load,structured_normal,structured_incentive","3,4,2,1,2,3","false","",""
"null","","html-keyboard-response","509","445237","0.0-509.0","","<img src=""img/set2/S4.jpg"" width=""540"" height = ""360"">","null","","","","","","","",""
"null","","html-keyboard-response","510","445437","0.0-510.0","","","null","","","","","","","",""
"1153","","image-keyboard-response","511","446593","0.0-511.0","","img/set2/S3.jpg","83","3","structured_load","72","random,structured_load,structured_normal,structured_incentive","3,4,2,1,2,3","false","",""
"null","","html-keyboard-response","512","446958","0.0-512.0","","<img src=""img/set2/S3.jpg"" width=""540"" height = ""360"">","null","","","","","","","",""
"null","","html-keyboard-response","513","447168","0.0-513.0","","","null","","","","","","","",""
"529","","image-keyboard-response","514","447700","0.0-514.0","","img/set2/S4.jpg","72","4","structured_load","74","random,structured_load,structured_normal,structured_incentive","3,4,2,1,2,3","false","",""
"null","","html-keyboard-response","515","448057","0.0-515.0","","<img src=""img/set2/S4.jpg"" width=""540"" height = ""360"">","null","","","","","","","",""
"null","","html-keyboard-response","516","448269","0.0-516.0","","","null","","","","","","","",""
"813","","image-keyboard-response","517","449084","0.0-517.0","","img/set2/S3.jpg","68","3","structured_load","72","random,structured_load,structured_normal,structured_incentive","3,4,2,1,2,3","false","",""
"null","","html-keyboard-response","518","449435","0.0-518.0","","<img src=""img/set2/S3.jpg"" width=""540"" height = ""360"">","null","","","","","","","",""
"null","","html-keyboard-response","519","449636","0.0-519.0","","","null","","","","","","","",""
"598","","image-keyboard-response","520","450239","0.0-520.0","","img/set2/S4.jpg","72","4","structured_load","74","random,structured_load,structured_normal,structured_incentive","3,4,2,1,2,3","false","",""
"null","","html-keyboard-response","521","450598","0.0-521.0","","<img src=""img/set2/S4.jpg"" width=""540"" height = ""360"">","null","","","","","","","",""
"null","","html-keyboard-response","522","450809","0.0-522.0","","","null","","","","","","","",""
"474","","image-keyboard-response","523","451286","0.0-523.0","","img/set2/S1.jpg","74","1","structured_load","83","random,structured_load,structured_normal,structured_incentive","3,4,2,1,2,3","false","",""
"null","","html-keyboard-response","524","451652","0.0-524.0","","<img src=""img/set2/S1.jpg"" width=""540"" height = ""360"">","null","","","","","","","",""
"null","","html-keyboard-response","525","451856","0.0-525.0","","","null","","","","","","","",""
"772","","image-keyboard-response","526","452634","0.0-526.0","","img/set2/S3.jpg","83","3","structured_load","72","random,structured_load,structured_normal,structured_incentive","3,4,2,1,2,3","false","",""
"null","","html-keyboard-response","527","452990","0.0-527.0","","<img src=""img/set2/S3.jpg"" width=""540"" height = ""360"">","null","","","","","","","",""
"null","","html-keyboard-response","528","453201","0.0-528.0","","","null","","","","","","","",""
"479","","image-keyboard-response","529","453684","0.0-529.0","","img/set2/S4.jpg","74","4","structured_load","74","random,structured_load,structured_normal,structured_incentive","3,4,2,1,2,3","true","",""
"null","","html-keyboard-response","530","454037","0.0-530.0","","<img src=""img/set2/S4.jpg"" width=""540"" height = ""360"" style=""border:16px solid orange"">","null","","","","","","","",""
"null","","html-keyboard-response","531","454253","0.0-531.0","","","null","","","","","","","",""
"651","","image-keyboard-response","532","454912","0.0-532.0","","img/set2/S2.jpg","83","2","structured_load","68","random,structured_load,structured_normal,structured_incentive","3,4,2,1,2,3","false","",""
"null","","html-keyboard-response","533","455279","0.0-533.0","","<img src=""img/set2/S2.jpg"" width=""540"" height = ""360"">","null","","","","","","","",""
"null","","html-keyboard-response","534","455481","0.0-534.0","","","null","","","","","","","",""
"526","","image-keyboard-response","535","456007","0.0-535.0","","img/set2/S2.jpg","74","2","structured_load","68","random,structured_load,structured_normal,structured_incentive","3,4,2,1,2,3","false","",""
"null","","html-keyboard-response","536","456359","0.0-536.0","","<img src=""img/set2/S2.jpg"" width=""540"" height = ""360"">","null","","","","","","","",""
"null","","html-keyboard-response","537","456560","0.0-537.0","","","null","","","","","","","",""
"589","","image-keyboard-response","538","457150","0.0-538.0","","img/set2/S2.jpg","74","2","structured_load","68","random,structured_load,structured_normal,structured_incentive","3,4,2,1,2,3","false","",""
"null","","html-keyboard-response","539","457527","0.0-539.0","","<img src=""img/set2/S2.jpg"" width=""540"" height = ""360"">","null","","","","","","","",""
"null","","html-keyboard-response","540","457731","0.0-540.0","","","null","","","","","","","",""
"505","","image-keyboard-response","541","458240","0.0-541.0","","img/set2/S3.jpg","83","3","structured_load","72","random,structured_load,structured_normal,structured_incentive","3,4,2,1,2,3","false","",""
"null","","html-keyboard-response","542","458606","0.0-542.0","","<img src=""img/set2/S3.jpg"" width=""540"" height = ""360"">","null","","","","","","","",""
"null","","html-keyboard-response","543","458810","0.0-543.0","","","null","","","","","","","",""
"617","","image-keyboard-response","544","459439","0.0-544.0","","img/set2/S4.jpg","74","4","structured_load","74","random,structured_load,structured_normal,structured_incentive","3,4,2,1,2,3","true","",""
"null","","html-keyboard-response","545","459793","0.0-545.0","","<img src=""img/set2/S4.jpg"" width=""540"" height = ""360"" style=""border:16px solid orange"">","null","","","","","","","",""
"null","","html-keyboard-response","546","459996","0.0-546.0","","","null","","","","","","","",""
"598","","image-keyboard-response","547","460596","0.0-547.0","","img/set2/S3.jpg","83","3","structured_load","72","random,structured_load,structured_normal,structured_incentive","3,4,2,1,2,3","false","",""
"null","","html-keyboard-response","548","460947","0.0-548.0","","<img src=""img/set2/S3.jpg"" width=""540"" height = ""360"">","null","","","","","","","",""
"null","","html-keyboard-response","549","461156","0.0-549.0","","","null","","","","","","","",""
"634","","image-keyboard-response","550","461805","0.0-550.0","","img/set2/S4.jpg","83","4","structured_load","74","random,structured_load,structured_normal,structured_incentive","3,4,2,1,2,3","false","",""
"null","","html-keyboard-response","551","462168","0.0-551.0","","<img src=""img/set2/S4.jpg"" width=""540"" height = ""360"">","null","","","","","","","",""
"null","","html-keyboard-response","552","462378","0.0-552.0","","","null","","","","","","","",""
"588","","image-keyboard-response","553","462980","0.0-553.0","","img/set2/S3.jpg","74","3","structured_load","72","random,structured_load,structured_normal,structured_incentive","3,4,2,1,2,3","false","",""
"null","","html-keyboard-response","554","463338","0.0-554.0","","<img src=""img/set2/S3.jpg"" width=""540"" height = ""360"">","null","","","","","","","",""
"null","","html-keyboard-response","555","463550","0.0-555.0","","","null","","","","","","","",""
"1472","","image-keyboard-response","556","465029","0.0-556.0","","img/set2/S4.jpg","68","4","structured_load","74","random,structured_load,structured_normal,structured_incentive","3,4,2,1,2,3","false","",""
"null","","html-keyboard-response","557","465387","0.0-557.0","","<img src=""img/set2/S4.jpg"" width=""540"" height = ""360"">","null","","","","","","","",""
"null","","html-keyboard-response","558","465590","0.0-558.0","","","null","","","","","","","",""
"null","","image-keyboard-response","559","468091","0.0-559.0","","img/set2/S1.jpg","null","1","structured_load","83","random,structured_load,structured_normal,structured_incentive","3,4,2,1,2,3","false","",""
"null","","html-keyboard-response","560","468443","0.0-560.0","","<img src=""img/set2/S1.jpg"" width=""540"" height = ""360"">","null","","","","","","","",""
"null","","html-keyboard-response","561","468644","0.0-561.0","","","null","","","","","","","",""
"null","","image-keyboard-response","562","471158","0.0-562.0","","img/set2/S1.jpg","null","1","structured_load","83","random,structured_load,structured_normal,structured_incentive","3,4,2,1,2,3","false","",""
"null","","html-keyboard-response","563","471512","0.0-563.0","","<img src=""img/set2/S1.jpg"" width=""540"" height = ""360"">","null","","","","","","","",""
"null","","html-keyboard-response","564","471781","0.0-564.0","","","null","","","","","","","",""
"1415","","image-keyboard-response","565","473205","0.0-565.0","","img/set2/S2.jpg","83","2","structured_load","68","random,structured_load,structured_normal,structured_incentive","3,4,2,1,2,3","false","",""
"null","","html-keyboard-response","566","473566","0.0-566.0","","<img src=""img/set2/S2.jpg"" width=""540"" height = ""360"">","null","","","","","","","",""
"null","","html-keyboard-response","567","473778","0.0-567.0","","","null","","","","","","","",""
"535","","image-keyboard-response","568","474314","0.0-568.0","","img/set2/S2.jpg","74","2","structured_load","68","random,structured_load,structured_normal,structured_incentive","3,4,2,1,2,3","false","",""
"null","","html-keyboard-response","569","474677","0.0-569.0","","<img src=""img/set2/S2.jpg"" width=""540"" height = ""360"">","null","","","","","","","",""
"null","","html-keyboard-response","570","474887","0.0-570.0","","","null","","","","","","","",""
"558","","image-keyboard-response","571","475458","0.0-571.0","","img/set2/S1.jpg","68","1","structured_load","83","random,structured_load,structured_normal,structured_incentive","3,4,2,1,2,3","false","",""
"null","","html-keyboard-response","572","475815","0.0-572.0","","<img src=""img/set2/S1.jpg"" width=""540"" height = ""360"">","null","","","","","","","",""
"null","","html-keyboard-response","573","476017","0.0-573.0","","","null","","","","","","","",""
"490","","image-keyboard-response","574","476508","0.0-574.0","","img/set2/S3.jpg","74","3","structured_load","72","random,structured_load,structured_normal,structured_incentive","3,4,2,1,2,3","false","",""
"null","","html-keyboard-response","575","476859","0.0-575.0","","<img src=""img/set2/S3.jpg"" width=""540"" height = ""360"">","null","","","","","","","",""
"null","","html-keyboard-response","576","477062","0.0-576.0","","","null","","","","","","","",""
"null","","image-keyboard-response","577","479568","0.0-577.0","","img/set2/S4.jpg","null","4","structured_load","74","random,structured_load,structured_normal,structured_incentive","3,4,2,1,2,3","false","",""
"null","","html-keyboard-response","578","479933","0.0-578.0","","<img src=""img/set2/S4.jpg"" width=""540"" height = ""360"">","null","","","","","","","",""
"null","","html-keyboard-response","579","480137","0.0-579.0","","","null","","","","","","","",""
"null","","image-keyboard-response","580","482637","0.0-580.0","","img/set2/S1.jpg","null","1","structured_load","83","random,structured_load,structured_normal,structured_incentive","3,4,2,1,2,3","false","",""
"null","","html-keyboard-response","581","482988","0.0-581.0","","<img src=""img/set2/S1.jpg"" width=""540"" height = ""360"">","null","","","","","","","",""
"null","","html-keyboard-response","582","483200","0.0-582.0","","","null","","","","","","","",""
"null","","image-keyboard-response","583","485704","0.0-583.0","","img/set2/S1.jpg","null","1","structured_load","83","random,structured_load,structured_normal,structured_incentive","3,4,2,1,2,3","false","",""
"null","","html-keyboard-response","584","486056","0.0-584.0","","<img src=""img/set2/S1.jpg"" width=""540"" height = ""360"">","null","","","","","","","",""
"null","","html-keyboard-response","585","486269","0.0-585.0","","","null","","","","","","","",""
"2256","","image-keyboard-response","586","488526","0.0-586.0","","img/set2/S3.jpg","83","3","structured_load","72","random,structured_load,structured_normal,structured_incentive","3,4,2,1,2,3","false","",""
"null","","html-keyboard-response","587","488878","0.0-587.0","","<img src=""img/set2/S3.jpg"" width=""540"" height = ""360"">","null","","","","","","","",""
"null","","html-keyboard-response","588","489078","0.0-588.0","","","null","","","","","","","",""
"638","","image-keyboard-response","589","489717","0.0-589.0","","img/set2/S4.jpg","83","4","structured_load","74","random,structured_load,structured_normal,structured_incentive","3,4,2,1,2,3","false","",""
"null","","html-keyboard-response","590","490086","0.0-590.0","","<img src=""img/set2/S4.jpg"" width=""540"" height = ""360"">","null","","","","","","","",""
"null","","html-keyboard-response","591","490293","0.0-591.0","","","null","","","","","","","",""
"421","","image-keyboard-response","592","490719","0.0-592.0","","img/set2/S1.jpg","68","1","structured_load","83","random,structured_load,structured_normal,structured_incentive","3,4,2,1,2,3","false","",""
"null","","html-keyboard-response","593","491070","0.0-593.0","","<img src=""img/set2/S1.jpg"" width=""540"" height = ""360"">","null","","","","","","","",""
"null","","html-keyboard-response","594","491272","0.0-594.0","","","null","","","","","","","",""
"54","","image-keyboard-response","595","491327","0.0-595.0","","img/set2/S1.jpg","72","1","structured_load","83","random,structured_load,structured_normal,structured_incentive","3,4,2,1,2,3","false","",""
"null","","html-keyboard-response","596","491680","0.0-596.0","","<img src=""img/set2/S1.jpg"" width=""540"" height = ""360"">","null","","","","","","","",""
"null","","html-keyboard-response","597","491892","0.0-597.0","","","null","","","","","","","",""
"67","","image-keyboard-response","598","491959","0.0-598.0","","img/set2/S3.jpg","68","3","structured_load","72","random,structured_load,structured_normal,structured_incentive","3,4,2,1,2,3","false","",""
"null","","html-keyboard-response","599","492319","0.0-599.0","","<img src=""img/set2/S3.jpg"" width=""540"" height = ""360"">","null","","","","","","","",""
"null","","html-keyboard-response","600","492522","0.0-600.0","","","null","","","","","","","",""
"552","","image-keyboard-response","601","493084","0.0-601.0","","img/set2/S4.jpg","68","4","structured_load","74","random,structured_load,structured_normal,structured_incentive","3,4,2,1,2,3","false","",""
"null","","html-keyboard-response","602","493450","0.0-602.0","","<img src=""img/set2/S4.jpg"" width=""540"" height = ""360"">","null","","","","","","","",""
"null","","html-keyboard-response","603","493662","0.0-603.0","","","null","","","","","","","",""
"168","","image-keyboard-response","604","493832","0.0-604.0","","img/set2/S2.jpg","74","2","structured_load","68","random,structured_load,structured_normal,structured_incentive","3,4,2,1,2,3","false","",""
"null","","html-keyboard-response","605","494183","0.0-605.0","","<img src=""img/set2/S2.jpg"" width=""540"" height = ""360"">","null","","","","","","","",""
"null","","html-keyboard-response","606","494385","0.0-606.0","","","null","","","","","","","",""
"226","","image-keyboard-response","607","494613","0.0-607.0","","img/set2/S2.jpg","83","2","structured_load","68","random,structured_load,structured_normal,structured_incentive","3,4,2,1,2,3","false","",""
"null","","html-keyboard-response","608","494964","0.0-608.0","","<img src=""img/set2/S2.jpg"" width=""540"" height = ""360"">","null","","","","","","","",""
"null","","html-keyboard-response","609","495169","0.0-609.0","","","null","","","","","","","",""
"636","","image-keyboard-response","610","495806","0.0-610.0","","img/set2/S3.jpg","68","3","structured_load","72","random,structured_load,structured_normal,structured_incentive","3,4,2,1,2,3","false","",""
"null","","html-keyboard-response","611","496163","0.0-611.0","","<img src=""img/set2/S3.jpg"" width=""540"" height = ""360"">","null","","","","","","","",""
"null","","html-keyboard-response","612","496373","0.0-612.0","","","null","","","","","","","",""
"108","","image-keyboard-response","613","496487","0.0-613.0","","img/set2/S4.jpg","74","4","structured_load","74","random,structured_load,structured_normal,structured_incentive","3,4,2,1,2,3","true","",""
"null","","html-keyboard-response","614","496841","0.0-614.0","","<img src=""img/set2/S4.jpg"" width=""540"" height = ""360"" style=""border:16px solid orange"">","null","","","","","","","",""
"null","","html-keyboard-response","615","497050","0.0-615.0","","","null","","","","","","","",""
"325","","image-keyboard-response","616","497378","0.0-616.0","","img/set2/S2.jpg","68","2","structured_load","68","random,structured_load,structured_normal,structured_incentive","3,4,2,1,2,3","true","",""
"null","","html-keyboard-response","617","497730","0.0-617.0","","<img src=""img/set2/S2.jpg"" width=""540"" height = ""360"" style=""border:16px solid orange"">","null","","","","","","","",""
"null","","html-keyboard-response","618","497930","0.0-618.0","","","null","","","","","","","",""
"512","","image-keyboard-response","619","498443","0.0-619.0","","img/set2/S2.jpg","68","2","structured_load","68","random,structured_load,structured_normal,structured_incentive","3,4,2,1,2,3","true","",""
"null","","html-keyboard-response","620","498796","0.0-620.0","","<img src=""img/set2/S2.jpg"" width=""540"" height = ""360"" style=""border:16px solid orange"">","null","","","","","","","",""
"null","","html-keyboard-response","621","499026","0.0-621.0","","","null","","","","","","","",""
"603","","image-keyboard-response","622","499629","0.0-622.0","","img/set2/S2.jpg","68","2","structured_load","68","random,structured_load,structured_normal,structured_incentive","3,4,2,1,2,3","true","",""
"null","","html-keyboard-response","623","499996","0.0-623.0","","<img src=""img/set2/S2.jpg"" width=""540"" height = ""360"" style=""border:16px solid orange"">","null","","","","","","","",""
"null","","html-keyboard-response","624","500197","0.0-624.0","","","null","","","","","","","",""
"874","","image-keyboard-response","625","501072","0.0-625.0","","img/set2/S3.jpg","72","3","structured_load","72","random,structured_load,structured_normal,structured_incentive","3,4,2,1,2,3","true","",""
"null","","html-keyboard-response","626","501424","0.0-626.0","","<img src=""img/set2/S3.jpg"" width=""540"" height = ""360"" style=""border:16px solid orange"">","null","","","","","","","",""
"null","","html-keyboard-response","627","501625","0.0-627.0","","","null","","","","","","","",""
"542","","image-keyboard-response","628","502169","0.0-628.0","","img/set2/S4.jpg","72","4","structured_load","74","random,structured_load,structured_normal,structured_incentive","3,4,2,1,2,3","false","",""
"null","","html-keyboard-response","629","502520","0.0-629.0","","<img src=""img/set2/S4.jpg"" width=""540"" height = ""360"">","null","","","","","","","",""
"null","","html-keyboard-response","630","502721","0.0-630.0","","","null","","","","","","","",""
"166","","image-keyboard-response","631","502888","0.0-631.0","","img/set2/S1.jpg","68","1","structured_load","83","random,structured_load,structured_normal,structured_incentive","3,4,2,1,2,3","false","",""
"null","","html-keyboard-response","632","503241","0.0-632.0","","<img src=""img/set2/S1.jpg"" width=""540"" height = ""360"">","null","","","","","","","",""
