"rt","url","trial_type","trial_index","time_elapsed","internal_node_id","assignmentID","mturkID","hitID","view_history","stimulus","key_press","state","test_part","correct_response","order_block","order_chunk","order_freq","correct","responses","question_order","bonus"
"3241","consent.html","external-html","0","3974","0.0-0.0","39L1G8WVWRD7281QDLQ15V6Q0LU31Q","A2KLJKDG90K1PP","3M67TQBQQHANPE5CZBF2IQ6TWABA9O","","","","","","","","","","","","",""
"294591.2999999523","","instructions","1","298567","0.0-1.0","39L1G8WVWRD7281QDLQ15V6Q0LU31Q","A2KLJKDG90K1PP","3M67TQBQQHANPE5CZBF2IQ6TWABA9O","[{""page_index"":0,""viewing_time"":3701},{""page_index"":1,""viewing_time"":14961.699999809265},{""page_index"":2,""viewing_time"":109690.60000014305},{""page_index"":3,""viewing_time"":11995.099999904633},{""page_index"":4,""viewing_time"":132842.79999995232},{""page_index"":5,""viewing_time"":10035.100000143051},{""page_index"":6,""viewing_time"":11364.099999904633}]","","","","","","","","","","","",""
"5466.299999952316","","instructions","2","304036","0.0-2.0","39L1G8WVWRD7281QDLQ15V6Q0LU31Q","A2KLJKDG90K1PP","3M67TQBQQHANPE5CZBF2IQ6TWABA9O","[{""page_index"":0,""viewing_time"":5466.099999904633}]","","","","","","","","","","","",""
"124878.79999995232","","instructions","3","428915","0.0-3.0","39L1G8WVWRD7281QDLQ15V6Q0LU31Q","A2KLJKDG90K1PP","3M67TQBQQHANPE5CZBF2IQ6TWABA9O","[{""page_index"":0,""viewing_time"":116915.40000009537},{""page_index"":1,""viewing_time"":7963.099999904633}]","","","","","","","","","","","",""
"2250","","image-keyboard-response","4","431167","0.0-4.0","39L1G8WVWRD7281QDLQ15V6Q0LU31Q","A2KLJKDG90K1PP","3M67TQBQQHANPE5CZBF2IQ6TWABA9O","","img/set1/S4.jpg","83","4","structured_incentive","74","structured_incentive,random,structured_normal,structured_load","2,3,4,2,1,2","1,2,3,4","false","","",""
"null","","html-keyboard-response","5","431521","0.0-5.0","39L1G8WVWRD7281QDLQ15V6Q0LU31Q","A2KLJKDG90K1PP","3M67TQBQQHANPE5CZBF2IQ6TWABA9O","","<img src=""img/set1/S4.jpg"" width=""540"" height = ""360"">","null","","","","","","","","","",""
"null","","html-keyboard-response","6","431723","0.0-6.0","39L1G8WVWRD7281QDLQ15V6Q0LU31Q","A2KLJKDG90K1PP","3M67TQBQQHANPE5CZBF2IQ6TWABA9O","","","null","","","","","","","","","",""
"null","","image-keyboard-response","7","434224","0.0-7.0","39L1G8WVWRD7281QDLQ15V6Q0LU31Q","A2KLJKDG90K1PP","3M67TQBQQHANPE5CZBF2IQ6TWABA9O","","img/set1/S2.jpg","null","2","structured_incentive","68","structured_incentive,random,structured_normal,structured_load","2,3,4,2,1,2","1,2,3,4","false","","",""
"null","","html-keyboard-response","8","434577","0.0-8.0","39L1G8WVWRD7281QDLQ15V6Q0LU31Q","A2KLJKDG90K1PP","3M67TQBQQHANPE5CZBF2IQ6TWABA9O","","<img src=""img/set1/S2.jpg"" width=""540"" height = ""360"">","null","","","","","","","","","",""
"null","","html-keyboard-response","9","434778","0.0-9.0","39L1G8WVWRD7281QDLQ15V6Q0LU31Q","A2KLJKDG90K1PP","3M67TQBQQHANPE5CZBF2IQ6TWABA9O","","","null","","","","","","","","","",""
"681.3999998569489","","image-keyboard-response","10","435460","0.0-10.0","39L1G8WVWRD7281QDLQ15V6Q0LU31Q","A2KLJKDG90K1PP","3M67TQBQQHANPE5CZBF2IQ6TWABA9O","","img/set1/S3.jpg","72","3","structured_incentive","72","structured_incentive,random,structured_normal,structured_load","2,3,4,2,1,2","1,2,3,4","true","","",""
"null","","html-keyboard-response","11","435813","0.0-11.0","39L1G8WVWRD7281QDLQ15V6Q0LU31Q","A2KLJKDG90K1PP","3M67TQBQQHANPE5CZBF2IQ6TWABA9O","","<img src=""img/set1/S3.jpg"" width=""540"" height = ""360"" style=""border:16px solid orange"">","null","","","","","","","","","",""
"null","","html-keyboard-response","12","436016","0.0-12.0","39L1G8WVWRD7281QDLQ15V6Q0LU31Q","A2KLJKDG90K1PP","3M67TQBQQHANPE5CZBF2IQ6TWABA9O","","","null","","","","","","","","","",""
"577","","image-keyboard-response","13","436594","0.0-13.0","39L1G8WVWRD7281QDLQ15V6Q0LU31Q","A2KLJKDG90K1PP","3M67TQBQQHANPE5CZBF2IQ6TWABA9O","","img/set1/S2.jpg","72","2","structured_incentive","68","structured_incentive,random,structured_normal,structured_load","2,3,4,2,1,2","1,2,3,4","false","","",""
"null","","html-keyboard-response","14","436946","0.0-14.0","39L1G8WVWRD7281QDLQ15V6Q0LU31Q","A2KLJKDG90K1PP","3M67TQBQQHANPE5CZBF2IQ6TWABA9O","","<img src=""img/set1/S2.jpg"" width=""540"" height = ""360"">","null","","","","","","","","","",""
"null","","html-keyboard-response","15","437149","0.0-15.0","39L1G8WVWRD7281QDLQ15V6Q0LU31Q","A2KLJKDG90K1PP","3M67TQBQQHANPE5CZBF2IQ6TWABA9O","","","null","","","","","","","","","",""
"524.6000001430511","","image-keyboard-response","16","437675","0.0-16.0","39L1G8WVWRD7281QDLQ15V6Q0LU31Q","A2KLJKDG90K1PP","3M67TQBQQHANPE5CZBF2IQ6TWABA9O","","img/set1/S3.jpg","74","3","structured_incentive","72","structured_incentive,random,structured_normal,structured_load","2,3,4,2,1,2","1,2,3,4","false","","",""
"null","","html-keyboard-response","17","438027","0.0-17.0","39L1G8WVWRD7281QDLQ15V6Q0LU31Q","A2KLJKDG90K1PP","3M67TQBQQHANPE5CZBF2IQ6TWABA9O","","<img src=""img/set1/S3.jpg"" width=""540"" height = ""360"">","null","","","","","","","","","",""
"null","","html-keyboard-response","18","438229","0.0-18.0","39L1G8WVWRD7281QDLQ15V6Q0LU31Q","A2KLJKDG90K1PP","3M67TQBQQHANPE5CZBF2IQ6TWABA9O","","","null","","","","","","","","","",""
"679.1000001430511","","image-keyboard-response","19","438909","0.0-19.0","39L1G8WVWRD7281QDLQ15V6Q0LU31Q","A2KLJKDG90K1PP","3M67TQBQQHANPE5CZBF2IQ6TWABA9O","","img/set1/S4.jpg","83","4","structured_incentive","74","structured_incentive,random,structured_normal,structured_load","2,3,4,2,1,2","1,2,3,4","false","","",""
"null","","html-keyboard-response","20","439262","0.0-20.0","39L1G8WVWRD7281QDLQ15V6Q0LU31Q","A2KLJKDG90K1PP","3M67TQBQQHANPE5CZBF2IQ6TWABA9O","","<img src=""img/set1/S4.jpg"" width=""540"" height = ""360"">","null","","","","","","","","","",""
"null","","html-keyboard-response","21","439463","0.0-21.0","39L1G8WVWRD7281QDLQ15V6Q0LU31Q","A2KLJKDG90K1PP","3M67TQBQQHANPE5CZBF2IQ6TWABA9O","","","null","","","","","","","","","",""
"679.7999999523163","","image-keyboard-response","22","440144","0.0-22.0","39L1G8WVWRD7281QDLQ15V6Q0LU31Q","A2KLJKDG90K1PP","3M67TQBQQHANPE5CZBF2IQ6TWABA9O","","img/set1/S4.jpg","72","4","structured_incentive","74","structured_incentive,random,structured_normal,structured_load","2,3,4,2,1,2","1,2,3,4","false","","",""
"null","","html-keyboard-response","23","440497","0.0-23.0","39L1G8WVWRD7281QDLQ15V6Q0LU31Q","A2KLJKDG90K1PP","3M67TQBQQHANPE5CZBF2IQ6TWABA9O","","<img src=""img/set1/S4.jpg"" width=""540"" height = ""360"">","null","","","","","","","","","",""
"null","","html-keyboard-response","24","440699","0.0-24.0","39L1G8WVWRD7281QDLQ15V6Q0LU31Q","A2KLJKDG90K1PP","3M67TQBQQHANPE5CZBF2IQ6TWABA9O","","","null","","","","","","","","","",""
"123.59999990463257","","image-keyboard-response","25","440824","0.0-25.0","39L1G8WVWRD7281QDLQ15V6Q0LU31Q","A2KLJKDG90K1PP","3M67TQBQQHANPE5CZBF2IQ6TWABA9O","","img/set1/S1.jpg","74","1","structured_incentive","83","structured_incentive,random,structured_normal,structured_load","2,3,4,2,1,2","1,2,3,4","false","","",""
"null","","html-keyboard-response","26","441176","0.0-26.0","39L1G8WVWRD7281QDLQ15V6Q0LU31Q","A2KLJKDG90K1PP","3M67TQBQQHANPE5CZBF2IQ6TWABA9O","","<img src=""img/set1/S1.jpg"" width=""540"" height = ""360"">","null","","","","","","","","","",""
"null","","html-keyboard-response","27","441378","0.0-27.0","39L1G8WVWRD7281QDLQ15V6Q0LU31Q","A2KLJKDG90K1PP","3M67TQBQQHANPE5CZBF2IQ6TWABA9O","","","null","","","","","","","","","",""
"1700.5999999046326","","image-keyboard-response","28","443079","0.0-28.0","39L1G8WVWRD7281QDLQ15V6Q0LU31Q","A2KLJKDG90K1PP","3M67TQBQQHANPE5CZBF2IQ6TWABA9O","","img/set1/S1.jpg","83","1","structured_incentive","83","structured_incentive,random,structured_normal,structured_load","2,3,4,2,1,2","1,2,3,4","true","","",""
"null","","html-keyboard-response","29","443432","0.0-29.0","39L1G8WVWRD7281QDLQ15V6Q0LU31Q","A2KLJKDG90K1PP","3M67TQBQQHANPE5CZBF2IQ6TWABA9O","","<img src=""img/set1/S1.jpg"" width=""540"" height = ""360"" style=""border:16px solid orange"">","null","","","","","","","","","",""
"null","","html-keyboard-response","30","443634","0.0-30.0","39L1G8WVWRD7281QDLQ15V6Q0LU31Q","A2KLJKDG90K1PP","3M67TQBQQHANPE5CZBF2IQ6TWABA9O","","","null","","","","","","","","","",""
"null","","image-keyboard-response","31","446136","0.0-31.0","39L1G8WVWRD7281QDLQ15V6Q0LU31Q","A2KLJKDG90K1PP","3M67TQBQQHANPE5CZBF2IQ6TWABA9O","","img/set1/S2.jpg","null","2","structured_incentive","68","structured_incentive,random,structured_normal,structured_load","2,3,4,2,1,2","1,2,3,4","false","","",""
"null","","html-keyboard-response","32","446488","0.0-32.0","39L1G8WVWRD7281QDLQ15V6Q0LU31Q","A2KLJKDG90K1PP","3M67TQBQQHANPE5CZBF2IQ6TWABA9O","","<img src=""img/set1/S2.jpg"" width=""540"" height = ""360"">","null","","","","","","","","","",""
"null","","html-keyboard-response","33","446691","0.0-33.0","39L1G8WVWRD7281QDLQ15V6Q0LU31Q","A2KLJKDG90K1PP","3M67TQBQQHANPE5CZBF2IQ6TWABA9O","","","null","","","","","","","","","",""
"556.4000000953674","","image-keyboard-response","34","447250","0.0-34.0","39L1G8WVWRD7281QDLQ15V6Q0LU31Q","A2KLJKDG90K1PP","3M67TQBQQHANPE5CZBF2IQ6TWABA9O","","img/set1/S3.jpg","74","3","structured_incentive","72","structured_incentive,random,structured_normal,structured_load","2,3,4,2,1,2","1,2,3,4","false","","",""
"null","","html-keyboard-response","35","447602","0.0-35.0","39L1G8WVWRD7281QDLQ15V6Q0LU31Q","A2KLJKDG90K1PP","3M67TQBQQHANPE5CZBF2IQ6TWABA9O","","<img src=""img/set1/S3.jpg"" width=""540"" height = ""360"">","null","","","","","","","","","",""
"null","","html-keyboard-response","36","447804","0.0-36.0","39L1G8WVWRD7281QDLQ15V6Q0LU31Q","A2KLJKDG90K1PP","3M67TQBQQHANPE5CZBF2IQ6TWABA9O","","","null","","","","","","","","","",""
"930.2000000476837","","image-keyboard-response","37","448735","0.0-37.0","39L1G8WVWRD7281QDLQ15V6Q0LU31Q","A2KLJKDG90K1PP","3M67TQBQQHANPE5CZBF2IQ6TWABA9O","","img/set1/S3.jpg","72","3","structured_incentive","72","structured_incentive,random,structured_normal,structured_load","2,3,4,2,1,2","1,2,3,4","true","","",""
"null","","html-keyboard-response","38","449087","0.0-38.0","39L1G8WVWRD7281QDLQ15V6Q0LU31Q","A2KLJKDG90K1PP","3M67TQBQQHANPE5CZBF2IQ6TWABA9O","","<img src=""img/set1/S3.jpg"" width=""540"" height = ""360"" style=""border:16px solid orange"">","null","","","","","","","","","",""
"null","","html-keyboard-response","39","449288","0.0-39.0","39L1G8WVWRD7281QDLQ15V6Q0LU31Q","A2KLJKDG90K1PP","3M67TQBQQHANPE5CZBF2IQ6TWABA9O","","","null","","","","","","","","","",""
"785.7000000476837","","image-keyboard-response","40","450075","0.0-40.0","39L1G8WVWRD7281QDLQ15V6Q0LU31Q","A2KLJKDG90K1PP","3M67TQBQQHANPE5CZBF2IQ6TWABA9O","","img/set1/S4.jpg","68","4","structured_incentive","74","structured_incentive,random,structured_normal,structured_load","2,3,4,2,1,2","1,2,3,4","false","","",""
"null","","html-keyboard-response","41","450427","0.0-41.0","39L1G8WVWRD7281QDLQ15V6Q0LU31Q","A2KLJKDG90K1PP","3M67TQBQQHANPE5CZBF2IQ6TWABA9O","","<img src=""img/set1/S4.jpg"" width=""540"" height = ""360"">","null","","","","","","","","","",""
"null","","html-keyboard-response","42","450629","0.0-42.0","39L1G8WVWRD7281QDLQ15V6Q0LU31Q","A2KLJKDG90K1PP","3M67TQBQQHANPE5CZBF2IQ6TWABA9O","","","null","","","","","","","","","",""
"811.3999998569489","","image-keyboard-response","43","451442","0.0-43.0","39L1G8WVWRD7281QDLQ15V6Q0LU31Q","A2KLJKDG90K1PP","3M67TQBQQHANPE5CZBF2IQ6TWABA9O","","img/set1/S1.jpg","74","1","structured_incentive","83","structured_incentive,random,structured_normal,structured_load","2,3,4,2,1,2","1,2,3,4","false","","",""
"null","","html-keyboard-response","44","451794","0.0-44.0","39L1G8WVWRD7281QDLQ15V6Q0LU31Q","A2KLJKDG90K1PP","3M67TQBQQHANPE5CZBF2IQ6TWABA9O","","<img src=""img/set1/S1.jpg"" width=""540"" height = ""360"">","null","","","","","","","","","",""
"null","","html-keyboard-response","45","451995","0.0-45.0","39L1G8WVWRD7281QDLQ15V6Q0LU31Q","A2KLJKDG90K1PP","3M67TQBQQHANPE5CZBF2IQ6TWABA9O","","","null","","","","","","","","","",""
"534.8999998569489","","image-keyboard-response","46","452532","0.0-46.0","39L1G8WVWRD7281QDLQ15V6Q0LU31Q","A2KLJKDG90K1PP","3M67TQBQQHANPE5CZBF2IQ6TWABA9O","","img/set1/S2.jpg","72","2","structured_incentive","68","structured_incentive,random,structured_normal,structured_load","2,3,4,2,1,2","1,2,3,4","false","","",""
"null","","html-keyboard-response","47","452884","0.0-47.0","39L1G8WVWRD7281QDLQ15V6Q0LU31Q","A2KLJKDG90K1PP","3M67TQBQQHANPE5CZBF2IQ6TWABA9O","","<img src=""img/set1/S2.jpg"" width=""540"" height = ""360"">","null","","","","","","","","","",""
"null","","html-keyboard-response","48","453086","0.0-48.0","39L1G8WVWRD7281QDLQ15V6Q0LU31Q","A2KLJKDG90K1PP","3M67TQBQQHANPE5CZBF2IQ6TWABA9O","","","null","","","","","","","","","",""
"625.1999998092651","","image-keyboard-response","49","453712","0.0-49.0","39L1G8WVWRD7281QDLQ15V6Q0LU31Q","A2KLJKDG90K1PP","3M67TQBQQHANPE5CZBF2IQ6TWABA9O","","img/set1/S3.jpg","74","3","structured_incentive","72","structured_incentive,random,structured_normal,structured_load","2,3,4,2,1,2","1,2,3,4","false","","",""
"null","","html-keyboard-response","50","454064","0.0-50.0","39L1G8WVWRD7281QDLQ15V6Q0LU31Q","A2KLJKDG90K1PP","3M67TQBQQHANPE5CZBF2IQ6TWABA9O","","<img src=""img/set1/S3.jpg"" width=""540"" height = ""360"">","null","","","","","","","","","",""
"null","","html-keyboard-response","51","454266","0.0-51.0","39L1G8WVWRD7281QDLQ15V6Q0LU31Q","A2KLJKDG90K1PP","3M67TQBQQHANPE5CZBF2IQ6TWABA9O","","","null","","","","","","","","","",""
"593.7000000476837","","image-keyboard-response","52","454861","0.0-52.0","39L1G8WVWRD7281QDLQ15V6Q0LU31Q","A2KLJKDG90K1PP","3M67TQBQQHANPE5CZBF2IQ6TWABA9O","","img/set1/S1.jpg","83","1","structured_incentive","83","structured_incentive,random,structured_normal,structured_load","2,3,4,2,1,2","1,2,3,4","true","","",""
"null","","html-keyboard-response","53","455214","0.0-53.0","39L1G8WVWRD7281QDLQ15V6Q0LU31Q","A2KLJKDG90K1PP","3M67TQBQQHANPE5CZBF2IQ6TWABA9O","","<img src=""img/set1/S1.jpg"" width=""540"" height = ""360"" style=""border:16px solid orange"">","null","","","","","","","","","",""
"null","","html-keyboard-response","54","455416","0.0-54.0","39L1G8WVWRD7281QDLQ15V6Q0LU31Q","A2KLJKDG90K1PP","3M67TQBQQHANPE5CZBF2IQ6TWABA9O","","","null","","","","","","","","","",""
"668.2999999523163","","image-keyboard-response","55","456086","0.0-55.0","39L1G8WVWRD7281QDLQ15V6Q0LU31Q","A2KLJKDG90K1PP","3M67TQBQQHANPE5CZBF2IQ6TWABA9O","","img/set1/S4.jpg","68","4","structured_incentive","74","structured_incentive,random,structured_normal,structured_load","2,3,4,2,1,2","1,2,3,4","false","","",""
"null","","html-keyboard-response","56","456439","0.0-56.0","39L1G8WVWRD7281QDLQ15V6Q0LU31Q","A2KLJKDG90K1PP","3M67TQBQQHANPE5CZBF2IQ6TWABA9O","","<img src=""img/set1/S4.jpg"" width=""540"" height = ""360"">","null","","","","","","","","","",""
"null","","html-keyboard-response","57","456640","0.0-57.0","39L1G8WVWRD7281QDLQ15V6Q0LU31Q","A2KLJKDG90K1PP","3M67TQBQQHANPE5CZBF2IQ6TWABA9O","","","null","","","","","","","","","",""
"383","","image-keyboard-response","58","457024","0.0-58.0","39L1G8WVWRD7281QDLQ15V6Q0LU31Q","A2KLJKDG90K1PP","3M67TQBQQHANPE5CZBF2IQ6TWABA9O","","img/set1/S1.jpg","72","1","structured_incentive","83","structured_incentive,random,structured_normal,structured_load","2,3,4,2,1,2","1,2,3,4","false","","",""
"null","","html-keyboard-response","59","457377","0.0-59.0","39L1G8WVWRD7281QDLQ15V6Q0LU31Q","A2KLJKDG90K1PP","3M67TQBQQHANPE5CZBF2IQ6TWABA9O","","<img src=""img/set1/S1.jpg"" width=""540"" height = ""360"">","null","","","","","","","","","",""
"null","","html-keyboard-response","60","457579","0.0-60.0","39L1G8WVWRD7281QDLQ15V6Q0LU31Q","A2KLJKDG90K1PP","3M67TQBQQHANPE5CZBF2IQ6TWABA9O","","","null","","","","","","","","","",""
"434.59999990463257","","image-keyboard-response","61","458015","0.0-61.0","39L1G8WVWRD7281QDLQ15V6Q0LU31Q","A2KLJKDG90K1PP","3M67TQBQQHANPE5CZBF2IQ6TWABA9O","","img/set1/S4.jpg","74","4","structured_incentive","74","structured_incentive,random,structured_normal,structured_load","2,3,4,2,1,2","1,2,3,4","true","","",""
"null","","html-keyboard-response","62","458367","0.0-62.0","39L1G8WVWRD7281QDLQ15V6Q0LU31Q","A2KLJKDG90K1PP","3M67TQBQQHANPE5CZBF2IQ6TWABA9O","","<img src=""img/set1/S4.jpg"" width=""540"" height = ""360"" style=""border:16px solid Violet"">","null","","","","","","","","","",""
"null","","html-keyboard-response","63","458568","0.0-63.0","39L1G8WVWRD7281QDLQ15V6Q0LU31Q","A2KLJKDG90K1PP","3M67TQBQQHANPE5CZBF2IQ6TWABA9O","","","null","","","","","","","","","",""
"1829.5","","image-keyboard-response","64","460398","0.0-64.0","39L1G8WVWRD7281QDLQ15V6Q0LU31Q","A2KLJKDG90K1PP","3M67TQBQQHANPE5CZBF2IQ6TWABA9O","","img/set1/S1.jpg","68","1","structured_incentive","83","structured_incentive,random,structured_normal,structured_load","2,3,4,2,1,2","1,2,3,4","false","","",""
"null","","html-keyboard-response","65","460750","0.0-65.0","39L1G8WVWRD7281QDLQ15V6Q0LU31Q","A2KLJKDG90K1PP","3M67TQBQQHANPE5CZBF2IQ6TWABA9O","","<img src=""img/set1/S1.jpg"" width=""540"" height = ""360"">","null","","","","","","","","","",""
"null","","html-keyboard-response","66","460952","0.0-66.0","39L1G8WVWRD7281QDLQ15V6Q0LU31Q","A2KLJKDG90K1PP","3M67TQBQQHANPE5CZBF2IQ6TWABA9O","","","null","","","","","","","","","",""
"680.3000001907349","","image-keyboard-response","67","461633","0.0-67.0","39L1G8WVWRD7281QDLQ15V6Q0LU31Q","A2KLJKDG90K1PP","3M67TQBQQHANPE5CZBF2IQ6TWABA9O","","img/set1/S1.jpg","72","1","structured_incentive","83","structured_incentive,random,structured_normal,structured_load","2,3,4,2,1,2","1,2,3,4","false","","",""
"null","","html-keyboard-response","68","461984","0.0-68.0","39L1G8WVWRD7281QDLQ15V6Q0LU31Q","A2KLJKDG90K1PP","3M67TQBQQHANPE5CZBF2IQ6TWABA9O","","<img src=""img/set1/S1.jpg"" width=""540"" height = ""360"">","null","","","","","","","","","",""
"null","","html-keyboard-response","69","462185","0.0-69.0","39L1G8WVWRD7281QDLQ15V6Q0LU31Q","A2KLJKDG90K1PP","3M67TQBQQHANPE5CZBF2IQ6TWABA9O","","","null","","","","","","","","","",""
"461","","image-keyboard-response","70","462647","0.0-70.0","39L1G8WVWRD7281QDLQ15V6Q0LU31Q","A2KLJKDG90K1PP","3M67TQBQQHANPE5CZBF2IQ6TWABA9O","","img/set1/S1.jpg","83","1","structured_incentive","83","structured_incentive,random,structured_normal,structured_load","2,3,4,2,1,2","1,2,3,4","true","","",""
"null","","html-keyboard-response","71","462999","0.0-71.0","39L1G8WVWRD7281QDLQ15V6Q0LU31Q","A2KLJKDG90K1PP","3M67TQBQQHANPE5CZBF2IQ6TWABA9O","","<img src=""img/set1/S1.jpg"" width=""540"" height = ""360"" style=""border:16px solid orange"">","null","","","","","","","","","",""
"null","","html-keyboard-response","72","463206","0.0-72.0","39L1G8WVWRD7281QDLQ15V6Q0LU31Q","A2KLJKDG90K1PP","3M67TQBQQHANPE5CZBF2IQ6TWABA9O","","","null","","","","","","","","","",""
"811.9000000953674","","image-keyboard-response","73","464018","0.0-73.0","39L1G8WVWRD7281QDLQ15V6Q0LU31Q","A2KLJKDG90K1PP","3M67TQBQQHANPE5CZBF2IQ6TWABA9O","","img/set1/S4.jpg","74","4","structured_incentive","74","structured_incentive,random,structured_normal,structured_load","2,3,4,2,1,2","1,2,3,4","true","","",""
"null","","html-keyboard-response","74","464371","0.0-74.0","39L1G8WVWRD7281QDLQ15V6Q0LU31Q","A2KLJKDG90K1PP","3M67TQBQQHANPE5CZBF2IQ6TWABA9O","","<img src=""img/set1/S4.jpg"" width=""540"" height = ""360"" style=""border:16px solid Violet"">","null","","","","","","","","","",""
"null","","html-keyboard-response","75","464573","0.0-75.0","39L1G8WVWRD7281QDLQ15V6Q0LU31Q","A2KLJKDG90K1PP","3M67TQBQQHANPE5CZBF2IQ6TWABA9O","","","null","","","","","","","","","",""
"1021.7999999523163","","image-keyboard-response","76","465595","0.0-76.0","39L1G8WVWRD7281QDLQ15V6Q0LU31Q","A2KLJKDG90K1PP","3M67TQBQQHANPE5CZBF2IQ6TWABA9O","","img/set1/S2.jpg","72","2","structured_incentive","68","structured_incentive,random,structured_normal,structured_load","2,3,4,2,1,2","1,2,3,4","false","","",""
"null","","html-keyboard-response","77","465947","0.0-77.0","39L1G8WVWRD7281QDLQ15V6Q0LU31Q","A2KLJKDG90K1PP","3M67TQBQQHANPE5CZBF2IQ6TWABA9O","","<img src=""img/set1/S2.jpg"" width=""540"" height = ""360"">","null","","","","","","","","","",""
"null","","html-keyboard-response","78","466150","0.0-78.0","39L1G8WVWRD7281QDLQ15V6Q0LU31Q","A2KLJKDG90K1PP","3M67TQBQQHANPE5CZBF2IQ6TWABA9O","","","null","","","","","","","","","",""
"1067.1999998092651","","image-keyboard-response","79","467218","0.0-79.0","39L1G8WVWRD7281QDLQ15V6Q0LU31Q","A2KLJKDG90K1PP","3M67TQBQQHANPE5CZBF2IQ6TWABA9O","","img/set1/S3.jpg","83","3","structured_incentive","72","structured_incentive,random,structured_normal,structured_load","2,3,4,2,1,2","1,2,3,4","false","","",""
"null","","html-keyboard-response","80","467570","0.0-80.0","39L1G8WVWRD7281QDLQ15V6Q0LU31Q","A2KLJKDG90K1PP","3M67TQBQQHANPE5CZBF2IQ6TWABA9O","","<img src=""img/set1/S3.jpg"" width=""540"" height = ""360"">","null","","","","","","","","","",""
"null","","html-keyboard-response","81","467771","0.0-81.0","39L1G8WVWRD7281QDLQ15V6Q0LU31Q","A2KLJKDG90K1PP","3M67TQBQQHANPE5CZBF2IQ6TWABA9O","","","null","","","","","","","","","",""
"666.4000000953674","","image-keyboard-response","82","468438","0.0-82.0","39L1G8WVWRD7281QDLQ15V6Q0LU31Q","A2KLJKDG90K1PP","3M67TQBQQHANPE5CZBF2IQ6TWABA9O","","img/set1/S2.jpg","68","2","structured_incentive","68","structured_incentive,random,structured_normal,structured_load","2,3,4,2,1,2","1,2,3,4","true","","",""
"null","","html-keyboard-response","83","468790","0.0-83.0","39L1G8WVWRD7281QDLQ15V6Q0LU31Q","A2KLJKDG90K1PP","3M67TQBQQHANPE5CZBF2IQ6TWABA9O","","<img src=""img/set1/S2.jpg"" width=""540"" height = ""360"" style=""border:16px solid orange"">","null","","","","","","","","","",""
"null","","html-keyboard-response","84","468992","0.0-84.0","39L1G8WVWRD7281QDLQ15V6Q0LU31Q","A2KLJKDG90K1PP","3M67TQBQQHANPE5CZBF2IQ6TWABA9O","","","null","","","","","","","","","",""
"607","","image-keyboard-response","85","469600","0.0-85.0","39L1G8WVWRD7281QDLQ15V6Q0LU31Q","A2KLJKDG90K1PP","3M67TQBQQHANPE5CZBF2IQ6TWABA9O","","img/set1/S3.jpg","72","3","structured_incentive","72","structured_incentive,random,structured_normal,structured_load","2,3,4,2,1,2","1,2,3,4","true","","",""
"null","","html-keyboard-response","86","469952","0.0-86.0","39L1G8WVWRD7281QDLQ15V6Q0LU31Q","A2KLJKDG90K1PP","3M67TQBQQHANPE5CZBF2IQ6TWABA9O","","<img src=""img/set1/S3.jpg"" width=""540"" height = ""360"" style=""border:16px solid orange"">","null","","","","","","","","","",""
"null","","html-keyboard-response","87","470153","0.0-87.0","39L1G8WVWRD7281QDLQ15V6Q0LU31Q","A2KLJKDG90K1PP","3M67TQBQQHANPE5CZBF2IQ6TWABA9O","","","null","","","","","","","","","",""
"1009","","image-keyboard-response","88","471164","0.0-88.0","39L1G8WVWRD7281QDLQ15V6Q0LU31Q","A2KLJKDG90K1PP","3M67TQBQQHANPE5CZBF2IQ6TWABA9O","","img/set1/S1.jpg","83","1","structured_incentive","83","structured_incentive,random,structured_normal,structured_load","2,3,4,2,1,2","1,2,3,4","true","","",""
"null","","html-keyboard-response","89","471516","0.0-89.0","39L1G8WVWRD7281QDLQ15V6Q0LU31Q","A2KLJKDG90K1PP","3M67TQBQQHANPE5CZBF2IQ6TWABA9O","","<img src=""img/set1/S1.jpg"" width=""540"" height = ""360"" style=""border:16px solid orange"">","null","","","","","","","","","",""
"null","","html-keyboard-response","90","471721","0.0-90.0","39L1G8WVWRD7281QDLQ15V6Q0LU31Q","A2KLJKDG90K1PP","3M67TQBQQHANPE5CZBF2IQ6TWABA9O","","","null","","","","","","","","","",""
"473.60000014305115","","image-keyboard-response","91","472195","0.0-91.0","39L1G8WVWRD7281QDLQ15V6Q0LU31Q","A2KLJKDG90K1PP","3M67TQBQQHANPE5CZBF2IQ6TWABA9O","","img/set1/S4.jpg","74","4","structured_incentive","74","structured_incentive,random,structured_normal,structured_load","2,3,4,2,1,2","1,2,3,4","true","","",""
"null","","html-keyboard-response","92","472547","0.0-92.0","39L1G8WVWRD7281QDLQ15V6Q0LU31Q","A2KLJKDG90K1PP","3M67TQBQQHANPE5CZBF2IQ6TWABA9O","","<img src=""img/set1/S4.jpg"" width=""540"" height = ""360"" style=""border:16px solid Violet"">","null","","","","","","","","","",""
"null","","html-keyboard-response","93","472748","0.0-93.0","39L1G8WVWRD7281QDLQ15V6Q0LU31Q","A2KLJKDG90K1PP","3M67TQBQQHANPE5CZBF2IQ6TWABA9O","","","null","","","","","","","","","",""
"545.5","","image-keyboard-response","94","473295","0.0-94.0","39L1G8WVWRD7281QDLQ15V6Q0LU31Q","A2KLJKDG90K1PP","3M67TQBQQHANPE5CZBF2IQ6TWABA9O","","img/set1/S4.jpg","74","4","structured_incentive","74","structured_incentive,random,structured_normal,structured_load","2,3,4,2,1,2","1,2,3,4","true","","",""
"null","","html-keyboard-response","95","473647","0.0-95.0","39L1G8WVWRD7281QDLQ15V6Q0LU31Q","A2KLJKDG90K1PP","3M67TQBQQHANPE5CZBF2IQ6TWABA9O","","<img src=""img/set1/S4.jpg"" width=""540"" height = ""360"" style=""border:16px solid Violet"">","null","","","","","","","","","",""
"null","","html-keyboard-response","96","473849","0.0-96.0","39L1G8WVWRD7281QDLQ15V6Q0LU31Q","A2KLJKDG90K1PP","3M67TQBQQHANPE5CZBF2IQ6TWABA9O","","","null","","","","","","","","","",""
"1020.5","","image-keyboard-response","97","474870","0.0-97.0","39L1G8WVWRD7281QDLQ15V6Q0LU31Q","A2KLJKDG90K1PP","3M67TQBQQHANPE5CZBF2IQ6TWABA9O","","img/set1/S1.jpg","72","1","structured_incentive","83","structured_incentive,random,structured_normal,structured_load","2,3,4,2,1,2","1,2,3,4","false","","",""
"null","","html-keyboard-response","98","475222","0.0-98.0","39L1G8WVWRD7281QDLQ15V6Q0LU31Q","A2KLJKDG90K1PP","3M67TQBQQHANPE5CZBF2IQ6TWABA9O","","<img src=""img/set1/S1.jpg"" width=""540"" height = ""360"">","null","","","","","","","","","",""
"null","","html-keyboard-response","99","475423","0.0-99.0","39L1G8WVWRD7281QDLQ15V6Q0LU31Q","A2KLJKDG90K1PP","3M67TQBQQHANPE5CZBF2IQ6TWABA9O","","","null","","","","","","","","","",""
"673.7999999523163","","image-keyboard-response","100","476098","0.0-100.0","39L1G8WVWRD7281QDLQ15V6Q0LU31Q","A2KLJKDG90K1PP","3M67TQBQQHANPE5CZBF2IQ6TWABA9O","","img/set1/S4.jpg","74","4","structured_incentive","74","structured_incentive,random,structured_normal,structured_load","2,3,4,2,1,2","1,2,3,4","true","","",""
"null","","html-keyboard-response","101","476449","0.0-101.0","39L1G8WVWRD7281QDLQ15V6Q0LU31Q","A2KLJKDG90K1PP","3M67TQBQQHANPE5CZBF2IQ6TWABA9O","","<img src=""img/set1/S4.jpg"" width=""540"" height = ""360"" style=""border:16px solid Violet"">","null","","","","","","","","","",""
"null","","html-keyboard-response","102","476653","0.0-102.0","39L1G8WVWRD7281QDLQ15V6Q0LU31Q","A2KLJKDG90K1PP","3M67TQBQQHANPE5CZBF2IQ6TWABA9O","","","null","","","","","","","","","",""
"645.0999999046326","","image-keyboard-response","103","477299","0.0-103.0","39L1G8WVWRD7281QDLQ15V6Q0LU31Q","A2KLJKDG90K1PP","3M67TQBQQHANPE5CZBF2IQ6TWABA9O","","img/set1/S2.jpg","83","2","structured_incentive","68","structured_incentive,random,structured_normal,structured_load","2,3,4,2,1,2","1,2,3,4","false","","",""
"null","","html-keyboard-response","104","477652","0.0-104.0","39L1G8WVWRD7281QDLQ15V6Q0LU31Q","A2KLJKDG90K1PP","3M67TQBQQHANPE5CZBF2IQ6TWABA9O","","<img src=""img/set1/S2.jpg"" width=""540"" height = ""360"">","null","","","","","","","","","",""
"null","","html-keyboard-response","105","477855","0.0-105.0","39L1G8WVWRD7281QDLQ15V6Q0LU31Q","A2KLJKDG90K1PP","3M67TQBQQHANPE5CZBF2IQ6TWABA9O","","","null","","","","","","","","","",""
"779.3999998569489","","image-keyboard-response","106","478635","0.0-106.0","39L1G8WVWRD7281QDLQ15V6Q0LU31Q","A2KLJKDG90K1PP","3M67TQBQQHANPE5CZBF2IQ6TWABA9O","","img/set1/S3.jpg","68","3","structured_incentive","72","structured_incentive,random,structured_normal,structured_load","2,3,4,2,1,2","1,2,3,4","false","","",""
"null","","html-keyboard-response","107","478987","0.0-107.0","39L1G8WVWRD7281QDLQ15V6Q0LU31Q","A2KLJKDG90K1PP","3M67TQBQQHANPE5CZBF2IQ6TWABA9O","","<img src=""img/set1/S3.jpg"" width=""540"" height = ""360"">","null","","","","","","","","","",""
"null","","html-keyboard-response","108","479188","0.0-108.0","39L1G8WVWRD7281QDLQ15V6Q0LU31Q","A2KLJKDG90K1PP","3M67TQBQQHANPE5CZBF2IQ6TWABA9O","","","null","","","","","","","","","",""
"807.4000000953674","","image-keyboard-response","109","479996","0.0-109.0","39L1G8WVWRD7281QDLQ15V6Q0LU31Q","A2KLJKDG90K1PP","3M67TQBQQHANPE5CZBF2IQ6TWABA9O","","img/set1/S1.jpg","83","1","structured_incentive","83","structured_incentive,random,structured_normal,structured_load","2,3,4,2,1,2","1,2,3,4","true","","",""
"null","","html-keyboard-response","110","480348","0.0-110.0","39L1G8WVWRD7281QDLQ15V6Q0LU31Q","A2KLJKDG90K1PP","3M67TQBQQHANPE5CZBF2IQ6TWABA9O","","<img src=""img/set1/S1.jpg"" width=""540"" height = ""360"" style=""border:16px solid orange"">","null","","","","","","","","","",""
"null","","html-keyboard-response","111","480549","0.0-111.0","39L1G8WVWRD7281QDLQ15V6Q0LU31Q","A2KLJKDG90K1PP","3M67TQBQQHANPE5CZBF2IQ6TWABA9O","","","null","","","","","","","","","",""
"590.0999999046326","","image-keyboard-response","112","481140","0.0-112.0","39L1G8WVWRD7281QDLQ15V6Q0LU31Q","A2KLJKDG90K1PP","3M67TQBQQHANPE5CZBF2IQ6TWABA9O","","img/set1/S1.jpg","83","1","structured_incentive","83","structured_incentive,random,structured_normal,structured_load","2,3,4,2,1,2","1,2,3,4","true","","",""
"null","","html-keyboard-response","113","481492","0.0-113.0","39L1G8WVWRD7281QDLQ15V6Q0LU31Q","A2KLJKDG90K1PP","3M67TQBQQHANPE5CZBF2IQ6TWABA9O","","<img src=""img/set1/S1.jpg"" width=""540"" height = ""360"" style=""border:16px solid orange"">","null","","","","","","","","","",""
"null","","html-keyboard-response","114","481694","0.0-114.0","39L1G8WVWRD7281QDLQ15V6Q0LU31Q","A2KLJKDG90K1PP","3M67TQBQQHANPE5CZBF2IQ6TWABA9O","","","null","","","","","","","","","",""
"948.7999999523163","","image-keyboard-response","115","482645","0.0-115.0","39L1G8WVWRD7281QDLQ15V6Q0LU31Q","A2KLJKDG90K1PP","3M67TQBQQHANPE5CZBF2IQ6TWABA9O","","img/set1/S2.jpg","72","2","structured_incentive","68","structured_incentive,random,structured_normal,structured_load","2,3,4,2,1,2","1,2,3,4","false","","",""
"null","","html-keyboard-response","116","482997","0.0-116.0","39L1G8WVWRD7281QDLQ15V6Q0LU31Q","A2KLJKDG90K1PP","3M67TQBQQHANPE5CZBF2IQ6TWABA9O","","<img src=""img/set1/S2.jpg"" width=""540"" height = ""360"">","null","","","","","","","","","",""
"null","","html-keyboard-response","117","483199","0.0-117.0","39L1G8WVWRD7281QDLQ15V6Q0LU31Q","A2KLJKDG90K1PP","3M67TQBQQHANPE5CZBF2IQ6TWABA9O","","","null","","","","","","","","","",""
"1526.5999999046326","","image-keyboard-response","118","484726","0.0-118.0","39L1G8WVWRD7281QDLQ15V6Q0LU31Q","A2KLJKDG90K1PP","3M67TQBQQHANPE5CZBF2IQ6TWABA9O","","img/set1/S3.jpg","72","3","structured_incentive","72","structured_incentive,random,structured_normal,structured_load","2,3,4,2,1,2","1,2,3,4","true","","",""
"null","","html-keyboard-response","119","485078","0.0-119.0","39L1G8WVWRD7281QDLQ15V6Q0LU31Q","A2KLJKDG90K1PP","3M67TQBQQHANPE5CZBF2IQ6TWABA9O","","<img src=""img/set1/S3.jpg"" width=""540"" height = ""360"" style=""border:16px solid orange"">","null","","","","","","","","","",""
"null","","html-keyboard-response","120","485280","0.0-120.0","39L1G8WVWRD7281QDLQ15V6Q0LU31Q","A2KLJKDG90K1PP","3M67TQBQQHANPE5CZBF2IQ6TWABA9O","","","null","","","","","","","","","",""
"1237.0999999046326","","image-keyboard-response","121","486518","0.0-121.0","39L1G8WVWRD7281QDLQ15V6Q0LU31Q","A2KLJKDG90K1PP","3M67TQBQQHANPE5CZBF2IQ6TWABA9O","","img/set1/S1.jpg","68","1","structured_incentive","83","structured_incentive,random,structured_normal,structured_load","2,3,4,2,1,2","1,2,3,4","false","","",""
"null","","html-keyboard-response","122","486870","0.0-122.0","39L1G8WVWRD7281QDLQ15V6Q0LU31Q","A2KLJKDG90K1PP","3M67TQBQQHANPE5CZBF2IQ6TWABA9O","","<img src=""img/set1/S1.jpg"" width=""540"" height = ""360"">","null","","","","","","","","","",""
"null","","html-keyboard-response","123","487071","0.0-123.0","39L1G8WVWRD7281QDLQ15V6Q0LU31Q","A2KLJKDG90K1PP","3M67TQBQQHANPE5CZBF2IQ6TWABA9O","","","null","","","","","","","","","",""
"566.3999998569489","","image-keyboard-response","124","487639","0.0-124.0","39L1G8WVWRD7281QDLQ15V6Q0LU31Q","A2KLJKDG90K1PP","3M67TQBQQHANPE5CZBF2IQ6TWABA9O","","img/set1/S4.jpg","74","4","structured_incentive","74","structured_incentive,random,structured_normal,structured_load","2,3,4,2,1,2","1,2,3,4","true","","",""
"null","","html-keyboard-response","125","487991","0.0-125.0","39L1G8WVWRD7281QDLQ15V6Q0LU31Q","A2KLJKDG90K1PP","3M67TQBQQHANPE5CZBF2IQ6TWABA9O","","<img src=""img/set1/S4.jpg"" width=""540"" height = ""360"" style=""border:16px solid Violet"">","null","","","","","","","","","",""
"null","","html-keyboard-response","126","488193","0.0-126.0","39L1G8WVWRD7281QDLQ15V6Q0LU31Q","A2KLJKDG90K1PP","3M67TQBQQHANPE5CZBF2IQ6TWABA9O","","","null","","","","","","","","","",""
"636.2999999523163","","image-keyboard-response","127","488830","0.0-127.0","39L1G8WVWRD7281QDLQ15V6Q0LU31Q","A2KLJKDG90K1PP","3M67TQBQQHANPE5CZBF2IQ6TWABA9O","","img/set1/S4.jpg","74","4","structured_incentive","74","structured_incentive,random,structured_normal,structured_load","2,3,4,2,1,2","1,2,3,4","true","","",""
"null","","html-keyboard-response","128","489182","0.0-128.0","39L1G8WVWRD7281QDLQ15V6Q0LU31Q","A2KLJKDG90K1PP","3M67TQBQQHANPE5CZBF2IQ6TWABA9O","","<img src=""img/set1/S4.jpg"" width=""540"" height = ""360"" style=""border:16px solid Violet"">","null","","","","","","","","","",""
"null","","html-keyboard-response","129","489384","0.0-129.0","39L1G8WVWRD7281QDLQ15V6Q0LU31Q","A2KLJKDG90K1PP","3M67TQBQQHANPE5CZBF2IQ6TWABA9O","","","null","","","","","","","","","",""
"1263.1000001430511","","image-keyboard-response","130","490648","0.0-130.0","39L1G8WVWRD7281QDLQ15V6Q0LU31Q","A2KLJKDG90K1PP","3M67TQBQQHANPE5CZBF2IQ6TWABA9O","","img/set1/S1.jpg","83","1","structured_incentive","83","structured_incentive,random,structured_normal,structured_load","2,3,4,2,1,2","1,2,3,4","true","","",""
"null","","html-keyboard-response","131","490999","0.0-131.0","39L1G8WVWRD7281QDLQ15V6Q0LU31Q","A2KLJKDG90K1PP","3M67TQBQQHANPE5CZBF2IQ6TWABA9O","","<img src=""img/set1/S1.jpg"" width=""540"" height = ""360"" style=""border:16px solid orange"">","null","","","","","","","","","",""
"null","","html-keyboard-response","132","491201","0.0-132.0","39L1G8WVWRD7281QDLQ15V6Q0LU31Q","A2KLJKDG90K1PP","3M67TQBQQHANPE5CZBF2IQ6TWABA9O","","","null","","","","","","","","","",""
"570.1000001430511","","image-keyboard-response","133","491772","0.0-133.0","39L1G8WVWRD7281QDLQ15V6Q0LU31Q","A2KLJKDG90K1PP","3M67TQBQQHANPE5CZBF2IQ6TWABA9O","","img/set1/S1.jpg","83","1","structured_incentive","83","structured_incentive,random,structured_normal,structured_load","2,3,4,2,1,2","1,2,3,4","true","","",""
"null","","html-keyboard-response","134","492124","0.0-134.0","39L1G8WVWRD7281QDLQ15V6Q0LU31Q","A2KLJKDG90K1PP","3M67TQBQQHANPE5CZBF2IQ6TWABA9O","","<img src=""img/set1/S1.jpg"" width=""540"" height = ""360"" style=""border:16px solid orange"">","null","","","","","","","","","",""
"null","","html-keyboard-response","135","492325","0.0-135.0","39L1G8WVWRD7281QDLQ15V6Q0LU31Q","A2KLJKDG90K1PP","3M67TQBQQHANPE5CZBF2IQ6TWABA9O","","","null","","","","","","","","","",""
"1240.7999999523163","","image-keyboard-response","136","493567","0.0-136.0","39L1G8WVWRD7281QDLQ15V6Q0LU31Q","A2KLJKDG90K1PP","3M67TQBQQHANPE5CZBF2IQ6TWABA9O","","img/set1/S4.jpg","74","4","structured_incentive","74","structured_incentive,random,structured_normal,structured_load","2,3,4,2,1,2","1,2,3,4","true","","",""
"null","","html-keyboard-response","137","493919","0.0-137.0","39L1G8WVWRD7281QDLQ15V6Q0LU31Q","A2KLJKDG90K1PP","3M67TQBQQHANPE5CZBF2IQ6TWABA9O","","<img src=""img/set1/S4.jpg"" width=""540"" height = ""360"" style=""border:16px solid Violet"">","null","","","","","","","","","",""
"null","","html-keyboard-response","138","494120","0.0-138.0","39L1G8WVWRD7281QDLQ15V6Q0LU31Q","A2KLJKDG90K1PP","3M67TQBQQHANPE5CZBF2IQ6TWABA9O","","","null","","","","","","","","","",""
"1034.6999998092651","","image-keyboard-response","139","495156","0.0-139.0","39L1G8WVWRD7281QDLQ15V6Q0LU31Q","A2KLJKDG90K1PP","3M67TQBQQHANPE5CZBF2IQ6TWABA9O","","img/set1/S3.jpg","72","3","structured_incentive","72","structured_incentive,random,structured_normal,structured_load","2,3,4,2,1,2","1,2,3,4","true","","",""
"null","","html-keyboard-response","140","495509","0.0-140.0","39L1G8WVWRD7281QDLQ15V6Q0LU31Q","A2KLJKDG90K1PP","3M67TQBQQHANPE5CZBF2IQ6TWABA9O","","<img src=""img/set1/S3.jpg"" width=""540"" height = ""360"" style=""border:16px solid orange"">","null","","","","","","","","","",""
"null","","html-keyboard-response","141","495711","0.0-141.0","39L1G8WVWRD7281QDLQ15V6Q0LU31Q","A2KLJKDG90K1PP","3M67TQBQQHANPE5CZBF2IQ6TWABA9O","","","null","","","","","","","","","",""
"655.1999998092651","","image-keyboard-response","142","496368","0.0-142.0","39L1G8WVWRD7281QDLQ15V6Q0LU31Q","A2KLJKDG90K1PP","3M67TQBQQHANPE5CZBF2IQ6TWABA9O","","img/set1/S4.jpg","74","4","structured_incentive","74","structured_incentive,random,structured_normal,structured_load","2,3,4,2,1,2","1,2,3,4","true","","",""
"null","","html-keyboard-response","143","496719","0.0-143.0","39L1G8WVWRD7281QDLQ15V6Q0LU31Q","A2KLJKDG90K1PP","3M67TQBQQHANPE5CZBF2IQ6TWABA9O","","<img src=""img/set1/S4.jpg"" width=""540"" height = ""360"" style=""border:16px solid Violet"">","null","","","","","","","","","",""
"null","","html-keyboard-response","144","496927","0.0-144.0","39L1G8WVWRD7281QDLQ15V6Q0LU31Q","A2KLJKDG90K1PP","3M67TQBQQHANPE5CZBF2IQ6TWABA9O","","","null","","","","","","","","","",""
"824.2999999523163","","image-keyboard-response","145","497752","0.0-145.0","39L1G8WVWRD7281QDLQ15V6Q0LU31Q","A2KLJKDG90K1PP","3M67TQBQQHANPE5CZBF2IQ6TWABA9O","","img/set1/S2.jpg","68","2","structured_incentive","68","structured_incentive,random,structured_normal,structured_load","2,3,4,2,1,2","1,2,3,4","true","","",""
"null","","html-keyboard-response","146","498115","0.0-146.0","39L1G8WVWRD7281QDLQ15V6Q0LU31Q","A2KLJKDG90K1PP","3M67TQBQQHANPE5CZBF2IQ6TWABA9O","","<img src=""img/set1/S2.jpg"" width=""540"" height = ""360"" style=""border:16px solid orange"">","null","","","","","","","","","",""
"null","","html-keyboard-response","147","498317","0.0-147.0","39L1G8WVWRD7281QDLQ15V6Q0LU31Q","A2KLJKDG90K1PP","3M67TQBQQHANPE5CZBF2IQ6TWABA9O","","","null","","","","","","","","","",""
"807.3000001907349","","image-keyboard-response","148","499125","0.0-148.0","39L1G8WVWRD7281QDLQ15V6Q0LU31Q","A2KLJKDG90K1PP","3M67TQBQQHANPE5CZBF2IQ6TWABA9O","","img/set1/S3.jpg","72","3","structured_incentive","72","structured_incentive,random,structured_normal,structured_load","2,3,4,2,1,2","1,2,3,4","true","","",""
"null","","html-keyboard-response","149","499476","0.0-149.0","39L1G8WVWRD7281QDLQ15V6Q0LU31Q","A2KLJKDG90K1PP","3M67TQBQQHANPE5CZBF2IQ6TWABA9O","","<img src=""img/set1/S3.jpg"" width=""540"" height = ""360"" style=""border:16px solid orange"">","null","","","","","","","","","",""
"null","","html-keyboard-response","150","499678","0.0-150.0","39L1G8WVWRD7281QDLQ15V6Q0LU31Q","A2KLJKDG90K1PP","3M67TQBQQHANPE5CZBF2IQ6TWABA9O","","","null","","","","","","","","","",""
"1354.1000001430511","","image-keyboard-response","151","501034","0.0-151.0","39L1G8WVWRD7281QDLQ15V6Q0LU31Q","A2KLJKDG90K1PP","3M67TQBQQHANPE5CZBF2IQ6TWABA9O","","img/set1/S2.jpg","68","2","structured_incentive","68","structured_incentive,random,structured_normal,structured_load","2,3,4,2,1,2","1,2,3,4","true","","",""
"null","","html-keyboard-response","152","501386","0.0-152.0","39L1G8WVWRD7281QDLQ15V6Q0LU31Q","A2KLJKDG90K1PP","3M67TQBQQHANPE5CZBF2IQ6TWABA9O","","<img src=""img/set1/S2.jpg"" width=""540"" height = ""360"" style=""border:16px solid orange"">","null","","","","","","","","","",""
"null","","html-keyboard-response","153","501588","0.0-153.0","39L1G8WVWRD7281QDLQ15V6Q0LU31Q","A2KLJKDG90K1PP","3M67TQBQQHANPE5CZBF2IQ6TWABA9O","","","null","","","","","","","","","",""
"1225.0999999046326","","image-keyboard-response","154","502814","0.0-154.0","39L1G8WVWRD7281QDLQ15V6Q0LU31Q","A2KLJKDG90K1PP","3M67TQBQQHANPE5CZBF2IQ6TWABA9O","","img/set1/S3.jpg","72","3","structured_incentive","72","structured_incentive,random,structured_normal,structured_load","2,3,4,2,1,2","1,2,3,4","true","","",""
"null","","html-keyboard-response","155","503173","0.0-155.0","39L1G8WVWRD7281QDLQ15V6Q0LU31Q","A2KLJKDG90K1PP","3M67TQBQQHANPE5CZBF2IQ6TWABA9O","","<img src=""img/set1/S3.jpg"" width=""540"" height = ""360"" style=""border:16px solid orange"">","null","","","","","","","","","",""
"null","","html-keyboard-response","156","503375","0.0-156.0","39L1G8WVWRD7281QDLQ15V6Q0LU31Q","A2KLJKDG90K1PP","3M67TQBQQHANPE5CZBF2IQ6TWABA9O","","","null","","","","","","","","","",""
"664.5","","image-keyboard-response","157","504041","0.0-157.0","39L1G8WVWRD7281QDLQ15V6Q0LU31Q","A2KLJKDG90K1PP","3M67TQBQQHANPE5CZBF2IQ6TWABA9O","","img/set1/S2.jpg","68","2","structured_incentive","68","structured_incentive,random,structured_normal,structured_load","2,3,4,2,1,2","1,2,3,4","true","","",""
"null","","html-keyboard-response","158","504392","0.0-158.0","39L1G8WVWRD7281QDLQ15V6Q0LU31Q","A2KLJKDG90K1PP","3M67TQBQQHANPE5CZBF2IQ6TWABA9O","","<img src=""img/set1/S2.jpg"" width=""540"" height = ""360"" style=""border:16px solid orange"">","null","","","","","","","","","",""
"null","","html-keyboard-response","159","504594","0.0-159.0","39L1G8WVWRD7281QDLQ15V6Q0LU31Q","A2KLJKDG90K1PP","3M67TQBQQHANPE5CZBF2IQ6TWABA9O","","","null","","","","","","","","","",""
"507","","image-keyboard-response","160","505102","0.0-160.0","39L1G8WVWRD7281QDLQ15V6Q0LU31Q","A2KLJKDG90K1PP","3M67TQBQQHANPE5CZBF2IQ6TWABA9O","","img/set1/S3.jpg","72","3","structured_incentive","72","structured_incentive,random,structured_normal,structured_load","2,3,4,2,1,2","1,2,3,4","true","","",""
"null","","html-keyboard-response","161","505454","0.0-161.0","39L1G8WVWRD7281QDLQ15V6Q0LU31Q","A2KLJKDG90K1PP","3M67TQBQQHANPE5CZBF2IQ6TWABA9O","","<img src=""img/set1/S3.jpg"" width=""540"" height = ""360"" style=""border:16px solid orange"">","null","","","","","","","","","",""
"null","","html-keyboard-response","162","505656","0.0-162.0","39L1G8WVWRD7281QDLQ15V6Q0LU31Q","A2KLJKDG90K1PP","3M67TQBQQHANPE5CZBF2IQ6TWABA9O","","","null","","","","","","","","","",""
"1428.7999999523163","","image-keyboard-response","163","507086","0.0-163.0","39L1G8WVWRD7281QDLQ15V6Q0LU31Q","A2KLJKDG90K1PP","3M67TQBQQHANPE5CZBF2IQ6TWABA9O","","img/set1/S2.jpg","68","2","structured_incentive","68","structured_incentive,random,structured_normal,structured_load","2,3,4,2,1,2","1,2,3,4","true","","",""
"null","","html-keyboard-response","164","507438","0.0-164.0","39L1G8WVWRD7281QDLQ15V6Q0LU31Q","A2KLJKDG90K1PP","3M67TQBQQHANPE5CZBF2IQ6TWABA9O","","<img src=""img/set1/S2.jpg"" width=""540"" height = ""360"" style=""border:16px solid orange"">","null","","","","","","","","","",""
"null","","html-keyboard-response","165","507639","0.0-165.0","39L1G8WVWRD7281QDLQ15V6Q0LU31Q","A2KLJKDG90K1PP","3M67TQBQQHANPE5CZBF2IQ6TWABA9O","","","null","","","","","","","","","",""
"533.5","","image-keyboard-response","166","508173","0.0-166.0","39L1G8WVWRD7281QDLQ15V6Q0LU31Q","A2KLJKDG90K1PP","3M67TQBQQHANPE5CZBF2IQ6TWABA9O","","img/set1/S3.jpg","72","3","structured_incentive","72","structured_incentive,random,structured_normal,structured_load","2,3,4,2,1,2","1,2,3,4","true","","",""
"null","","html-keyboard-response","167","508525","0.0-167.0","39L1G8WVWRD7281QDLQ15V6Q0LU31Q","A2KLJKDG90K1PP","3M67TQBQQHANPE5CZBF2IQ6TWABA9O","","<img src=""img/set1/S3.jpg"" width=""540"" height = ""360"" style=""border:16px solid orange"">","null","","","","","","","","","",""
"null","","html-keyboard-response","168","508728","0.0-168.0","39L1G8WVWRD7281QDLQ15V6Q0LU31Q","A2KLJKDG90K1PP","3M67TQBQQHANPE5CZBF2IQ6TWABA9O","","","null","","","","","","","","","",""
"528.5999999046326","","image-keyboard-response","169","509257","0.0-169.0","39L1G8WVWRD7281QDLQ15V6Q0LU31Q","A2KLJKDG90K1PP","3M67TQBQQHANPE5CZBF2IQ6TWABA9O","","img/set1/S2.jpg","68","2","structured_incentive","68","structured_incentive,random,structured_normal,structured_load","2,3,4,2,1,2","1,2,3,4","true","","",""
"null","","html-keyboard-response","170","509609","0.0-170.0","39L1G8WVWRD7281QDLQ15V6Q0LU31Q","A2KLJKDG90K1PP","3M67TQBQQHANPE5CZBF2IQ6TWABA9O","","<img src=""img/set1/S2.jpg"" width=""540"" height = ""360"" style=""border:16px solid orange"">","null","","","","","","","","","",""
"null","","html-keyboard-response","171","509811","0.0-171.0","39L1G8WVWRD7281QDLQ15V6Q0LU31Q","A2KLJKDG90K1PP","3M67TQBQQHANPE5CZBF2IQ6TWABA9O","","","null","","","","","","","","","",""
"535.2000000476837","","image-keyboard-response","172","510347","0.0-172.0","39L1G8WVWRD7281QDLQ15V6Q0LU31Q","A2KLJKDG90K1PP","3M67TQBQQHANPE5CZBF2IQ6TWABA9O","","img/set1/S3.jpg","72","3","structured_incentive","72","structured_incentive,random,structured_normal,structured_load","2,3,4,2,1,2","1,2,3,4","true","","",""
"null","","html-keyboard-response","173","510700","0.0-173.0","39L1G8WVWRD7281QDLQ15V6Q0LU31Q","A2KLJKDG90K1PP","3M67TQBQQHANPE5CZBF2IQ6TWABA9O","","<img src=""img/set1/S3.jpg"" width=""540"" height = ""360"" style=""border:16px solid orange"">","null","","","","","","","","","",""
"null","","html-keyboard-response","174","510902","0.0-174.0","39L1G8WVWRD7281QDLQ15V6Q0LU31Q","A2KLJKDG90K1PP","3M67TQBQQHANPE5CZBF2IQ6TWABA9O","","","null","","","","","","","","","",""
"628.3999998569489","","image-keyboard-response","175","511531","0.0-175.0","39L1G8WVWRD7281QDLQ15V6Q0LU31Q","A2KLJKDG90K1PP","3M67TQBQQHANPE5CZBF2IQ6TWABA9O","","img/set1/S4.jpg","74","4","structured_incentive","74","structured_incentive,random,structured_normal,structured_load","2,3,4,2,1,2","1,2,3,4","true","","",""
"null","","html-keyboard-response","176","511883","0.0-176.0","39L1G8WVWRD7281QDLQ15V6Q0LU31Q","A2KLJKDG90K1PP","3M67TQBQQHANPE5CZBF2IQ6TWABA9O","","<img src=""img/set1/S4.jpg"" width=""540"" height = ""360"" style=""border:16px solid Violet"">","null","","","","","","","","","",""
"null","","html-keyboard-response","177","512084","0.0-177.0","39L1G8WVWRD7281QDLQ15V6Q0LU31Q","A2KLJKDG90K1PP","3M67TQBQQHANPE5CZBF2IQ6TWABA9O","","","null","","","","","","","","","",""
"572.0999999046326","","image-keyboard-response","178","512657","0.0-178.0","39L1G8WVWRD7281QDLQ15V6Q0LU31Q","A2KLJKDG90K1PP","3M67TQBQQHANPE5CZBF2IQ6TWABA9O","","img/set1/S2.jpg","68","2","structured_incentive","68","structured_incentive,random,structured_normal,structured_load","2,3,4,2,1,2","1,2,3,4","true","","",""
"null","","html-keyboard-response","179","513010","0.0-179.0","39L1G8WVWRD7281QDLQ15V6Q0LU31Q","A2KLJKDG90K1PP","3M67TQBQQHANPE5CZBF2IQ6TWABA9O","","<img src=""img/set1/S2.jpg"" width=""540"" height = ""360"" style=""border:16px solid orange"">","null","","","","","","","","","",""
"null","","html-keyboard-response","180","513212","0.0-180.0","39L1G8WVWRD7281QDLQ15V6Q0LU31Q","A2KLJKDG90K1PP","3M67TQBQQHANPE5CZBF2IQ6TWABA9O","","","null","","","","","","","","","",""
"577.2999999523163","","image-keyboard-response","181","513790","0.0-181.0","39L1G8WVWRD7281QDLQ15V6Q0LU31Q","A2KLJKDG90K1PP","3M67TQBQQHANPE5CZBF2IQ6TWABA9O","","img/set1/S3.jpg","72","3","structured_incentive","72","structured_incentive,random,structured_normal,structured_load","2,3,4,2,1,2","1,2,3,4","true","","",""
"null","","html-keyboard-response","182","514143","0.0-182.0","39L1G8WVWRD7281QDLQ15V6Q0LU31Q","A2KLJKDG90K1PP","3M67TQBQQHANPE5CZBF2IQ6TWABA9O","","<img src=""img/set1/S3.jpg"" width=""540"" height = ""360"" style=""border:16px solid orange"">","null","","","","","","","","","",""
"null","","html-keyboard-response","183","514345","0.0-183.0","39L1G8WVWRD7281QDLQ15V6Q0LU31Q","A2KLJKDG90K1PP","3M67TQBQQHANPE5CZBF2IQ6TWABA9O","","","null","","","","","","","","","",""
"435","","image-keyboard-response","184","514781","0.0-184.0","39L1G8WVWRD7281QDLQ15V6Q0LU31Q","A2KLJKDG90K1PP","3M67TQBQQHANPE5CZBF2IQ6TWABA9O","","img/set1/S2.jpg","68","2","structured_incentive","68","structured_incentive,random,structured_normal,structured_load","2,3,4,2,1,2","1,2,3,4","true","","",""
"null","","html-keyboard-response","185","515133","0.0-185.0","39L1G8WVWRD7281QDLQ15V6Q0LU31Q","A2KLJKDG90K1PP","3M67TQBQQHANPE5CZBF2IQ6TWABA9O","","<img src=""img/set1/S2.jpg"" width=""540"" height = ""360"" style=""border:16px solid orange"">","null","","","","","","","","","",""
"null","","html-keyboard-response","186","515336","0.0-186.0","39L1G8WVWRD7281QDLQ15V6Q0LU31Q","A2KLJKDG90K1PP","3M67TQBQQHANPE5CZBF2IQ6TWABA9O","","","null","","","","","","","","","",""
"441","","image-keyboard-response","187","515778","0.0-187.0","39L1G8WVWRD7281QDLQ15V6Q0LU31Q","A2KLJKDG90K1PP","3M67TQBQQHANPE5CZBF2IQ6TWABA9O","","img/set1/S3.jpg","72","3","structured_incentive","72","structured_incentive,random,structured_normal,structured_load","2,3,4,2,1,2","1,2,3,4","true","","",""
"null","","html-keyboard-response","188","516130","0.0-188.0","39L1G8WVWRD7281QDLQ15V6Q0LU31Q","A2KLJKDG90K1PP","3M67TQBQQHANPE5CZBF2IQ6TWABA9O","","<img src=""img/set1/S3.jpg"" width=""540"" height = ""360"" style=""border:16px solid orange"">","null","","","","","","","","","",""
"null","","html-keyboard-response","189","516332","0.0-189.0","39L1G8WVWRD7281QDLQ15V6Q0LU31Q","A2KLJKDG90K1PP","3M67TQBQQHANPE5CZBF2IQ6TWABA9O","","","null","","","","","","","","","",""
"428.90000009536743","","image-keyboard-response","190","516763","0.0-190.0","39L1G8WVWRD7281QDLQ15V6Q0LU31Q","A2KLJKDG90K1PP","3M67TQBQQHANPE5CZBF2IQ6TWABA9O","","img/set1/S2.jpg","68","2","structured_incentive","68","structured_incentive,random,structured_normal,structured_load","2,3,4,2,1,2","1,2,3,4","true","","",""
"null","","html-keyboard-response","191","517115","0.0-191.0","39L1G8WVWRD7281QDLQ15V6Q0LU31Q","A2KLJKDG90K1PP","3M67TQBQQHANPE5CZBF2IQ6TWABA9O","","<img src=""img/set1/S2.jpg"" width=""540"" height = ""360"" style=""border:16px solid orange"">","null","","","","","","","","","",""
"null","","html-keyboard-response","192","517317","0.0-192.0","39L1G8WVWRD7281QDLQ15V6Q0LU31Q","A2KLJKDG90K1PP","3M67TQBQQHANPE5CZBF2IQ6TWABA9O","","","null","","","","","","","","","",""
"445","","image-keyboard-response","193","517763","0.0-193.0","39L1G8WVWRD7281QDLQ15V6Q0LU31Q","A2KLJKDG90K1PP","3M67TQBQQHANPE5CZBF2IQ6TWABA9O","","img/set1/S3.jpg","72","3","structured_incentive","72","structured_incentive,random,structured_normal,structured_load","2,3,4,2,1,2","1,2,3,4","true","","",""
"null","","html-keyboard-response","194","518116","0.0-194.0","39L1G8WVWRD7281QDLQ15V6Q0LU31Q","A2KLJKDG90K1PP","3M67TQBQQHANPE5CZBF2IQ6TWABA9O","","<img src=""img/set1/S3.jpg"" width=""540"" height = ""360"" style=""border:16px solid orange"">","null","","","","","","","","","",""
"null","","html-keyboard-response","195","518317","0.0-195.0","39L1G8WVWRD7281QDLQ15V6Q0LU31Q","A2KLJKDG90K1PP","3M67TQBQQHANPE5CZBF2IQ6TWABA9O","","","null","","","","","","","","","",""
"586.2000000476837","","image-keyboard-response","196","518904","0.0-196.0","39L1G8WVWRD7281QDLQ15V6Q0LU31Q","A2KLJKDG90K1PP","3M67TQBQQHANPE5CZBF2IQ6TWABA9O","","img/set1/S4.jpg","74","4","structured_incentive","74","structured_incentive,random,structured_normal,structured_load","2,3,4,2,1,2","1,2,3,4","true","","",""
"null","","html-keyboard-response","197","519256","0.0-197.0","39L1G8WVWRD7281QDLQ15V6Q0LU31Q","A2KLJKDG90K1PP","3M67TQBQQHANPE5CZBF2IQ6TWABA9O","","<img src=""img/set1/S4.jpg"" width=""540"" height = ""360"" style=""border:16px solid Violet"">","null","","","","","","","","","",""
"null","","html-keyboard-response","198","519458","0.0-198.0","39L1G8WVWRD7281QDLQ15V6Q0LU31Q","A2KLJKDG90K1PP","3M67TQBQQHANPE5CZBF2IQ6TWABA9O","","","null","","","","","","","","","",""
"700","","image-keyboard-response","199","520159","0.0-199.0","39L1G8WVWRD7281QDLQ15V6Q0LU31Q","A2KLJKDG90K1PP","3M67TQBQQHANPE5CZBF2IQ6TWABA9O","","img/set1/S1.jpg","83","1","structured_incentive","83","structured_incentive,random,structured_normal,structured_load","2,3,4,2,1,2","1,2,3,4","true","","",""
"null","","html-keyboard-response","200","520511","0.0-200.0","39L1G8WVWRD7281QDLQ15V6Q0LU31Q","A2KLJKDG90K1PP","3M67TQBQQHANPE5CZBF2IQ6TWABA9O","","<img src=""img/set1/S1.jpg"" width=""540"" height = ""360"" style=""border:16px solid orange"">","null","","","","","","","","","",""
"null","","html-keyboard-response","201","520713","0.0-201.0","39L1G8WVWRD7281QDLQ15V6Q0LU31Q","A2KLJKDG90K1PP","3M67TQBQQHANPE5CZBF2IQ6TWABA9O","","","null","","","","","","","","","",""
"493.7999999523163","","image-keyboard-response","202","521208","0.0-202.0","39L1G8WVWRD7281QDLQ15V6Q0LU31Q","A2KLJKDG90K1PP","3M67TQBQQHANPE5CZBF2IQ6TWABA9O","","img/set1/S1.jpg","83","1","structured_incentive","83","structured_incentive,random,structured_normal,structured_load","2,3,4,2,1,2","1,2,3,4","true","","",""
"null","","html-keyboard-response","203","521560","0.0-203.0","39L1G8WVWRD7281QDLQ15V6Q0LU31Q","A2KLJKDG90K1PP","3M67TQBQQHANPE5CZBF2IQ6TWABA9O","","<img src=""img/set1/S1.jpg"" width=""540"" height = ""360"" style=""border:16px solid orange"">","null","","","","","","","","","",""
"null","","html-keyboard-response","204","521761","0.0-204.0","39L1G8WVWRD7281QDLQ15V6Q0LU31Q","A2KLJKDG90K1PP","3M67TQBQQHANPE5CZBF2IQ6TWABA9O","","","null","","","","","","","","","",""
"843.5","","image-keyboard-response","205","522606","0.0-205.0","39L1G8WVWRD7281QDLQ15V6Q0LU31Q","A2KLJKDG90K1PP","3M67TQBQQHANPE5CZBF2IQ6TWABA9O","","img/set1/S3.jpg","72","3","structured_incentive","72","structured_incentive,random,structured_normal,structured_load","2,3,4,2,1,2","1,2,3,4","true","","",""
"null","","html-keyboard-response","206","522958","0.0-206.0","39L1G8WVWRD7281QDLQ15V6Q0LU31Q","A2KLJKDG90K1PP","3M67TQBQQHANPE5CZBF2IQ6TWABA9O","","<img src=""img/set1/S3.jpg"" width=""540"" height = ""360"" style=""border:16px solid orange"">","null","","","","","","","","","",""
"null","","html-keyboard-response","207","523159","0.0-207.0","39L1G8WVWRD7281QDLQ15V6Q0LU31Q","A2KLJKDG90K1PP","3M67TQBQQHANPE5CZBF2IQ6TWABA9O","","","null","","","","","","","","","",""
"645.9000000953674","","image-keyboard-response","208","523806","0.0-208.0","39L1G8WVWRD7281QDLQ15V6Q0LU31Q","A2KLJKDG90K1PP","3M67TQBQQHANPE5CZBF2IQ6TWABA9O","","img/set1/S1.jpg","83","1","structured_incentive","83","structured_incentive,random,structured_normal,structured_load","2,3,4,2,1,2","1,2,3,4","true","","",""
"null","","html-keyboard-response","209","524158","0.0-209.0","39L1G8WVWRD7281QDLQ15V6Q0LU31Q","A2KLJKDG90K1PP","3M67TQBQQHANPE5CZBF2IQ6TWABA9O","","<img src=""img/set1/S1.jpg"" width=""540"" height = ""360"" style=""border:16px solid orange"">","null","","","","","","","","","",""
"null","","html-keyboard-response","210","524359","0.0-210.0","39L1G8WVWRD7281QDLQ15V6Q0LU31Q","A2KLJKDG90K1PP","3M67TQBQQHANPE5CZBF2IQ6TWABA9O","","","null","","","","","","","","","",""
"551.4000000953674","","image-keyboard-response","211","524912","0.0-211.0","39L1G8WVWRD7281QDLQ15V6Q0LU31Q","A2KLJKDG90K1PP","3M67TQBQQHANPE5CZBF2IQ6TWABA9O","","img/set1/S2.jpg","68","2","structured_incentive","68","structured_incentive,random,structured_normal,structured_load","2,3,4,2,1,2","1,2,3,4","true","","",""
"null","","html-keyboard-response","212","525263","0.0-212.0","39L1G8WVWRD7281QDLQ15V6Q0LU31Q","A2KLJKDG90K1PP","3M67TQBQQHANPE5CZBF2IQ6TWABA9O","","<img src=""img/set1/S2.jpg"" width=""540"" height = ""360"" style=""border:16px solid orange"">","null","","","","","","","","","",""
"null","","html-keyboard-response","213","525465","0.0-213.0","39L1G8WVWRD7281QDLQ15V6Q0LU31Q","A2KLJKDG90K1PP","3M67TQBQQHANPE5CZBF2IQ6TWABA9O","","","null","","","","","","","","","",""
"615.1000001430511","","image-keyboard-response","214","526081","0.0-214.0","39L1G8WVWRD7281QDLQ15V6Q0LU31Q","A2KLJKDG90K1PP","3M67TQBQQHANPE5CZBF2IQ6TWABA9O","","img/set1/S4.jpg","74","4","structured_incentive","74","structured_incentive,random,structured_normal,structured_load","2,3,4,2,1,2","1,2,3,4","true","","",""
"null","","html-keyboard-response","215","526433","0.0-215.0","39L1G8WVWRD7281QDLQ15V6Q0LU31Q","A2KLJKDG90K1PP","3M67TQBQQHANPE5CZBF2IQ6TWABA9O","","<img src=""img/set1/S4.jpg"" width=""540"" height = ""360"" style=""border:16px solid Violet"">","null","","","","","","","","","",""
"null","","html-keyboard-response","216","526635","0.0-216.0","39L1G8WVWRD7281QDLQ15V6Q0LU31Q","A2KLJKDG90K1PP","3M67TQBQQHANPE5CZBF2IQ6TWABA9O","","","null","","","","","","","","","",""
"null","","image-keyboard-response","217","529136","0.0-217.0","39L1G8WVWRD7281QDLQ15V6Q0LU31Q","A2KLJKDG90K1PP","3M67TQBQQHANPE5CZBF2IQ6TWABA9O","","img/set1/S1.jpg","null","1","structured_incentive","83","structured_incentive,random,structured_normal,structured_load","2,3,4,2,1,2","1,2,3,4","false","","",""
"null","","html-keyboard-response","218","529488","0.0-218.0","39L1G8WVWRD7281QDLQ15V6Q0LU31Q","A2KLJKDG90K1PP","3M67TQBQQHANPE5CZBF2IQ6TWABA9O","","<img src=""img/set1/S1.jpg"" width=""540"" height = ""360"">","null","","","","","","","","","",""
"null","","html-keyboard-response","219","529689","0.0-219.0","39L1G8WVWRD7281QDLQ15V6Q0LU31Q","A2KLJKDG90K1PP","3M67TQBQQHANPE5CZBF2IQ6TWABA9O","","","null","","","","","","","","","",""
"288.7000000476837","","image-keyboard-response","220","529979","0.0-220.0","39L1G8WVWRD7281QDLQ15V6Q0LU31Q","A2KLJKDG90K1PP","3M67TQBQQHANPE5CZBF2IQ6TWABA9O","","img/set1/S4.jpg","72","4","structured_incentive","74","structured_incentive,random,structured_normal,structured_load","2,3,4,2,1,2","1,2,3,4","false","","",""
"null","","html-keyboard-response","221","530331","0.0-221.0","39L1G8WVWRD7281QDLQ15V6Q0LU31Q","A2KLJKDG90K1PP","3M67TQBQQHANPE5CZBF2IQ6TWABA9O","","<img src=""img/set1/S4.jpg"" width=""540"" height = ""360"">","null","","","","","","","","","",""
"null","","html-keyboard-response","222","530533","0.0-222.0","39L1G8WVWRD7281QDLQ15V6Q0LU31Q","A2KLJKDG90K1PP","3M67TQBQQHANPE5CZBF2IQ6TWABA9O","","","null","","","","","","","","","",""
"70.29999995231628","","image-keyboard-response","223","530604","0.0-223.0","39L1G8WVWRD7281QDLQ15V6Q0LU31Q","A2KLJKDG90K1PP","3M67TQBQQHANPE5CZBF2IQ6TWABA9O","","img/set1/S1.jpg","74","1","structured_incentive","83","structured_incentive,random,structured_normal,structured_load","2,3,4,2,1,2","1,2,3,4","false","","",""
"null","","html-keyboard-response","224","530956","0.0-224.0","39L1G8WVWRD7281QDLQ15V6Q0LU31Q","A2KLJKDG90K1PP","3M67TQBQQHANPE5CZBF2IQ6TWABA9O","","<img src=""img/set1/S1.jpg"" width=""540"" height = ""360"">","null","","","","","","","","","",""
"null","","html-keyboard-response","225","531158","0.0-225.0","39L1G8WVWRD7281QDLQ15V6Q0LU31Q","A2KLJKDG90K1PP","3M67TQBQQHANPE5CZBF2IQ6TWABA9O","","","null","","","","","","","","","",""
"399","","image-keyboard-response","226","531557","0.0-226.0","39L1G8WVWRD7281QDLQ15V6Q0LU31Q","A2KLJKDG90K1PP","3M67TQBQQHANPE5CZBF2IQ6TWABA9O","","img/set1/S1.jpg","83","1","structured_incentive","83","structured_incentive,random,structured_normal,structured_load","2,3,4,2,1,2","1,2,3,4","true","","",""
"null","","html-keyboard-response","227","531911","0.0-227.0","39L1G8WVWRD7281QDLQ15V6Q0LU31Q","A2KLJKDG90K1PP","3M67TQBQQHANPE5CZBF2IQ6TWABA9O","","<img src=""img/set1/S1.jpg"" width=""540"" height = ""360"" style=""border:16px solid orange"">","null","","","","","","","","","",""
"null","","html-keyboard-response","228","532127","0.0-228.0","39L1G8WVWRD7281QDLQ15V6Q0LU31Q","A2KLJKDG90K1PP","3M67TQBQQHANPE5CZBF2IQ6TWABA9O","","","null","","","","","","","","","",""
"488.60000014305115","","image-keyboard-response","229","532617","0.0-229.0","39L1G8WVWRD7281QDLQ15V6Q0LU31Q","A2KLJKDG90K1PP","3M67TQBQQHANPE5CZBF2IQ6TWABA9O","","img/set1/S1.jpg","83","1","structured_incentive","83","structured_incentive,random,structured_normal,structured_load","2,3,4,2,1,2","1,2,3,4","true","","",""
"null","","html-keyboard-response","230","532969","0.0-230.0","39L1G8WVWRD7281QDLQ15V6Q0LU31Q","A2KLJKDG90K1PP","3M67TQBQQHANPE5CZBF2IQ6TWABA9O","","<img src=""img/set1/S1.jpg"" width=""540"" height = ""360"" style=""border:16px solid orange"">","null","","","","","","","","","",""
"null","","html-keyboard-response","231","533170","0.0-231.0","39L1G8WVWRD7281QDLQ15V6Q0LU31Q","A2KLJKDG90K1PP","3M67TQBQQHANPE5CZBF2IQ6TWABA9O","","","null","","","","","","","","","",""
"861.1999998092651","","image-keyboard-response","232","534032","0.0-232.0","39L1G8WVWRD7281QDLQ15V6Q0LU31Q","A2KLJKDG90K1PP","3M67TQBQQHANPE5CZBF2IQ6TWABA9O","","img/set1/S2.jpg","68","2","structured_incentive","68","structured_incentive,random,structured_normal,structured_load","2,3,4,2,1,2","1,2,3,4","true","","",""
"null","","html-keyboard-response","233","534385","0.0-233.0","39L1G8WVWRD7281QDLQ15V6Q0LU31Q","A2KLJKDG90K1PP","3M67TQBQQHANPE5CZBF2IQ6TWABA9O","","<img src=""img/set1/S2.jpg"" width=""540"" height = ""360"" style=""border:16px solid orange"">","null","","","","","","","","","",""
"null","","html-keyboard-response","234","534587","0.0-234.0","39L1G8WVWRD7281QDLQ15V6Q0LU31Q","A2KLJKDG90K1PP","3M67TQBQQHANPE5CZBF2IQ6TWABA9O","","","null","","","","","","","","","",""
"629.3999998569489","","image-keyboard-response","235","535217","0.0-235.0","39L1G8WVWRD7281QDLQ15V6Q0LU31Q","A2KLJKDG90K1PP","3M67TQBQQHANPE5CZBF2IQ6TWABA9O","","img/set1/S3.jpg","72","3","structured_incentive","72","structured_incentive,random,structured_normal,structured_load","2,3,4,2,1,2","1,2,3,4","true","","",""
"null","","html-keyboard-response","236","535569","0.0-236.0","39L1G8WVWRD7281QDLQ15V6Q0LU31Q","A2KLJKDG90K1PP","3M67TQBQQHANPE5CZBF2IQ6TWABA9O","","<img src=""img/set1/S3.jpg"" width=""540"" height = ""360"" style=""border:16px solid orange"">","null","","","","","","","","","",""
"null","","html-keyboard-response","237","535770","0.0-237.0","39L1G8WVWRD7281QDLQ15V6Q0LU31Q","A2KLJKDG90K1PP","3M67TQBQQHANPE5CZBF2IQ6TWABA9O","","","null","","","","","","","","","",""
"1017.2000000476837","","image-keyboard-response","238","536788","0.0-238.0","39L1G8WVWRD7281QDLQ15V6Q0LU31Q","A2KLJKDG90K1PP","3M67TQBQQHANPE5CZBF2IQ6TWABA9O","","img/set1/S1.jpg","83","1","structured_incentive","83","structured_incentive,random,structured_normal,structured_load","2,3,4,2,1,2","1,2,3,4","true","","",""
"null","","html-keyboard-response","239","537139","0.0-239.0","39L1G8WVWRD7281QDLQ15V6Q0LU31Q","A2KLJKDG90K1PP","3M67TQBQQHANPE5CZBF2IQ6TWABA9O","","<img src=""img/set1/S1.jpg"" width=""540"" height = ""360"" style=""border:16px solid orange"">","null","","","","","","","","","",""
"null","","html-keyboard-response","240","537341","0.0-240.0","39L1G8WVWRD7281QDLQ15V6Q0LU31Q","A2KLJKDG90K1PP","3M67TQBQQHANPE5CZBF2IQ6TWABA9O","","","null","","","","","","","","","",""
"713.4000000953674","","image-keyboard-response","241","538055","0.0-241.0","39L1G8WVWRD7281QDLQ15V6Q0LU31Q","A2KLJKDG90K1PP","3M67TQBQQHANPE5CZBF2IQ6TWABA9O","","img/set1/S1.jpg","83","1","structured_incentive","83","structured_incentive,random,structured_normal,structured_load","2,3,4,2,1,2","1,2,3,4","true","","",""
"null","","html-keyboard-response","242","538408","0.0-242.0","39L1G8WVWRD7281QDLQ15V6Q0LU31Q","A2KLJKDG90K1PP","3M67TQBQQHANPE5CZBF2IQ6TWABA9O","","<img src=""img/set1/S1.jpg"" width=""540"" height = ""360"" style=""border:16px solid orange"">","null","","","","","","","","","",""
"null","","html-keyboard-response","243","538609","0.0-243.0","39L1G8WVWRD7281QDLQ15V6Q0LU31Q","A2KLJKDG90K1PP","3M67TQBQQHANPE5CZBF2IQ6TWABA9O","","","null","","","","","","","","","",""
"658.2999999523163","","image-keyboard-response","244","539268","0.0-244.0","39L1G8WVWRD7281QDLQ15V6Q0LU31Q","A2KLJKDG90K1PP","3M67TQBQQHANPE5CZBF2IQ6TWABA9O","","img/set1/S2.jpg","72","2","structured_incentive","68","structured_incentive,random,structured_normal,structured_load","2,3,4,2,1,2","1,2,3,4","false","","",""
"null","","html-keyboard-response","245","539621","0.0-245.0","39L1G8WVWRD7281QDLQ15V6Q0LU31Q","A2KLJKDG90K1PP","3M67TQBQQHANPE5CZBF2IQ6TWABA9O","","<img src=""img/set1/S2.jpg"" width=""540"" height = ""360"">","null","","","","","","","","","",""
"null","","html-keyboard-response","246","539822","0.0-246.0","39L1G8WVWRD7281QDLQ15V6Q0LU31Q","A2KLJKDG90K1PP","3M67TQBQQHANPE5CZBF2IQ6TWABA9O","","","null","","","","","","","","","",""
"1095.7000000476837","","image-keyboard-response","247","540919","0.0-247.0","39L1G8WVWRD7281QDLQ15V6Q0LU31Q","A2KLJKDG90K1PP","3M67TQBQQHANPE5CZBF2IQ6TWABA9O","","img/set1/S3.jpg","72","3","structured_incentive","72","structured_incentive,random,structured_normal,structured_load","2,3,4,2,1,2","1,2,3,4","true","","",""
"null","","html-keyboard-response","248","541271","0.0-248.0","39L1G8WVWRD7281QDLQ15V6Q0LU31Q","A2KLJKDG90K1PP","3M67TQBQQHANPE5CZBF2IQ6TWABA9O","","<img src=""img/set1/S3.jpg"" width=""540"" height = ""360"" style=""border:16px solid orange"">","null","","","","","","","","","",""
"null","","html-keyboard-response","249","541473","0.0-249.0","39L1G8WVWRD7281QDLQ15V6Q0LU31Q","A2KLJKDG90K1PP","3M67TQBQQHANPE5CZBF2IQ6TWABA9O","","","null","","","","","","","","","",""
"870.7000000476837","","image-keyboard-response","250","542344","0.0-250.0","39L1G8WVWRD7281QDLQ15V6Q0LU31Q","A2KLJKDG90K1PP","3M67TQBQQHANPE5CZBF2IQ6TWABA9O","","img/set1/S2.jpg","68","2","structured_incentive","68","structured_incentive,random,structured_normal,structured_load","2,3,4,2,1,2","1,2,3,4","true","","",""
"null","","html-keyboard-response","251","542697","0.0-251.0","39L1G8WVWRD7281QDLQ15V6Q0LU31Q","A2KLJKDG90K1PP","3M67TQBQQHANPE5CZBF2IQ6TWABA9O","","<img src=""img/set1/S2.jpg"" width=""540"" height = ""360"" style=""border:16px solid orange"">","null","","","","","","","","","",""
"null","","html-keyboard-response","252","542899","0.0-252.0","39L1G8WVWRD7281QDLQ15V6Q0LU31Q","A2KLJKDG90K1PP","3M67TQBQQHANPE5CZBF2IQ6TWABA9O","","","null","","","","","","","","","",""
"1061.8000001907349","","image-keyboard-response","253","543961","0.0-253.0","39L1G8WVWRD7281QDLQ15V6Q0LU31Q","A2KLJKDG90K1PP","3M67TQBQQHANPE5CZBF2IQ6TWABA9O","","img/set1/S4.jpg","74","4","structured_incentive","74","structured_incentive,random,structured_normal,structured_load","2,3,4,2,1,2","1,2,3,4","true","","",""
"null","","html-keyboard-response","254","544314","0.0-254.0","39L1G8WVWRD7281QDLQ15V6Q0LU31Q","A2KLJKDG90K1PP","3M67TQBQQHANPE5CZBF2IQ6TWABA9O","","<img src=""img/set1/S4.jpg"" width=""540"" height = ""360"" style=""border:16px solid Violet"">","null","","","","","","","","","",""
"null","","html-keyboard-response","255","544515","0.0-255.0","39L1G8WVWRD7281QDLQ15V6Q0LU31Q","A2KLJKDG90K1PP","3M67TQBQQHANPE5CZBF2IQ6TWABA9O","","","null","","","","","","","","","",""
"805.8000001907349","","image-keyboard-response","256","545321","0.0-256.0","39L1G8WVWRD7281QDLQ15V6Q0LU31Q","A2KLJKDG90K1PP","3M67TQBQQHANPE5CZBF2IQ6TWABA9O","","img/set1/S2.jpg","72","2","structured_incentive","68","structured_incentive,random,structured_normal,structured_load","2,3,4,2,1,2","1,2,3,4","false","","",""
"null","","html-keyboard-response","257","545673","0.0-257.0","39L1G8WVWRD7281QDLQ15V6Q0LU31Q","A2KLJKDG90K1PP","3M67TQBQQHANPE5CZBF2IQ6TWABA9O","","<img src=""img/set1/S2.jpg"" width=""540"" height = ""360"">","null","","","","","","","","","",""
"null","","html-keyboard-response","258","545875","0.0-258.0","39L1G8WVWRD7281QDLQ15V6Q0LU31Q","A2KLJKDG90K1PP","3M67TQBQQHANPE5CZBF2IQ6TWABA9O","","","null","","","","","","","","","",""
"867.3999998569489","","image-keyboard-response","259","546743","0.0-259.0","39L1G8WVWRD7281QDLQ15V6Q0LU31Q","A2KLJKDG90K1PP","3M67TQBQQHANPE5CZBF2IQ6TWABA9O","","img/set1/S3.jpg","83","3","structured_incentive","72","structured_incentive,random,structured_normal,structured_load","2,3,4,2,1,2","1,2,3,4","false","","",""
"null","","html-keyboard-response","260","547096","0.0-260.0","39L1G8WVWRD7281QDLQ15V6Q0LU31Q","A2KLJKDG90K1PP","3M67TQBQQHANPE5CZBF2IQ6TWABA9O","","<img src=""img/set1/S3.jpg"" width=""540"" height = ""360"">","null","","","","","","","","","",""
"null","","html-keyboard-response","261","547309","0.0-261.0","39L1G8WVWRD7281QDLQ15V6Q0LU31Q","A2KLJKDG90K1PP","3M67TQBQQHANPE5CZBF2IQ6TWABA9O","","","null","","","","","","","","","",""
"617.5999999046326","","image-keyboard-response","262","547928","0.0-262.0","39L1G8WVWRD7281QDLQ15V6Q0LU31Q","A2KLJKDG90K1PP","3M67TQBQQHANPE5CZBF2IQ6TWABA9O","","img/set1/S4.jpg","74","4","structured_incentive","74","structured_incentive,random,structured_normal,structured_load","2,3,4,2,1,2","1,2,3,4","true","","",""
"null","","html-keyboard-response","263","548280","0.0-263.0","39L1G8WVWRD7281QDLQ15V6Q0LU31Q","A2KLJKDG90K1PP","3M67TQBQQHANPE5CZBF2IQ6TWABA9O","","<img src=""img/set1/S4.jpg"" width=""540"" height = ""360"" style=""border:16px solid Violet"">","null","","","","","","","","","",""
"null","","html-keyboard-response","264","548482","0.0-264.0","39L1G8WVWRD7281QDLQ15V6Q0LU31Q","A2KLJKDG90K1PP","3M67TQBQQHANPE5CZBF2IQ6TWABA9O","","","null","","","","","","","","","",""
"836.9000000953674","","image-keyboard-response","265","549320","0.0-265.0","39L1G8WVWRD7281QDLQ15V6Q0LU31Q","A2KLJKDG90K1PP","3M67TQBQQHANPE5CZBF2IQ6TWABA9O","","img/set1/S3.jpg","72","3","structured_incentive","72","structured_incentive,random,structured_normal,structured_load","2,3,4,2,1,2","1,2,3,4","true","","",""
"null","","html-keyboard-response","266","549672","0.0-266.0","39L1G8WVWRD7281QDLQ15V6Q0LU31Q","A2KLJKDG90K1PP","3M67TQBQQHANPE5CZBF2IQ6TWABA9O","","<img src=""img/set1/S3.jpg"" width=""540"" height = ""360"" style=""border:16px solid orange"">","null","","","","","","","","","",""
"null","","html-keyboard-response","267","549873","0.0-267.0","39L1G8WVWRD7281QDLQ15V6Q0LU31Q","A2KLJKDG90K1PP","3M67TQBQQHANPE5CZBF2IQ6TWABA9O","","","null","","","","","","","","","",""
"568.0999999046326","","image-keyboard-response","268","550442","0.0-268.0","39L1G8WVWRD7281QDLQ15V6Q0LU31Q","A2KLJKDG90K1PP","3M67TQBQQHANPE5CZBF2IQ6TWABA9O","","img/set1/S2.jpg","68","2","structured_incentive","68","structured_incentive,random,structured_normal,structured_load","2,3,4,2,1,2","1,2,3,4","true","","",""
"null","","html-keyboard-response","269","550794","0.0-269.0","39L1G8WVWRD7281QDLQ15V6Q0LU31Q","A2KLJKDG90K1PP","3M67TQBQQHANPE5CZBF2IQ6TWABA9O","","<img src=""img/set1/S2.jpg"" width=""540"" height = ""360"" style=""border:16px solid orange"">","null","","","","","","","","","",""
"null","","html-keyboard-response","270","550996","0.0-270.0","39L1G8WVWRD7281QDLQ15V6Q0LU31Q","A2KLJKDG90K1PP","3M67TQBQQHANPE5CZBF2IQ6TWABA9O","","","null","","","","","","","","","",""
"677.7000000476837","","image-keyboard-response","271","551675","0.0-271.0","39L1G8WVWRD7281QDLQ15V6Q0LU31Q","A2KLJKDG90K1PP","3M67TQBQQHANPE5CZBF2IQ6TWABA9O","","img/set1/S3.jpg","72","3","structured_incentive","72","structured_incentive,random,structured_normal,structured_load","2,3,4,2,1,2","1,2,3,4","true","","",""
"null","","html-keyboard-response","272","552027","0.0-272.0","39L1G8WVWRD7281QDLQ15V6Q0LU31Q","A2KLJKDG90K1PP","3M67TQBQQHANPE5CZBF2IQ6TWABA9O","","<img src=""img/set1/S3.jpg"" width=""540"" height = ""360"" style=""border:16px solid orange"">","null","","","","","","","","","",""
"null","","html-keyboard-response","273","552229","0.0-273.0","39L1G8WVWRD7281QDLQ15V6Q0LU31Q","A2KLJKDG90K1PP","3M67TQBQQHANPE5CZBF2IQ6TWABA9O","","","null","","","","","","","","","",""
"836.6000001430511","","image-keyboard-response","274","553066","0.0-274.0","39L1G8WVWRD7281QDLQ15V6Q0LU31Q","A2KLJKDG90K1PP","3M67TQBQQHANPE5CZBF2IQ6TWABA9O","","img/set1/S1.jpg","83","1","structured_incentive","83","structured_incentive,random,structured_normal,structured_load","2,3,4,2,1,2","1,2,3,4","true","","",""
"null","","html-keyboard-response","275","553418","0.0-275.0","39L1G8WVWRD7281QDLQ15V6Q0LU31Q","A2KLJKDG90K1PP","3M67TQBQQHANPE5CZBF2IQ6TWABA9O","","<img src=""img/set1/S1.jpg"" width=""540"" height = ""360"" style=""border:16px solid orange"">","null","","","","","","","","","",""
"null","","html-keyboard-response","276","553623","0.0-276.0","39L1G8WVWRD7281QDLQ15V6Q0LU31Q","A2KLJKDG90K1PP","3M67TQBQQHANPE5CZBF2IQ6TWABA9O","","","null","","","","","","","","","",""
"502.7999999523163","","image-keyboard-response","277","554127","0.0-277.0","39L1G8WVWRD7281QDLQ15V6Q0LU31Q","A2KLJKDG90K1PP","3M67TQBQQHANPE5CZBF2IQ6TWABA9O","","img/set1/S1.jpg","83","1","structured_incentive","83","structured_incentive,random,structured_normal,structured_load","2,3,4,2,1,2","1,2,3,4","true","","",""
"null","","html-keyboard-response","278","554478","0.0-278.0","39L1G8WVWRD7281QDLQ15V6Q0LU31Q","A2KLJKDG90K1PP","3M67TQBQQHANPE5CZBF2IQ6TWABA9O","","<img src=""img/set1/S1.jpg"" width=""540"" height = ""360"" style=""border:16px solid orange"">","null","","","","","","","","","",""
"null","","html-keyboard-response","279","554679","0.0-279.0","39L1G8WVWRD7281QDLQ15V6Q0LU31Q","A2KLJKDG90K1PP","3M67TQBQQHANPE5CZBF2IQ6TWABA9O","","","null","","","","","","","","","",""
"1327","","image-keyboard-response","280","556007","0.0-280.0","39L1G8WVWRD7281QDLQ15V6Q0LU31Q","A2KLJKDG90K1PP","3M67TQBQQHANPE5CZBF2IQ6TWABA9O","","img/set1/S2.jpg","68","2","structured_incentive","68","structured_incentive,random,structured_normal,structured_load","2,3,4,2,1,2","1,2,3,4","true","","",""
"null","","html-keyboard-response","281","556359","0.0-281.0","39L1G8WVWRD7281QDLQ15V6Q0LU31Q","A2KLJKDG90K1PP","3M67TQBQQHANPE5CZBF2IQ6TWABA9O","","<img src=""img/set1/S2.jpg"" width=""540"" height = ""360"" style=""border:16px solid orange"">","null","","","","","","","","","",""
"null","","html-keyboard-response","282","556560","0.0-282.0","39L1G8WVWRD7281QDLQ15V6Q0LU31Q","A2KLJKDG90K1PP","3M67TQBQQHANPE5CZBF2IQ6TWABA9O","","","null","","","","","","","","","",""
"601","","image-keyboard-response","283","557162","0.0-283.0","39L1G8WVWRD7281QDLQ15V6Q0LU31Q","A2KLJKDG90K1PP","3M67TQBQQHANPE5CZBF2IQ6TWABA9O","","img/set1/S3.jpg","72","3","structured_incentive","72","structured_incentive,random,structured_normal,structured_load","2,3,4,2,1,2","1,2,3,4","true","","",""
"null","","html-keyboard-response","284","557514","0.0-284.0","39L1G8WVWRD7281QDLQ15V6Q0LU31Q","A2KLJKDG90K1PP","3M67TQBQQHANPE5CZBF2IQ6TWABA9O","","<img src=""img/set1/S3.jpg"" width=""540"" height = ""360"" style=""border:16px solid orange"">","null","","","","","","","","","",""
"null","","html-keyboard-response","285","557716","0.0-285.0","39L1G8WVWRD7281QDLQ15V6Q0LU31Q","A2KLJKDG90K1PP","3M67TQBQQHANPE5CZBF2IQ6TWABA9O","","","null","","","","","","","","","",""
"791.7999999523163","","image-keyboard-response","286","558508","0.0-286.0","39L1G8WVWRD7281QDLQ15V6Q0LU31Q","A2KLJKDG90K1PP","3M67TQBQQHANPE5CZBF2IQ6TWABA9O","","img/set1/S2.jpg","68","2","structured_incentive","68","structured_incentive,random,structured_normal,structured_load","2,3,4,2,1,2","1,2,3,4","true","","",""
"null","","html-keyboard-response","287","558859","0.0-287.0","39L1G8WVWRD7281QDLQ15V6Q0LU31Q","A2KLJKDG90K1PP","3M67TQBQQHANPE5CZBF2IQ6TWABA9O","","<img src=""img/set1/S2.jpg"" width=""540"" height = ""360"" style=""border:16px solid orange"">","null","","","","","","","","","",""
"null","","html-keyboard-response","288","559061","0.0-288.0","39L1G8WVWRD7281QDLQ15V6Q0LU31Q","A2KLJKDG90K1PP","3M67TQBQQHANPE5CZBF2IQ6TWABA9O","","","null","","","","","","","","","",""
"584.2000000476837","","image-keyboard-response","289","559646","0.0-289.0","39L1G8WVWRD7281QDLQ15V6Q0LU31Q","A2KLJKDG90K1PP","3M67TQBQQHANPE5CZBF2IQ6TWABA9O","","img/set1/S3.jpg","72","3","structured_incentive","72","structured_incentive,random,structured_normal,structured_load","2,3,4,2,1,2","1,2,3,4","true","","",""
"null","","html-keyboard-response","290","560000","0.0-290.0","39L1G8WVWRD7281QDLQ15V6Q0LU31Q","A2KLJKDG90K1PP","3M67TQBQQHANPE5CZBF2IQ6TWABA9O","","<img src=""img/set1/S3.jpg"" width=""540"" height = ""360"" style=""border:16px solid orange"">","null","","","","","","","","","",""
"null","","html-keyboard-response","291","560200","0.0-291.0","39L1G8WVWRD7281QDLQ15V6Q0LU31Q","A2KLJKDG90K1PP","3M67TQBQQHANPE5CZBF2IQ6TWABA9O","","","null","","","","","","","","","",""
"620.3999998569489","","image-keyboard-response","292","560822","0.0-292.0","39L1G8WVWRD7281QDLQ15V6Q0LU31Q","A2KLJKDG90K1PP","3M67TQBQQHANPE5CZBF2IQ6TWABA9O","","img/set1/S4.jpg","74","4","structured_incentive","74","structured_incentive,random,structured_normal,structured_load","2,3,4,2,1,2","1,2,3,4","true","","",""
"null","","html-keyboard-response","293","561175","0.0-293.0","39L1G8WVWRD7281QDLQ15V6Q0LU31Q","A2KLJKDG90K1PP","3M67TQBQQHANPE5CZBF2IQ6TWABA9O","","<img src=""img/set1/S4.jpg"" width=""540"" height = ""360"" style=""border:16px solid Violet"">","null","","","","","","","","","",""
"null","","html-keyboard-response","294","561376","0.0-294.0","39L1G8WVWRD7281QDLQ15V6Q0LU31Q","A2KLJKDG90K1PP","3M67TQBQQHANPE5CZBF2IQ6TWABA9O","","","null","","","","","","","","","",""
"709","","image-keyboard-response","295","562087","0.0-295.0","39L1G8WVWRD7281QDLQ15V6Q0LU31Q","A2KLJKDG90K1PP","3M67TQBQQHANPE5CZBF2IQ6TWABA9O","","img/set1/S1.jpg","83","1","structured_incentive","83","structured_incentive,random,structured_normal,structured_load","2,3,4,2,1,2","1,2,3,4","true","","",""
"null","","html-keyboard-response","296","562439","0.0-296.0","39L1G8WVWRD7281QDLQ15V6Q0LU31Q","A2KLJKDG90K1PP","3M67TQBQQHANPE5CZBF2IQ6TWABA9O","","<img src=""img/set1/S1.jpg"" width=""540"" height = ""360"" style=""border:16px solid orange"">","null","","","","","","","","","",""
"null","","html-keyboard-response","297","562650","0.0-297.0","39L1G8WVWRD7281QDLQ15V6Q0LU31Q","A2KLJKDG90K1PP","3M67TQBQQHANPE5CZBF2IQ6TWABA9O","","","null","","","","","","","","","",""
"633.5","","image-keyboard-response","298","563285","0.0-298.0","39L1G8WVWRD7281QDLQ15V6Q0LU31Q","A2KLJKDG90K1PP","3M67TQBQQHANPE5CZBF2IQ6TWABA9O","","img/set1/S1.jpg","83","1","structured_incentive","83","structured_incentive,random,structured_normal,structured_load","2,3,4,2,1,2","1,2,3,4","true","","",""
"null","","html-keyboard-response","299","563637","0.0-299.0","39L1G8WVWRD7281QDLQ15V6Q0LU31Q","A2KLJKDG90K1PP","3M67TQBQQHANPE5CZBF2IQ6TWABA9O","","<img src=""img/set1/S1.jpg"" width=""540"" height = ""360"" style=""border:16px solid orange"">","null","","","","","","","","","",""
"null","","html-keyboard-response","300","563839","0.0-300.0","39L1G8WVWRD7281QDLQ15V6Q0LU31Q","A2KLJKDG90K1PP","3M67TQBQQHANPE5CZBF2IQ6TWABA9O","","","null","","","","","","","","","",""
"674","","image-keyboard-response","301","564514","0.0-301.0","39L1G8WVWRD7281QDLQ15V6Q0LU31Q","A2KLJKDG90K1PP","3M67TQBQQHANPE5CZBF2IQ6TWABA9O","","img/set1/S2.jpg","68","2","structured_incentive","68","structured_incentive,random,structured_normal,structured_load","2,3,4,2,1,2","1,2,3,4","true","","",""
"null","","html-keyboard-response","302","564866","0.0-302.0","39L1G8WVWRD7281QDLQ15V6Q0LU31Q","A2KLJKDG90K1PP","3M67TQBQQHANPE5CZBF2IQ6TWABA9O","","<img src=""img/set1/S2.jpg"" width=""540"" height = ""360"" style=""border:16px solid orange"">","null","","","","","","","","","",""
"null","","html-keyboard-response","303","565067","0.0-303.0","39L1G8WVWRD7281QDLQ15V6Q0LU31Q","A2KLJKDG90K1PP","3M67TQBQQHANPE5CZBF2IQ6TWABA9O","","","null","","","","","","","","","",""
"870.5","","image-keyboard-response","304","565939","0.0-304.0","39L1G8WVWRD7281QDLQ15V6Q0LU31Q","A2KLJKDG90K1PP","3M67TQBQQHANPE5CZBF2IQ6TWABA9O","","img/set1/S3.jpg","72","3","structured_incentive","72","structured_incentive,random,structured_normal,structured_load","2,3,4,2,1,2","1,2,3,4","true","","",""
"null","","html-keyboard-response","305","566290","0.0-305.0","39L1G8WVWRD7281QDLQ15V6Q0LU31Q","A2KLJKDG90K1PP","3M67TQBQQHANPE5CZBF2IQ6TWABA9O","","<img src=""img/set1/S3.jpg"" width=""540"" height = ""360"" style=""border:16px solid orange"">","null","","","","","","","","","",""
"null","","html-keyboard-response","306","566492","0.0-306.0","39L1G8WVWRD7281QDLQ15V6Q0LU31Q","A2KLJKDG90K1PP","3M67TQBQQHANPE5CZBF2IQ6TWABA9O","","","null","","","","","","","","","",""
"1016.6000001430511","","image-keyboard-response","307","567509","0.0-307.0","39L1G8WVWRD7281QDLQ15V6Q0LU31Q","A2KLJKDG90K1PP","3M67TQBQQHANPE5CZBF2IQ6TWABA9O","","img/set1/S1.jpg","83","1","structured_incentive","83","structured_incentive,random,structured_normal,structured_load","2,3,4,2,1,2","1,2,3,4","true","","",""
"null","","html-keyboard-response","308","567861","0.0-308.0","39L1G8WVWRD7281QDLQ15V6Q0LU31Q","A2KLJKDG90K1PP","3M67TQBQQHANPE5CZBF2IQ6TWABA9O","","<img src=""img/set1/S1.jpg"" width=""540"" height = ""360"" style=""border:16px solid orange"">","null","","","","","","","","","",""
"null","","html-keyboard-response","309","568064","0.0-309.0","39L1G8WVWRD7281QDLQ15V6Q0LU31Q","A2KLJKDG90K1PP","3M67TQBQQHANPE5CZBF2IQ6TWABA9O","","","null","","","","","","","","","",""
"664.2000000476837","","image-keyboard-response","310","568729","0.0-310.0","39L1G8WVWRD7281QDLQ15V6Q0LU31Q","A2KLJKDG90K1PP","3M67TQBQQHANPE5CZBF2IQ6TWABA9O","","img/set1/S2.jpg","68","2","structured_incentive","68","structured_incentive,random,structured_normal,structured_load","2,3,4,2,1,2","1,2,3,4","true","","",""
"null","","html-keyboard-response","311","569082","0.0-311.0","39L1G8WVWRD7281QDLQ15V6Q0LU31Q","A2KLJKDG90K1PP","3M67TQBQQHANPE5CZBF2IQ6TWABA9O","","<img src=""img/set1/S2.jpg"" width=""540"" height = ""360"" style=""border:16px solid orange"">","null","","","","","","","","","",""
"null","","html-keyboard-response","312","569284","0.0-312.0","39L1G8WVWRD7281QDLQ15V6Q0LU31Q","A2KLJKDG90K1PP","3M67TQBQQHANPE5CZBF2IQ6TWABA9O","","","null","","","","","","","","","",""
"655","","image-keyboard-response","313","569940","0.0-313.0","39L1G8WVWRD7281QDLQ15V6Q0LU31Q","A2KLJKDG90K1PP","3M67TQBQQHANPE5CZBF2IQ6TWABA9O","","img/set1/S3.jpg","72","3","structured_incentive","72","structured_incentive,random,structured_normal,structured_load","2,3,4,2,1,2","1,2,3,4","true","","",""
"null","","html-keyboard-response","314","570291","0.0-314.0","39L1G8WVWRD7281QDLQ15V6Q0LU31Q","A2KLJKDG90K1PP","3M67TQBQQHANPE5CZBF2IQ6TWABA9O","","<img src=""img/set1/S3.jpg"" width=""540"" height = ""360"" style=""border:16px solid orange"">","null","","","","","","","","","",""
"null","","html-keyboard-response","315","570493","0.0-315.0","39L1G8WVWRD7281QDLQ15V6Q0LU31Q","A2KLJKDG90K1PP","3M67TQBQQHANPE5CZBF2IQ6TWABA9O","","","null","","","","","","","","","",""
"611.3999998569489","","image-keyboard-response","316","571105","0.0-316.0","39L1G8WVWRD7281QDLQ15V6Q0LU31Q","A2KLJKDG90K1PP","3M67TQBQQHANPE5CZBF2IQ6TWABA9O","","img/set1/S2.jpg","68","2","structured_incentive","68","structured_incentive,random,structured_normal,structured_load","2,3,4,2,1,2","1,2,3,4","true","","",""
"null","","html-keyboard-response","317","571457","0.0-317.0","39L1G8WVWRD7281QDLQ15V6Q0LU31Q","A2KLJKDG90K1PP","3M67TQBQQHANPE5CZBF2IQ6TWABA9O","","<img src=""img/set1/S2.jpg"" width=""540"" height = ""360"" style=""border:16px solid orange"">","null","","","","","","","","","",""
"null","","html-keyboard-response","318","571659","0.0-318.0","39L1G8WVWRD7281QDLQ15V6Q0LU31Q","A2KLJKDG90K1PP","3M67TQBQQHANPE5CZBF2IQ6TWABA9O","","","null","","","","","","","","","",""
"914.4000000953674","","image-keyboard-response","319","572574","0.0-319.0","39L1G8WVWRD7281QDLQ15V6Q0LU31Q","A2KLJKDG90K1PP","3M67TQBQQHANPE5CZBF2IQ6TWABA9O","","img/set1/S3.jpg","72","3","structured_incentive","72","structured_incentive,random,structured_normal,structured_load","2,3,4,2,1,2","1,2,3,4","true","","",""
"null","","html-keyboard-response","320","572926","0.0-320.0","39L1G8WVWRD7281QDLQ15V6Q0LU31Q","A2KLJKDG90K1PP","3M67TQBQQHANPE5CZBF2IQ6TWABA9O","","<img src=""img/set1/S3.jpg"" width=""540"" height = ""360"" style=""border:16px solid orange"">","null","","","","","","","","","",""
"null","","html-keyboard-response","321","573129","0.0-321.0","39L1G8WVWRD7281QDLQ15V6Q0LU31Q","A2KLJKDG90K1PP","3M67TQBQQHANPE5CZBF2IQ6TWABA9O","","","null","","","","","","","","","",""
"774","","image-keyboard-response","322","573903","0.0-322.0","39L1G8WVWRD7281QDLQ15V6Q0LU31Q","A2KLJKDG90K1PP","3M67TQBQQHANPE5CZBF2IQ6TWABA9O","","img/set1/S3.jpg","72","3","structured_incentive","72","structured_incentive,random,structured_normal,structured_load","2,3,4,2,1,2","1,2,3,4","true","","",""
"null","","html-keyboard-response","323","574255","0.0-323.0","39L1G8WVWRD7281QDLQ15V6Q0LU31Q","A2KLJKDG90K1PP","3M67TQBQQHANPE5CZBF2IQ6TWABA9O","","<img src=""img/set1/S3.jpg"" width=""540"" height = ""360"" style=""border:16px solid orange"">","null","","","","","","","","","",""
"null","","html-keyboard-response","324","574457","0.0-324.0","39L1G8WVWRD7281QDLQ15V6Q0LU31Q","A2KLJKDG90K1PP","3M67TQBQQHANPE5CZBF2IQ6TWABA9O","","","null","","","","","","","","","",""
"555.2999999523163","","image-keyboard-response","325","575013","0.0-325.0","39L1G8WVWRD7281QDLQ15V6Q0LU31Q","A2KLJKDG90K1PP","3M67TQBQQHANPE5CZBF2IQ6TWABA9O","","img/set1/S3.jpg","72","3","structured_incentive","72","structured_incentive,random,structured_normal,structured_load","2,3,4,2,1,2","1,2,3,4","true","","",""
"null","","html-keyboard-response","326","575366","0.0-326.0","39L1G8WVWRD7281QDLQ15V6Q0LU31Q","A2KLJKDG90K1PP","3M67TQBQQHANPE5CZBF2IQ6TWABA9O","","<img src=""img/set1/S3.jpg"" width=""540"" height = ""360"" style=""border:16px solid orange"">","null","","","","","","","","","",""
"null","","html-keyboard-response","327","575568","0.0-327.0","39L1G8WVWRD7281QDLQ15V6Q0LU31Q","A2KLJKDG90K1PP","3M67TQBQQHANPE5CZBF2IQ6TWABA9O","","","null","","","","","","","","","",""
"601.2000000476837","","image-keyboard-response","328","576170","0.0-328.0","39L1G8WVWRD7281QDLQ15V6Q0LU31Q","A2KLJKDG90K1PP","3M67TQBQQHANPE5CZBF2IQ6TWABA9O","","img/set1/S4.jpg","74","4","structured_incentive","74","structured_incentive,random,structured_normal,structured_load","2,3,4,2,1,2","1,2,3,4","true","","",""
"null","","html-keyboard-response","329","576522","0.0-329.0","39L1G8WVWRD7281QDLQ15V6Q0LU31Q","A2KLJKDG90K1PP","3M67TQBQQHANPE5CZBF2IQ6TWABA9O","","<img src=""img/set1/S4.jpg"" width=""540"" height = ""360"" style=""border:16px solid Violet"">","null","","","","","","","","","",""
"null","","html-keyboard-response","330","576724","0.0-330.0","39L1G8WVWRD7281QDLQ15V6Q0LU31Q","A2KLJKDG90K1PP","3M67TQBQQHANPE5CZBF2IQ6TWABA9O","","","null","","","","","","","","","",""
"513.1000001430511","","image-keyboard-response","331","577238","0.0-331.0","39L1G8WVWRD7281QDLQ15V6Q0LU31Q","A2KLJKDG90K1PP","3M67TQBQQHANPE5CZBF2IQ6TWABA9O","","img/set1/S4.jpg","74","4","structured_incentive","74","structured_incentive,random,structured_normal,structured_load","2,3,4,2,1,2","1,2,3,4","true","","",""
"null","","html-keyboard-response","332","577591","0.0-332.0","39L1G8WVWRD7281QDLQ15V6Q0LU31Q","A2KLJKDG90K1PP","3M67TQBQQHANPE5CZBF2IQ6TWABA9O","","<img src=""img/set1/S4.jpg"" width=""540"" height = ""360"" style=""border:16px solid Violet"">","null","","","","","","","","","",""
"null","","html-keyboard-response","333","577793","0.0-333.0","39L1G8WVWRD7281QDLQ15V6Q0LU31Q","A2KLJKDG90K1PP","3M67TQBQQHANPE5CZBF2IQ6TWABA9O","","","null","","","","","","","","","",""
"541.0999999046326","","image-keyboard-response","334","578335","0.0-334.0","39L1G8WVWRD7281QDLQ15V6Q0LU31Q","A2KLJKDG90K1PP","3M67TQBQQHANPE5CZBF2IQ6TWABA9O","","img/set1/S4.jpg","74","4","structured_incentive","74","structured_incentive,random,structured_normal,structured_load","2,3,4,2,1,2","1,2,3,4","true","","",""
"null","","html-keyboard-response","335","578686","0.0-335.0","39L1G8WVWRD7281QDLQ15V6Q0LU31Q","A2KLJKDG90K1PP","3M67TQBQQHANPE5CZBF2IQ6TWABA9O","","<img src=""img/set1/S4.jpg"" width=""540"" height = ""360"" style=""border:16px solid Violet"">","null","","","","","","","","","",""
"null","","html-keyboard-response","336","578888","0.0-336.0","39L1G8WVWRD7281QDLQ15V6Q0LU31Q","A2KLJKDG90K1PP","3M67TQBQQHANPE5CZBF2IQ6TWABA9O","","","null","","","","","","","","","",""
"403.59999990463257","","image-keyboard-response","337","579293","0.0-337.0","39L1G8WVWRD7281QDLQ15V6Q0LU31Q","A2KLJKDG90K1PP","3M67TQBQQHANPE5CZBF2IQ6TWABA9O","","img/set1/S4.jpg","74","4","structured_incentive","74","structured_incentive,random,structured_normal,structured_load","2,3,4,2,1,2","1,2,3,4","true","","",""
"null","","html-keyboard-response","338","579645","0.0-338.0","39L1G8WVWRD7281QDLQ15V6Q0LU31Q","A2KLJKDG90K1PP","3M67TQBQQHANPE5CZBF2IQ6TWABA9O","","<img src=""img/set1/S4.jpg"" width=""540"" height = ""360"" style=""border:16px solid Violet"">","null","","","","","","","","","",""
"null","","html-keyboard-response","339","579846","0.0-339.0","39L1G8WVWRD7281QDLQ15V6Q0LU31Q","A2KLJKDG90K1PP","3M67TQBQQHANPE5CZBF2IQ6TWABA9O","","","null","","","","","","","","","",""
"510.7999999523163","","image-keyboard-response","340","580359","0.0-340.0","39L1G8WVWRD7281QDLQ15V6Q0LU31Q","A2KLJKDG90K1PP","3M67TQBQQHANPE5CZBF2IQ6TWABA9O","","img/set1/S2.jpg","68","2","structured_incentive","68","structured_incentive,random,structured_normal,structured_load","2,3,4,2,1,2","1,2,3,4","true","","",""
"null","","html-keyboard-response","341","580711","0.0-341.0","39L1G8WVWRD7281QDLQ15V6Q0LU31Q","A2KLJKDG90K1PP","3M67TQBQQHANPE5CZBF2IQ6TWABA9O","","<img src=""img/set1/S2.jpg"" width=""540"" height = ""360"" style=""border:16px solid orange"">","null","","","","","","","","","",""
"null","","html-keyboard-response","342","580913","0.0-342.0","39L1G8WVWRD7281QDLQ15V6Q0LU31Q","A2KLJKDG90K1PP","3M67TQBQQHANPE5CZBF2IQ6TWABA9O","","","null","","","","","","","","","",""
"838.6000001430511","","image-keyboard-response","343","581752","0.0-343.0","39L1G8WVWRD7281QDLQ15V6Q0LU31Q","A2KLJKDG90K1PP","3M67TQBQQHANPE5CZBF2IQ6TWABA9O","","img/set1/S3.jpg","72","3","structured_incentive","72","structured_incentive,random,structured_normal,structured_load","2,3,4,2,1,2","1,2,3,4","true","","",""
"null","","html-keyboard-response","344","582103","0.0-344.0","39L1G8WVWRD7281QDLQ15V6Q0LU31Q","A2KLJKDG90K1PP","3M67TQBQQHANPE5CZBF2IQ6TWABA9O","","<img src=""img/set1/S3.jpg"" width=""540"" height = ""360"" style=""border:16px solid orange"">","null","","","","","","","","","",""
"null","","html-keyboard-response","345","582305","0.0-345.0","39L1G8WVWRD7281QDLQ15V6Q0LU31Q","A2KLJKDG90K1PP","3M67TQBQQHANPE5CZBF2IQ6TWABA9O","","","null","","","","","","","","","",""
"674.2999999523163","","image-keyboard-response","346","582980","0.0-346.0","39L1G8WVWRD7281QDLQ15V6Q0LU31Q","A2KLJKDG90K1PP","3M67TQBQQHANPE5CZBF2IQ6TWABA9O","","img/set1/S2.jpg","68","2","structured_incentive","68","structured_incentive,random,structured_normal,structured_load","2,3,4,2,1,2","1,2,3,4","true","","",""
"null","","html-keyboard-response","347","583332","0.0-347.0","39L1G8WVWRD7281QDLQ15V6Q0LU31Q","A2KLJKDG90K1PP","3M67TQBQQHANPE5CZBF2IQ6TWABA9O","","<img src=""img/set1/S2.jpg"" width=""540"" height = ""360"" style=""border:16px solid orange"">","null","","","","","","","","","",""
"null","","html-keyboard-response","348","583533","0.0-348.0","39L1G8WVWRD7281QDLQ15V6Q0LU31Q","A2KLJKDG90K1PP","3M67TQBQQHANPE5CZBF2IQ6TWABA9O","","","null","","","","","","","","","",""
"536.0999999046326","","image-keyboard-response","349","584070","0.0-349.0","39L1G8WVWRD7281QDLQ15V6Q0LU31Q","A2KLJKDG90K1PP","3M67TQBQQHANPE5CZBF2IQ6TWABA9O","","img/set1/S3.jpg","72","3","structured_incentive","72","structured_incentive,random,structured_normal,structured_load","2,3,4,2,1,2","1,2,3,4","true","","",""
"null","","html-keyboard-response","350","584422","0.0-350.0","39L1G8WVWRD7281QDLQ15V6Q0LU31Q","A2KLJKDG90K1PP","3M67TQBQQHANPE5CZBF2IQ6TWABA9O","","<img src=""img/set1/S3.jpg"" width=""540"" height = ""360"" style=""border:16px solid orange"">","null","","","","","","","","","",""
"null","","html-keyboard-response","351","584623","0.0-351.0","39L1G8WVWRD7281QDLQ15V6Q0LU31Q","A2KLJKDG90K1PP","3M67TQBQQHANPE5CZBF2IQ6TWABA9O","","","null","","","","","","","","","",""
"706.2000000476837","","image-keyboard-response","352","585330","0.0-352.0","39L1G8WVWRD7281QDLQ15V6Q0LU31Q","A2KLJKDG90K1PP","3M67TQBQQHANPE5CZBF2IQ6TWABA9O","","img/set1/S1.jpg","83","1","structured_incentive","83","structured_incentive,random,structured_normal,structured_load","2,3,4,2,1,2","1,2,3,4","true","","",""
"null","","html-keyboard-response","353","585683","0.0-353.0","39L1G8WVWRD7281QDLQ15V6Q0LU31Q","A2KLJKDG90K1PP","3M67TQBQQHANPE5CZBF2IQ6TWABA9O","","<img src=""img/set1/S1.jpg"" width=""540"" height = ""360"" style=""border:16px solid orange"">","null","","","","","","","","","",""
"null","","html-keyboard-response","354","585884","0.0-354.0","39L1G8WVWRD7281QDLQ15V6Q0LU31Q","A2KLJKDG90K1PP","3M67TQBQQHANPE5CZBF2IQ6TWABA9O","","","null","","","","","","","","","",""
"619.1000001430511","","image-keyboard-response","355","586504","0.0-355.0","39L1G8WVWRD7281QDLQ15V6Q0LU31Q","A2KLJKDG90K1PP","3M67TQBQQHANPE5CZBF2IQ6TWABA9O","","img/set1/S4.jpg","74","4","structured_incentive","74","structured_incentive,random,structured_normal,structured_load","2,3,4,2,1,2","1,2,3,4","true","","",""
"null","","html-keyboard-response","356","586856","0.0-356.0","39L1G8WVWRD7281QDLQ15V6Q0LU31Q","A2KLJKDG90K1PP","3M67TQBQQHANPE5CZBF2IQ6TWABA9O","","<img src=""img/set1/S4.jpg"" width=""540"" height = ""360"" style=""border:16px solid Violet"">","null","","","","","","","","","",""
"null","","html-keyboard-response","357","587058","0.0-357.0","39L1G8WVWRD7281QDLQ15V6Q0LU31Q","A2KLJKDG90K1PP","3M67TQBQQHANPE5CZBF2IQ6TWABA9O","","","null","","","","","","","","","",""
"715.8999998569489","","image-keyboard-response","358","587775","0.0-358.0","39L1G8WVWRD7281QDLQ15V6Q0LU31Q","A2KLJKDG90K1PP","3M67TQBQQHANPE5CZBF2IQ6TWABA9O","","img/set1/S1.jpg","83","1","structured_incentive","83","structured_incentive,random,structured_normal,structured_load","2,3,4,2,1,2","1,2,3,4","true","","",""
"null","","html-keyboard-response","359","588127","0.0-359.0","39L1G8WVWRD7281QDLQ15V6Q0LU31Q","A2KLJKDG90K1PP","3M67TQBQQHANPE5CZBF2IQ6TWABA9O","","<img src=""img/set1/S1.jpg"" width=""540"" height = ""360"" style=""border:16px solid orange"">","null","","","","","","","","","",""
"null","","html-keyboard-response","360","588329","0.0-360.0","39L1G8WVWRD7281QDLQ15V6Q0LU31Q","A2KLJKDG90K1PP","3M67TQBQQHANPE5CZBF2IQ6TWABA9O","","","null","","","","","","","","","",""
"659.4000000953674","","image-keyboard-response","361","588989","0.0-361.0","39L1G8WVWRD7281QDLQ15V6Q0LU31Q","A2KLJKDG90K1PP","3M67TQBQQHANPE5CZBF2IQ6TWABA9O","","img/set1/S4.jpg","74","4","structured_incentive","74","structured_incentive,random,structured_normal,structured_load","2,3,4,2,1,2","1,2,3,4","true","","",""
"null","","html-keyboard-response","362","589341","0.0-362.0","39L1G8WVWRD7281QDLQ15V6Q0LU31Q","A2KLJKDG90K1PP","3M67TQBQQHANPE5CZBF2IQ6TWABA9O","","<img src=""img/set1/S4.jpg"" width=""540"" height = ""360"" style=""border:16px solid Violet"">","null","","","","","","","","","",""
"null","","html-keyboard-response","363","589542","0.0-363.0","39L1G8WVWRD7281QDLQ15V6Q0LU31Q","A2KLJKDG90K1PP","3M67TQBQQHANPE5CZBF2IQ6TWABA9O","","","null","","","","","","","","","",""
"597.2000000476837","","image-keyboard-response","364","590140","0.0-364.0","39L1G8WVWRD7281QDLQ15V6Q0LU31Q","A2KLJKDG90K1PP","3M67TQBQQHANPE5CZBF2IQ6TWABA9O","","img/set1/S2.jpg","68","2","structured_incentive","68","structured_incentive,random,structured_normal,structured_load","2,3,4,2,1,2","1,2,3,4","true","","",""
"null","","html-keyboard-response","365","590492","0.0-365.0","39L1G8WVWRD7281QDLQ15V6Q0LU31Q","A2KLJKDG90K1PP","3M67TQBQQHANPE5CZBF2IQ6TWABA9O","","<img src=""img/set1/S2.jpg"" width=""540"" height = ""360"" style=""border:16px solid orange"">","null","","","","","","","","","",""
"null","","html-keyboard-response","366","590693","0.0-366.0","39L1G8WVWRD7281QDLQ15V6Q0LU31Q","A2KLJKDG90K1PP","3M67TQBQQHANPE5CZBF2IQ6TWABA9O","","","null","","","","","","","","","",""
"631.5","","image-keyboard-response","367","591326","0.0-367.0","39L1G8WVWRD7281QDLQ15V6Q0LU31Q","A2KLJKDG90K1PP","3M67TQBQQHANPE5CZBF2IQ6TWABA9O","","img/set1/S4.jpg","72","4","structured_incentive","74","structured_incentive,random,structured_normal,structured_load","2,3,4,2,1,2","1,2,3,4","false","","",""
"null","","html-keyboard-response","368","591678","0.0-368.0","39L1G8WVWRD7281QDLQ15V6Q0LU31Q","A2KLJKDG90K1PP","3M67TQBQQHANPE5CZBF2IQ6TWABA9O","","<img src=""img/set1/S4.jpg"" width=""540"" height = ""360"">","null","","","","","","","","","",""
"null","","html-keyboard-response","369","591880","0.0-369.0","39L1G8WVWRD7281QDLQ15V6Q0LU31Q","A2KLJKDG90K1PP","3M67TQBQQHANPE5CZBF2IQ6TWABA9O","","","null","","","","","","","","","",""
"657.7000000476837","","image-keyboard-response","370","592539","0.0-370.0","39L1G8WVWRD7281QDLQ15V6Q0LU31Q","A2KLJKDG90K1PP","3M67TQBQQHANPE5CZBF2IQ6TWABA9O","","img/set1/S2.jpg","68","2","structured_incentive","68","structured_incentive,random,structured_normal,structured_load","2,3,4,2,1,2","1,2,3,4","true","","",""
"null","","html-keyboard-response","371","592891","0.0-371.0","39L1G8WVWRD7281QDLQ15V6Q0LU31Q","A2KLJKDG90K1PP","3M67TQBQQHANPE5CZBF2IQ6TWABA9O","","<img src=""img/set1/S2.jpg"" width=""540"" height = ""360"" style=""border:16px solid orange"">","null","","","","","","","","","",""
"null","","html-keyboard-response","372","593092","0.0-372.0","39L1G8WVWRD7281QDLQ15V6Q0LU31Q","A2KLJKDG90K1PP","3M67TQBQQHANPE5CZBF2IQ6TWABA9O","","","null","","","","","","","","","",""
"548.8999998569489","","image-keyboard-response","373","593642","0.0-373.0","39L1G8WVWRD7281QDLQ15V6Q0LU31Q","A2KLJKDG90K1PP","3M67TQBQQHANPE5CZBF2IQ6TWABA9O","","img/set1/S3.jpg","72","3","structured_incentive","72","structured_incentive,random,structured_normal,structured_load","2,3,4,2,1,2","1,2,3,4","true","","",""
"null","","html-keyboard-response","374","593994","0.0-374.0","39L1G8WVWRD7281QDLQ15V6Q0LU31Q","A2KLJKDG90K1PP","3M67TQBQQHANPE5CZBF2IQ6TWABA9O","","<img src=""img/set1/S3.jpg"" width=""540"" height = ""360"" style=""border:16px solid orange"">","null","","","","","","","","","",""
"null","","html-keyboard-response","375","594196","0.0-375.0","39L1G8WVWRD7281QDLQ15V6Q0LU31Q","A2KLJKDG90K1PP","3M67TQBQQHANPE5CZBF2IQ6TWABA9O","","","null","","","","","","","","","",""
"586.0999999046326","","image-keyboard-response","376","594783","0.0-376.0","39L1G8WVWRD7281QDLQ15V6Q0LU31Q","A2KLJKDG90K1PP","3M67TQBQQHANPE5CZBF2IQ6TWABA9O","","img/set1/S2.jpg","68","2","structured_incentive","68","structured_incentive,random,structured_normal,structured_load","2,3,4,2,1,2","1,2,3,4","true","","",""
"null","","html-keyboard-response","377","595135","0.0-377.0","39L1G8WVWRD7281QDLQ15V6Q0LU31Q","A2KLJKDG90K1PP","3M67TQBQQHANPE5CZBF2IQ6TWABA9O","","<img src=""img/set1/S2.jpg"" width=""540"" height = ""360"" style=""border:16px solid orange"">","null","","","","","","","","","",""
"null","","html-keyboard-response","378","595336","0.0-378.0","39L1G8WVWRD7281QDLQ15V6Q0LU31Q","A2KLJKDG90K1PP","3M67TQBQQHANPE5CZBF2IQ6TWABA9O","","","null","","","","","","","","","",""
"571.5","","image-keyboard-response","379","595909","0.0-379.0","39L1G8WVWRD7281QDLQ15V6Q0LU31Q","A2KLJKDG90K1PP","3M67TQBQQHANPE5CZBF2IQ6TWABA9O","","img/set1/S4.jpg","83","4","structured_incentive","74","structured_incentive,random,structured_normal,structured_load","2,3,4,2,1,2","1,2,3,4","false","","",""
"null","","html-keyboard-response","380","596261","0.0-380.0","39L1G8WVWRD7281QDLQ15V6Q0LU31Q","A2KLJKDG90K1PP","3M67TQBQQHANPE5CZBF2IQ6TWABA9O","","<img src=""img/set1/S4.jpg"" width=""540"" height = ""360"">","null","","","","","","","","","",""
