"rt","url","trial_type","trial_index","time_elapsed","internal_node_id","view_history","stimulus","key_press","state","test_part","correct_response","order_block","order_chunk","correct","responses","question_order","bonus"
"146958.59999996424","consent.html","external-html","0","147231","0.0-0.0","","","","","","","","","","","",""
"118484","","instructions","1","265719","0.0-1.0","[{""page_index"":0,""viewing_time"":4309.299999952316},{""page_index"":1,""viewing_time"":17423.700000047684},{""page_index"":2,""viewing_time"":8895.599999964237},{""page_index"":3,""viewing_time"":25623.400000035763},{""page_index"":4,""viewing_time"":20527.899999976158},{""page_index"":5,""viewing_time"":17368},{""page_index"":6,""viewing_time"":24334.80000001192}]","","","","","","","","","","",""
"18845.80000001192","","instructions","2","284568","0.0-2.0","[{""page_index"":0,""viewing_time"":18845.400000035763}]","","","","","","","","","","",""
"7180","","instructions","3","291749","0.0-3.0","[{""page_index"":0,""viewing_time"":7179.800000011921}]","","","","","","","","","","",""
"null","","image-keyboard-response","4","294254","0.0-4.0","","img/set1/S4.jpg","null","4","random","74","random,structured_load,structured_incentive,structured_normal","2,1,3,4,2,3","false","","",""
"null","","html-keyboard-response","5","294615","0.0-5.0","","<img src=""img/set1/S4.jpg"" width=""540"" height = ""360"">","null","","","","","","","","",""
"null","","html-keyboard-response","6","294818","0.0-6.0","","","null","","","","","","","","",""
"1563.800000011921","","image-keyboard-response","7","296386","0.0-7.0","","img/set1/S1.jpg","72","1","random","83","random,structured_load,structured_incentive,structured_normal","2,1,3,4,2,3","false","","",""
"null","","html-keyboard-response","8","296739","0.0-8.0","","<img src=""img/set1/S1.jpg"" width=""540"" height = ""360"">","null","","","","","","","","",""
"null","","html-keyboard-response","9","296942","0.0-9.0","","","null","","","","","","","","",""
"1025.5","","image-keyboard-response","10","297970","0.0-10.0","","img/set1/S3.jpg","83","3","random","72","random,structured_load,structured_incentive,structured_normal","2,1,3,4,2,3","false","","",""
"null","","html-keyboard-response","11","298323","0.0-11.0","","<img src=""img/set1/S3.jpg"" width=""540"" height = ""360"">","null","","","","","","","","",""
"null","","html-keyboard-response","12","298525","0.0-12.0","","","null","","","","","","","","",""
"742","","image-keyboard-response","13","299269","0.0-13.0","","img/set1/S2.jpg","68","2","random","68","random,structured_load,structured_incentive,structured_normal","2,1,3,4,2,3","true","","",""
"null","","html-keyboard-response","14","299623","0.0-14.0","","<img src=""img/set1/S2.jpg"" width=""540"" height = ""360"" style=""border:16px solid orange"">","null","","","","","","","","",""
"null","","html-keyboard-response","15","299825","0.0-15.0","","","null","","","","","","","","",""
"1138.1000000238419","","image-keyboard-response","16","300965","0.0-16.0","","img/set1/S2.jpg","68","2","random","68","random,structured_load,structured_incentive,structured_normal","2,1,3,4,2,3","true","","",""
"null","","html-keyboard-response","17","301319","0.0-17.0","","<img src=""img/set1/S2.jpg"" width=""540"" height = ""360"" style=""border:16px solid orange"">","null","","","","","","","","",""
"null","","html-keyboard-response","18","301528","0.0-18.0","","","null","","","","","","","","",""
"786.9000000357628","","image-keyboard-response","19","302317","0.0-19.0","","img/set1/S2.jpg","68","2","random","68","random,structured_load,structured_incentive,structured_normal","2,1,3,4,2,3","true","","",""
"null","","html-keyboard-response","20","302671","0.0-20.0","","<img src=""img/set1/S2.jpg"" width=""540"" height = ""360"" style=""border:16px solid orange"">","null","","","","","","","","",""
"null","","html-keyboard-response","21","302874","0.0-21.0","","","null","","","","","","","","",""
"850.1999999880791","","image-keyboard-response","22","303725","0.0-22.0","","img/set1/S3.jpg","72","3","random","72","random,structured_load,structured_incentive,structured_normal","2,1,3,4,2,3","true","","",""
"null","","html-keyboard-response","23","304078","0.0-23.0","","<img src=""img/set1/S3.jpg"" width=""540"" height = ""360"" style=""border:16px solid orange"">","null","","","","","","","","",""
"null","","html-keyboard-response","24","304280","0.0-24.0","","","null","","","","","","","","",""
"980.3000000119209","","image-keyboard-response","25","305261","0.0-25.0","","img/set1/S1.jpg","83","1","random","83","random,structured_load,structured_incentive,structured_normal","2,1,3,4,2,3","true","","",""
"null","","html-keyboard-response","26","305617","0.0-26.0","","<img src=""img/set1/S1.jpg"" width=""540"" height = ""360"" style=""border:16px solid orange"">","null","","","","","","","","",""
"null","","html-keyboard-response","27","305820","0.0-27.0","","","null","","","","","","","","",""
"878.6000000238419","","image-keyboard-response","28","306702","0.0-28.0","","img/set1/S4.jpg","74","4","random","74","random,structured_load,structured_incentive,structured_normal","2,1,3,4,2,3","true","","",""
"null","","html-keyboard-response","29","307061","0.0-29.0","","<img src=""img/set1/S4.jpg"" width=""540"" height = ""360"" style=""border:16px solid orange"">","null","","","","","","","","",""
"null","","html-keyboard-response","30","307263","0.0-30.0","","","null","","","","","","","","",""
"941","","image-keyboard-response","31","308207","0.0-31.0","","img/set1/S3.jpg","72","3","random","72","random,structured_load,structured_incentive,structured_normal","2,1,3,4,2,3","true","","",""
"null","","html-keyboard-response","32","308561","0.0-32.0","","<img src=""img/set1/S3.jpg"" width=""540"" height = ""360"" style=""border:16px solid orange"">","null","","","","","","","","",""
"null","","html-keyboard-response","33","308763","0.0-33.0","","","null","","","","","","","","",""
"1098.2999999523163","","image-keyboard-response","34","309863","0.0-34.0","","img/set1/S4.jpg","74","4","random","74","random,structured_load,structured_incentive,structured_normal","2,1,3,4,2,3","true","","",""
"null","","html-keyboard-response","35","310217","0.0-35.0","","<img src=""img/set1/S4.jpg"" width=""540"" height = ""360"" style=""border:16px solid orange"">","null","","","","","","","","",""
"null","","html-keyboard-response","36","310421","0.0-36.0","","","null","","","","","","","","",""
"887.1999999880791","","image-keyboard-response","37","311309","0.0-37.0","","img/set1/S2.jpg","68","2","random","68","random,structured_load,structured_incentive,structured_normal","2,1,3,4,2,3","true","","",""
"null","","html-keyboard-response","38","311663","0.0-38.0","","<img src=""img/set1/S2.jpg"" width=""540"" height = ""360"" style=""border:16px solid orange"">","null","","","","","","","","",""
"null","","html-keyboard-response","39","311865","0.0-39.0","","","null","","","","","","","","",""
"1114.7999999523163","","image-keyboard-response","40","312981","0.0-40.0","","img/set1/S3.jpg","72","3","random","72","random,structured_load,structured_incentive,structured_normal","2,1,3,4,2,3","true","","",""
"null","","html-keyboard-response","41","313336","0.0-41.0","","<img src=""img/set1/S3.jpg"" width=""540"" height = ""360"" style=""border:16px solid orange"">","null","","","","","","","","",""
"null","","html-keyboard-response","42","313538","0.0-42.0","","","null","","","","","","","","",""
"1082.3999999761581","","image-keyboard-response","43","314624","0.0-43.0","","img/set1/S4.jpg","74","4","random","74","random,structured_load,structured_incentive,structured_normal","2,1,3,4,2,3","true","","",""
"null","","html-keyboard-response","44","314977","0.0-44.0","","<img src=""img/set1/S4.jpg"" width=""540"" height = ""360"" style=""border:16px solid orange"">","null","","","","","","","","",""
"null","","html-keyboard-response","45","315180","0.0-45.0","","","null","","","","","","","","",""
"552.8999999761581","","image-keyboard-response","46","315735","0.0-46.0","","img/set1/S4.jpg","74","4","random","74","random,structured_load,structured_incentive,structured_normal","2,1,3,4,2,3","true","","",""
"null","","html-keyboard-response","47","316088","0.0-47.0","","<img src=""img/set1/S4.jpg"" width=""540"" height = ""360"" style=""border:16px solid orange"">","null","","","","","","","","",""
"null","","html-keyboard-response","48","316291","0.0-48.0","","","null","","","","","","","","",""
"659.5999999642372","","image-keyboard-response","49","316954","0.0-49.0","","img/set1/S3.jpg","72","3","random","72","random,structured_load,structured_incentive,structured_normal","2,1,3,4,2,3","true","","",""
"null","","html-keyboard-response","50","317310","0.0-50.0","","<img src=""img/set1/S3.jpg"" width=""540"" height = ""360"" style=""border:16px solid orange"">","null","","","","","","","","",""
"null","","html-keyboard-response","51","317514","0.0-51.0","","","null","","","","","","","","",""
"705.6000000238419","","image-keyboard-response","52","318221","0.0-52.0","","img/set1/S1.jpg","83","1","random","83","random,structured_load,structured_incentive,structured_normal","2,1,3,4,2,3","true","","",""
"null","","html-keyboard-response","53","318573","0.0-53.0","","<img src=""img/set1/S1.jpg"" width=""540"" height = ""360"" style=""border:16px solid orange"">","null","","","","","","","","",""
"null","","html-keyboard-response","54","318775","0.0-54.0","","","null","","","","","","","","",""
"766.5","","image-keyboard-response","55","319544","0.0-55.0","","img/set1/S1.jpg","83","1","random","83","random,structured_load,structured_incentive,structured_normal","2,1,3,4,2,3","true","","",""
"null","","html-keyboard-response","56","319899","0.0-56.0","","<img src=""img/set1/S1.jpg"" width=""540"" height = ""360"" style=""border:16px solid orange"">","null","","","","","","","","",""
"null","","html-keyboard-response","57","320101","0.0-57.0","","","null","","","","","","","","",""
"710.7999999523163","","image-keyboard-response","58","320815","0.0-58.0","","img/set1/S4.jpg","74","4","random","74","random,structured_load,structured_incentive,structured_normal","2,1,3,4,2,3","true","","",""
"null","","html-keyboard-response","59","321172","0.0-59.0","","<img src=""img/set1/S4.jpg"" width=""540"" height = ""360"" style=""border:16px solid orange"">","null","","","","","","","","",""
"null","","html-keyboard-response","60","321374","0.0-60.0","","","null","","","","","","","","",""
"694.1999999880791","","image-keyboard-response","61","322071","0.0-61.0","","img/set1/S2.jpg","68","2","random","68","random,structured_load,structured_incentive,structured_normal","2,1,3,4,2,3","true","","",""
"null","","html-keyboard-response","62","322425","0.0-62.0","","<img src=""img/set1/S2.jpg"" width=""540"" height = ""360"" style=""border:16px solid orange"">","null","","","","","","","","",""
"null","","html-keyboard-response","63","322627","0.0-63.0","","","null","","","","","","","","",""
"728","","image-keyboard-response","64","323357","0.0-64.0","","img/set1/S1.jpg","83","1","random","83","random,structured_load,structured_incentive,structured_normal","2,1,3,4,2,3","true","","",""
"null","","html-keyboard-response","65","323710","0.0-65.0","","<img src=""img/set1/S1.jpg"" width=""540"" height = ""360"" style=""border:16px solid orange"">","null","","","","","","","","",""
"null","","html-keyboard-response","66","323912","0.0-66.0","","","null","","","","","","","","",""
"779.8999999761581","","image-keyboard-response","67","324696","0.0-67.0","","img/set1/S4.jpg","74","4","random","74","random,structured_load,structured_incentive,structured_normal","2,1,3,4,2,3","true","","",""
"null","","html-keyboard-response","68","325051","0.0-68.0","","<img src=""img/set1/S4.jpg"" width=""540"" height = ""360"" style=""border:16px solid orange"">","null","","","","","","","","",""
"null","","html-keyboard-response","69","325253","0.0-69.0","","","null","","","","","","","","",""
"823","","image-keyboard-response","70","326081","0.0-70.0","","img/set1/S2.jpg","68","2","random","68","random,structured_load,structured_incentive,structured_normal","2,1,3,4,2,3","true","","",""
"null","","html-keyboard-response","71","326434","0.0-71.0","","<img src=""img/set1/S2.jpg"" width=""540"" height = ""360"" style=""border:16px solid orange"">","null","","","","","","","","",""
"null","","html-keyboard-response","72","326636","0.0-72.0","","","null","","","","","","","","",""
"675","","image-keyboard-response","73","327314","0.0-73.0","","img/set1/S4.jpg","74","4","random","74","random,structured_load,structured_incentive,structured_normal","2,1,3,4,2,3","true","","",""
"null","","html-keyboard-response","74","327667","0.0-74.0","","<img src=""img/set1/S4.jpg"" width=""540"" height = ""360"" style=""border:16px solid orange"">","null","","","","","","","","",""
"null","","html-keyboard-response","75","327870","0.0-75.0","","","null","","","","","","","","",""
"814.8999999761581","","image-keyboard-response","76","328686","0.0-76.0","","img/set1/S3.jpg","72","3","random","72","random,structured_load,structured_incentive,structured_normal","2,1,3,4,2,3","true","","",""
"null","","html-keyboard-response","77","329040","0.0-77.0","","<img src=""img/set1/S3.jpg"" width=""540"" height = ""360"" style=""border:16px solid orange"">","null","","","","","","","","",""
"null","","html-keyboard-response","78","329242","0.0-78.0","","","null","","","","","","","","",""
"571.6999999880791","","image-keyboard-response","79","329817","0.0-79.0","","img/set1/S1.jpg","83","1","random","83","random,structured_load,structured_incentive,structured_normal","2,1,3,4,2,3","true","","",""
"null","","html-keyboard-response","80","330170","0.0-80.0","","<img src=""img/set1/S1.jpg"" width=""540"" height = ""360"" style=""border:16px solid orange"">","null","","","","","","","","",""
"null","","html-keyboard-response","81","330374","0.0-81.0","","","null","","","","","","","","",""
"662.8000000119209","","image-keyboard-response","82","331039","0.0-82.0","","img/set1/S4.jpg","74","4","random","74","random,structured_load,structured_incentive,structured_normal","2,1,3,4,2,3","true","","",""
"null","","html-keyboard-response","83","331390","0.0-83.0","","<img src=""img/set1/S4.jpg"" width=""540"" height = ""360"" style=""border:16px solid orange"">","null","","","","","","","","",""
"null","","html-keyboard-response","84","331592","0.0-84.0","","","null","","","","","","","","",""
"670.1999999880791","","image-keyboard-response","85","332265","0.0-85.0","","img/set1/S4.jpg","74","4","random","74","random,structured_load,structured_incentive,structured_normal","2,1,3,4,2,3","true","","",""
"null","","html-keyboard-response","86","332619","0.0-86.0","","<img src=""img/set1/S4.jpg"" width=""540"" height = ""360"" style=""border:16px solid orange"">","null","","","","","","","","",""
"null","","html-keyboard-response","87","332829","0.0-87.0","","","null","","","","","","","","",""
"536.1999999880791","","image-keyboard-response","88","333367","0.0-88.0","","img/set1/S1.jpg","83","1","random","83","random,structured_load,structured_incentive,structured_normal","2,1,3,4,2,3","true","","",""
"null","","html-keyboard-response","89","333731","0.0-89.0","","<img src=""img/set1/S1.jpg"" width=""540"" height = ""360"" style=""border:16px solid orange"">","null","","","","","","","","",""
"null","","html-keyboard-response","90","333933","0.0-90.0","","","null","","","","","","","","",""
"609","","image-keyboard-response","91","334544","0.0-91.0","","img/set1/S2.jpg","68","2","random","68","random,structured_load,structured_incentive,structured_normal","2,1,3,4,2,3","true","","",""
"null","","html-keyboard-response","92","334900","0.0-92.0","","<img src=""img/set1/S2.jpg"" width=""540"" height = ""360"" style=""border:16px solid orange"">","null","","","","","","","","",""
"null","","html-keyboard-response","93","335103","0.0-93.0","","","null","","","","","","","","",""
"621.8000000119209","","image-keyboard-response","94","335726","0.0-94.0","","img/set1/S3.jpg","72","3","random","72","random,structured_load,structured_incentive,structured_normal","2,1,3,4,2,3","true","","",""
"null","","html-keyboard-response","95","336080","0.0-95.0","","<img src=""img/set1/S3.jpg"" width=""540"" height = ""360"" style=""border:16px solid orange"">","null","","","","","","","","",""
"null","","html-keyboard-response","96","336284","0.0-96.0","","","null","","","","","","","","",""
"706","","image-keyboard-response","97","336993","0.0-97.0","","img/set1/S4.jpg","74","4","random","74","random,structured_load,structured_incentive,structured_normal","2,1,3,4,2,3","true","","",""
"null","","html-keyboard-response","98","337347","0.0-98.0","","<img src=""img/set1/S4.jpg"" width=""540"" height = ""360"" style=""border:16px solid orange"">","null","","","","","","","","",""
"null","","html-keyboard-response","99","337549","0.0-99.0","","","null","","","","","","","","",""
"1256.300000011921","","image-keyboard-response","100","338808","0.0-100.0","","img/set1/S2.jpg","68","2","random","68","random,structured_load,structured_incentive,structured_normal","2,1,3,4,2,3","true","","",""
"null","","html-keyboard-response","101","339161","0.0-101.0","","<img src=""img/set1/S2.jpg"" width=""540"" height = ""360"" style=""border:16px solid orange"">","null","","","","","","","","",""
"null","","html-keyboard-response","102","339364","0.0-102.0","","","null","","","","","","","","",""
"728.8000000119209","","image-keyboard-response","103","340094","0.0-103.0","","img/set1/S4.jpg","74","4","random","74","random,structured_load,structured_incentive,structured_normal","2,1,3,4,2,3","true","","",""
"null","","html-keyboard-response","104","340448","0.0-104.0","","<img src=""img/set1/S4.jpg"" width=""540"" height = ""360"" style=""border:16px solid orange"">","null","","","","","","","","",""
"null","","html-keyboard-response","105","340650","0.0-105.0","","","null","","","","","","","","",""
"889.3999999761581","","image-keyboard-response","106","341542","0.0-106.0","","img/set1/S3.jpg","72","3","random","72","random,structured_load,structured_incentive,structured_normal","2,1,3,4,2,3","true","","",""
"null","","html-keyboard-response","107","341895","0.0-107.0","","<img src=""img/set1/S3.jpg"" width=""540"" height = ""360"" style=""border:16px solid orange"">","null","","","","","","","","",""
"null","","html-keyboard-response","108","342097","0.0-108.0","","","null","","","","","","","","",""
"699.8000000119209","","image-keyboard-response","109","342800","0.0-109.0","","img/set1/S4.jpg","74","4","random","74","random,structured_load,structured_incentive,structured_normal","2,1,3,4,2,3","true","","",""
"null","","html-keyboard-response","110","343155","0.0-110.0","","<img src=""img/set1/S4.jpg"" width=""540"" height = ""360"" style=""border:16px solid orange"">","null","","","","","","","","",""
"null","","html-keyboard-response","111","343357","0.0-111.0","","","null","","","","","","","","",""
"615.8000000119209","","image-keyboard-response","112","343974","0.0-112.0","","img/set1/S4.jpg","74","4","random","74","random,structured_load,structured_incentive,structured_normal","2,1,3,4,2,3","true","","",""
"null","","html-keyboard-response","113","344326","0.0-113.0","","<img src=""img/set1/S4.jpg"" width=""540"" height = ""360"" style=""border:16px solid orange"">","null","","","","","","","","",""
"null","","html-keyboard-response","114","344529","0.0-114.0","","","null","","","","","","","","",""
"626.6999999880791","","image-keyboard-response","115","345158","0.0-115.0","","img/set1/S2.jpg","68","2","random","68","random,structured_load,structured_incentive,structured_normal","2,1,3,4,2,3","true","","",""
"null","","html-keyboard-response","116","345510","0.0-116.0","","<img src=""img/set1/S2.jpg"" width=""540"" height = ""360"" style=""border:16px solid orange"">","null","","","","","","","","",""
"null","","html-keyboard-response","117","345712","0.0-117.0","","","null","","","","","","","","",""
"653.2000000476837","","image-keyboard-response","118","346368","0.0-118.0","","img/set1/S4.jpg","74","4","random","74","random,structured_load,structured_incentive,structured_normal","2,1,3,4,2,3","true","","",""
"null","","html-keyboard-response","119","346721","0.0-119.0","","<img src=""img/set1/S4.jpg"" width=""540"" height = ""360"" style=""border:16px solid orange"">","null","","","","","","","","",""
"null","","html-keyboard-response","120","346922","0.0-120.0","","","null","","","","","","","","",""
"761.5","","image-keyboard-response","121","347686","0.0-121.0","","img/set1/S3.jpg","72","3","random","72","random,structured_load,structured_incentive,structured_normal","2,1,3,4,2,3","true","","",""
"null","","html-keyboard-response","122","348038","0.0-122.0","","<img src=""img/set1/S3.jpg"" width=""540"" height = ""360"" style=""border:16px solid orange"">","null","","","","","","","","",""
"null","","html-keyboard-response","123","348241","0.0-123.0","","","null","","","","","","","","",""
"524","","image-keyboard-response","124","348768","0.0-124.0","","img/set1/S3.jpg","72","3","random","72","random,structured_load,structured_incentive,structured_normal","2,1,3,4,2,3","true","","",""
"null","","html-keyboard-response","125","349121","0.0-125.0","","<img src=""img/set1/S3.jpg"" width=""540"" height = ""360"" style=""border:16px solid orange"">","null","","","","","","","","",""
"null","","html-keyboard-response","126","349324","0.0-126.0","","","null","","","","","","","","",""
"587","","image-keyboard-response","127","349914","0.0-127.0","","img/set1/S1.jpg","83","1","random","83","random,structured_load,structured_incentive,structured_normal","2,1,3,4,2,3","true","","",""
"null","","html-keyboard-response","128","350268","0.0-128.0","","<img src=""img/set1/S1.jpg"" width=""540"" height = ""360"" style=""border:16px solid orange"">","null","","","","","","","","",""
"null","","html-keyboard-response","129","350470","0.0-129.0","","","null","","","","","","","","",""
"655","","image-keyboard-response","130","351128","0.0-130.0","","img/set1/S2.jpg","68","2","random","68","random,structured_load,structured_incentive,structured_normal","2,1,3,4,2,3","true","","",""
"null","","html-keyboard-response","131","351482","0.0-131.0","","<img src=""img/set1/S2.jpg"" width=""540"" height = ""360"" style=""border:16px solid orange"">","null","","","","","","","","",""
"null","","html-keyboard-response","132","351687","0.0-132.0","","","null","","","","","","","","",""
"526","","image-keyboard-response","133","352216","0.0-133.0","","img/set1/S2.jpg","68","2","random","68","random,structured_load,structured_incentive,structured_normal","2,1,3,4,2,3","true","","",""
"null","","html-keyboard-response","134","352569","0.0-134.0","","<img src=""img/set1/S2.jpg"" width=""540"" height = ""360"" style=""border:16px solid orange"">","null","","","","","","","","",""
"null","","html-keyboard-response","135","352770","0.0-135.0","","","null","","","","","","","","",""
"564.2000000476837","","image-keyboard-response","136","353336","0.0-136.0","","img/set1/S1.jpg","83","1","random","83","random,structured_load,structured_incentive,structured_normal","2,1,3,4,2,3","true","","",""
"null","","html-keyboard-response","137","353690","0.0-137.0","","<img src=""img/set1/S1.jpg"" width=""540"" height = ""360"" style=""border:16px solid orange"">","null","","","","","","","","",""
"null","","html-keyboard-response","138","353894","0.0-138.0","","","null","","","","","","","","",""
"717.3000000119209","","image-keyboard-response","139","354616","0.0-139.0","","img/set1/S4.jpg","74","4","random","74","random,structured_load,structured_incentive,structured_normal","2,1,3,4,2,3","true","","",""
"null","","html-keyboard-response","140","354974","0.0-140.0","","<img src=""img/set1/S4.jpg"" width=""540"" height = ""360"" style=""border:16px solid orange"">","null","","","","","","","","",""
"null","","html-keyboard-response","141","355186","0.0-141.0","","","null","","","","","","","","",""
"579.3999999761581","","image-keyboard-response","142","355768","0.0-142.0","","img/set1/S4.jpg","74","4","random","74","random,structured_load,structured_incentive,structured_normal","2,1,3,4,2,3","true","","",""
"null","","html-keyboard-response","143","356121","0.0-143.0","","<img src=""img/set1/S4.jpg"" width=""540"" height = ""360"" style=""border:16px solid orange"">","null","","","","","","","","",""
"null","","html-keyboard-response","144","356324","0.0-144.0","","","null","","","","","","","","",""
"464.9000000357628","","image-keyboard-response","145","356790","0.0-145.0","","img/set1/S4.jpg","74","4","random","74","random,structured_load,structured_incentive,structured_normal","2,1,3,4,2,3","true","","",""
"null","","html-keyboard-response","146","357144","0.0-146.0","","<img src=""img/set1/S4.jpg"" width=""540"" height = ""360"" style=""border:16px solid orange"">","null","","","","","","","","",""
"null","","html-keyboard-response","147","357345","0.0-147.0","","","null","","","","","","","","",""
"562.5","","image-keyboard-response","148","357912","0.0-148.0","","img/set1/S1.jpg","83","1","random","83","random,structured_load,structured_incentive,structured_normal","2,1,3,4,2,3","true","","",""
"null","","html-keyboard-response","149","358266","0.0-149.0","","<img src=""img/set1/S1.jpg"" width=""540"" height = ""360"" style=""border:16px solid orange"">","null","","","","","","","","",""
"null","","html-keyboard-response","150","358469","0.0-150.0","","","null","","","","","","","","",""
"609.3000000119209","","image-keyboard-response","151","359079","0.0-151.0","","img/set1/S2.jpg","68","2","random","68","random,structured_load,structured_incentive,structured_normal","2,1,3,4,2,3","true","","",""
"null","","html-keyboard-response","152","359433","0.0-152.0","","<img src=""img/set1/S2.jpg"" width=""540"" height = ""360"" style=""border:16px solid orange"">","null","","","","","","","","",""
"null","","html-keyboard-response","153","359636","0.0-153.0","","","null","","","","","","","","",""
"592.8000000119209","","image-keyboard-response","154","360231","0.0-154.0","","img/set1/S3.jpg","72","3","random","72","random,structured_load,structured_incentive,structured_normal","2,1,3,4,2,3","true","","",""
"null","","html-keyboard-response","155","360585","0.0-155.0","","<img src=""img/set1/S3.jpg"" width=""540"" height = ""360"" style=""border:16px solid orange"">","null","","","","","","","","",""
"null","","html-keyboard-response","156","360788","0.0-156.0","","","null","","","","","","","","",""
"488","","image-keyboard-response","157","361278","0.0-157.0","","img/set1/S3.jpg","72","3","random","72","random,structured_load,structured_incentive,structured_normal","2,1,3,4,2,3","true","","",""
"null","","html-keyboard-response","158","361631","0.0-158.0","","<img src=""img/set1/S3.jpg"" width=""540"" height = ""360"" style=""border:16px solid orange"">","null","","","","","","","","",""
"null","","html-keyboard-response","159","361833","0.0-159.0","","","null","","","","","","","","",""
"635.5","","image-keyboard-response","160","362470","0.0-160.0","","img/set1/S1.jpg","83","1","random","83","random,structured_load,structured_incentive,structured_normal","2,1,3,4,2,3","true","","",""
"null","","html-keyboard-response","161","362822","0.0-161.0","","<img src=""img/set1/S1.jpg"" width=""540"" height = ""360"" style=""border:16px solid orange"">","null","","","","","","","","",""
"null","","html-keyboard-response","162","363023","0.0-162.0","","","null","","","","","","","","",""
"589.1000000238419","","image-keyboard-response","163","363614","0.0-163.0","","img/set1/S1.jpg","83","1","random","83","random,structured_load,structured_incentive,structured_normal","2,1,3,4,2,3","true","","",""
"null","","html-keyboard-response","164","363966","0.0-164.0","","<img src=""img/set1/S1.jpg"" width=""540"" height = ""360"" style=""border:16px solid orange"">","null","","","","","","","","",""
"null","","html-keyboard-response","165","364169","0.0-165.0","","","null","","","","","","","","",""
"1028.7000000476837","","image-keyboard-response","166","365202","0.0-166.0","","img/set1/S4.jpg","74","4","random","74","random,structured_load,structured_incentive,structured_normal","2,1,3,4,2,3","true","","",""
"null","","html-keyboard-response","167","365555","0.0-167.0","","<img src=""img/set1/S4.jpg"" width=""540"" height = ""360"" style=""border:16px solid orange"">","null","","","","","","","","",""
"null","","html-keyboard-response","168","365756","0.0-168.0","","","null","","","","","","","","",""
"615.8000000119209","","image-keyboard-response","169","366373","0.0-169.0","","img/set1/S2.jpg","68","2","random","68","random,structured_load,structured_incentive,structured_normal","2,1,3,4,2,3","true","","",""
"null","","html-keyboard-response","170","366726","0.0-170.0","","<img src=""img/set1/S2.jpg"" width=""540"" height = ""360"" style=""border:16px solid orange"">","null","","","","","","","","",""
"null","","html-keyboard-response","171","366928","0.0-171.0","","","null","","","","","","","","",""
"708.5","","image-keyboard-response","172","367639","0.0-172.0","","img/set1/S3.jpg","72","3","random","72","random,structured_load,structured_incentive,structured_normal","2,1,3,4,2,3","true","","",""
"null","","html-keyboard-response","173","367994","0.0-173.0","","<img src=""img/set1/S3.jpg"" width=""540"" height = ""360"" style=""border:16px solid orange"">","null","","","","","","","","",""
"null","","html-keyboard-response","174","368196","0.0-174.0","","","null","","","","","","","","",""
"488.10000002384186","","image-keyboard-response","175","368688","0.0-175.0","","img/set1/S1.jpg","83","1","random","83","random,structured_load,structured_incentive,structured_normal","2,1,3,4,2,3","true","","",""
"null","","html-keyboard-response","176","369042","0.0-176.0","","<img src=""img/set1/S1.jpg"" width=""540"" height = ""360"" style=""border:16px solid orange"">","null","","","","","","","","",""
"null","","html-keyboard-response","177","369244","0.0-177.0","","","null","","","","","","","","",""
"697.3999999761581","","image-keyboard-response","178","369943","0.0-178.0","","img/set1/S4.jpg","74","4","random","74","random,structured_load,structured_incentive,structured_normal","2,1,3,4,2,3","true","","",""
"null","","html-keyboard-response","179","370297","0.0-179.0","","<img src=""img/set1/S4.jpg"" width=""540"" height = ""360"" style=""border:16px solid orange"">","null","","","","","","","","",""
"null","","html-keyboard-response","180","370500","0.0-180.0","","","null","","","","","","","","",""
"472","","image-keyboard-response","181","370974","0.0-181.0","","img/set1/S4.jpg","74","4","random","74","random,structured_load,structured_incentive,structured_normal","2,1,3,4,2,3","true","","",""
"null","","html-keyboard-response","182","371326","0.0-182.0","","<img src=""img/set1/S4.jpg"" width=""540"" height = ""360"" style=""border:16px solid orange"">","null","","","","","","","","",""
"null","","html-keyboard-response","183","371530","0.0-183.0","","","null","","","","","","","","",""
"625.0999999642372","","image-keyboard-response","184","372158","0.0-184.0","","img/set1/S2.jpg","68","2","random","68","random,structured_load,structured_incentive,structured_normal","2,1,3,4,2,3","true","","",""
"null","","html-keyboard-response","185","372510","0.0-185.0","","<img src=""img/set1/S2.jpg"" width=""540"" height = ""360"" style=""border:16px solid orange"">","null","","","","","","","","",""
"null","","html-keyboard-response","186","372714","0.0-186.0","","","null","","","","","","","","",""
"601.6000000238419","","image-keyboard-response","187","373317","0.0-187.0","","img/set1/S3.jpg","72","3","random","72","random,structured_load,structured_incentive,structured_normal","2,1,3,4,2,3","true","","",""
"null","","html-keyboard-response","188","373669","0.0-188.0","","<img src=""img/set1/S3.jpg"" width=""540"" height = ""360"" style=""border:16px solid orange"">","null","","","","","","","","",""
"null","","html-keyboard-response","189","373871","0.0-189.0","","","null","","","","","","","","",""
"596.6999999880791","","image-keyboard-response","190","374470","0.0-190.0","","img/set1/S4.jpg","74","4","random","74","random,structured_load,structured_incentive,structured_normal","2,1,3,4,2,3","true","","",""
"null","","html-keyboard-response","191","374822","0.0-191.0","","<img src=""img/set1/S4.jpg"" width=""540"" height = ""360"" style=""border:16px solid orange"">","null","","","","","","","","",""
"null","","html-keyboard-response","192","375024","0.0-192.0","","","null","","","","","","","","",""
"564.0999999642372","","image-keyboard-response","193","375590","0.0-193.0","","img/set1/S2.jpg","68","2","random","68","random,structured_load,structured_incentive,structured_normal","2,1,3,4,2,3","true","","",""
"null","","html-keyboard-response","194","375943","0.0-194.0","","<img src=""img/set1/S2.jpg"" width=""540"" height = ""360"" style=""border:16px solid orange"">","null","","","","","","","","",""
"null","","html-keyboard-response","195","376153","0.0-195.0","","","null","","","","","","","","",""
"678","","image-keyboard-response","196","376833","0.0-196.0","","img/set1/S1.jpg","83","1","random","83","random,structured_load,structured_incentive,structured_normal","2,1,3,4,2,3","true","","",""
"null","","html-keyboard-response","197","377186","0.0-197.0","","<img src=""img/set1/S1.jpg"" width=""540"" height = ""360"" style=""border:16px solid orange"">","null","","","","","","","","",""
"null","","html-keyboard-response","198","377388","0.0-198.0","","","null","","","","","","","","",""
"649.3000000119209","","image-keyboard-response","199","378038","0.0-199.0","","img/set1/S2.jpg","68","2","random","68","random,structured_load,structured_incentive,structured_normal","2,1,3,4,2,3","true","","",""
"null","","html-keyboard-response","200","378394","0.0-200.0","","<img src=""img/set1/S2.jpg"" width=""540"" height = ""360"" style=""border:16px solid orange"">","null","","","","","","","","",""
"null","","html-keyboard-response","201","378600","0.0-201.0","","","null","","","","","","","","",""
"909","","image-keyboard-response","202","379511","0.0-202.0","","img/set1/S1.jpg","83","1","random","83","random,structured_load,structured_incentive,structured_normal","2,1,3,4,2,3","true","","",""
"null","","html-keyboard-response","203","379865","0.0-203.0","","<img src=""img/set1/S1.jpg"" width=""540"" height = ""360"" style=""border:16px solid orange"">","null","","","","","","","","",""
"null","","html-keyboard-response","204","380068","0.0-204.0","","","null","","","","","","","","",""
"600.0999999642372","","image-keyboard-response","205","380671","0.0-205.0","","img/set1/S2.jpg","68","2","random","68","random,structured_load,structured_incentive,structured_normal","2,1,3,4,2,3","true","","",""
"null","","html-keyboard-response","206","381026","0.0-206.0","","<img src=""img/set1/S2.jpg"" width=""540"" height = ""360"" style=""border:16px solid orange"">","null","","","","","","","","",""
"null","","html-keyboard-response","207","381227","0.0-207.0","","","null","","","","","","","","",""
"777.5","","image-keyboard-response","208","382006","0.0-208.0","","img/set1/S1.jpg","83","1","random","83","random,structured_load,structured_incentive,structured_normal","2,1,3,4,2,3","true","","",""
"null","","html-keyboard-response","209","382360","0.0-209.0","","<img src=""img/set1/S1.jpg"" width=""540"" height = ""360"" style=""border:16px solid orange"">","null","","","","","","","","",""
"null","","html-keyboard-response","210","382561","0.0-210.0","","","null","","","","","","","","",""
"595","","image-keyboard-response","211","383157","0.0-211.0","","img/set1/S1.jpg","68","1","random","83","random,structured_load,structured_incentive,structured_normal","2,1,3,4,2,3","false","","",""
"null","","html-keyboard-response","212","383510","0.0-212.0","","<img src=""img/set1/S1.jpg"" width=""540"" height = ""360"">","null","","","","","","","","",""
"null","","html-keyboard-response","213","383713","0.0-213.0","","","null","","","","","","","","",""
"609.8999999761581","","image-keyboard-response","214","384325","0.0-214.0","","img/set1/S1.jpg","83","1","random","83","random,structured_load,structured_incentive,structured_normal","2,1,3,4,2,3","true","","",""
"null","","html-keyboard-response","215","384677","0.0-215.0","","<img src=""img/set1/S1.jpg"" width=""540"" height = ""360"" style=""border:16px solid orange"">","null","","","","","","","","",""
"null","","html-keyboard-response","216","384880","0.0-216.0","","","null","","","","","","","","",""
"565.8999999761581","","image-keyboard-response","217","385448","0.0-217.0","","img/set1/S1.jpg","83","1","random","83","random,structured_load,structured_incentive,structured_normal","2,1,3,4,2,3","true","","",""
"null","","html-keyboard-response","218","385802","0.0-218.0","","<img src=""img/set1/S1.jpg"" width=""540"" height = ""360"" style=""border:16px solid orange"">","null","","","","","","","","",""
"null","","html-keyboard-response","219","386003","0.0-219.0","","","null","","","","","","","","",""
"688.9000000357628","","image-keyboard-response","220","386693","0.0-220.0","","img/set1/S3.jpg","72","3","random","72","random,structured_load,structured_incentive,structured_normal","2,1,3,4,2,3","true","","",""
"null","","html-keyboard-response","221","387046","0.0-221.0","","<img src=""img/set1/S3.jpg"" width=""540"" height = ""360"" style=""border:16px solid orange"">","null","","","","","","","","",""
"null","","html-keyboard-response","222","387249","0.0-222.0","","","null","","","","","","","","",""
"699.6999999880791","","image-keyboard-response","223","387951","0.0-223.0","","img/set1/S3.jpg","72","3","random","72","random,structured_load,structured_incentive,structured_normal","2,1,3,4,2,3","true","","",""
"null","","html-keyboard-response","224","388305","0.0-224.0","","<img src=""img/set1/S3.jpg"" width=""540"" height = ""360"" style=""border:16px solid orange"">","null","","","","","","","","",""
"null","","html-keyboard-response","225","388507","0.0-225.0","","","null","","","","","","","","",""
"841.3000000119209","","image-keyboard-response","226","389350","0.0-226.0","","img/set1/S2.jpg","68","2","random","68","random,structured_load,structured_incentive,structured_normal","2,1,3,4,2,3","true","","",""
"null","","html-keyboard-response","227","389702","0.0-227.0","","<img src=""img/set1/S2.jpg"" width=""540"" height = ""360"" style=""border:16px solid orange"">","null","","","","","","","","",""
"null","","html-keyboard-response","228","389905","0.0-228.0","","","null","","","","","","","","",""
"565.3000000119209","","image-keyboard-response","229","390473","0.0-229.0","","img/set1/S2.jpg","68","2","random","68","random,structured_load,structured_incentive,structured_normal","2,1,3,4,2,3","true","","",""
"null","","html-keyboard-response","230","390828","0.0-230.0","","<img src=""img/set1/S2.jpg"" width=""540"" height = ""360"" style=""border:16px solid orange"">","null","","","","","","","","",""
"null","","html-keyboard-response","231","391030","0.0-231.0","","","null","","","","","","","","",""
"612.8000000119209","","image-keyboard-response","232","391646","0.0-232.0","","img/set1/S1.jpg","83","1","random","83","random,structured_load,structured_incentive,structured_normal","2,1,3,4,2,3","true","","",""
"null","","html-keyboard-response","233","392000","0.0-233.0","","<img src=""img/set1/S1.jpg"" width=""540"" height = ""360"" style=""border:16px solid orange"">","null","","","","","","","","",""
"null","","html-keyboard-response","234","392202","0.0-234.0","","","null","","","","","","","","",""
"676.6000000238419","","image-keyboard-response","235","392881","0.0-235.0","","img/set1/S3.jpg","72","3","random","72","random,structured_load,structured_incentive,structured_normal","2,1,3,4,2,3","true","","",""
"null","","html-keyboard-response","236","393235","0.0-236.0","","<img src=""img/set1/S3.jpg"" width=""540"" height = ""360"" style=""border:16px solid orange"">","null","","","","","","","","",""
"null","","html-keyboard-response","237","393437","0.0-237.0","","","null","","","","","","","","",""
"655.0999999642372","","image-keyboard-response","238","394093","0.0-238.0","","img/set1/S3.jpg","72","3","random","72","random,structured_load,structured_incentive,structured_normal","2,1,3,4,2,3","true","","",""
"null","","html-keyboard-response","239","394445","0.0-239.0","","<img src=""img/set1/S3.jpg"" width=""540"" height = ""360"" style=""border:16px solid orange"">","null","","","","","","","","",""
"null","","html-keyboard-response","240","394647","0.0-240.0","","","null","","","","","","","","",""
"605","","image-keyboard-response","241","395254","0.0-241.0","","img/set1/S4.jpg","74","4","random","74","random,structured_load,structured_incentive,structured_normal","2,1,3,4,2,3","true","","",""
"null","","html-keyboard-response","242","395607","0.0-242.0","","<img src=""img/set1/S4.jpg"" width=""540"" height = ""360"" style=""border:16px solid orange"">","null","","","","","","","","",""
"null","","html-keyboard-response","243","395809","0.0-243.0","","","null","","","","","","","","",""
"651.1999999880791","","image-keyboard-response","244","396461","0.0-244.0","","img/set1/S3.jpg","72","3","random","72","random,structured_load,structured_incentive,structured_normal","2,1,3,4,2,3","true","","",""
"null","","html-keyboard-response","245","396814","0.0-245.0","","<img src=""img/set1/S3.jpg"" width=""540"" height = ""360"" style=""border:16px solid orange"">","null","","","","","","","","",""
"null","","html-keyboard-response","246","397018","0.0-246.0","","","null","","","","","","","","",""
"713.3999999761581","","image-keyboard-response","247","397734","0.0-247.0","","img/set1/S3.jpg","72","3","random","72","random,structured_load,structured_incentive,structured_normal","2,1,3,4,2,3","true","","",""
"null","","html-keyboard-response","248","398104","0.0-248.0","","<img src=""img/set1/S3.jpg"" width=""540"" height = ""360"" style=""border:16px solid orange"">","null","","","","","","","","",""
"null","","html-keyboard-response","249","398306","0.0-249.0","","","null","","","","","","","","",""
"786.8000000119209","","image-keyboard-response","250","399095","0.0-250.0","","img/set1/S2.jpg","68","2","random","68","random,structured_load,structured_incentive,structured_normal","2,1,3,4,2,3","true","","",""
"null","","html-keyboard-response","251","399449","0.0-251.0","","<img src=""img/set1/S2.jpg"" width=""540"" height = ""360"" style=""border:16px solid orange"">","null","","","","","","","","",""
"null","","html-keyboard-response","252","399652","0.0-252.0","","","null","","","","","","","","",""
"615.8000000119209","","image-keyboard-response","253","400271","0.0-253.0","","img/set1/S4.jpg","74","4","random","74","random,structured_load,structured_incentive,structured_normal","2,1,3,4,2,3","true","","",""
"null","","html-keyboard-response","254","400624","0.0-254.0","","<img src=""img/set1/S4.jpg"" width=""540"" height = ""360"" style=""border:16px solid orange"">","null","","","","","","","","",""
"null","","html-keyboard-response","255","400826","0.0-255.0","","","null","","","","","","","","",""
"665.6999999880791","","image-keyboard-response","256","401494","0.0-256.0","","img/set1/S2.jpg","68","2","random","68","random,structured_load,structured_incentive,structured_normal","2,1,3,4,2,3","true","","",""
"null","","html-keyboard-response","257","401846","0.0-257.0","","<img src=""img/set1/S2.jpg"" width=""540"" height = ""360"" style=""border:16px solid orange"">","null","","","","","","","","",""
"null","","html-keyboard-response","258","402048","0.0-258.0","","","null","","","","","","","","",""
"538.5","","image-keyboard-response","259","402589","0.0-259.0","","img/set1/S2.jpg","68","2","random","68","random,structured_load,structured_incentive,structured_normal","2,1,3,4,2,3","true","","",""
"null","","html-keyboard-response","260","402941","0.0-260.0","","<img src=""img/set1/S2.jpg"" width=""540"" height = ""360"" style=""border:16px solid orange"">","null","","","","","","","","",""
"null","","html-keyboard-response","261","403143","0.0-261.0","","","null","","","","","","","","",""
"596.8000000119209","","image-keyboard-response","262","403742","0.0-262.0","","img/set1/S1.jpg","83","1","random","83","random,structured_load,structured_incentive,structured_normal","2,1,3,4,2,3","true","","",""
"null","","html-keyboard-response","263","404098","0.0-263.0","","<img src=""img/set1/S1.jpg"" width=""540"" height = ""360"" style=""border:16px solid orange"">","null","","","","","","","","",""
"null","","html-keyboard-response","264","404301","0.0-264.0","","","null","","","","","","","","",""
"607","","image-keyboard-response","265","404911","0.0-265.0","","img/set1/S2.jpg","68","2","random","68","random,structured_load,structured_incentive,structured_normal","2,1,3,4,2,3","true","","",""
"null","","html-keyboard-response","266","405265","0.0-266.0","","<img src=""img/set1/S2.jpg"" width=""540"" height = ""360"" style=""border:16px solid orange"">","null","","","","","","","","",""
"null","","html-keyboard-response","267","405467","0.0-267.0","","","null","","","","","","","","",""
"700.6999999880791","","image-keyboard-response","268","406170","0.0-268.0","","img/set1/S1.jpg","83","1","random","83","random,structured_load,structured_incentive,structured_normal","2,1,3,4,2,3","true","","",""
"null","","html-keyboard-response","269","406533","0.0-269.0","","<img src=""img/set1/S1.jpg"" width=""540"" height = ""360"" style=""border:16px solid orange"">","null","","","","","","","","",""
"null","","html-keyboard-response","270","406754","0.0-270.0","","","null","","","","","","","","",""
"570.9000000357628","","image-keyboard-response","271","407327","0.0-271.0","","img/set1/S1.jpg","83","1","random","83","random,structured_load,structured_incentive,structured_normal","2,1,3,4,2,3","true","","",""
"null","","html-keyboard-response","272","407681","0.0-272.0","","<img src=""img/set1/S1.jpg"" width=""540"" height = ""360"" style=""border:16px solid orange"">","null","","","","","","","","",""
"null","","html-keyboard-response","273","407883","0.0-273.0","","","null","","","","","","","","",""
"625.9000000357628","","image-keyboard-response","274","408511","0.0-274.0","","img/set1/S3.jpg","72","3","random","72","random,structured_load,structured_incentive,structured_normal","2,1,3,4,2,3","true","","",""
"null","","html-keyboard-response","275","408865","0.0-275.0","","<img src=""img/set1/S3.jpg"" width=""540"" height = ""360"" style=""border:16px solid orange"">","null","","","","","","","","",""
"null","","html-keyboard-response","276","409067","0.0-276.0","","","null","","","","","","","","",""
"616.5999999642372","","image-keyboard-response","277","409685","0.0-277.0","","img/set1/S4.jpg","74","4","random","74","random,structured_load,structured_incentive,structured_normal","2,1,3,4,2,3","true","","",""
"null","","html-keyboard-response","278","410037","0.0-278.0","","<img src=""img/set1/S4.jpg"" width=""540"" height = ""360"" style=""border:16px solid orange"">","null","","","","","","","","",""
"null","","html-keyboard-response","279","410239","0.0-279.0","","","null","","","","","","","","",""
"621","","image-keyboard-response","280","410862","0.0-280.0","","img/set1/S3.jpg","72","3","random","72","random,structured_load,structured_incentive,structured_normal","2,1,3,4,2,3","true","","",""
"null","","html-keyboard-response","281","411214","0.0-281.0","","<img src=""img/set1/S3.jpg"" width=""540"" height = ""360"" style=""border:16px solid orange"">","null","","","","","","","","",""
"null","","html-keyboard-response","282","411417","0.0-282.0","","","null","","","","","","","","",""
"649.8000000119209","","image-keyboard-response","283","412069","0.0-283.0","","img/set1/S2.jpg","68","2","random","68","random,structured_load,structured_incentive,structured_normal","2,1,3,4,2,3","true","","",""
"null","","html-keyboard-response","284","412422","0.0-284.0","","<img src=""img/set1/S2.jpg"" width=""540"" height = ""360"" style=""border:16px solid orange"">","null","","","","","","","","",""
"null","","html-keyboard-response","285","412625","0.0-285.0","","","null","","","","","","","","",""
"641.4000000357628","","image-keyboard-response","286","413271","0.0-286.0","","img/set1/S3.jpg","72","3","random","72","random,structured_load,structured_incentive,structured_normal","2,1,3,4,2,3","true","","",""
"null","","html-keyboard-response","287","413625","0.0-287.0","","<img src=""img/set1/S3.jpg"" width=""540"" height = ""360"" style=""border:16px solid orange"">","null","","","","","","","","",""
"null","","html-keyboard-response","288","413827","0.0-288.0","","","null","","","","","","","","",""
"681.7999999523163","","image-keyboard-response","289","414510","0.0-289.0","","img/set1/S2.jpg","68","2","random","68","random,structured_load,structured_incentive,structured_normal","2,1,3,4,2,3","true","","",""
"null","","html-keyboard-response","290","414864","0.0-290.0","","<img src=""img/set1/S2.jpg"" width=""540"" height = ""360"" style=""border:16px solid orange"">","null","","","","","","","","",""
"null","","html-keyboard-response","291","415067","0.0-291.0","","","null","","","","","","","","",""
"521.0999999642372","","image-keyboard-response","292","415591","0.0-292.0","","img/set1/S1.jpg","83","1","random","83","random,structured_load,structured_incentive,structured_normal","2,1,3,4,2,3","true","","",""
"null","","html-keyboard-response","293","415946","0.0-293.0","","<img src=""img/set1/S1.jpg"" width=""540"" height = ""360"" style=""border:16px solid orange"">","null","","","","","","","","",""
"null","","html-keyboard-response","294","416152","0.0-294.0","","","null","","","","","","","","",""
"627.5999999642372","","image-keyboard-response","295","416783","0.0-295.0","","img/set1/S2.jpg","68","2","random","68","random,structured_load,structured_incentive,structured_normal","2,1,3,4,2,3","true","","",""
"null","","html-keyboard-response","296","417136","0.0-296.0","","<img src=""img/set1/S2.jpg"" width=""540"" height = ""360"" style=""border:16px solid orange"">","null","","","","","","","","",""
"null","","html-keyboard-response","297","417338","0.0-297.0","","","null","","","","","","","","",""
"754","","image-keyboard-response","298","418095","0.0-298.0","","img/set1/S3.jpg","72","3","random","72","random,structured_load,structured_incentive,structured_normal","2,1,3,4,2,3","true","","",""
"null","","html-keyboard-response","299","418449","0.0-299.0","","<img src=""img/set1/S3.jpg"" width=""540"" height = ""360"" style=""border:16px solid orange"">","null","","","","","","","","",""
"null","","html-keyboard-response","300","418659","0.0-300.0","","","null","","","","","","","","",""
"696.6999999880791","","image-keyboard-response","301","419357","0.0-301.0","","img/set1/S4.jpg","74","4","random","74","random,structured_load,structured_incentive,structured_normal","2,1,3,4,2,3","true","","",""
"null","","html-keyboard-response","302","419710","0.0-302.0","","<img src=""img/set1/S4.jpg"" width=""540"" height = ""360"" style=""border:16px solid orange"">","null","","","","","","","","",""
"null","","html-keyboard-response","303","419913","0.0-303.0","","","null","","","","","","","","",""
"675.4000000357628","","image-keyboard-response","304","420591","0.0-304.0","","img/set1/S2.jpg","68","2","random","68","random,structured_load,structured_incentive,structured_normal","2,1,3,4,2,3","true","","",""
"null","","html-keyboard-response","305","420944","0.0-305.0","","<img src=""img/set1/S2.jpg"" width=""540"" height = ""360"" style=""border:16px solid orange"">","null","","","","","","","","",""
"null","","html-keyboard-response","306","421147","0.0-306.0","","","null","","","","","","","","",""
"608.1999999880791","","image-keyboard-response","307","421757","0.0-307.0","","img/set1/S3.jpg","72","3","random","72","random,structured_load,structured_incentive,structured_normal","2,1,3,4,2,3","true","","",""
"null","","html-keyboard-response","308","422109","0.0-308.0","","<img src=""img/set1/S3.jpg"" width=""540"" height = ""360"" style=""border:16px solid orange"">","null","","","","","","","","",""
"null","","html-keyboard-response","309","422310","0.0-309.0","","","null","","","","","","","","",""
"709.8999999761581","","image-keyboard-response","310","423021","0.0-310.0","","img/set1/S4.jpg","74","4","random","74","random,structured_load,structured_incentive,structured_normal","2,1,3,4,2,3","true","","",""
"null","","html-keyboard-response","311","423448","0.0-311.0","","<img src=""img/set1/S4.jpg"" width=""540"" height = ""360"" style=""border:16px solid orange"">","null","","","","","","","","",""
"null","","html-keyboard-response","312","423653","0.0-312.0","","","null","","","","","","","","",""
"609.9000000357628","","image-keyboard-response","313","424271","0.0-313.0","","img/set1/S3.jpg","72","3","random","72","random,structured_load,structured_incentive,structured_normal","2,1,3,4,2,3","true","","",""
"null","","html-keyboard-response","314","424625","0.0-314.0","","<img src=""img/set1/S3.jpg"" width=""540"" height = ""360"" style=""border:16px solid orange"">","null","","","","","","","","",""
"null","","html-keyboard-response","315","424826","0.0-315.0","","","null","","","","","","","","",""
"603","","image-keyboard-response","316","425432","0.0-316.0","","img/set1/S1.jpg","83","1","random","83","random,structured_load,structured_incentive,structured_normal","2,1,3,4,2,3","true","","",""
"null","","html-keyboard-response","317","425786","0.0-317.0","","<img src=""img/set1/S1.jpg"" width=""540"" height = ""360"" style=""border:16px solid orange"">","null","","","","","","","","",""
"null","","html-keyboard-response","318","425987","0.0-318.0","","","null","","","","","","","","",""
"816.3999999761581","","image-keyboard-response","319","426805","0.0-319.0","","img/set1/S2.jpg","68","2","random","68","random,structured_load,structured_incentive,structured_normal","2,1,3,4,2,3","true","","",""
"null","","html-keyboard-response","320","427157","0.0-320.0","","<img src=""img/set1/S2.jpg"" width=""540"" height = ""360"" style=""border:16px solid orange"">","null","","","","","","","","",""
"null","","html-keyboard-response","321","427358","0.0-321.0","","","null","","","","","","","","",""
"549.6000000238419","","image-keyboard-response","322","427910","0.0-322.0","","img/set1/S3.jpg","72","3","random","72","random,structured_load,structured_incentive,structured_normal","2,1,3,4,2,3","true","","",""
"null","","html-keyboard-response","323","428264","0.0-323.0","","<img src=""img/set1/S3.jpg"" width=""540"" height = ""360"" style=""border:16px solid orange"">","null","","","","","","","","",""
"null","","html-keyboard-response","324","428466","0.0-324.0","","","null","","","","","","","","",""
"552.7000000476837","","image-keyboard-response","325","429021","0.0-325.0","","img/set1/S1.jpg","83","1","random","83","random,structured_load,structured_incentive,structured_normal","2,1,3,4,2,3","true","","",""
"null","","html-keyboard-response","326","429373","0.0-326.0","","<img src=""img/set1/S1.jpg"" width=""540"" height = ""360"" style=""border:16px solid orange"">","null","","","","","","","","",""
"null","","html-keyboard-response","327","429576","0.0-327.0","","","null","","","","","","","","",""
"620","","image-keyboard-response","328","430198","0.0-328.0","","img/set1/S3.jpg","68","3","random","72","random,structured_load,structured_incentive,structured_normal","2,1,3,4,2,3","false","","",""
"null","","html-keyboard-response","329","430552","0.0-329.0","","<img src=""img/set1/S3.jpg"" width=""540"" height = ""360"">","null","","","","","","","","",""
"null","","html-keyboard-response","330","430753","0.0-330.0","","","null","","","","","","","","",""
"683","","image-keyboard-response","331","431439","0.0-331.0","","img/set1/S4.jpg","74","4","random","74","random,structured_load,structured_incentive,structured_normal","2,1,3,4,2,3","true","","",""
"null","","html-keyboard-response","332","431793","0.0-332.0","","<img src=""img/set1/S4.jpg"" width=""540"" height = ""360"" style=""border:16px solid orange"">","null","","","","","","","","",""
"null","","html-keyboard-response","333","431995","0.0-333.0","","","null","","","","","","","","",""
"647.3000000119209","","image-keyboard-response","334","432645","0.0-334.0","","img/set1/S1.jpg","83","1","random","83","random,structured_load,structured_incentive,structured_normal","2,1,3,4,2,3","true","","",""
"null","","html-keyboard-response","335","432998","0.0-335.0","","<img src=""img/set1/S1.jpg"" width=""540"" height = ""360"" style=""border:16px solid orange"">","null","","","","","","","","",""
"null","","html-keyboard-response","336","433200","0.0-336.0","","","null","","","","","","","","",""
"709","","image-keyboard-response","337","433911","0.0-337.0","","img/set1/S3.jpg","72","3","random","72","random,structured_load,structured_incentive,structured_normal","2,1,3,4,2,3","true","","",""
"null","","html-keyboard-response","338","434265","0.0-338.0","","<img src=""img/set1/S3.jpg"" width=""540"" height = ""360"" style=""border:16px solid orange"">","null","","","","","","","","",""
"null","","html-keyboard-response","339","434489","0.0-339.0","","","null","","","","","","","","",""
"698.5","","image-keyboard-response","340","435190","0.0-340.0","","img/set1/S4.jpg","74","4","random","74","random,structured_load,structured_incentive,structured_normal","2,1,3,4,2,3","true","","",""
"null","","html-keyboard-response","341","435544","0.0-341.0","","<img src=""img/set1/S4.jpg"" width=""540"" height = ""360"" style=""border:16px solid orange"">","null","","","","","","","","",""
"null","","html-keyboard-response","342","435745","0.0-342.0","","","null","","","","","","","","",""
"661.4000000357628","","image-keyboard-response","343","436408","0.0-343.0","","img/set1/S2.jpg","68","2","random","68","random,structured_load,structured_incentive,structured_normal","2,1,3,4,2,3","true","","",""
"null","","html-keyboard-response","344","436762","0.0-344.0","","<img src=""img/set1/S2.jpg"" width=""540"" height = ""360"" style=""border:16px solid orange"">","null","","","","","","","","",""
"null","","html-keyboard-response","345","436964","0.0-345.0","","","null","","","","","","","","",""
"678.8999999761581","","image-keyboard-response","346","437646","0.0-346.0","","img/set1/S1.jpg","83","1","random","83","random,structured_load,structured_incentive,structured_normal","2,1,3,4,2,3","true","","",""
"null","","html-keyboard-response","347","438000","0.0-347.0","","<img src=""img/set1/S1.jpg"" width=""540"" height = ""360"" style=""border:16px solid orange"">","null","","","","","","","","",""
"null","","html-keyboard-response","348","438201","0.0-348.0","","","null","","","","","","","","",""
"650.5","","image-keyboard-response","349","438853","0.0-349.0","","img/set1/S2.jpg","68","2","random","68","random,structured_load,structured_incentive,structured_normal","2,1,3,4,2,3","true","","",""
"null","","html-keyboard-response","350","439205","0.0-350.0","","<img src=""img/set1/S2.jpg"" width=""540"" height = ""360"" style=""border:16px solid orange"">","null","","","","","","","","",""
"null","","html-keyboard-response","351","439408","0.0-351.0","","","null","","","","","","","","",""
"610.8000000119209","","image-keyboard-response","352","440021","0.0-352.0","","img/set1/S1.jpg","83","1","random","83","random,structured_load,structured_incentive,structured_normal","2,1,3,4,2,3","true","","",""
"null","","html-keyboard-response","353","440374","0.0-353.0","","<img src=""img/set1/S1.jpg"" width=""540"" height = ""360"" style=""border:16px solid orange"">","null","","","","","","","","",""
"null","","html-keyboard-response","354","440576","0.0-354.0","","","null","","","","","","","","",""
"626.1000000238419","","image-keyboard-response","355","441205","0.0-355.0","","img/set1/S4.jpg","74","4","random","74","random,structured_load,structured_incentive,structured_normal","2,1,3,4,2,3","true","","",""
"null","","html-keyboard-response","356","441558","0.0-356.0","","<img src=""img/set1/S4.jpg"" width=""540"" height = ""360"" style=""border:16px solid orange"">","null","","","","","","","","",""
"null","","html-keyboard-response","357","441760","0.0-357.0","","","null","","","","","","","","",""
"730.1999999880791","","image-keyboard-response","358","442493","0.0-358.0","","img/set1/S1.jpg","83","1","random","83","random,structured_load,structured_incentive,structured_normal","2,1,3,4,2,3","true","","",""
"null","","html-keyboard-response","359","442845","0.0-359.0","","<img src=""img/set1/S1.jpg"" width=""540"" height = ""360"" style=""border:16px solid orange"">","null","","","","","","","","",""
"null","","html-keyboard-response","360","443048","0.0-360.0","","","null","","","","","","","","",""
"643.3000000119209","","image-keyboard-response","361","443694","0.0-361.0","","img/set1/S3.jpg","72","3","random","72","random,structured_load,structured_incentive,structured_normal","2,1,3,4,2,3","true","","",""
"null","","html-keyboard-response","362","444048","0.0-362.0","","<img src=""img/set1/S3.jpg"" width=""540"" height = ""360"" style=""border:16px solid orange"">","null","","","","","","","","",""
"null","","html-keyboard-response","363","444251","0.0-363.0","","","null","","","","","","","","",""
"19345.599999964237","","html-keyboard-response","364","463600","0.0-364.0","","<p class=""center-content"">You have completed a block! </p><p class=""center-content"">Press any key on the keyboard to continue, </p><p class=""center-content"">or wait for the automatic progression to the next block after one minute.</p>","68","","","","","","","","",""
"14069.5","","instructions","365","477671","0.0-365.0","[{""page_index"":0,""viewing_time"":14069.199999988079}]","","","","","","","","","","",""
"23678.799999952316","","instructions","366","501351","0.0-366.0","[{""page_index"":0,""viewing_time"":18620.899999976158},{""page_index"":1,""viewing_time"":5057.100000023842}]","","","","","","","","","","",""
"1235.6000000238419","","image-keyboard-response","367","502590","0.0-367.0","","img/set2/S4.jpg","83","4","structured_load","74","random,structured_load,structured_incentive,structured_normal","2,1,3,4,2,3","false","","",""
"null","","html-keyboard-response","368","502943","0.0-368.0","","<img src=""img/set2/S4.jpg"" width=""540"" height = ""360"">","null","","","","","","","","",""
"null","","html-keyboard-response","369","503145","0.0-369.0","","","null","","","","","","","","",""
"987.8000000119209","","image-keyboard-response","370","504135","0.0-370.0","","img/set2/S4.jpg","68","4","structured_load","74","random,structured_load,structured_incentive,structured_normal","2,1,3,4,2,3","false","","",""
"null","","html-keyboard-response","371","504490","0.0-371.0","","<img src=""img/set2/S4.jpg"" width=""540"" height = ""360"">","null","","","","","","","","",""
"null","","html-keyboard-response","372","504692","0.0-372.0","","","null","","","","","","","","",""
"1183.8999999761581","","image-keyboard-response","373","505877","0.0-373.0","","img/set2/S3.jpg","74","3","structured_load","72","random,structured_load,structured_incentive,structured_normal","2,1,3,4,2,3","false","","",""
"null","","html-keyboard-response","374","506230","0.0-374.0","","<img src=""img/set2/S3.jpg"" width=""540"" height = ""360"">","null","","","","","","","","",""
"null","","html-keyboard-response","375","506433","0.0-375.0","","","null","","","","","","","","",""
"1178.3999999761581","","image-keyboard-response","376","507614","0.0-376.0","","img/set2/S2.jpg","72","2","structured_load","68","random,structured_load,structured_incentive,structured_normal","2,1,3,4,2,3","false","","",""
"null","","html-keyboard-response","377","507968","0.0-377.0","","<img src=""img/set2/S2.jpg"" width=""540"" height = ""360"">","null","","","","","","","","",""
"null","","html-keyboard-response","378","508172","0.0-378.0","","","null","","","","","","","","",""
"670.1000000238419","","image-keyboard-response","379","508845","0.0-379.0","","img/set2/S1.jpg","68","1","structured_load","83","random,structured_load,structured_incentive,structured_normal","2,1,3,4,2,3","false","","",""
"null","","html-keyboard-response","380","509198","0.0-380.0","","<img src=""img/set2/S1.jpg"" width=""540"" height = ""360"">","null","","","","","","","","",""
"null","","html-keyboard-response","381","509401","0.0-381.0","","","null","","","","","","","","",""
"1242.1000000238419","","image-keyboard-response","382","510647","0.0-382.0","","img/set2/S3.jpg","72","3","structured_load","72","random,structured_load,structured_incentive,structured_normal","2,1,3,4,2,3","true","","",""
"null","","html-keyboard-response","383","511001","0.0-383.0","","<img src=""img/set2/S3.jpg"" width=""540"" height = ""360"" style=""border:16px solid orange"">","null","","","","","","","","",""
"null","","html-keyboard-response","384","511217","0.0-384.0","","","null","","","","","","","","",""
"1331.5","","image-keyboard-response","385","512551","0.0-385.0","","img/set2/S4.jpg","83","4","structured_load","74","random,structured_load,structured_incentive,structured_normal","2,1,3,4,2,3","false","","",""
"null","","html-keyboard-response","386","512905","0.0-386.0","","<img src=""img/set2/S4.jpg"" width=""540"" height = ""360"">","null","","","","","","","","",""
"null","","html-keyboard-response","387","513107","0.0-387.0","","","null","","","","","","","","",""
"944.0999999642372","","image-keyboard-response","388","514053","0.0-388.0","","img/set2/S2.jpg","68","2","structured_load","68","random,structured_load,structured_incentive,structured_normal","2,1,3,4,2,3","true","","",""
"null","","html-keyboard-response","389","514405","0.0-389.0","","<img src=""img/set2/S2.jpg"" width=""540"" height = ""360"" style=""border:16px solid orange"">","null","","","","","","","","",""
"null","","html-keyboard-response","390","514609","0.0-390.0","","","null","","","","","","","","",""
"1491.0999999642372","","image-keyboard-response","391","516105","0.0-391.0","","img/set2/S1.jpg","74","1","structured_load","83","random,structured_load,structured_incentive,structured_normal","2,1,3,4,2,3","false","","",""
"null","","html-keyboard-response","392","516459","0.0-392.0","","<img src=""img/set2/S1.jpg"" width=""540"" height = ""360"">","null","","","","","","","","",""
"null","","html-keyboard-response","393","516662","0.0-393.0","","","null","","","","","","","","",""
"911.9000000357628","","image-keyboard-response","394","517576","0.0-394.0","","img/set2/S2.jpg","68","2","structured_load","68","random,structured_load,structured_incentive,structured_normal","2,1,3,4,2,3","true","","",""
"null","","html-keyboard-response","395","517931","0.0-395.0","","<img src=""img/set2/S2.jpg"" width=""540"" height = ""360"" style=""border:16px solid orange"">","null","","","","","","","","",""
"null","","html-keyboard-response","396","518135","0.0-396.0","","","null","","","","","","","","",""
"1136.3999999761581","","image-keyboard-response","397","519272","0.0-397.0","","img/set2/S1.jpg","72","1","structured_load","83","random,structured_load,structured_incentive,structured_normal","2,1,3,4,2,3","false","","",""
"null","","html-keyboard-response","398","519625","0.0-398.0","","<img src=""img/set2/S1.jpg"" width=""540"" height = ""360"">","null","","","","","","","","",""
"null","","html-keyboard-response","399","519827","0.0-399.0","","","null","","","","","","","","",""
"802","","image-keyboard-response","400","520631","0.0-400.0","","img/set2/S2.jpg","68","2","structured_load","68","random,structured_load,structured_incentive,structured_normal","2,1,3,4,2,3","true","","",""
"null","","html-keyboard-response","401","520986","0.0-401.0","","<img src=""img/set2/S2.jpg"" width=""540"" height = ""360"" style=""border:16px solid orange"">","null","","","","","","","","",""
"null","","html-keyboard-response","402","521188","0.0-402.0","","","null","","","","","","","","",""
"816","","image-keyboard-response","403","522006","0.0-403.0","","img/set2/S1.jpg","74","1","structured_load","83","random,structured_load,structured_incentive,structured_normal","2,1,3,4,2,3","false","","",""
"null","","html-keyboard-response","404","522359","0.0-404.0","","<img src=""img/set2/S1.jpg"" width=""540"" height = ""360"">","null","","","","","","","","",""
"null","","html-keyboard-response","405","522560","0.0-405.0","","","null","","","","","","","","",""
"940.6999999880791","","image-keyboard-response","406","523503","0.0-406.0","","img/set2/S2.jpg","68","2","structured_load","68","random,structured_load,structured_incentive,structured_normal","2,1,3,4,2,3","true","","",""
"null","","html-keyboard-response","407","523859","0.0-407.0","","<img src=""img/set2/S2.jpg"" width=""540"" height = ""360"" style=""border:16px solid orange"">","null","","","","","","","","",""
"null","","html-keyboard-response","408","524061","0.0-408.0","","","null","","","","","","","","",""
"679.5999999642372","","image-keyboard-response","409","524744","0.0-409.0","","img/set2/S1.jpg","83","1","structured_load","83","random,structured_load,structured_incentive,structured_normal","2,1,3,4,2,3","true","","",""
"null","","html-keyboard-response","410","525101","0.0-410.0","","<img src=""img/set2/S1.jpg"" width=""540"" height = ""360"" style=""border:16px solid orange"">","null","","","","","","","","",""
"null","","html-keyboard-response","411","525305","0.0-411.0","","","null","","","","","","","","",""
"946.7999999523163","","image-keyboard-response","412","526254","0.0-412.0","","img/set2/S3.jpg","72","3","structured_load","72","random,structured_load,structured_incentive,structured_normal","2,1,3,4,2,3","true","","",""
"null","","html-keyboard-response","413","526608","0.0-413.0","","<img src=""img/set2/S3.jpg"" width=""540"" height = ""360"" style=""border:16px solid orange"">","null","","","","","","","","",""
"null","","html-keyboard-response","414","526813","0.0-414.0","","","null","","","","","","","","",""
"1406.3999999761581","","image-keyboard-response","415","528222","0.0-415.0","","img/set2/S4.jpg","74","4","structured_load","74","random,structured_load,structured_incentive,structured_normal","2,1,3,4,2,3","true","","",""
"null","","html-keyboard-response","416","528575","0.0-416.0","","<img src=""img/set2/S4.jpg"" width=""540"" height = ""360"" style=""border:16px solid orange"">","null","","","","","","","","",""
"null","","html-keyboard-response","417","528778","0.0-417.0","","","null","","","","","","","","",""
"916","","image-keyboard-response","418","529697","0.0-418.0","","img/set2/S3.jpg","72","3","structured_load","72","random,structured_load,structured_incentive,structured_normal","2,1,3,4,2,3","true","","",""
"null","","html-keyboard-response","419","530050","0.0-419.0","","<img src=""img/set2/S3.jpg"" width=""540"" height = ""360"" style=""border:16px solid orange"">","null","","","","","","","","",""
"null","","html-keyboard-response","420","530266","0.0-420.0","","","null","","","","","","","","",""
"698.3999999761581","","image-keyboard-response","421","530966","0.0-421.0","","img/set2/S4.jpg","74","4","structured_load","74","random,structured_load,structured_incentive,structured_normal","2,1,3,4,2,3","true","","",""
"null","","html-keyboard-response","422","531319","0.0-422.0","","<img src=""img/set2/S4.jpg"" width=""540"" height = ""360"" style=""border:16px solid orange"">","null","","","","","","","","",""
"null","","html-keyboard-response","423","531521","0.0-423.0","","","null","","","","","","","","",""
"662.8000000119209","","image-keyboard-response","424","532187","0.0-424.0","","img/set2/S4.jpg","74","4","structured_load","74","random,structured_load,structured_incentive,structured_normal","2,1,3,4,2,3","true","","",""
"null","","html-keyboard-response","425","532541","0.0-425.0","","<img src=""img/set2/S4.jpg"" width=""540"" height = ""360"" style=""border:16px solid orange"">","null","","","","","","","","",""
"null","","html-keyboard-response","426","532743","0.0-426.0","","","null","","","","","","","","",""
"597.8000000119209","","image-keyboard-response","427","533344","0.0-427.0","","img/set2/S3.jpg","72","3","structured_load","72","random,structured_load,structured_incentive,structured_normal","2,1,3,4,2,3","true","","",""
"null","","html-keyboard-response","428","533697","0.0-428.0","","<img src=""img/set2/S3.jpg"" width=""540"" height = ""360"" style=""border:16px solid orange"">","null","","","","","","","","",""
"null","","html-keyboard-response","429","533899","0.0-429.0","","","null","","","","","","","","",""
"969.3000000119209","","image-keyboard-response","430","534870","0.0-430.0","","img/set2/S2.jpg","68","2","structured_load","68","random,structured_load,structured_incentive,structured_normal","2,1,3,4,2,3","true","","",""
"null","","html-keyboard-response","431","535223","0.0-431.0","","<img src=""img/set2/S2.jpg"" width=""540"" height = ""360"" style=""border:16px solid orange"">","null","","","","","","","","",""
"null","","html-keyboard-response","432","535428","0.0-432.0","","","null","","","","","","","","",""
"678.5","","image-keyboard-response","433","536112","0.0-433.0","","img/set2/S1.jpg","83","1","structured_load","83","random,structured_load,structured_incentive,structured_normal","2,1,3,4,2,3","true","","",""
"null","","html-keyboard-response","434","536465","0.0-434.0","","<img src=""img/set2/S1.jpg"" width=""540"" height = ""360"" style=""border:16px solid orange"">","null","","","","","","","","",""
"null","","html-keyboard-response","435","536668","0.0-435.0","","","null","","","","","","","","",""
"1055.5","","image-keyboard-response","436","537726","0.0-436.0","","img/set2/S3.jpg","72","3","structured_load","72","random,structured_load,structured_incentive,structured_normal","2,1,3,4,2,3","true","","",""
"null","","html-keyboard-response","437","538079","0.0-437.0","","<img src=""img/set2/S3.jpg"" width=""540"" height = ""360"" style=""border:16px solid orange"">","null","","","","","","","","",""
"null","","html-keyboard-response","438","538281","0.0-438.0","","","null","","","","","","","","",""
"907.3000000119209","","image-keyboard-response","439","539192","0.0-439.0","","img/set2/S2.jpg","68","2","structured_load","68","random,structured_load,structured_incentive,structured_normal","2,1,3,4,2,3","true","","",""
"null","","html-keyboard-response","440","539545","0.0-440.0","","<img src=""img/set2/S2.jpg"" width=""540"" height = ""360"" style=""border:16px solid orange"">","null","","","","","","","","",""
"null","","html-keyboard-response","441","539746","0.0-441.0","","","null","","","","","","","","",""
"770.3000000119209","","image-keyboard-response","442","540518","0.0-442.0","","img/set2/S1.jpg","83","1","structured_load","83","random,structured_load,structured_incentive,structured_normal","2,1,3,4,2,3","true","","",""
"null","","html-keyboard-response","443","540870","0.0-443.0","","<img src=""img/set2/S1.jpg"" width=""540"" height = ""360"" style=""border:16px solid orange"">","null","","","","","","","","",""
"null","","html-keyboard-response","444","541072","0.0-444.0","","","null","","","","","","","","",""
"964.6000000238419","","image-keyboard-response","445","542038","0.0-445.0","","img/set2/S3.jpg","72","3","structured_load","72","random,structured_load,structured_incentive,structured_normal","2,1,3,4,2,3","true","","",""
"null","","html-keyboard-response","446","542392","0.0-446.0","","<img src=""img/set2/S3.jpg"" width=""540"" height = ""360"" style=""border:16px solid orange"">","null","","","","","","","","",""
"null","","html-keyboard-response","447","542594","0.0-447.0","","","null","","","","","","","","",""
"836.1000000238419","","image-keyboard-response","448","543433","0.0-448.0","","img/set2/S2.jpg","68","2","structured_load","68","random,structured_load,structured_incentive,structured_normal","2,1,3,4,2,3","true","","",""
"null","","html-keyboard-response","449","543786","0.0-449.0","","<img src=""img/set2/S2.jpg"" width=""540"" height = ""360"" style=""border:16px solid orange"">","null","","","","","","","","",""
"null","","html-keyboard-response","450","543988","0.0-450.0","","","null","","","","","","","","",""
"816.6999999880791","","image-keyboard-response","451","544808","0.0-451.0","","img/set2/S1.jpg","83","1","structured_load","83","random,structured_load,structured_incentive,structured_normal","2,1,3,4,2,3","true","","",""
"null","","html-keyboard-response","452","545162","0.0-452.0","","<img src=""img/set2/S1.jpg"" width=""540"" height = ""360"" style=""border:16px solid orange"">","null","","","","","","","","",""
"null","","html-keyboard-response","453","545365","0.0-453.0","","","null","","","","","","","","",""
"646.3999999761581","","image-keyboard-response","454","546013","0.0-454.0","","img/set2/S3.jpg","72","3","structured_load","72","random,structured_load,structured_incentive,structured_normal","2,1,3,4,2,3","true","","",""
"null","","html-keyboard-response","455","546366","0.0-455.0","","<img src=""img/set2/S3.jpg"" width=""540"" height = ""360"" style=""border:16px solid orange"">","null","","","","","","","","",""
"null","","html-keyboard-response","456","546568","0.0-456.0","","","null","","","","","","","","",""
"501.80000001192093","","image-keyboard-response","457","547072","0.0-457.0","","img/set2/S3.jpg","72","3","structured_load","72","random,structured_load,structured_incentive,structured_normal","2,1,3,4,2,3","true","","",""
"null","","html-keyboard-response","458","547426","0.0-458.0","","<img src=""img/set2/S3.jpg"" width=""540"" height = ""360"" style=""border:16px solid orange"">","null","","","","","","","","",""
"null","","html-keyboard-response","459","547628","0.0-459.0","","","null","","","","","","","","",""
"792.3000000119209","","image-keyboard-response","460","548422","0.0-460.0","","img/set2/S2.jpg","68","2","structured_load","68","random,structured_load,structured_incentive,structured_normal","2,1,3,4,2,3","true","","",""
"null","","html-keyboard-response","461","548775","0.0-461.0","","<img src=""img/set2/S2.jpg"" width=""540"" height = ""360"" style=""border:16px solid orange"">","null","","","","","","","","",""
"null","","html-keyboard-response","462","548977","0.0-462.0","","","null","","","","","","","","",""
"717.7000000476837","","image-keyboard-response","463","549698","0.0-463.0","","img/set2/S1.jpg","83","1","structured_load","83","random,structured_load,structured_incentive,structured_normal","2,1,3,4,2,3","true","","",""
"null","","html-keyboard-response","464","550050","0.0-464.0","","<img src=""img/set2/S1.jpg"" width=""540"" height = ""360"" style=""border:16px solid orange"">","null","","","","","","","","",""
"null","","html-keyboard-response","465","550252","0.0-465.0","","","null","","","","","","","","",""
"921.0999999642372","","image-keyboard-response","466","551175","0.0-466.0","","img/set2/S2.jpg","68","2","structured_load","68","random,structured_load,structured_incentive,structured_normal","2,1,3,4,2,3","true","","",""
"null","","html-keyboard-response","467","551527","0.0-467.0","","<img src=""img/set2/S2.jpg"" width=""540"" height = ""360"" style=""border:16px solid orange"">","null","","","","","","","","",""
"null","","html-keyboard-response","468","551729","0.0-468.0","","","null","","","","","","","","",""
"818.6000000238419","","image-keyboard-response","469","552551","0.0-469.0","","img/set2/S1.jpg","83","1","structured_load","83","random,structured_load,structured_incentive,structured_normal","2,1,3,4,2,3","true","","",""
"null","","html-keyboard-response","470","552905","0.0-470.0","","<img src=""img/set2/S1.jpg"" width=""540"" height = ""360"" style=""border:16px solid orange"">","null","","","","","","","","",""
"null","","html-keyboard-response","471","553108","0.0-471.0","","","null","","","","","","","","",""
"655.5","","image-keyboard-response","472","553765","0.0-472.0","","img/set2/S3.jpg","72","3","structured_load","72","random,structured_load,structured_incentive,structured_normal","2,1,3,4,2,3","true","","",""
"null","","html-keyboard-response","473","554143","0.0-473.0","","<img src=""img/set2/S3.jpg"" width=""540"" height = ""360"" style=""border:16px solid orange"">","null","","","","","","","","",""
"null","","html-keyboard-response","474","554345","0.0-474.0","","","null","","","","","","","","",""
"691.1000000238419","","image-keyboard-response","475","555039","0.0-475.0","","img/set2/S2.jpg","68","2","structured_load","68","random,structured_load,structured_incentive,structured_normal","2,1,3,4,2,3","true","","",""
"null","","html-keyboard-response","476","555394","0.0-476.0","","<img src=""img/set2/S2.jpg"" width=""540"" height = ""360"" style=""border:16px solid orange"">","null","","","","","","","","",""
"null","","html-keyboard-response","477","555597","0.0-477.0","","","null","","","","","","","","",""
"823.8000000119209","","image-keyboard-response","478","556423","0.0-478.0","","img/set2/S1.jpg","83","1","structured_load","83","random,structured_load,structured_incentive,structured_normal","2,1,3,4,2,3","true","","",""
"null","","html-keyboard-response","479","556777","0.0-479.0","","<img src=""img/set2/S1.jpg"" width=""540"" height = ""360"" style=""border:16px solid orange"">","null","","","","","","","","",""
"null","","html-keyboard-response","480","556979","0.0-480.0","","","null","","","","","","","","",""
"704.7999999523163","","image-keyboard-response","481","557685","0.0-481.0","","img/set2/S4.jpg","74","4","structured_load","74","random,structured_load,structured_incentive,structured_normal","2,1,3,4,2,3","true","","",""
"null","","html-keyboard-response","482","558039","0.0-482.0","","<img src=""img/set2/S4.jpg"" width=""540"" height = ""360"" style=""border:16px solid orange"">","null","","","","","","","","",""
"null","","html-keyboard-response","483","558240","0.0-483.0","","","null","","","","","","","","",""
"587.8000000119209","","image-keyboard-response","484","558829","0.0-484.0","","img/set2/S4.jpg","74","4","structured_load","74","random,structured_load,structured_incentive,structured_normal","2,1,3,4,2,3","true","","",""
"null","","html-keyboard-response","485","559184","0.0-485.0","","<img src=""img/set2/S4.jpg"" width=""540"" height = ""360"" style=""border:16px solid orange"">","null","","","","","","","","",""
"null","","html-keyboard-response","486","559386","0.0-486.0","","","null","","","","","","","","",""
"512.6999999880791","","image-keyboard-response","487","559901","0.0-487.0","","img/set2/S4.jpg","74","4","structured_load","74","random,structured_load,structured_incentive,structured_normal","2,1,3,4,2,3","true","","",""
"null","","html-keyboard-response","488","560253","0.0-488.0","","<img src=""img/set2/S4.jpg"" width=""540"" height = ""360"" style=""border:16px solid orange"">","null","","","","","","","","",""
"null","","html-keyboard-response","489","560456","0.0-489.0","","","null","","","","","","","","",""
"732","","image-keyboard-response","490","561190","0.0-490.0","","img/set2/S2.jpg","68","2","structured_load","68","random,structured_load,structured_incentive,structured_normal","2,1,3,4,2,3","true","","",""
"null","","html-keyboard-response","491","561544","0.0-491.0","","<img src=""img/set2/S2.jpg"" width=""540"" height = ""360"" style=""border:16px solid orange"">","null","","","","","","","","",""
"null","","html-keyboard-response","492","561747","0.0-492.0","","","null","","","","","","","","",""
"665","","image-keyboard-response","493","562413","0.0-493.0","","img/set2/S1.jpg","83","1","structured_load","83","random,structured_load,structured_incentive,structured_normal","2,1,3,4,2,3","true","","",""
"null","","html-keyboard-response","494","562766","0.0-494.0","","<img src=""img/set2/S1.jpg"" width=""540"" height = ""360"" style=""border:16px solid orange"">","null","","","","","","","","",""
"null","","html-keyboard-response","495","562969","0.0-495.0","","","null","","","","","","","","",""
"771.6999999880791","","image-keyboard-response","496","563743","0.0-496.0","","img/set2/S4.jpg","74","4","structured_load","74","random,structured_load,structured_incentive,structured_normal","2,1,3,4,2,3","true","","",""
"null","","html-keyboard-response","497","564097","0.0-497.0","","<img src=""img/set2/S4.jpg"" width=""540"" height = ""360"" style=""border:16px solid orange"">","null","","","","","","","","",""
"null","","html-keyboard-response","498","564299","0.0-498.0","","","null","","","","","","","","",""
"817.6999999880791","","image-keyboard-response","499","565121","0.0-499.0","","img/set2/S3.jpg","72","3","structured_load","72","random,structured_load,structured_incentive,structured_normal","2,1,3,4,2,3","true","","",""
"null","","html-keyboard-response","500","565479","0.0-500.0","","<img src=""img/set2/S3.jpg"" width=""540"" height = ""360"" style=""border:16px solid orange"">","null","","","","","","","","",""
"null","","html-keyboard-response","501","565680","0.0-501.0","","","null","","","","","","","","",""
"851.8999999761581","","image-keyboard-response","502","566535","0.0-502.0","","img/set2/S2.jpg","68","2","structured_load","68","random,structured_load,structured_incentive,structured_normal","2,1,3,4,2,3","true","","",""
"null","","html-keyboard-response","503","566890","0.0-503.0","","<img src=""img/set2/S2.jpg"" width=""540"" height = ""360"" style=""border:16px solid orange"">","null","","","","","","","","",""
"null","","html-keyboard-response","504","567092","0.0-504.0","","","null","","","","","","","","",""
"646.4000000357628","","image-keyboard-response","505","567741","0.0-505.0","","img/set2/S1.jpg","83","1","structured_load","83","random,structured_load,structured_incentive,structured_normal","2,1,3,4,2,3","true","","",""
"null","","html-keyboard-response","506","568094","0.0-506.0","","<img src=""img/set2/S1.jpg"" width=""540"" height = ""360"" style=""border:16px solid orange"">","null","","","","","","","","",""
"null","","html-keyboard-response","507","568296","0.0-507.0","","","null","","","","","","","","",""
"730.5","","image-keyboard-response","508","569029","0.0-508.0","","img/set2/S2.jpg","68","2","structured_load","68","random,structured_load,structured_incentive,structured_normal","2,1,3,4,2,3","true","","",""
"null","","html-keyboard-response","509","569381","0.0-509.0","","<img src=""img/set2/S2.jpg"" width=""540"" height = ""360"" style=""border:16px solid orange"">","null","","","","","","","","",""
"null","","html-keyboard-response","510","569584","0.0-510.0","","","null","","","","","","","","",""
"851.3999999761581","","image-keyboard-response","511","570439","0.0-511.0","","img/set2/S1.jpg","83","1","structured_load","83","random,structured_load,structured_incentive,structured_normal","2,1,3,4,2,3","true","","",""
"null","","html-keyboard-response","512","570794","0.0-512.0","","<img src=""img/set2/S1.jpg"" width=""540"" height = ""360"" style=""border:16px solid orange"">","null","","","","","","","","",""
"null","","html-keyboard-response","513","570997","0.0-513.0","","","null","","","","","","","","",""
"627","","image-keyboard-response","514","571627","0.0-514.0","","img/set2/S2.jpg","68","2","structured_load","68","random,structured_load,structured_incentive,structured_normal","2,1,3,4,2,3","true","","",""
"null","","html-keyboard-response","515","571980","0.0-515.0","","<img src=""img/set2/S2.jpg"" width=""540"" height = ""360"" style=""border:16px solid orange"">","null","","","","","","","","",""
"null","","html-keyboard-response","516","572184","0.0-516.0","","","null","","","","","","","","",""
"616","","image-keyboard-response","517","572807","0.0-517.0","","img/set2/S1.jpg","83","1","structured_load","83","random,structured_load,structured_incentive,structured_normal","2,1,3,4,2,3","true","","",""
"null","","html-keyboard-response","518","573161","0.0-518.0","","<img src=""img/set2/S1.jpg"" width=""540"" height = ""360"" style=""border:16px solid orange"">","null","","","","","","","","",""
"null","","html-keyboard-response","519","573363","0.0-519.0","","","null","","","","","","","","",""
"712.8000000119209","","image-keyboard-response","520","574077","0.0-520.0","","img/set2/S4.jpg","74","4","structured_load","74","random,structured_load,structured_incentive,structured_normal","2,1,3,4,2,3","true","","",""
"null","","html-keyboard-response","521","574430","0.0-521.0","","<img src=""img/set2/S4.jpg"" width=""540"" height = ""360"" style=""border:16px solid orange"">","null","","","","","","","","",""
"null","","html-keyboard-response","522","574632","0.0-522.0","","","null","","","","","","","","",""
"827.8000000119209","","image-keyboard-response","523","575461","0.0-523.0","","img/set2/S2.jpg","68","2","structured_load","68","random,structured_load,structured_incentive,structured_normal","2,1,3,4,2,3","true","","",""
"null","","html-keyboard-response","524","575818","0.0-524.0","","<img src=""img/set2/S2.jpg"" width=""540"" height = ""360"" style=""border:16px solid orange"">","null","","","","","","","","",""
"null","","html-keyboard-response","525","576020","0.0-525.0","","","null","","","","","","","","",""
"768.5999999642372","","image-keyboard-response","526","576791","0.0-526.0","","img/set2/S1.jpg","83","1","structured_load","83","random,structured_load,structured_incentive,structured_normal","2,1,3,4,2,3","true","","",""
"null","","html-keyboard-response","527","577146","0.0-527.0","","<img src=""img/set2/S1.jpg"" width=""540"" height = ""360"" style=""border:16px solid orange"">","null","","","","","","","","",""
"null","","html-keyboard-response","528","577348","0.0-528.0","","","null","","","","","","","","",""
"694.3000000119209","","image-keyboard-response","529","578045","0.0-529.0","","img/set2/S2.jpg","68","2","structured_load","68","random,structured_load,structured_incentive,structured_normal","2,1,3,4,2,3","true","","",""
"null","","html-keyboard-response","530","578398","0.0-530.0","","<img src=""img/set2/S2.jpg"" width=""540"" height = ""360"" style=""border:16px solid orange"">","null","","","","","","","","",""
"null","","html-keyboard-response","531","578600","0.0-531.0","","","null","","","","","","","","",""
"579.5","","image-keyboard-response","532","579181","0.0-532.0","","img/set2/S1.jpg","83","1","structured_load","83","random,structured_load,structured_incentive,structured_normal","2,1,3,4,2,3","true","","",""
"null","","html-keyboard-response","533","579533","0.0-533.0","","<img src=""img/set2/S1.jpg"" width=""540"" height = ""360"" style=""border:16px solid orange"">","null","","","","","","","","",""
"null","","html-keyboard-response","534","579734","0.0-534.0","","","null","","","","","","","","",""
"573.8000000119209","","image-keyboard-response","535","580311","0.0-535.0","","img/set2/S2.jpg","68","2","structured_load","68","random,structured_load,structured_incentive,structured_normal","2,1,3,4,2,3","true","","",""
"null","","html-keyboard-response","536","580664","0.0-536.0","","<img src=""img/set2/S2.jpg"" width=""540"" height = ""360"" style=""border:16px solid orange"">","null","","","","","","","","",""
"null","","html-keyboard-response","537","580866","0.0-537.0","","","null","","","","","","","","",""
"538.9000000357628","","image-keyboard-response","538","581409","0.0-538.0","","img/set2/S1.jpg","83","1","structured_load","83","random,structured_load,structured_incentive,structured_normal","2,1,3,4,2,3","true","","",""
"null","","html-keyboard-response","539","581763","0.0-539.0","","<img src=""img/set2/S1.jpg"" width=""540"" height = ""360"" style=""border:16px solid orange"">","null","","","","","","","","",""
"null","","html-keyboard-response","540","581969","0.0-540.0","","","null","","","","","","","","",""
"738.2000000476837","","image-keyboard-response","541","582710","0.0-541.0","","img/set2/S4.jpg","74","4","structured_load","74","random,structured_load,structured_incentive,structured_normal","2,1,3,4,2,3","true","","",""
"null","","html-keyboard-response","542","583063","0.0-542.0","","<img src=""img/set2/S4.jpg"" width=""540"" height = ""360"" style=""border:16px solid orange"">","null","","","","","","","","",""
"null","","html-keyboard-response","543","583266","0.0-543.0","","","null","","","","","","","","",""
"520.3999999761581","","image-keyboard-response","544","583789","0.0-544.0","","img/set2/S4.jpg","74","4","structured_load","74","random,structured_load,structured_incentive,structured_normal","2,1,3,4,2,3","true","","",""
"null","","html-keyboard-response","545","584143","0.0-545.0","","<img src=""img/set2/S4.jpg"" width=""540"" height = ""360"" style=""border:16px solid orange"">","null","","","","","","","","",""
"null","","html-keyboard-response","546","584346","0.0-546.0","","","null","","","","","","","","",""
"795.0999999642372","","image-keyboard-response","547","585142","0.0-547.0","","img/set2/S2.jpg","68","2","structured_load","68","random,structured_load,structured_incentive,structured_normal","2,1,3,4,2,3","true","","",""
"null","","html-keyboard-response","548","585495","0.0-548.0","","<img src=""img/set2/S2.jpg"" width=""540"" height = ""360"" style=""border:16px solid orange"">","null","","","","","","","","",""
"null","","html-keyboard-response","549","585700","0.0-549.0","","","null","","","","","","","","",""
"752.6000000238419","","image-keyboard-response","550","586454","0.0-550.0","","img/set2/S1.jpg","83","1","structured_load","83","random,structured_load,structured_incentive,structured_normal","2,1,3,4,2,3","true","","",""
"null","","html-keyboard-response","551","586806","0.0-551.0","","<img src=""img/set2/S1.jpg"" width=""540"" height = ""360"" style=""border:16px solid orange"">","null","","","","","","","","",""
"null","","html-keyboard-response","552","587007","0.0-552.0","","","null","","","","","","","","",""
"806.3999999761581","","image-keyboard-response","553","587815","0.0-553.0","","img/set2/S2.jpg","68","2","structured_load","68","random,structured_load,structured_incentive,structured_normal","2,1,3,4,2,3","true","","",""
"null","","html-keyboard-response","554","588167","0.0-554.0","","<img src=""img/set2/S2.jpg"" width=""540"" height = ""360"" style=""border:16px solid orange"">","null","","","","","","","","",""
"null","","html-keyboard-response","555","588376","0.0-555.0","","","null","","","","","","","","",""
"745.6999999880791","","image-keyboard-response","556","589123","0.0-556.0","","img/set2/S1.jpg","83","1","structured_load","83","random,structured_load,structured_incentive,structured_normal","2,1,3,4,2,3","true","","",""
"null","","html-keyboard-response","557","589476","0.0-557.0","","<img src=""img/set2/S1.jpg"" width=""540"" height = ""360"" style=""border:16px solid orange"">","null","","","","","","","","",""
"null","","html-keyboard-response","558","589682","0.0-558.0","","","null","","","","","","","","",""
"803.6000000238419","","image-keyboard-response","559","590489","0.0-559.0","","img/set2/S3.jpg","72","3","structured_load","72","random,structured_load,structured_incentive,structured_normal","2,1,3,4,2,3","true","","",""
"null","","html-keyboard-response","560","590842","0.0-560.0","","<img src=""img/set2/S3.jpg"" width=""540"" height = ""360"" style=""border:16px solid orange"">","null","","","","","","","","",""
"null","","html-keyboard-response","561","591044","0.0-561.0","","","null","","","","","","","","",""
"705.5","","image-keyboard-response","562","591752","0.0-562.0","","img/set2/S2.jpg","68","2","structured_load","68","random,structured_load,structured_incentive,structured_normal","2,1,3,4,2,3","true","","",""
"null","","html-keyboard-response","563","592106","0.0-563.0","","<img src=""img/set2/S2.jpg"" width=""540"" height = ""360"" style=""border:16px solid orange"">","null","","","","","","","","",""
"null","","html-keyboard-response","564","592309","0.0-564.0","","","null","","","","","","","","",""
"690.1000000238419","","image-keyboard-response","565","593002","0.0-565.0","","img/set2/S1.jpg","83","1","structured_load","83","random,structured_load,structured_incentive,structured_normal","2,1,3,4,2,3","true","","",""
"null","","html-keyboard-response","566","593357","0.0-566.0","","<img src=""img/set2/S1.jpg"" width=""540"" height = ""360"" style=""border:16px solid orange"">","null","","","","","","","","",""
"null","","html-keyboard-response","567","593560","0.0-567.0","","","null","","","","","","","","",""
"644.6999999880791","","image-keyboard-response","568","594207","0.0-568.0","","img/set2/S3.jpg","72","3","structured_load","72","random,structured_load,structured_incentive,structured_normal","2,1,3,4,2,3","true","","",""
"null","","html-keyboard-response","569","594560","0.0-569.0","","<img src=""img/set2/S3.jpg"" width=""540"" height = ""360"" style=""border:16px solid orange"">","null","","","","","","","","",""
"null","","html-keyboard-response","570","594762","0.0-570.0","","","null","","","","","","","","",""
"626.8000000119209","","image-keyboard-response","571","595390","0.0-571.0","","img/set2/S4.jpg","74","4","structured_load","74","random,structured_load,structured_incentive,structured_normal","2,1,3,4,2,3","true","","",""
"null","","html-keyboard-response","572","595744","0.0-572.0","","<img src=""img/set2/S4.jpg"" width=""540"" height = ""360"" style=""border:16px solid orange"">","null","","","","","","","","",""
"null","","html-keyboard-response","573","595949","0.0-573.0","","","null","","","","","","","","",""
"686.8000000119209","","image-keyboard-response","574","596638","0.0-574.0","","img/set2/S2.jpg","68","2","structured_load","68","random,structured_load,structured_incentive,structured_normal","2,1,3,4,2,3","true","","",""
"null","","html-keyboard-response","575","596992","0.0-575.0","","<img src=""img/set2/S2.jpg"" width=""540"" height = ""360"" style=""border:16px solid orange"">","null","","","","","","","","",""
"null","","html-keyboard-response","576","597193","0.0-576.0","","","null","","","","","","","","",""
"707.5","","image-keyboard-response","577","597902","0.0-577.0","","img/set2/S1.jpg","83","1","structured_load","83","random,structured_load,structured_incentive,structured_normal","2,1,3,4,2,3","true","","",""
"null","","html-keyboard-response","578","598256","0.0-578.0","","<img src=""img/set2/S1.jpg"" width=""540"" height = ""360"" style=""border:16px solid orange"">","null","","","","","","","","",""
"null","","html-keyboard-response","579","598458","0.0-579.0","","","null","","","","","","","","",""
"706.6000000238419","","image-keyboard-response","580","599166","0.0-580.0","","img/set2/S2.jpg","68","2","structured_load","68","random,structured_load,structured_incentive,structured_normal","2,1,3,4,2,3","true","","",""
