"rt","url","trial_type","trial_index","time_elapsed","internal_node_id","assignmentID","mturkID","hitID","view_history","stimulus","key_press","state","test_part","correct_response","order_block","order_chunk","order_freq","correct","responses","question_order","bonus"
"29998","consent.html","external-html","0","30085","0.0-0.0","3LS2AMNW5GCK51ETHY08UZC9419QOL","A2ONILC0LZKG6Y","3URJ6VVYUP9BUCT1SZOT2DFI02L4OC","","","","","","","","","","","","",""
"274216","","instructions","1","304302","0.0-1.0","3LS2AMNW5GCK51ETHY08UZC9419QOL","A2ONILC0LZKG6Y","3URJ6VVYUP9BUCT1SZOT2DFI02L4OC","[{""page_index"":0,""viewing_time"":3343},{""page_index"":1,""viewing_time"":8682},{""page_index"":2,""viewing_time"":10075},{""page_index"":3,""viewing_time"":227355},{""page_index"":4,""viewing_time"":5814},{""page_index"":5,""viewing_time"":8966},{""page_index"":6,""viewing_time"":9981}]","","","","","","","","","","","",""
"13632","","instructions","2","317935","0.0-2.0","3LS2AMNW5GCK51ETHY08UZC9419QOL","A2ONILC0LZKG6Y","3URJ6VVYUP9BUCT1SZOT2DFI02L4OC","[{""page_index"":0,""viewing_time"":13632}]","","","","","","","","","","","",""
"45562","","instructions","3","363498","0.0-3.0","3LS2AMNW5GCK51ETHY08UZC9419QOL","A2ONILC0LZKG6Y","3URJ6VVYUP9BUCT1SZOT2DFI02L4OC","[{""page_index"":0,""viewing_time"":41629},{""page_index"":1,""viewing_time"":3933}]","","","","","","","","","","","",""
"516","","image-keyboard-response","4","364017","0.0-4.0","3LS2AMNW5GCK51ETHY08UZC9419QOL","A2ONILC0LZKG6Y","3URJ6VVYUP9BUCT1SZOT2DFI02L4OC","","img/set1/S2.jpg","83","2","structured_load","68","structured_load,random,structured_normal,structured_incentive","4,2,1,2,2,3","2,1,3,4","false","","",""
"null","","html-keyboard-response","5","364384","0.0-5.0","3LS2AMNW5GCK51ETHY08UZC9419QOL","A2ONILC0LZKG6Y","3URJ6VVYUP9BUCT1SZOT2DFI02L4OC","","<img src=""img/set1/S2.jpg"" width=""540"" height = ""360"">","null","","","","","","","","","",""
"null","","html-keyboard-response","6","364590","0.0-6.0","3LS2AMNW5GCK51ETHY08UZC9419QOL","A2ONILC0LZKG6Y","3URJ6VVYUP9BUCT1SZOT2DFI02L4OC","","","null","","","","","","","","","",""
"507","","image-keyboard-response","7","365099","0.0-7.0","3LS2AMNW5GCK51ETHY08UZC9419QOL","A2ONILC0LZKG6Y","3URJ6VVYUP9BUCT1SZOT2DFI02L4OC","","img/set1/S2.jpg","68","2","structured_load","68","structured_load,random,structured_normal,structured_incentive","4,2,1,2,2,3","2,1,3,4","true","","",""
"null","","html-keyboard-response","8","365455","0.0-8.0","3LS2AMNW5GCK51ETHY08UZC9419QOL","A2ONILC0LZKG6Y","3URJ6VVYUP9BUCT1SZOT2DFI02L4OC","","<img src=""img/set1/S2.jpg"" width=""540"" height = ""360"" style=""border:16px solid orange"">","null","","","","","","","","","",""
"null","","html-keyboard-response","9","365672","0.0-9.0","3LS2AMNW5GCK51ETHY08UZC9419QOL","A2ONILC0LZKG6Y","3URJ6VVYUP9BUCT1SZOT2DFI02L4OC","","","null","","","","","","","","","",""
"507","","image-keyboard-response","10","366181","0.0-10.0","3LS2AMNW5GCK51ETHY08UZC9419QOL","A2ONILC0LZKG6Y","3URJ6VVYUP9BUCT1SZOT2DFI02L4OC","","img/set1/S3.jpg","74","3","structured_load","72","structured_load,random,structured_normal,structured_incentive","4,2,1,2,2,3","2,1,3,4","false","","",""
"null","","html-keyboard-response","11","366544","0.0-11.0","3LS2AMNW5GCK51ETHY08UZC9419QOL","A2ONILC0LZKG6Y","3URJ6VVYUP9BUCT1SZOT2DFI02L4OC","","<img src=""img/set1/S3.jpg"" width=""540"" height = ""360"">","null","","","","","","","","","",""
"null","","html-keyboard-response","12","366748","0.0-12.0","3LS2AMNW5GCK51ETHY08UZC9419QOL","A2ONILC0LZKG6Y","3URJ6VVYUP9BUCT1SZOT2DFI02L4OC","","","null","","","","","","","","","",""
"1940","","image-keyboard-response","13","368691","0.0-13.0","3LS2AMNW5GCK51ETHY08UZC9419QOL","A2ONILC0LZKG6Y","3URJ6VVYUP9BUCT1SZOT2DFI02L4OC","","img/set1/S1.jpg","83","1","structured_load","83","structured_load,random,structured_normal,structured_incentive","4,2,1,2,2,3","2,1,3,4","true","","",""
"null","","html-keyboard-response","14","369051","0.0-14.0","3LS2AMNW5GCK51ETHY08UZC9419QOL","A2ONILC0LZKG6Y","3URJ6VVYUP9BUCT1SZOT2DFI02L4OC","","<img src=""img/set1/S1.jpg"" width=""540"" height = ""360"" style=""border:16px solid orange"">","null","","","","","","","","","",""
"null","","html-keyboard-response","15","369252","0.0-15.0","3LS2AMNW5GCK51ETHY08UZC9419QOL","A2ONILC0LZKG6Y","3URJ6VVYUP9BUCT1SZOT2DFI02L4OC","","","null","","","","","","","","","",""
"496","","image-keyboard-response","16","369749","0.0-16.0","3LS2AMNW5GCK51ETHY08UZC9419QOL","A2ONILC0LZKG6Y","3URJ6VVYUP9BUCT1SZOT2DFI02L4OC","","img/set1/S1.jpg","83","1","structured_load","83","structured_load,random,structured_normal,structured_incentive","4,2,1,2,2,3","2,1,3,4","true","","",""
"null","","html-keyboard-response","17","370113","0.0-17.0","3LS2AMNW5GCK51ETHY08UZC9419QOL","A2ONILC0LZKG6Y","3URJ6VVYUP9BUCT1SZOT2DFI02L4OC","","<img src=""img/set1/S1.jpg"" width=""540"" height = ""360"" style=""border:16px solid orange"">","null","","","","","","","","","",""
"null","","html-keyboard-response","18","370316","0.0-18.0","3LS2AMNW5GCK51ETHY08UZC9419QOL","A2ONILC0LZKG6Y","3URJ6VVYUP9BUCT1SZOT2DFI02L4OC","","","null","","","","","","","","","",""
"599","","image-keyboard-response","19","370918","0.0-19.0","3LS2AMNW5GCK51ETHY08UZC9419QOL","A2ONILC0LZKG6Y","3URJ6VVYUP9BUCT1SZOT2DFI02L4OC","","img/set1/S4.jpg","74","4","structured_load","74","structured_load,random,structured_normal,structured_incentive","4,2,1,2,2,3","2,1,3,4","true","","",""
"null","","html-keyboard-response","20","371283","0.0-20.0","3LS2AMNW5GCK51ETHY08UZC9419QOL","A2ONILC0LZKG6Y","3URJ6VVYUP9BUCT1SZOT2DFI02L4OC","","<img src=""img/set1/S4.jpg"" width=""540"" height = ""360"" style=""border:16px solid orange"">","null","","","","","","","","","",""
"null","","html-keyboard-response","21","371486","0.0-21.0","3LS2AMNW5GCK51ETHY08UZC9419QOL","A2ONILC0LZKG6Y","3URJ6VVYUP9BUCT1SZOT2DFI02L4OC","","","null","","","","","","","","","",""
"510","","image-keyboard-response","22","371996","0.0-22.0","3LS2AMNW5GCK51ETHY08UZC9419QOL","A2ONILC0LZKG6Y","3URJ6VVYUP9BUCT1SZOT2DFI02L4OC","","img/set1/S2.jpg","68","2","structured_load","68","structured_load,random,structured_normal,structured_incentive","4,2,1,2,2,3","2,1,3,4","true","","",""
"null","","html-keyboard-response","23","372348","0.0-23.0","3LS2AMNW5GCK51ETHY08UZC9419QOL","A2ONILC0LZKG6Y","3URJ6VVYUP9BUCT1SZOT2DFI02L4OC","","<img src=""img/set1/S2.jpg"" width=""540"" height = ""360"" style=""border:16px solid orange"">","null","","","","","","","","","",""
"null","","html-keyboard-response","24","372555","0.0-24.0","3LS2AMNW5GCK51ETHY08UZC9419QOL","A2ONILC0LZKG6Y","3URJ6VVYUP9BUCT1SZOT2DFI02L4OC","","","null","","","","","","","","","",""
"472","","image-keyboard-response","25","373029","0.0-25.0","3LS2AMNW5GCK51ETHY08UZC9419QOL","A2ONILC0LZKG6Y","3URJ6VVYUP9BUCT1SZOT2DFI02L4OC","","img/set1/S1.jpg","83","1","structured_load","83","structured_load,random,structured_normal,structured_incentive","4,2,1,2,2,3","2,1,3,4","true","","",""
"null","","html-keyboard-response","26","373393","0.0-26.0","3LS2AMNW5GCK51ETHY08UZC9419QOL","A2ONILC0LZKG6Y","3URJ6VVYUP9BUCT1SZOT2DFI02L4OC","","<img src=""img/set1/S1.jpg"" width=""540"" height = ""360"" style=""border:16px solid orange"">","null","","","","","","","","","",""
"null","","html-keyboard-response","27","373608","0.0-27.0","3LS2AMNW5GCK51ETHY08UZC9419QOL","A2ONILC0LZKG6Y","3URJ6VVYUP9BUCT1SZOT2DFI02L4OC","","","null","","","","","","","","","",""
"548","","image-keyboard-response","28","374157","0.0-28.0","3LS2AMNW5GCK51ETHY08UZC9419QOL","A2ONILC0LZKG6Y","3URJ6VVYUP9BUCT1SZOT2DFI02L4OC","","img/set1/S4.jpg","74","4","structured_load","74","structured_load,random,structured_normal,structured_incentive","4,2,1,2,2,3","2,1,3,4","true","","",""
"null","","html-keyboard-response","29","374509","0.0-29.0","3LS2AMNW5GCK51ETHY08UZC9419QOL","A2ONILC0LZKG6Y","3URJ6VVYUP9BUCT1SZOT2DFI02L4OC","","<img src=""img/set1/S4.jpg"" width=""540"" height = ""360"" style=""border:16px solid orange"">","null","","","","","","","","","",""
"null","","html-keyboard-response","30","374713","0.0-30.0","3LS2AMNW5GCK51ETHY08UZC9419QOL","A2ONILC0LZKG6Y","3URJ6VVYUP9BUCT1SZOT2DFI02L4OC","","","null","","","","","","","","","",""
"1098","","image-keyboard-response","31","375811","0.0-31.0","3LS2AMNW5GCK51ETHY08UZC9419QOL","A2ONILC0LZKG6Y","3URJ6VVYUP9BUCT1SZOT2DFI02L4OC","","img/set1/S2.jpg","68","2","structured_load","68","structured_load,random,structured_normal,structured_incentive","4,2,1,2,2,3","2,1,3,4","true","","",""
"null","","html-keyboard-response","32","376176","0.0-32.0","3LS2AMNW5GCK51ETHY08UZC9419QOL","A2ONILC0LZKG6Y","3URJ6VVYUP9BUCT1SZOT2DFI02L4OC","","<img src=""img/set1/S2.jpg"" width=""540"" height = ""360"" style=""border:16px solid orange"">","null","","","","","","","","","",""
"null","","html-keyboard-response","33","376377","0.0-33.0","3LS2AMNW5GCK51ETHY08UZC9419QOL","A2ONILC0LZKG6Y","3URJ6VVYUP9BUCT1SZOT2DFI02L4OC","","","null","","","","","","","","","",""
"661","","image-keyboard-response","34","377040","0.0-34.0","3LS2AMNW5GCK51ETHY08UZC9419QOL","A2ONILC0LZKG6Y","3URJ6VVYUP9BUCT1SZOT2DFI02L4OC","","img/set1/S4.jpg","74","4","structured_load","74","structured_load,random,structured_normal,structured_incentive","4,2,1,2,2,3","2,1,3,4","true","","",""
"null","","html-keyboard-response","35","377395","0.0-35.0","3LS2AMNW5GCK51ETHY08UZC9419QOL","A2ONILC0LZKG6Y","3URJ6VVYUP9BUCT1SZOT2DFI02L4OC","","<img src=""img/set1/S4.jpg"" width=""540"" height = ""360"" style=""border:16px solid orange"">","null","","","","","","","","","",""
"null","","html-keyboard-response","36","377602","0.0-36.0","3LS2AMNW5GCK51ETHY08UZC9419QOL","A2ONILC0LZKG6Y","3URJ6VVYUP9BUCT1SZOT2DFI02L4OC","","","null","","","","","","","","","",""
"609","","image-keyboard-response","37","378213","0.0-37.0","3LS2AMNW5GCK51ETHY08UZC9419QOL","A2ONILC0LZKG6Y","3URJ6VVYUP9BUCT1SZOT2DFI02L4OC","","img/set1/S2.jpg","68","2","structured_load","68","structured_load,random,structured_normal,structured_incentive","4,2,1,2,2,3","2,1,3,4","true","","",""
"null","","html-keyboard-response","38","378567","0.0-38.0","3LS2AMNW5GCK51ETHY08UZC9419QOL","A2ONILC0LZKG6Y","3URJ6VVYUP9BUCT1SZOT2DFI02L4OC","","<img src=""img/set1/S2.jpg"" width=""540"" height = ""360"" style=""border:16px solid orange"">","null","","","","","","","","","",""
"null","","html-keyboard-response","39","378768","0.0-39.0","3LS2AMNW5GCK51ETHY08UZC9419QOL","A2ONILC0LZKG6Y","3URJ6VVYUP9BUCT1SZOT2DFI02L4OC","","","null","","","","","","","","","",""
"428","","image-keyboard-response","40","379199","0.0-40.0","3LS2AMNW5GCK51ETHY08UZC9419QOL","A2ONILC0LZKG6Y","3URJ6VVYUP9BUCT1SZOT2DFI02L4OC","","img/set1/S4.jpg","74","4","structured_load","74","structured_load,random,structured_normal,structured_incentive","4,2,1,2,2,3","2,1,3,4","true","","",""
"null","","html-keyboard-response","41","379561","0.0-41.0","3LS2AMNW5GCK51ETHY08UZC9419QOL","A2ONILC0LZKG6Y","3URJ6VVYUP9BUCT1SZOT2DFI02L4OC","","<img src=""img/set1/S4.jpg"" width=""540"" height = ""360"" style=""border:16px solid orange"">","null","","","","","","","","","",""
"null","","html-keyboard-response","42","379765","0.0-42.0","3LS2AMNW5GCK51ETHY08UZC9419QOL","A2ONILC0LZKG6Y","3URJ6VVYUP9BUCT1SZOT2DFI02L4OC","","","null","","","","","","","","","",""
"435","","image-keyboard-response","43","380200","0.0-43.0","3LS2AMNW5GCK51ETHY08UZC9419QOL","A2ONILC0LZKG6Y","3URJ6VVYUP9BUCT1SZOT2DFI02L4OC","","img/set1/S2.jpg","68","2","structured_load","68","structured_load,random,structured_normal,structured_incentive","4,2,1,2,2,3","2,1,3,4","true","","",""
"null","","html-keyboard-response","44","380561","0.0-44.0","3LS2AMNW5GCK51ETHY08UZC9419QOL","A2ONILC0LZKG6Y","3URJ6VVYUP9BUCT1SZOT2DFI02L4OC","","<img src=""img/set1/S2.jpg"" width=""540"" height = ""360"" style=""border:16px solid orange"">","null","","","","","","","","","",""
"null","","html-keyboard-response","45","380763","0.0-45.0","3LS2AMNW5GCK51ETHY08UZC9419QOL","A2ONILC0LZKG6Y","3URJ6VVYUP9BUCT1SZOT2DFI02L4OC","","","null","","","","","","","","","",""
"1108","","image-keyboard-response","46","381874","0.0-46.0","3LS2AMNW5GCK51ETHY08UZC9419QOL","A2ONILC0LZKG6Y","3URJ6VVYUP9BUCT1SZOT2DFI02L4OC","","img/set1/S3.jpg","83","3","structured_load","72","structured_load,random,structured_normal,structured_incentive","4,2,1,2,2,3","2,1,3,4","false","","",""
"null","","html-keyboard-response","47","382228","0.0-47.0","3LS2AMNW5GCK51ETHY08UZC9419QOL","A2ONILC0LZKG6Y","3URJ6VVYUP9BUCT1SZOT2DFI02L4OC","","<img src=""img/set1/S3.jpg"" width=""540"" height = ""360"">","null","","","","","","","","","",""
"null","","html-keyboard-response","48","382432","0.0-48.0","3LS2AMNW5GCK51ETHY08UZC9419QOL","A2ONILC0LZKG6Y","3URJ6VVYUP9BUCT1SZOT2DFI02L4OC","","","null","","","","","","","","","",""
"975","","image-keyboard-response","49","383408","0.0-49.0","3LS2AMNW5GCK51ETHY08UZC9419QOL","A2ONILC0LZKG6Y","3URJ6VVYUP9BUCT1SZOT2DFI02L4OC","","img/set1/S1.jpg","83","1","structured_load","83","structured_load,random,structured_normal,structured_incentive","4,2,1,2,2,3","2,1,3,4","true","","",""
"null","","html-keyboard-response","50","383764","0.0-50.0","3LS2AMNW5GCK51ETHY08UZC9419QOL","A2ONILC0LZKG6Y","3URJ6VVYUP9BUCT1SZOT2DFI02L4OC","","<img src=""img/set1/S1.jpg"" width=""540"" height = ""360"" style=""border:16px solid orange"">","null","","","","","","","","","",""
"null","","html-keyboard-response","51","383971","0.0-51.0","3LS2AMNW5GCK51ETHY08UZC9419QOL","A2ONILC0LZKG6Y","3URJ6VVYUP9BUCT1SZOT2DFI02L4OC","","","null","","","","","","","","","",""
"1063","","image-keyboard-response","52","385033","0.0-52.0","3LS2AMNW5GCK51ETHY08UZC9419QOL","A2ONILC0LZKG6Y","3URJ6VVYUP9BUCT1SZOT2DFI02L4OC","","img/set1/S3.jpg","74","3","structured_load","72","structured_load,random,structured_normal,structured_incentive","4,2,1,2,2,3","2,1,3,4","false","","",""
"null","","html-keyboard-response","53","385386","0.0-53.0","3LS2AMNW5GCK51ETHY08UZC9419QOL","A2ONILC0LZKG6Y","3URJ6VVYUP9BUCT1SZOT2DFI02L4OC","","<img src=""img/set1/S3.jpg"" width=""540"" height = ""360"">","null","","","","","","","","","",""
"null","","html-keyboard-response","54","385588","0.0-54.0","3LS2AMNW5GCK51ETHY08UZC9419QOL","A2ONILC0LZKG6Y","3URJ6VVYUP9BUCT1SZOT2DFI02L4OC","","","null","","","","","","","","","",""
"777","","image-keyboard-response","55","386367","0.0-55.0","3LS2AMNW5GCK51ETHY08UZC9419QOL","A2ONILC0LZKG6Y","3URJ6VVYUP9BUCT1SZOT2DFI02L4OC","","img/set1/S1.jpg","83","1","structured_load","83","structured_load,random,structured_normal,structured_incentive","4,2,1,2,2,3","2,1,3,4","true","","",""
"null","","html-keyboard-response","56","386723","0.0-56.0","3LS2AMNW5GCK51ETHY08UZC9419QOL","A2ONILC0LZKG6Y","3URJ6VVYUP9BUCT1SZOT2DFI02L4OC","","<img src=""img/set1/S1.jpg"" width=""540"" height = ""360"" style=""border:16px solid orange"">","null","","","","","","","","","",""
"null","","html-keyboard-response","57","386940","0.0-57.0","3LS2AMNW5GCK51ETHY08UZC9419QOL","A2ONILC0LZKG6Y","3URJ6VVYUP9BUCT1SZOT2DFI02L4OC","","","null","","","","","","","","","",""
"656","","image-keyboard-response","58","387596","0.0-58.0","3LS2AMNW5GCK51ETHY08UZC9419QOL","A2ONILC0LZKG6Y","3URJ6VVYUP9BUCT1SZOT2DFI02L4OC","","img/set1/S4.jpg","83","4","structured_load","74","structured_load,random,structured_normal,structured_incentive","4,2,1,2,2,3","2,1,3,4","false","","",""
"null","","html-keyboard-response","59","387952","0.0-59.0","3LS2AMNW5GCK51ETHY08UZC9419QOL","A2ONILC0LZKG6Y","3URJ6VVYUP9BUCT1SZOT2DFI02L4OC","","<img src=""img/set1/S4.jpg"" width=""540"" height = ""360"">","null","","","","","","","","","",""
"null","","html-keyboard-response","60","388156","0.0-60.0","3LS2AMNW5GCK51ETHY08UZC9419QOL","A2ONILC0LZKG6Y","3URJ6VVYUP9BUCT1SZOT2DFI02L4OC","","","null","","","","","","","","","",""
"901","","image-keyboard-response","61","389058","0.0-61.0","3LS2AMNW5GCK51ETHY08UZC9419QOL","A2ONILC0LZKG6Y","3URJ6VVYUP9BUCT1SZOT2DFI02L4OC","","img/set1/S2.jpg","68","2","structured_load","68","structured_load,random,structured_normal,structured_incentive","4,2,1,2,2,3","2,1,3,4","true","","",""
"null","","html-keyboard-response","62","389415","0.0-62.0","3LS2AMNW5GCK51ETHY08UZC9419QOL","A2ONILC0LZKG6Y","3URJ6VVYUP9BUCT1SZOT2DFI02L4OC","","<img src=""img/set1/S2.jpg"" width=""540"" height = ""360"" style=""border:16px solid orange"">","null","","","","","","","","","",""
"null","","html-keyboard-response","63","389619","0.0-63.0","3LS2AMNW5GCK51ETHY08UZC9419QOL","A2ONILC0LZKG6Y","3URJ6VVYUP9BUCT1SZOT2DFI02L4OC","","","null","","","","","","","","","",""
"906","","image-keyboard-response","64","390527","0.0-64.0","3LS2AMNW5GCK51ETHY08UZC9419QOL","A2ONILC0LZKG6Y","3URJ6VVYUP9BUCT1SZOT2DFI02L4OC","","img/set1/S1.jpg","83","1","structured_load","83","structured_load,random,structured_normal,structured_incentive","4,2,1,2,2,3","2,1,3,4","true","","",""
"null","","html-keyboard-response","65","390884","0.0-65.0","3LS2AMNW5GCK51ETHY08UZC9419QOL","A2ONILC0LZKG6Y","3URJ6VVYUP9BUCT1SZOT2DFI02L4OC","","<img src=""img/set1/S1.jpg"" width=""540"" height = ""360"" style=""border:16px solid orange"">","null","","","","","","","","","",""
"null","","html-keyboard-response","66","391085","0.0-66.0","3LS2AMNW5GCK51ETHY08UZC9419QOL","A2ONILC0LZKG6Y","3URJ6VVYUP9BUCT1SZOT2DFI02L4OC","","","null","","","","","","","","","",""
"759","","image-keyboard-response","67","391847","0.0-67.0","3LS2AMNW5GCK51ETHY08UZC9419QOL","A2ONILC0LZKG6Y","3URJ6VVYUP9BUCT1SZOT2DFI02L4OC","","img/set1/S4.jpg","68","4","structured_load","74","structured_load,random,structured_normal,structured_incentive","4,2,1,2,2,3","2,1,3,4","false","","",""
"null","","html-keyboard-response","68","392204","0.0-68.0","3LS2AMNW5GCK51ETHY08UZC9419QOL","A2ONILC0LZKG6Y","3URJ6VVYUP9BUCT1SZOT2DFI02L4OC","","<img src=""img/set1/S4.jpg"" width=""540"" height = ""360"">","null","","","","","","","","","",""
"null","","html-keyboard-response","69","392419","0.0-69.0","3LS2AMNW5GCK51ETHY08UZC9419QOL","A2ONILC0LZKG6Y","3URJ6VVYUP9BUCT1SZOT2DFI02L4OC","","","null","","","","","","","","","",""
"2230","","image-keyboard-response","70","394650","0.0-70.0","3LS2AMNW5GCK51ETHY08UZC9419QOL","A2ONILC0LZKG6Y","3URJ6VVYUP9BUCT1SZOT2DFI02L4OC","","img/set1/S2.jpg","74","2","structured_load","68","structured_load,random,structured_normal,structured_incentive","4,2,1,2,2,3","2,1,3,4","false","","",""
"null","","html-keyboard-response","71","395000","0.0-71.0","3LS2AMNW5GCK51ETHY08UZC9419QOL","A2ONILC0LZKG6Y","3URJ6VVYUP9BUCT1SZOT2DFI02L4OC","","<img src=""img/set1/S2.jpg"" width=""540"" height = ""360"">","null","","","","","","","","","",""
"null","","html-keyboard-response","72","395203","0.0-72.0","3LS2AMNW5GCK51ETHY08UZC9419QOL","A2ONILC0LZKG6Y","3URJ6VVYUP9BUCT1SZOT2DFI02L4OC","","","null","","","","","","","","","",""
"675","","image-keyboard-response","73","395879","0.0-73.0","3LS2AMNW5GCK51ETHY08UZC9419QOL","A2ONILC0LZKG6Y","3URJ6VVYUP9BUCT1SZOT2DFI02L4OC","","img/set1/S4.jpg","74","4","structured_load","74","structured_load,random,structured_normal,structured_incentive","4,2,1,2,2,3","2,1,3,4","true","","",""
"null","","html-keyboard-response","74","396245","0.0-74.0","3LS2AMNW5GCK51ETHY08UZC9419QOL","A2ONILC0LZKG6Y","3URJ6VVYUP9BUCT1SZOT2DFI02L4OC","","<img src=""img/set1/S4.jpg"" width=""540"" height = ""360"" style=""border:16px solid orange"">","null","","","","","","","","","",""
"null","","html-keyboard-response","75","396448","0.0-75.0","3LS2AMNW5GCK51ETHY08UZC9419QOL","A2ONILC0LZKG6Y","3URJ6VVYUP9BUCT1SZOT2DFI02L4OC","","","null","","","","","","","","","",""
"748","","image-keyboard-response","76","397199","0.0-76.0","3LS2AMNW5GCK51ETHY08UZC9419QOL","A2ONILC0LZKG6Y","3URJ6VVYUP9BUCT1SZOT2DFI02L4OC","","img/set1/S2.jpg","83","2","structured_load","68","structured_load,random,structured_normal,structured_incentive","4,2,1,2,2,3","2,1,3,4","false","","",""
"null","","html-keyboard-response","77","397562","0.0-77.0","3LS2AMNW5GCK51ETHY08UZC9419QOL","A2ONILC0LZKG6Y","3URJ6VVYUP9BUCT1SZOT2DFI02L4OC","","<img src=""img/set1/S2.jpg"" width=""540"" height = ""360"">","null","","","","","","","","","",""
"null","","html-keyboard-response","78","397766","0.0-78.0","3LS2AMNW5GCK51ETHY08UZC9419QOL","A2ONILC0LZKG6Y","3URJ6VVYUP9BUCT1SZOT2DFI02L4OC","","","null","","","","","","","","","",""
"1012","","image-keyboard-response","79","398781","0.0-79.0","3LS2AMNW5GCK51ETHY08UZC9419QOL","A2ONILC0LZKG6Y","3URJ6VVYUP9BUCT1SZOT2DFI02L4OC","","img/set1/S3.jpg","68","3","structured_load","72","structured_load,random,structured_normal,structured_incentive","4,2,1,2,2,3","2,1,3,4","false","","",""
"null","","html-keyboard-response","80","399143","0.0-80.0","3LS2AMNW5GCK51ETHY08UZC9419QOL","A2ONILC0LZKG6Y","3URJ6VVYUP9BUCT1SZOT2DFI02L4OC","","<img src=""img/set1/S3.jpg"" width=""540"" height = ""360"">","null","","","","","","","","","",""
"null","","html-keyboard-response","81","399344","0.0-81.0","3LS2AMNW5GCK51ETHY08UZC9419QOL","A2ONILC0LZKG6Y","3URJ6VVYUP9BUCT1SZOT2DFI02L4OC","","","null","","","","","","","","","",""
"915","","image-keyboard-response","82","400260","0.0-82.0","3LS2AMNW5GCK51ETHY08UZC9419QOL","A2ONILC0LZKG6Y","3URJ6VVYUP9BUCT1SZOT2DFI02L4OC","","img/set1/S1.jpg","68","1","structured_load","83","structured_load,random,structured_normal,structured_incentive","4,2,1,2,2,3","2,1,3,4","false","","",""
"null","","html-keyboard-response","83","400612","0.0-83.0","3LS2AMNW5GCK51ETHY08UZC9419QOL","A2ONILC0LZKG6Y","3URJ6VVYUP9BUCT1SZOT2DFI02L4OC","","<img src=""img/set1/S1.jpg"" width=""540"" height = ""360"">","null","","","","","","","","","",""
"null","","html-keyboard-response","84","400828","0.0-84.0","3LS2AMNW5GCK51ETHY08UZC9419QOL","A2ONILC0LZKG6Y","3URJ6VVYUP9BUCT1SZOT2DFI02L4OC","","","null","","","","","","","","","",""
"664","","image-keyboard-response","85","401493","0.0-85.0","3LS2AMNW5GCK51ETHY08UZC9419QOL","A2ONILC0LZKG6Y","3URJ6VVYUP9BUCT1SZOT2DFI02L4OC","","img/set1/S1.jpg","83","1","structured_load","83","structured_load,random,structured_normal,structured_incentive","4,2,1,2,2,3","2,1,3,4","true","","",""
"null","","html-keyboard-response","86","401855","0.0-86.0","3LS2AMNW5GCK51ETHY08UZC9419QOL","A2ONILC0LZKG6Y","3URJ6VVYUP9BUCT1SZOT2DFI02L4OC","","<img src=""img/set1/S1.jpg"" width=""540"" height = ""360"" style=""border:16px solid orange"">","null","","","","","","","","","",""
"null","","html-keyboard-response","87","402057","0.0-87.0","3LS2AMNW5GCK51ETHY08UZC9419QOL","A2ONILC0LZKG6Y","3URJ6VVYUP9BUCT1SZOT2DFI02L4OC","","","null","","","","","","","","","",""
"972","","image-keyboard-response","88","403030","0.0-88.0","3LS2AMNW5GCK51ETHY08UZC9419QOL","A2ONILC0LZKG6Y","3URJ6VVYUP9BUCT1SZOT2DFI02L4OC","","img/set1/S4.jpg","74","4","structured_load","74","structured_load,random,structured_normal,structured_incentive","4,2,1,2,2,3","2,1,3,4","true","","",""
"null","","html-keyboard-response","89","403396","0.0-89.0","3LS2AMNW5GCK51ETHY08UZC9419QOL","A2ONILC0LZKG6Y","3URJ6VVYUP9BUCT1SZOT2DFI02L4OC","","<img src=""img/set1/S4.jpg"" width=""540"" height = ""360"" style=""border:16px solid orange"">","null","","","","","","","","","",""
"null","","html-keyboard-response","90","403600","0.0-90.0","3LS2AMNW5GCK51ETHY08UZC9419QOL","A2ONILC0LZKG6Y","3URJ6VVYUP9BUCT1SZOT2DFI02L4OC","","","null","","","","","","","","","",""
"748","","image-keyboard-response","91","404350","0.0-91.0","3LS2AMNW5GCK51ETHY08UZC9419QOL","A2ONILC0LZKG6Y","3URJ6VVYUP9BUCT1SZOT2DFI02L4OC","","img/set1/S2.jpg","68","2","structured_load","68","structured_load,random,structured_normal,structured_incentive","4,2,1,2,2,3","2,1,3,4","true","","",""
"null","","html-keyboard-response","92","404702","0.0-92.0","3LS2AMNW5GCK51ETHY08UZC9419QOL","A2ONILC0LZKG6Y","3URJ6VVYUP9BUCT1SZOT2DFI02L4OC","","<img src=""img/set1/S2.jpg"" width=""540"" height = ""360"" style=""border:16px solid orange"">","null","","","","","","","","","",""
"null","","html-keyboard-response","93","404907","0.0-93.0","3LS2AMNW5GCK51ETHY08UZC9419QOL","A2ONILC0LZKG6Y","3URJ6VVYUP9BUCT1SZOT2DFI02L4OC","","","null","","","","","","","","","",""
"895","","image-keyboard-response","94","405805","0.0-94.0","3LS2AMNW5GCK51ETHY08UZC9419QOL","A2ONILC0LZKG6Y","3URJ6VVYUP9BUCT1SZOT2DFI02L4OC","","img/set1/S3.jpg","83","3","structured_load","72","structured_load,random,structured_normal,structured_incentive","4,2,1,2,2,3","2,1,3,4","false","","",""
"null","","html-keyboard-response","95","406157","0.0-95.0","3LS2AMNW5GCK51ETHY08UZC9419QOL","A2ONILC0LZKG6Y","3URJ6VVYUP9BUCT1SZOT2DFI02L4OC","","<img src=""img/set1/S3.jpg"" width=""540"" height = ""360"">","null","","","","","","","","","",""
"null","","html-keyboard-response","96","406361","0.0-96.0","3LS2AMNW5GCK51ETHY08UZC9419QOL","A2ONILC0LZKG6Y","3URJ6VVYUP9BUCT1SZOT2DFI02L4OC","","","null","","","","","","","","","",""
"578","","image-keyboard-response","97","406941","0.0-97.0","3LS2AMNW5GCK51ETHY08UZC9419QOL","A2ONILC0LZKG6Y","3URJ6VVYUP9BUCT1SZOT2DFI02L4OC","","img/set1/S3.jpg","68","3","structured_load","72","structured_load,random,structured_normal,structured_incentive","4,2,1,2,2,3","2,1,3,4","false","","",""
"null","","html-keyboard-response","98","407307","0.0-98.0","3LS2AMNW5GCK51ETHY08UZC9419QOL","A2ONILC0LZKG6Y","3URJ6VVYUP9BUCT1SZOT2DFI02L4OC","","<img src=""img/set1/S3.jpg"" width=""540"" height = ""360"">","null","","","","","","","","","",""
"null","","html-keyboard-response","99","407514","0.0-99.0","3LS2AMNW5GCK51ETHY08UZC9419QOL","A2ONILC0LZKG6Y","3URJ6VVYUP9BUCT1SZOT2DFI02L4OC","","","null","","","","","","","","","",""
"709","","image-keyboard-response","100","408225","0.0-100.0","3LS2AMNW5GCK51ETHY08UZC9419QOL","A2ONILC0LZKG6Y","3URJ6VVYUP9BUCT1SZOT2DFI02L4OC","","img/set1/S4.jpg","74","4","structured_load","74","structured_load,random,structured_normal,structured_incentive","4,2,1,2,2,3","2,1,3,4","true","","",""
"null","","html-keyboard-response","101","408580","0.0-101.0","3LS2AMNW5GCK51ETHY08UZC9419QOL","A2ONILC0LZKG6Y","3URJ6VVYUP9BUCT1SZOT2DFI02L4OC","","<img src=""img/set1/S4.jpg"" width=""540"" height = ""360"" style=""border:16px solid orange"">","null","","","","","","","","","",""
"null","","html-keyboard-response","102","408782","0.0-102.0","3LS2AMNW5GCK51ETHY08UZC9419QOL","A2ONILC0LZKG6Y","3URJ6VVYUP9BUCT1SZOT2DFI02L4OC","","","null","","","","","","","","","",""
"687","","image-keyboard-response","103","409471","0.0-103.0","3LS2AMNW5GCK51ETHY08UZC9419QOL","A2ONILC0LZKG6Y","3URJ6VVYUP9BUCT1SZOT2DFI02L4OC","","img/set1/S2.jpg","68","2","structured_load","68","structured_load,random,structured_normal,structured_incentive","4,2,1,2,2,3","2,1,3,4","true","","",""
"null","","html-keyboard-response","104","409828","0.0-104.0","3LS2AMNW5GCK51ETHY08UZC9419QOL","A2ONILC0LZKG6Y","3URJ6VVYUP9BUCT1SZOT2DFI02L4OC","","<img src=""img/set1/S2.jpg"" width=""540"" height = ""360"" style=""border:16px solid orange"">","null","","","","","","","","","",""
"null","","html-keyboard-response","105","410033","0.0-105.0","3LS2AMNW5GCK51ETHY08UZC9419QOL","A2ONILC0LZKG6Y","3URJ6VVYUP9BUCT1SZOT2DFI02L4OC","","","null","","","","","","","","","",""
"441","","image-keyboard-response","106","410474","0.0-106.0","3LS2AMNW5GCK51ETHY08UZC9419QOL","A2ONILC0LZKG6Y","3URJ6VVYUP9BUCT1SZOT2DFI02L4OC","","img/set1/S3.jpg","74","3","structured_load","72","structured_load,random,structured_normal,structured_incentive","4,2,1,2,2,3","2,1,3,4","false","","",""
"null","","html-keyboard-response","107","410836","0.0-107.0","3LS2AMNW5GCK51ETHY08UZC9419QOL","A2ONILC0LZKG6Y","3URJ6VVYUP9BUCT1SZOT2DFI02L4OC","","<img src=""img/set1/S3.jpg"" width=""540"" height = ""360"">","null","","","","","","","","","",""
"null","","html-keyboard-response","108","411053","0.0-108.0","3LS2AMNW5GCK51ETHY08UZC9419QOL","A2ONILC0LZKG6Y","3URJ6VVYUP9BUCT1SZOT2DFI02L4OC","","","null","","","","","","","","","",""
"1490","","image-keyboard-response","109","412542","0.0-109.0","3LS2AMNW5GCK51ETHY08UZC9419QOL","A2ONILC0LZKG6Y","3URJ6VVYUP9BUCT1SZOT2DFI02L4OC","","img/set1/S3.jpg","83","3","structured_load","72","structured_load,random,structured_normal,structured_incentive","4,2,1,2,2,3","2,1,3,4","false","","",""
"null","","html-keyboard-response","110","412897","0.0-110.0","3LS2AMNW5GCK51ETHY08UZC9419QOL","A2ONILC0LZKG6Y","3URJ6VVYUP9BUCT1SZOT2DFI02L4OC","","<img src=""img/set1/S3.jpg"" width=""540"" height = ""360"">","null","","","","","","","","","",""
"null","","html-keyboard-response","111","413103","0.0-111.0","3LS2AMNW5GCK51ETHY08UZC9419QOL","A2ONILC0LZKG6Y","3URJ6VVYUP9BUCT1SZOT2DFI02L4OC","","","null","","","","","","","","","",""
"978","","image-keyboard-response","112","414081","0.0-112.0","3LS2AMNW5GCK51ETHY08UZC9419QOL","A2ONILC0LZKG6Y","3URJ6VVYUP9BUCT1SZOT2DFI02L4OC","","img/set1/S4.jpg","74","4","structured_load","74","structured_load,random,structured_normal,structured_incentive","4,2,1,2,2,3","2,1,3,4","true","","",""
"null","","html-keyboard-response","113","414441","0.0-113.0","3LS2AMNW5GCK51ETHY08UZC9419QOL","A2ONILC0LZKG6Y","3URJ6VVYUP9BUCT1SZOT2DFI02L4OC","","<img src=""img/set1/S4.jpg"" width=""540"" height = ""360"" style=""border:16px solid orange"">","null","","","","","","","","","",""
"null","","html-keyboard-response","114","414643","0.0-114.0","3LS2AMNW5GCK51ETHY08UZC9419QOL","A2ONILC0LZKG6Y","3URJ6VVYUP9BUCT1SZOT2DFI02L4OC","","","null","","","","","","","","","",""
"684","","image-keyboard-response","115","415328","0.0-115.0","3LS2AMNW5GCK51ETHY08UZC9419QOL","A2ONILC0LZKG6Y","3URJ6VVYUP9BUCT1SZOT2DFI02L4OC","","img/set1/S2.jpg","68","2","structured_load","68","structured_load,random,structured_normal,structured_incentive","4,2,1,2,2,3","2,1,3,4","true","","",""
"null","","html-keyboard-response","116","415682","0.0-116.0","3LS2AMNW5GCK51ETHY08UZC9419QOL","A2ONILC0LZKG6Y","3URJ6VVYUP9BUCT1SZOT2DFI02L4OC","","<img src=""img/set1/S2.jpg"" width=""540"" height = ""360"" style=""border:16px solid orange"">","null","","","","","","","","","",""
"null","","html-keyboard-response","117","415885","0.0-117.0","3LS2AMNW5GCK51ETHY08UZC9419QOL","A2ONILC0LZKG6Y","3URJ6VVYUP9BUCT1SZOT2DFI02L4OC","","","null","","","","","","","","","",""
"932","","image-keyboard-response","118","416820","0.0-118.0","3LS2AMNW5GCK51ETHY08UZC9419QOL","A2ONILC0LZKG6Y","3URJ6VVYUP9BUCT1SZOT2DFI02L4OC","","img/set1/S4.jpg","74","4","structured_load","74","structured_load,random,structured_normal,structured_incentive","4,2,1,2,2,3","2,1,3,4","true","","",""
"null","","html-keyboard-response","119","417183","0.0-119.0","3LS2AMNW5GCK51ETHY08UZC9419QOL","A2ONILC0LZKG6Y","3URJ6VVYUP9BUCT1SZOT2DFI02L4OC","","<img src=""img/set1/S4.jpg"" width=""540"" height = ""360"" style=""border:16px solid orange"">","null","","","","","","","","","",""
"null","","html-keyboard-response","120","417388","0.0-120.0","3LS2AMNW5GCK51ETHY08UZC9419QOL","A2ONILC0LZKG6Y","3URJ6VVYUP9BUCT1SZOT2DFI02L4OC","","","null","","","","","","","","","",""
"787","","image-keyboard-response","121","418176","0.0-121.0","3LS2AMNW5GCK51ETHY08UZC9419QOL","A2ONILC0LZKG6Y","3URJ6VVYUP9BUCT1SZOT2DFI02L4OC","","img/set1/S2.jpg","68","2","structured_load","68","structured_load,random,structured_normal,structured_incentive","4,2,1,2,2,3","2,1,3,4","true","","",""
"null","","html-keyboard-response","122","418530","0.0-122.0","3LS2AMNW5GCK51ETHY08UZC9419QOL","A2ONILC0LZKG6Y","3URJ6VVYUP9BUCT1SZOT2DFI02L4OC","","<img src=""img/set1/S2.jpg"" width=""540"" height = ""360"" style=""border:16px solid orange"">","null","","","","","","","","","",""
"null","","html-keyboard-response","123","418735","0.0-123.0","3LS2AMNW5GCK51ETHY08UZC9419QOL","A2ONILC0LZKG6Y","3URJ6VVYUP9BUCT1SZOT2DFI02L4OC","","","null","","","","","","","","","",""
"520","","image-keyboard-response","124","419255","0.0-124.0","3LS2AMNW5GCK51ETHY08UZC9419QOL","A2ONILC0LZKG6Y","3URJ6VVYUP9BUCT1SZOT2DFI02L4OC","","img/set1/S4.jpg","68","4","structured_load","74","structured_load,random,structured_normal,structured_incentive","4,2,1,2,2,3","2,1,3,4","false","","",""
"null","","html-keyboard-response","125","419608","0.0-125.0","3LS2AMNW5GCK51ETHY08UZC9419QOL","A2ONILC0LZKG6Y","3URJ6VVYUP9BUCT1SZOT2DFI02L4OC","","<img src=""img/set1/S4.jpg"" width=""540"" height = ""360"">","null","","","","","","","","","",""
"null","","html-keyboard-response","126","419810","0.0-126.0","3LS2AMNW5GCK51ETHY08UZC9419QOL","A2ONILC0LZKG6Y","3URJ6VVYUP9BUCT1SZOT2DFI02L4OC","","","null","","","","","","","","","",""
"511","","image-keyboard-response","127","420324","0.0-127.0","3LS2AMNW5GCK51ETHY08UZC9419QOL","A2ONILC0LZKG6Y","3URJ6VVYUP9BUCT1SZOT2DFI02L4OC","","img/set1/S2.jpg","68","2","structured_load","68","structured_load,random,structured_normal,structured_incentive","4,2,1,2,2,3","2,1,3,4","true","","",""
"null","","html-keyboard-response","128","420689","0.0-128.0","3LS2AMNW5GCK51ETHY08UZC9419QOL","A2ONILC0LZKG6Y","3URJ6VVYUP9BUCT1SZOT2DFI02L4OC","","<img src=""img/set1/S2.jpg"" width=""540"" height = ""360"" style=""border:16px solid orange"">","null","","","","","","","","","",""
"null","","html-keyboard-response","129","420906","0.0-129.0","3LS2AMNW5GCK51ETHY08UZC9419QOL","A2ONILC0LZKG6Y","3URJ6VVYUP9BUCT1SZOT2DFI02L4OC","","","null","","","","","","","","","",""
"775","","image-keyboard-response","130","421681","0.0-130.0","3LS2AMNW5GCK51ETHY08UZC9419QOL","A2ONILC0LZKG6Y","3URJ6VVYUP9BUCT1SZOT2DFI02L4OC","","img/set1/S3.jpg","83","3","structured_load","72","structured_load,random,structured_normal,structured_incentive","4,2,1,2,2,3","2,1,3,4","false","","",""
"null","","html-keyboard-response","131","422038","0.0-131.0","3LS2AMNW5GCK51ETHY08UZC9419QOL","A2ONILC0LZKG6Y","3URJ6VVYUP9BUCT1SZOT2DFI02L4OC","","<img src=""img/set1/S3.jpg"" width=""540"" height = ""360"">","null","","","","","","","","","",""
"null","","html-keyboard-response","132","422244","0.0-132.0","3LS2AMNW5GCK51ETHY08UZC9419QOL","A2ONILC0LZKG6Y","3URJ6VVYUP9BUCT1SZOT2DFI02L4OC","","","null","","","","","","","","","",""
"577","","image-keyboard-response","133","422822","0.0-133.0","3LS2AMNW5GCK51ETHY08UZC9419QOL","A2ONILC0LZKG6Y","3URJ6VVYUP9BUCT1SZOT2DFI02L4OC","","img/set1/S2.jpg","74","2","structured_load","68","structured_load,random,structured_normal,structured_incentive","4,2,1,2,2,3","2,1,3,4","false","","",""
"null","","html-keyboard-response","134","423176","0.0-134.0","3LS2AMNW5GCK51ETHY08UZC9419QOL","A2ONILC0LZKG6Y","3URJ6VVYUP9BUCT1SZOT2DFI02L4OC","","<img src=""img/set1/S2.jpg"" width=""540"" height = ""360"">","null","","","","","","","","","",""
"null","","html-keyboard-response","135","423380","0.0-135.0","3LS2AMNW5GCK51ETHY08UZC9419QOL","A2ONILC0LZKG6Y","3URJ6VVYUP9BUCT1SZOT2DFI02L4OC","","","null","","","","","","","","","",""
"752","","image-keyboard-response","136","424135","0.0-136.0","3LS2AMNW5GCK51ETHY08UZC9419QOL","A2ONILC0LZKG6Y","3URJ6VVYUP9BUCT1SZOT2DFI02L4OC","","img/set1/S4.jpg","74","4","structured_load","74","structured_load,random,structured_normal,structured_incentive","4,2,1,2,2,3","2,1,3,4","true","","",""
"null","","html-keyboard-response","137","424504","0.0-137.0","3LS2AMNW5GCK51ETHY08UZC9419QOL","A2ONILC0LZKG6Y","3URJ6VVYUP9BUCT1SZOT2DFI02L4OC","","<img src=""img/set1/S4.jpg"" width=""540"" height = ""360"" style=""border:16px solid orange"">","null","","","","","","","","","",""
"null","","html-keyboard-response","138","424720","0.0-138.0","3LS2AMNW5GCK51ETHY08UZC9419QOL","A2ONILC0LZKG6Y","3URJ6VVYUP9BUCT1SZOT2DFI02L4OC","","","null","","","","","","","","","",""
"712","","image-keyboard-response","139","425432","0.0-139.0","3LS2AMNW5GCK51ETHY08UZC9419QOL","A2ONILC0LZKG6Y","3URJ6VVYUP9BUCT1SZOT2DFI02L4OC","","img/set1/S2.jpg","68","2","structured_load","68","structured_load,random,structured_normal,structured_incentive","4,2,1,2,2,3","2,1,3,4","true","","",""
"null","","html-keyboard-response","140","425784","0.0-140.0","3LS2AMNW5GCK51ETHY08UZC9419QOL","A2ONILC0LZKG6Y","3URJ6VVYUP9BUCT1SZOT2DFI02L4OC","","<img src=""img/set1/S2.jpg"" width=""540"" height = ""360"" style=""border:16px solid orange"">","null","","","","","","","","","",""
"null","","html-keyboard-response","141","425998","0.0-141.0","3LS2AMNW5GCK51ETHY08UZC9419QOL","A2ONILC0LZKG6Y","3URJ6VVYUP9BUCT1SZOT2DFI02L4OC","","","null","","","","","","","","","",""
"667","","image-keyboard-response","142","426667","0.0-142.0","3LS2AMNW5GCK51ETHY08UZC9419QOL","A2ONILC0LZKG6Y","3URJ6VVYUP9BUCT1SZOT2DFI02L4OC","","img/set1/S4.jpg","74","4","structured_load","74","structured_load,random,structured_normal,structured_incentive","4,2,1,2,2,3","2,1,3,4","true","","",""
"null","","html-keyboard-response","143","427025","0.0-143.0","3LS2AMNW5GCK51ETHY08UZC9419QOL","A2ONILC0LZKG6Y","3URJ6VVYUP9BUCT1SZOT2DFI02L4OC","","<img src=""img/set1/S4.jpg"" width=""540"" height = ""360"" style=""border:16px solid orange"">","null","","","","","","","","","",""
"null","","html-keyboard-response","144","427227","0.0-144.0","3LS2AMNW5GCK51ETHY08UZC9419QOL","A2ONILC0LZKG6Y","3URJ6VVYUP9BUCT1SZOT2DFI02L4OC","","","null","","","","","","","","","",""
"548","","image-keyboard-response","145","427776","0.0-145.0","3LS2AMNW5GCK51ETHY08UZC9419QOL","A2ONILC0LZKG6Y","3URJ6VVYUP9BUCT1SZOT2DFI02L4OC","","img/set1/S2.jpg","83","2","structured_load","68","structured_load,random,structured_normal,structured_incentive","4,2,1,2,2,3","2,1,3,4","false","","",""
"null","","html-keyboard-response","146","428137","0.0-146.0","3LS2AMNW5GCK51ETHY08UZC9419QOL","A2ONILC0LZKG6Y","3URJ6VVYUP9BUCT1SZOT2DFI02L4OC","","<img src=""img/set1/S2.jpg"" width=""540"" height = ""360"">","null","","","","","","","","","",""
"null","","html-keyboard-response","147","428340","0.0-147.0","3LS2AMNW5GCK51ETHY08UZC9419QOL","A2ONILC0LZKG6Y","3URJ6VVYUP9BUCT1SZOT2DFI02L4OC","","","null","","","","","","","","","",""
"892","","image-keyboard-response","148","429232","0.0-148.0","3LS2AMNW5GCK51ETHY08UZC9419QOL","A2ONILC0LZKG6Y","3URJ6VVYUP9BUCT1SZOT2DFI02L4OC","","img/set1/S4.jpg","74","4","structured_load","74","structured_load,random,structured_normal,structured_incentive","4,2,1,2,2,3","2,1,3,4","true","","",""
"null","","html-keyboard-response","149","429584","0.0-149.0","3LS2AMNW5GCK51ETHY08UZC9419QOL","A2ONILC0LZKG6Y","3URJ6VVYUP9BUCT1SZOT2DFI02L4OC","","<img src=""img/set1/S4.jpg"" width=""540"" height = ""360"" style=""border:16px solid orange"">","null","","","","","","","","","",""
"null","","html-keyboard-response","150","429786","0.0-150.0","3LS2AMNW5GCK51ETHY08UZC9419QOL","A2ONILC0LZKG6Y","3URJ6VVYUP9BUCT1SZOT2DFI02L4OC","","","null","","","","","","","","","",""
"446","","image-keyboard-response","151","430232","0.0-151.0","3LS2AMNW5GCK51ETHY08UZC9419QOL","A2ONILC0LZKG6Y","3URJ6VVYUP9BUCT1SZOT2DFI02L4OC","","img/set1/S2.jpg","68","2","structured_load","68","structured_load,random,structured_normal,structured_incentive","4,2,1,2,2,3","2,1,3,4","true","","",""
"null","","html-keyboard-response","152","430595","0.0-152.0","3LS2AMNW5GCK51ETHY08UZC9419QOL","A2ONILC0LZKG6Y","3URJ6VVYUP9BUCT1SZOT2DFI02L4OC","","<img src=""img/set1/S2.jpg"" width=""540"" height = ""360"" style=""border:16px solid orange"">","null","","","","","","","","","",""
"null","","html-keyboard-response","153","430799","0.0-153.0","3LS2AMNW5GCK51ETHY08UZC9419QOL","A2ONILC0LZKG6Y","3URJ6VVYUP9BUCT1SZOT2DFI02L4OC","","","null","","","","","","","","","",""
"681","","image-keyboard-response","154","431481","0.0-154.0","3LS2AMNW5GCK51ETHY08UZC9419QOL","A2ONILC0LZKG6Y","3URJ6VVYUP9BUCT1SZOT2DFI02L4OC","","img/set1/S4.jpg","74","4","structured_load","74","structured_load,random,structured_normal,structured_incentive","4,2,1,2,2,3","2,1,3,4","true","","",""
"null","","html-keyboard-response","155","431838","0.0-155.0","3LS2AMNW5GCK51ETHY08UZC9419QOL","A2ONILC0LZKG6Y","3URJ6VVYUP9BUCT1SZOT2DFI02L4OC","","<img src=""img/set1/S4.jpg"" width=""540"" height = ""360"" style=""border:16px solid orange"">","null","","","","","","","","","",""
"null","","html-keyboard-response","156","432055","0.0-156.0","3LS2AMNW5GCK51ETHY08UZC9419QOL","A2ONILC0LZKG6Y","3URJ6VVYUP9BUCT1SZOT2DFI02L4OC","","","null","","","","","","","","","",""
"null","","image-keyboard-response","157","434571","0.0-157.0","3LS2AMNW5GCK51ETHY08UZC9419QOL","A2ONILC0LZKG6Y","3URJ6VVYUP9BUCT1SZOT2DFI02L4OC","","img/set1/S3.jpg","null","3","structured_load","72","structured_load,random,structured_normal,structured_incentive","4,2,1,2,2,3","2,1,3,4","false","","",""
"null","","html-keyboard-response","158","434934","0.0-158.0","3LS2AMNW5GCK51ETHY08UZC9419QOL","A2ONILC0LZKG6Y","3URJ6VVYUP9BUCT1SZOT2DFI02L4OC","","<img src=""img/set1/S3.jpg"" width=""540"" height = ""360"">","null","","","","","","","","","",""
"null","","html-keyboard-response","159","435140","0.0-159.0","3LS2AMNW5GCK51ETHY08UZC9419QOL","A2ONILC0LZKG6Y","3URJ6VVYUP9BUCT1SZOT2DFI02L4OC","","","null","","","","","","","","","",""
"864","","image-keyboard-response","160","436005","0.0-160.0","3LS2AMNW5GCK51ETHY08UZC9419QOL","A2ONILC0LZKG6Y","3URJ6VVYUP9BUCT1SZOT2DFI02L4OC","","img/set1/S3.jpg","74","3","structured_load","72","structured_load,random,structured_normal,structured_incentive","4,2,1,2,2,3","2,1,3,4","false","","",""
"null","","html-keyboard-response","161","436358","0.0-161.0","3LS2AMNW5GCK51ETHY08UZC9419QOL","A2ONILC0LZKG6Y","3URJ6VVYUP9BUCT1SZOT2DFI02L4OC","","<img src=""img/set1/S3.jpg"" width=""540"" height = ""360"">","null","","","","","","","","","",""
"null","","html-keyboard-response","162","436574","0.0-162.0","3LS2AMNW5GCK51ETHY08UZC9419QOL","A2ONILC0LZKG6Y","3URJ6VVYUP9BUCT1SZOT2DFI02L4OC","","","null","","","","","","","","","",""
"919","","image-keyboard-response","163","437494","0.0-163.0","3LS2AMNW5GCK51ETHY08UZC9419QOL","A2ONILC0LZKG6Y","3URJ6VVYUP9BUCT1SZOT2DFI02L4OC","","img/set1/S1.jpg","74","1","structured_load","83","structured_load,random,structured_normal,structured_incentive","4,2,1,2,2,3","2,1,3,4","false","","",""
"null","","html-keyboard-response","164","437860","0.0-164.0","3LS2AMNW5GCK51ETHY08UZC9419QOL","A2ONILC0LZKG6Y","3URJ6VVYUP9BUCT1SZOT2DFI02L4OC","","<img src=""img/set1/S1.jpg"" width=""540"" height = ""360"">","null","","","","","","","","","",""
"null","","html-keyboard-response","165","438063","0.0-165.0","3LS2AMNW5GCK51ETHY08UZC9419QOL","A2ONILC0LZKG6Y","3URJ6VVYUP9BUCT1SZOT2DFI02L4OC","","","null","","","","","","","","","",""
"848","","image-keyboard-response","166","438914","0.0-166.0","3LS2AMNW5GCK51ETHY08UZC9419QOL","A2ONILC0LZKG6Y","3URJ6VVYUP9BUCT1SZOT2DFI02L4OC","","img/set1/S4.jpg","74","4","structured_load","74","structured_load,random,structured_normal,structured_incentive","4,2,1,2,2,3","2,1,3,4","true","","",""
"null","","html-keyboard-response","167","439265","0.0-167.0","3LS2AMNW5GCK51ETHY08UZC9419QOL","A2ONILC0LZKG6Y","3URJ6VVYUP9BUCT1SZOT2DFI02L4OC","","<img src=""img/set1/S4.jpg"" width=""540"" height = ""360"" style=""border:16px solid orange"">","null","","","","","","","","","",""
"null","","html-keyboard-response","168","439467","0.0-168.0","3LS2AMNW5GCK51ETHY08UZC9419QOL","A2ONILC0LZKG6Y","3URJ6VVYUP9BUCT1SZOT2DFI02L4OC","","","null","","","","","","","","","",""
"562","","image-keyboard-response","169","440030","0.0-169.0","3LS2AMNW5GCK51ETHY08UZC9419QOL","A2ONILC0LZKG6Y","3URJ6VVYUP9BUCT1SZOT2DFI02L4OC","","img/set1/S2.jpg","68","2","structured_load","68","structured_load,random,structured_normal,structured_incentive","4,2,1,2,2,3","2,1,3,4","true","","",""
"null","","html-keyboard-response","170","440383","0.0-170.0","3LS2AMNW5GCK51ETHY08UZC9419QOL","A2ONILC0LZKG6Y","3URJ6VVYUP9BUCT1SZOT2DFI02L4OC","","<img src=""img/set1/S2.jpg"" width=""540"" height = ""360"" style=""border:16px solid orange"">","null","","","","","","","","","",""
"null","","html-keyboard-response","171","440588","0.0-171.0","3LS2AMNW5GCK51ETHY08UZC9419QOL","A2ONILC0LZKG6Y","3URJ6VVYUP9BUCT1SZOT2DFI02L4OC","","","null","","","","","","","","","",""
"526","","image-keyboard-response","172","441115","0.0-172.0","3LS2AMNW5GCK51ETHY08UZC9419QOL","A2ONILC0LZKG6Y","3URJ6VVYUP9BUCT1SZOT2DFI02L4OC","","img/set1/S1.jpg","83","1","structured_load","83","structured_load,random,structured_normal,structured_incentive","4,2,1,2,2,3","2,1,3,4","true","","",""
"null","","html-keyboard-response","173","441477","0.0-173.0","3LS2AMNW5GCK51ETHY08UZC9419QOL","A2ONILC0LZKG6Y","3URJ6VVYUP9BUCT1SZOT2DFI02L4OC","","<img src=""img/set1/S1.jpg"" width=""540"" height = ""360"" style=""border:16px solid orange"">","null","","","","","","","","","",""
"null","","html-keyboard-response","174","441679","0.0-174.0","3LS2AMNW5GCK51ETHY08UZC9419QOL","A2ONILC0LZKG6Y","3URJ6VVYUP9BUCT1SZOT2DFI02L4OC","","","null","","","","","","","","","",""
"407","","image-keyboard-response","175","442088","0.0-175.0","3LS2AMNW5GCK51ETHY08UZC9419QOL","A2ONILC0LZKG6Y","3URJ6VVYUP9BUCT1SZOT2DFI02L4OC","","img/set1/S1.jpg","83","1","structured_load","83","structured_load,random,structured_normal,structured_incentive","4,2,1,2,2,3","2,1,3,4","true","","",""
"null","","html-keyboard-response","176","442445","0.0-176.0","3LS2AMNW5GCK51ETHY08UZC9419QOL","A2ONILC0LZKG6Y","3URJ6VVYUP9BUCT1SZOT2DFI02L4OC","","<img src=""img/set1/S1.jpg"" width=""540"" height = ""360"" style=""border:16px solid orange"">","null","","","","","","","","","",""
"null","","html-keyboard-response","177","442651","0.0-177.0","3LS2AMNW5GCK51ETHY08UZC9419QOL","A2ONILC0LZKG6Y","3URJ6VVYUP9BUCT1SZOT2DFI02L4OC","","","null","","","","","","","","","",""
"903","","image-keyboard-response","178","443555","0.0-178.0","3LS2AMNW5GCK51ETHY08UZC9419QOL","A2ONILC0LZKG6Y","3URJ6VVYUP9BUCT1SZOT2DFI02L4OC","","img/set1/S3.jpg","68","3","structured_load","72","structured_load,random,structured_normal,structured_incentive","4,2,1,2,2,3","2,1,3,4","false","","",""
"null","","html-keyboard-response","179","443920","0.0-179.0","3LS2AMNW5GCK51ETHY08UZC9419QOL","A2ONILC0LZKG6Y","3URJ6VVYUP9BUCT1SZOT2DFI02L4OC","","<img src=""img/set1/S3.jpg"" width=""540"" height = ""360"">","null","","","","","","","","","",""
"null","","html-keyboard-response","180","444122","0.0-180.0","3LS2AMNW5GCK51ETHY08UZC9419QOL","A2ONILC0LZKG6Y","3URJ6VVYUP9BUCT1SZOT2DFI02L4OC","","","null","","","","","","","","","",""
"685","","image-keyboard-response","181","444808","0.0-181.0","3LS2AMNW5GCK51ETHY08UZC9419QOL","A2ONILC0LZKG6Y","3URJ6VVYUP9BUCT1SZOT2DFI02L4OC","","img/set1/S1.jpg","83","1","structured_load","83","structured_load,random,structured_normal,structured_incentive","4,2,1,2,2,3","2,1,3,4","true","","",""
"null","","html-keyboard-response","182","445162","0.0-182.0","3LS2AMNW5GCK51ETHY08UZC9419QOL","A2ONILC0LZKG6Y","3URJ6VVYUP9BUCT1SZOT2DFI02L4OC","","<img src=""img/set1/S1.jpg"" width=""540"" height = ""360"" style=""border:16px solid orange"">","null","","","","","","","","","",""
"null","","html-keyboard-response","183","445365","0.0-183.0","3LS2AMNW5GCK51ETHY08UZC9419QOL","A2ONILC0LZKG6Y","3URJ6VVYUP9BUCT1SZOT2DFI02L4OC","","","null","","","","","","","","","",""
"1260","","image-keyboard-response","184","446626","0.0-184.0","3LS2AMNW5GCK51ETHY08UZC9419QOL","A2ONILC0LZKG6Y","3URJ6VVYUP9BUCT1SZOT2DFI02L4OC","","img/set1/S1.jpg","83","1","structured_load","83","structured_load,random,structured_normal,structured_incentive","4,2,1,2,2,3","2,1,3,4","true","","",""
"null","","html-keyboard-response","185","446984","0.0-185.0","3LS2AMNW5GCK51ETHY08UZC9419QOL","A2ONILC0LZKG6Y","3URJ6VVYUP9BUCT1SZOT2DFI02L4OC","","<img src=""img/set1/S1.jpg"" width=""540"" height = ""360"" style=""border:16px solid orange"">","null","","","","","","","","","",""
"null","","html-keyboard-response","186","447187","0.0-186.0","3LS2AMNW5GCK51ETHY08UZC9419QOL","A2ONILC0LZKG6Y","3URJ6VVYUP9BUCT1SZOT2DFI02L4OC","","","null","","","","","","","","","",""
"465","","image-keyboard-response","187","447654","0.0-187.0","3LS2AMNW5GCK51ETHY08UZC9419QOL","A2ONILC0LZKG6Y","3URJ6VVYUP9BUCT1SZOT2DFI02L4OC","","img/set1/S1.jpg","83","1","structured_load","83","structured_load,random,structured_normal,structured_incentive","4,2,1,2,2,3","2,1,3,4","true","","",""
"null","","html-keyboard-response","188","448008","0.0-188.0","3LS2AMNW5GCK51ETHY08UZC9419QOL","A2ONILC0LZKG6Y","3URJ6VVYUP9BUCT1SZOT2DFI02L4OC","","<img src=""img/set1/S1.jpg"" width=""540"" height = ""360"" style=""border:16px solid orange"">","null","","","","","","","","","",""
"null","","html-keyboard-response","189","448216","0.0-189.0","3LS2AMNW5GCK51ETHY08UZC9419QOL","A2ONILC0LZKG6Y","3URJ6VVYUP9BUCT1SZOT2DFI02L4OC","","","null","","","","","","","","","",""
"680","","image-keyboard-response","190","448896","0.0-190.0","3LS2AMNW5GCK51ETHY08UZC9419QOL","A2ONILC0LZKG6Y","3URJ6VVYUP9BUCT1SZOT2DFI02L4OC","","img/set1/S4.jpg","74","4","structured_load","74","structured_load,random,structured_normal,structured_incentive","4,2,1,2,2,3","2,1,3,4","true","","",""
"null","","html-keyboard-response","191","449249","0.0-191.0","3LS2AMNW5GCK51ETHY08UZC9419QOL","A2ONILC0LZKG6Y","3URJ6VVYUP9BUCT1SZOT2DFI02L4OC","","<img src=""img/set1/S4.jpg"" width=""540"" height = ""360"" style=""border:16px solid orange"">","null","","","","","","","","","",""
"null","","html-keyboard-response","192","449450","0.0-192.0","3LS2AMNW5GCK51ETHY08UZC9419QOL","A2ONILC0LZKG6Y","3URJ6VVYUP9BUCT1SZOT2DFI02L4OC","","","null","","","","","","","","","",""
"676","","image-keyboard-response","193","450128","0.0-193.0","3LS2AMNW5GCK51ETHY08UZC9419QOL","A2ONILC0LZKG6Y","3URJ6VVYUP9BUCT1SZOT2DFI02L4OC","","img/set1/S2.jpg","68","2","structured_load","68","structured_load,random,structured_normal,structured_incentive","4,2,1,2,2,3","2,1,3,4","true","","",""
"null","","html-keyboard-response","194","450483","0.0-194.0","3LS2AMNW5GCK51ETHY08UZC9419QOL","A2ONILC0LZKG6Y","3URJ6VVYUP9BUCT1SZOT2DFI02L4OC","","<img src=""img/set1/S2.jpg"" width=""540"" height = ""360"" style=""border:16px solid orange"">","null","","","","","","","","","",""
"null","","html-keyboard-response","195","450688","0.0-195.0","3LS2AMNW5GCK51ETHY08UZC9419QOL","A2ONILC0LZKG6Y","3URJ6VVYUP9BUCT1SZOT2DFI02L4OC","","","null","","","","","","","","","",""
"674","","image-keyboard-response","196","451363","0.0-196.0","3LS2AMNW5GCK51ETHY08UZC9419QOL","A2ONILC0LZKG6Y","3URJ6VVYUP9BUCT1SZOT2DFI02L4OC","","img/set1/S1.jpg","83","1","structured_load","83","structured_load,random,structured_normal,structured_incentive","4,2,1,2,2,3","2,1,3,4","true","","",""
"null","","html-keyboard-response","197","451716","0.0-197.0","3LS2AMNW5GCK51ETHY08UZC9419QOL","A2ONILC0LZKG6Y","3URJ6VVYUP9BUCT1SZOT2DFI02L4OC","","<img src=""img/set1/S1.jpg"" width=""540"" height = ""360"" style=""border:16px solid orange"">","null","","","","","","","","","",""
"null","","html-keyboard-response","198","451931","0.0-198.0","3LS2AMNW5GCK51ETHY08UZC9419QOL","A2ONILC0LZKG6Y","3URJ6VVYUP9BUCT1SZOT2DFI02L4OC","","","null","","","","","","","","","",""
"1049","","image-keyboard-response","199","452982","0.0-199.0","3LS2AMNW5GCK51ETHY08UZC9419QOL","A2ONILC0LZKG6Y","3URJ6VVYUP9BUCT1SZOT2DFI02L4OC","","img/set1/S3.jpg","68","3","structured_load","72","structured_load,random,structured_normal,structured_incentive","4,2,1,2,2,3","2,1,3,4","false","","",""
"null","","html-keyboard-response","200","453348","0.0-200.0","3LS2AMNW5GCK51ETHY08UZC9419QOL","A2ONILC0LZKG6Y","3URJ6VVYUP9BUCT1SZOT2DFI02L4OC","","<img src=""img/set1/S3.jpg"" width=""540"" height = ""360"">","null","","","","","","","","","",""
"null","","html-keyboard-response","201","453564","0.0-201.0","3LS2AMNW5GCK51ETHY08UZC9419QOL","A2ONILC0LZKG6Y","3URJ6VVYUP9BUCT1SZOT2DFI02L4OC","","","null","","","","","","","","","",""
"829","","image-keyboard-response","202","454395","0.0-202.0","3LS2AMNW5GCK51ETHY08UZC9419QOL","A2ONILC0LZKG6Y","3URJ6VVYUP9BUCT1SZOT2DFI02L4OC","","img/set1/S3.jpg","74","3","structured_load","72","structured_load,random,structured_normal,structured_incentive","4,2,1,2,2,3","2,1,3,4","false","","",""
"null","","html-keyboard-response","203","454763","0.0-203.0","3LS2AMNW5GCK51ETHY08UZC9419QOL","A2ONILC0LZKG6Y","3URJ6VVYUP9BUCT1SZOT2DFI02L4OC","","<img src=""img/set1/S3.jpg"" width=""540"" height = ""360"">","null","","","","","","","","","",""
"null","","html-keyboard-response","204","454968","0.0-204.0","3LS2AMNW5GCK51ETHY08UZC9419QOL","A2ONILC0LZKG6Y","3URJ6VVYUP9BUCT1SZOT2DFI02L4OC","","","null","","","","","","","","","",""
"742","","image-keyboard-response","205","455710","0.0-205.0","3LS2AMNW5GCK51ETHY08UZC9419QOL","A2ONILC0LZKG6Y","3URJ6VVYUP9BUCT1SZOT2DFI02L4OC","","img/set1/S1.jpg","83","1","structured_load","83","structured_load,random,structured_normal,structured_incentive","4,2,1,2,2,3","2,1,3,4","true","","",""
"null","","html-keyboard-response","206","456063","0.0-206.0","3LS2AMNW5GCK51ETHY08UZC9419QOL","A2ONILC0LZKG6Y","3URJ6VVYUP9BUCT1SZOT2DFI02L4OC","","<img src=""img/set1/S1.jpg"" width=""540"" height = ""360"" style=""border:16px solid orange"">","null","","","","","","","","","",""
"null","","html-keyboard-response","207","456265","0.0-207.0","3LS2AMNW5GCK51ETHY08UZC9419QOL","A2ONILC0LZKG6Y","3URJ6VVYUP9BUCT1SZOT2DFI02L4OC","","","null","","","","","","","","","",""
"571","","image-keyboard-response","208","456837","0.0-208.0","3LS2AMNW5GCK51ETHY08UZC9419QOL","A2ONILC0LZKG6Y","3URJ6VVYUP9BUCT1SZOT2DFI02L4OC","","img/set1/S4.jpg","74","4","structured_load","74","structured_load,random,structured_normal,structured_incentive","4,2,1,2,2,3","2,1,3,4","true","","",""
"null","","html-keyboard-response","209","457199","0.0-209.0","3LS2AMNW5GCK51ETHY08UZC9419QOL","A2ONILC0LZKG6Y","3URJ6VVYUP9BUCT1SZOT2DFI02L4OC","","<img src=""img/set1/S4.jpg"" width=""540"" height = ""360"" style=""border:16px solid orange"">","null","","","","","","","","","",""
"null","","html-keyboard-response","210","457416","0.0-210.0","3LS2AMNW5GCK51ETHY08UZC9419QOL","A2ONILC0LZKG6Y","3URJ6VVYUP9BUCT1SZOT2DFI02L4OC","","","null","","","","","","","","","",""
"913","","image-keyboard-response","211","458330","0.0-211.0","3LS2AMNW5GCK51ETHY08UZC9419QOL","A2ONILC0LZKG6Y","3URJ6VVYUP9BUCT1SZOT2DFI02L4OC","","img/set1/S2.jpg","68","2","structured_load","68","structured_load,random,structured_normal,structured_incentive","4,2,1,2,2,3","2,1,3,4","true","","",""
"null","","html-keyboard-response","212","458694","0.0-212.0","3LS2AMNW5GCK51ETHY08UZC9419QOL","A2ONILC0LZKG6Y","3URJ6VVYUP9BUCT1SZOT2DFI02L4OC","","<img src=""img/set1/S2.jpg"" width=""540"" height = ""360"" style=""border:16px solid orange"">","null","","","","","","","","","",""
"null","","html-keyboard-response","213","458898","0.0-213.0","3LS2AMNW5GCK51ETHY08UZC9419QOL","A2ONILC0LZKG6Y","3URJ6VVYUP9BUCT1SZOT2DFI02L4OC","","","null","","","","","","","","","",""
"736","","image-keyboard-response","214","459635","0.0-214.0","3LS2AMNW5GCK51ETHY08UZC9419QOL","A2ONILC0LZKG6Y","3URJ6VVYUP9BUCT1SZOT2DFI02L4OC","","img/set1/S1.jpg","83","1","structured_load","83","structured_load,random,structured_normal,structured_incentive","4,2,1,2,2,3","2,1,3,4","true","","",""
"null","","html-keyboard-response","215","459987","0.0-215.0","3LS2AMNW5GCK51ETHY08UZC9419QOL","A2ONILC0LZKG6Y","3URJ6VVYUP9BUCT1SZOT2DFI02L4OC","","<img src=""img/set1/S1.jpg"" width=""540"" height = ""360"" style=""border:16px solid orange"">","null","","","","","","","","","",""
"null","","html-keyboard-response","216","460195","0.0-216.0","3LS2AMNW5GCK51ETHY08UZC9419QOL","A2ONILC0LZKG6Y","3URJ6VVYUP9BUCT1SZOT2DFI02L4OC","","","null","","","","","","","","","",""
"666","","image-keyboard-response","217","460864","0.0-217.0","3LS2AMNW5GCK51ETHY08UZC9419QOL","A2ONILC0LZKG6Y","3URJ6VVYUP9BUCT1SZOT2DFI02L4OC","","img/set1/S4.jpg","74","4","structured_load","74","structured_load,random,structured_normal,structured_incentive","4,2,1,2,2,3","2,1,3,4","true","","",""
"null","","html-keyboard-response","218","461224","0.0-218.0","3LS2AMNW5GCK51ETHY08UZC9419QOL","A2ONILC0LZKG6Y","3URJ6VVYUP9BUCT1SZOT2DFI02L4OC","","<img src=""img/set1/S4.jpg"" width=""540"" height = ""360"" style=""border:16px solid orange"">","null","","","","","","","","","",""
"null","","html-keyboard-response","219","461440","0.0-219.0","3LS2AMNW5GCK51ETHY08UZC9419QOL","A2ONILC0LZKG6Y","3URJ6VVYUP9BUCT1SZOT2DFI02L4OC","","","null","","","","","","","","","",""
"725","","image-keyboard-response","220","462167","0.0-220.0","3LS2AMNW5GCK51ETHY08UZC9419QOL","A2ONILC0LZKG6Y","3URJ6VVYUP9BUCT1SZOT2DFI02L4OC","","img/set1/S2.jpg","68","2","structured_load","68","structured_load,random,structured_normal,structured_incentive","4,2,1,2,2,3","2,1,3,4","true","","",""
"null","","html-keyboard-response","221","462531","0.0-221.0","3LS2AMNW5GCK51ETHY08UZC9419QOL","A2ONILC0LZKG6Y","3URJ6VVYUP9BUCT1SZOT2DFI02L4OC","","<img src=""img/set1/S2.jpg"" width=""540"" height = ""360"" style=""border:16px solid orange"">","null","","","","","","","","","",""
"null","","html-keyboard-response","222","462734","0.0-222.0","3LS2AMNW5GCK51ETHY08UZC9419QOL","A2ONILC0LZKG6Y","3URJ6VVYUP9BUCT1SZOT2DFI02L4OC","","","null","","","","","","","","","",""
"528","","image-keyboard-response","223","463262","0.0-223.0","3LS2AMNW5GCK51ETHY08UZC9419QOL","A2ONILC0LZKG6Y","3URJ6VVYUP9BUCT1SZOT2DFI02L4OC","","img/set1/S4.jpg","74","4","structured_load","74","structured_load,random,structured_normal,structured_incentive","4,2,1,2,2,3","2,1,3,4","true","","",""
"null","","html-keyboard-response","224","463619","0.0-224.0","3LS2AMNW5GCK51ETHY08UZC9419QOL","A2ONILC0LZKG6Y","3URJ6VVYUP9BUCT1SZOT2DFI02L4OC","","<img src=""img/set1/S4.jpg"" width=""540"" height = ""360"" style=""border:16px solid orange"">","null","","","","","","","","","",""
"null","","html-keyboard-response","225","463822","0.0-225.0","3LS2AMNW5GCK51ETHY08UZC9419QOL","A2ONILC0LZKG6Y","3URJ6VVYUP9BUCT1SZOT2DFI02L4OC","","","null","","","","","","","","","",""
"null","","image-keyboard-response","226","466333","0.0-226.0","3LS2AMNW5GCK51ETHY08UZC9419QOL","A2ONILC0LZKG6Y","3URJ6VVYUP9BUCT1SZOT2DFI02L4OC","","img/set1/S3.jpg","null","3","structured_load","72","structured_load,random,structured_normal,structured_incentive","4,2,1,2,2,3","2,1,3,4","false","","",""
"null","","html-keyboard-response","227","466687","0.0-227.0","3LS2AMNW5GCK51ETHY08UZC9419QOL","A2ONILC0LZKG6Y","3URJ6VVYUP9BUCT1SZOT2DFI02L4OC","","<img src=""img/set1/S3.jpg"" width=""540"" height = ""360"">","null","","","","","","","","","",""
"null","","html-keyboard-response","228","466890","0.0-228.0","3LS2AMNW5GCK51ETHY08UZC9419QOL","A2ONILC0LZKG6Y","3URJ6VVYUP9BUCT1SZOT2DFI02L4OC","","","null","","","","","","","","","",""
"842","","image-keyboard-response","229","467734","0.0-229.0","3LS2AMNW5GCK51ETHY08UZC9419QOL","A2ONILC0LZKG6Y","3URJ6VVYUP9BUCT1SZOT2DFI02L4OC","","img/set1/S2.jpg","68","2","structured_load","68","structured_load,random,structured_normal,structured_incentive","4,2,1,2,2,3","2,1,3,4","true","","",""
"null","","html-keyboard-response","230","468099","0.0-230.0","3LS2AMNW5GCK51ETHY08UZC9419QOL","A2ONILC0LZKG6Y","3URJ6VVYUP9BUCT1SZOT2DFI02L4OC","","<img src=""img/set1/S2.jpg"" width=""540"" height = ""360"" style=""border:16px solid orange"">","null","","","","","","","","","",""
"null","","html-keyboard-response","231","468304","0.0-231.0","3LS2AMNW5GCK51ETHY08UZC9419QOL","A2ONILC0LZKG6Y","3URJ6VVYUP9BUCT1SZOT2DFI02L4OC","","","null","","","","","","","","","",""
"787","","image-keyboard-response","232","469092","0.0-232.0","3LS2AMNW5GCK51ETHY08UZC9419QOL","A2ONILC0LZKG6Y","3URJ6VVYUP9BUCT1SZOT2DFI02L4OC","","img/set1/S3.jpg","83","3","structured_load","72","structured_load,random,structured_normal,structured_incentive","4,2,1,2,2,3","2,1,3,4","false","","",""
"null","","html-keyboard-response","233","469451","0.0-233.0","3LS2AMNW5GCK51ETHY08UZC9419QOL","A2ONILC0LZKG6Y","3URJ6VVYUP9BUCT1SZOT2DFI02L4OC","","<img src=""img/set1/S3.jpg"" width=""540"" height = ""360"">","null","","","","","","","","","",""
"null","","html-keyboard-response","234","469668","0.0-234.0","3LS2AMNW5GCK51ETHY08UZC9419QOL","A2ONILC0LZKG6Y","3URJ6VVYUP9BUCT1SZOT2DFI02L4OC","","","null","","","","","","","","","",""
"507","","image-keyboard-response","235","470176","0.0-235.0","3LS2AMNW5GCK51ETHY08UZC9419QOL","A2ONILC0LZKG6Y","3URJ6VVYUP9BUCT1SZOT2DFI02L4OC","","img/set1/S4.jpg","74","4","structured_load","74","structured_load,random,structured_normal,structured_incentive","4,2,1,2,2,3","2,1,3,4","true","","",""
"null","","html-keyboard-response","236","470528","0.0-236.0","3LS2AMNW5GCK51ETHY08UZC9419QOL","A2ONILC0LZKG6Y","3URJ6VVYUP9BUCT1SZOT2DFI02L4OC","","<img src=""img/set1/S4.jpg"" width=""540"" height = ""360"" style=""border:16px solid orange"">","null","","","","","","","","","",""
"null","","html-keyboard-response","237","470735","0.0-237.0","3LS2AMNW5GCK51ETHY08UZC9419QOL","A2ONILC0LZKG6Y","3URJ6VVYUP9BUCT1SZOT2DFI02L4OC","","","null","","","","","","","","","",""
"636","","image-keyboard-response","238","471374","0.0-238.0","3LS2AMNW5GCK51ETHY08UZC9419QOL","A2ONILC0LZKG6Y","3URJ6VVYUP9BUCT1SZOT2DFI02L4OC","","img/set1/S2.jpg","68","2","structured_load","68","structured_load,random,structured_normal,structured_incentive","4,2,1,2,2,3","2,1,3,4","true","","",""
"null","","html-keyboard-response","239","471731","0.0-239.0","3LS2AMNW5GCK51ETHY08UZC9419QOL","A2ONILC0LZKG6Y","3URJ6VVYUP9BUCT1SZOT2DFI02L4OC","","<img src=""img/set1/S2.jpg"" width=""540"" height = ""360"" style=""border:16px solid orange"">","null","","","","","","","","","",""
"null","","html-keyboard-response","240","471934","0.0-240.0","3LS2AMNW5GCK51ETHY08UZC9419QOL","A2ONILC0LZKG6Y","3URJ6VVYUP9BUCT1SZOT2DFI02L4OC","","","null","","","","","","","","","",""
"729","","image-keyboard-response","241","472664","0.0-241.0","3LS2AMNW5GCK51ETHY08UZC9419QOL","A2ONILC0LZKG6Y","3URJ6VVYUP9BUCT1SZOT2DFI02L4OC","","img/set1/S1.jpg","83","1","structured_load","83","structured_load,random,structured_normal,structured_incentive","4,2,1,2,2,3","2,1,3,4","true","","",""
"null","","html-keyboard-response","242","473027","0.0-242.0","3LS2AMNW5GCK51ETHY08UZC9419QOL","A2ONILC0LZKG6Y","3URJ6VVYUP9BUCT1SZOT2DFI02L4OC","","<img src=""img/set1/S1.jpg"" width=""540"" height = ""360"" style=""border:16px solid orange"">","null","","","","","","","","","",""
"null","","html-keyboard-response","243","473232","0.0-243.0","3LS2AMNW5GCK51ETHY08UZC9419QOL","A2ONILC0LZKG6Y","3URJ6VVYUP9BUCT1SZOT2DFI02L4OC","","","null","","","","","","","","","",""
"647","","image-keyboard-response","244","473880","0.0-244.0","3LS2AMNW5GCK51ETHY08UZC9419QOL","A2ONILC0LZKG6Y","3URJ6VVYUP9BUCT1SZOT2DFI02L4OC","","img/set1/S4.jpg","74","4","structured_load","74","structured_load,random,structured_normal,structured_incentive","4,2,1,2,2,3","2,1,3,4","true","","",""
"null","","html-keyboard-response","245","474234","0.0-245.0","3LS2AMNW5GCK51ETHY08UZC9419QOL","A2ONILC0LZKG6Y","3URJ6VVYUP9BUCT1SZOT2DFI02L4OC","","<img src=""img/set1/S4.jpg"" width=""540"" height = ""360"" style=""border:16px solid orange"">","null","","","","","","","","","",""
"null","","html-keyboard-response","246","474437","0.0-246.0","3LS2AMNW5GCK51ETHY08UZC9419QOL","A2ONILC0LZKG6Y","3URJ6VVYUP9BUCT1SZOT2DFI02L4OC","","","null","","","","","","","","","",""
"614","","image-keyboard-response","247","475053","0.0-247.0","3LS2AMNW5GCK51ETHY08UZC9419QOL","A2ONILC0LZKG6Y","3URJ6VVYUP9BUCT1SZOT2DFI02L4OC","","img/set1/S2.jpg","68","2","structured_load","68","structured_load,random,structured_normal,structured_incentive","4,2,1,2,2,3","2,1,3,4","true","","",""
"null","","html-keyboard-response","248","475408","0.0-248.0","3LS2AMNW5GCK51ETHY08UZC9419QOL","A2ONILC0LZKG6Y","3URJ6VVYUP9BUCT1SZOT2DFI02L4OC","","<img src=""img/set1/S2.jpg"" width=""540"" height = ""360"" style=""border:16px solid orange"">","null","","","","","","","","","",""
"null","","html-keyboard-response","249","475614","0.0-249.0","3LS2AMNW5GCK51ETHY08UZC9419QOL","A2ONILC0LZKG6Y","3URJ6VVYUP9BUCT1SZOT2DFI02L4OC","","","null","","","","","","","","","",""
"639","","image-keyboard-response","250","476254","0.0-250.0","3LS2AMNW5GCK51ETHY08UZC9419QOL","A2ONILC0LZKG6Y","3URJ6VVYUP9BUCT1SZOT2DFI02L4OC","","img/set1/S1.jpg","83","1","structured_load","83","structured_load,random,structured_normal,structured_incentive","4,2,1,2,2,3","2,1,3,4","true","","",""
"null","","html-keyboard-response","251","476609","0.0-251.0","3LS2AMNW5GCK51ETHY08UZC9419QOL","A2ONILC0LZKG6Y","3URJ6VVYUP9BUCT1SZOT2DFI02L4OC","","<img src=""img/set1/S1.jpg"" width=""540"" height = ""360"" style=""border:16px solid orange"">","null","","","","","","","","","",""
"null","","html-keyboard-response","252","476813","0.0-252.0","3LS2AMNW5GCK51ETHY08UZC9419QOL","A2ONILC0LZKG6Y","3URJ6VVYUP9BUCT1SZOT2DFI02L4OC","","","null","","","","","","","","","",""
"569","","image-keyboard-response","253","477384","0.0-253.0","3LS2AMNW5GCK51ETHY08UZC9419QOL","A2ONILC0LZKG6Y","3URJ6VVYUP9BUCT1SZOT2DFI02L4OC","","img/set1/S4.jpg","74","4","structured_load","74","structured_load,random,structured_normal,structured_incentive","4,2,1,2,2,3","2,1,3,4","true","","",""
"null","","html-keyboard-response","254","477743","0.0-254.0","3LS2AMNW5GCK51ETHY08UZC9419QOL","A2ONILC0LZKG6Y","3URJ6VVYUP9BUCT1SZOT2DFI02L4OC","","<img src=""img/set1/S4.jpg"" width=""540"" height = ""360"" style=""border:16px solid orange"">","null","","","","","","","","","",""
"null","","html-keyboard-response","255","477949","0.0-255.0","3LS2AMNW5GCK51ETHY08UZC9419QOL","A2ONILC0LZKG6Y","3URJ6VVYUP9BUCT1SZOT2DFI02L4OC","","","null","","","","","","","","","",""
"835","","image-keyboard-response","256","478784","0.0-256.0","3LS2AMNW5GCK51ETHY08UZC9419QOL","A2ONILC0LZKG6Y","3URJ6VVYUP9BUCT1SZOT2DFI02L4OC","","img/set1/S3.jpg","74","3","structured_load","72","structured_load,random,structured_normal,structured_incentive","4,2,1,2,2,3","2,1,3,4","false","","",""
"null","","html-keyboard-response","257","479140","0.0-257.0","3LS2AMNW5GCK51ETHY08UZC9419QOL","A2ONILC0LZKG6Y","3URJ6VVYUP9BUCT1SZOT2DFI02L4OC","","<img src=""img/set1/S3.jpg"" width=""540"" height = ""360"">","null","","","","","","","","","",""
"null","","html-keyboard-response","258","479343","0.0-258.0","3LS2AMNW5GCK51ETHY08UZC9419QOL","A2ONILC0LZKG6Y","3URJ6VVYUP9BUCT1SZOT2DFI02L4OC","","","null","","","","","","","","","",""
"718","","image-keyboard-response","259","480061","0.0-259.0","3LS2AMNW5GCK51ETHY08UZC9419QOL","A2ONILC0LZKG6Y","3URJ6VVYUP9BUCT1SZOT2DFI02L4OC","","img/set1/S3.jpg","68","3","structured_load","72","structured_load,random,structured_normal,structured_incentive","4,2,1,2,2,3","2,1,3,4","false","","",""
"null","","html-keyboard-response","260","480414","0.0-260.0","3LS2AMNW5GCK51ETHY08UZC9419QOL","A2ONILC0LZKG6Y","3URJ6VVYUP9BUCT1SZOT2DFI02L4OC","","<img src=""img/set1/S3.jpg"" width=""540"" height = ""360"">","null","","","","","","","","","",""
"null","","html-keyboard-response","261","480618","0.0-261.0","3LS2AMNW5GCK51ETHY08UZC9419QOL","A2ONILC0LZKG6Y","3URJ6VVYUP9BUCT1SZOT2DFI02L4OC","","","null","","","","","","","","","",""
"577","","image-keyboard-response","262","481197","0.0-262.0","3LS2AMNW5GCK51ETHY08UZC9419QOL","A2ONILC0LZKG6Y","3URJ6VVYUP9BUCT1SZOT2DFI02L4OC","","img/set1/S3.jpg","83","3","structured_load","72","structured_load,random,structured_normal,structured_incentive","4,2,1,2,2,3","2,1,3,4","false","","",""
"null","","html-keyboard-response","263","481552","0.0-263.0","3LS2AMNW5GCK51ETHY08UZC9419QOL","A2ONILC0LZKG6Y","3URJ6VVYUP9BUCT1SZOT2DFI02L4OC","","<img src=""img/set1/S3.jpg"" width=""540"" height = ""360"">","null","","","","","","","","","",""
"null","","html-keyboard-response","264","481756","0.0-264.0","3LS2AMNW5GCK51ETHY08UZC9419QOL","A2ONILC0LZKG6Y","3URJ6VVYUP9BUCT1SZOT2DFI02L4OC","","","null","","","","","","","","","",""
"null","","image-keyboard-response","265","484260","0.0-265.0","3LS2AMNW5GCK51ETHY08UZC9419QOL","A2ONILC0LZKG6Y","3URJ6VVYUP9BUCT1SZOT2DFI02L4OC","","img/set1/S3.jpg","null","3","structured_load","72","structured_load,random,structured_normal,structured_incentive","4,2,1,2,2,3","2,1,3,4","false","","",""
"null","","html-keyboard-response","266","484614","0.0-266.0","3LS2AMNW5GCK51ETHY08UZC9419QOL","A2ONILC0LZKG6Y","3URJ6VVYUP9BUCT1SZOT2DFI02L4OC","","<img src=""img/set1/S3.jpg"" width=""540"" height = ""360"">","null","","","","","","","","","",""
"null","","html-keyboard-response","267","484819","0.0-267.0","3LS2AMNW5GCK51ETHY08UZC9419QOL","A2ONILC0LZKG6Y","3URJ6VVYUP9BUCT1SZOT2DFI02L4OC","","","null","","","","","","","","","",""
"914","","image-keyboard-response","268","485734","0.0-268.0","3LS2AMNW5GCK51ETHY08UZC9419QOL","A2ONILC0LZKG6Y","3URJ6VVYUP9BUCT1SZOT2DFI02L4OC","","img/set1/S1.jpg","68","1","structured_load","83","structured_load,random,structured_normal,structured_incentive","4,2,1,2,2,3","2,1,3,4","false","","",""
"null","","html-keyboard-response","269","486093","0.0-269.0","3LS2AMNW5GCK51ETHY08UZC9419QOL","A2ONILC0LZKG6Y","3URJ6VVYUP9BUCT1SZOT2DFI02L4OC","","<img src=""img/set1/S1.jpg"" width=""540"" height = ""360"">","null","","","","","","","","","",""
"null","","html-keyboard-response","270","486294","0.0-270.0","3LS2AMNW5GCK51ETHY08UZC9419QOL","A2ONILC0LZKG6Y","3URJ6VVYUP9BUCT1SZOT2DFI02L4OC","","","null","","","","","","","","","",""
"1729","","image-keyboard-response","271","488024","0.0-271.0","3LS2AMNW5GCK51ETHY08UZC9419QOL","A2ONILC0LZKG6Y","3URJ6VVYUP9BUCT1SZOT2DFI02L4OC","","img/set1/S4.jpg","74","4","structured_load","74","structured_load,random,structured_normal,structured_incentive","4,2,1,2,2,3","2,1,3,4","true","","",""
"null","","html-keyboard-response","272","488390","0.0-272.0","3LS2AMNW5GCK51ETHY08UZC9419QOL","A2ONILC0LZKG6Y","3URJ6VVYUP9BUCT1SZOT2DFI02L4OC","","<img src=""img/set1/S4.jpg"" width=""540"" height = ""360"" style=""border:16px solid orange"">","null","","","","","","","","","",""
"null","","html-keyboard-response","273","488591","0.0-273.0","3LS2AMNW5GCK51ETHY08UZC9419QOL","A2ONILC0LZKG6Y","3URJ6VVYUP9BUCT1SZOT2DFI02L4OC","","","null","","","","","","","","","",""
"749","","image-keyboard-response","274","489343","0.0-274.0","3LS2AMNW5GCK51ETHY08UZC9419QOL","A2ONILC0LZKG6Y","3URJ6VVYUP9BUCT1SZOT2DFI02L4OC","","img/set1/S3.jpg","72","3","structured_load","72","structured_load,random,structured_normal,structured_incentive","4,2,1,2,2,3","2,1,3,4","true","","",""
"null","","html-keyboard-response","275","489708","0.0-275.0","3LS2AMNW5GCK51ETHY08UZC9419QOL","A2ONILC0LZKG6Y","3URJ6VVYUP9BUCT1SZOT2DFI02L4OC","","<img src=""img/set1/S3.jpg"" width=""540"" height = ""360"" style=""border:16px solid orange"">","null","","","","","","","","","",""
"null","","html-keyboard-response","276","489924","0.0-276.0","3LS2AMNW5GCK51ETHY08UZC9419QOL","A2ONILC0LZKG6Y","3URJ6VVYUP9BUCT1SZOT2DFI02L4OC","","","null","","","","","","","","","",""
"690","","image-keyboard-response","277","490616","0.0-277.0","3LS2AMNW5GCK51ETHY08UZC9419QOL","A2ONILC0LZKG6Y","3URJ6VVYUP9BUCT1SZOT2DFI02L4OC","","img/set1/S1.jpg","83","1","structured_load","83","structured_load,random,structured_normal,structured_incentive","4,2,1,2,2,3","2,1,3,4","true","","",""
"null","","html-keyboard-response","278","490977","0.0-278.0","3LS2AMNW5GCK51ETHY08UZC9419QOL","A2ONILC0LZKG6Y","3URJ6VVYUP9BUCT1SZOT2DFI02L4OC","","<img src=""img/set1/S1.jpg"" width=""540"" height = ""360"" style=""border:16px solid orange"">","null","","","","","","","","","",""
"null","","html-keyboard-response","279","491180","0.0-279.0","3LS2AMNW5GCK51ETHY08UZC9419QOL","A2ONILC0LZKG6Y","3URJ6VVYUP9BUCT1SZOT2DFI02L4OC","","","null","","","","","","","","","",""
"507","","image-keyboard-response","280","491689","0.0-280.0","3LS2AMNW5GCK51ETHY08UZC9419QOL","A2ONILC0LZKG6Y","3URJ6VVYUP9BUCT1SZOT2DFI02L4OC","","img/set1/S1.jpg","83","1","structured_load","83","structured_load,random,structured_normal,structured_incentive","4,2,1,2,2,3","2,1,3,4","true","","",""
"null","","html-keyboard-response","281","492048","0.0-281.0","3LS2AMNW5GCK51ETHY08UZC9419QOL","A2ONILC0LZKG6Y","3URJ6VVYUP9BUCT1SZOT2DFI02L4OC","","<img src=""img/set1/S1.jpg"" width=""540"" height = ""360"" style=""border:16px solid orange"">","null","","","","","","","","","",""
"null","","html-keyboard-response","282","492252","0.0-282.0","3LS2AMNW5GCK51ETHY08UZC9419QOL","A2ONILC0LZKG6Y","3URJ6VVYUP9BUCT1SZOT2DFI02L4OC","","","null","","","","","","","","","",""
"573","","image-keyboard-response","283","492828","0.0-283.0","3LS2AMNW5GCK51ETHY08UZC9419QOL","A2ONILC0LZKG6Y","3URJ6VVYUP9BUCT1SZOT2DFI02L4OC","","img/set1/S4.jpg","72","4","structured_load","74","structured_load,random,structured_normal,structured_incentive","4,2,1,2,2,3","2,1,3,4","false","","",""
"null","","html-keyboard-response","284","493190","0.0-284.0","3LS2AMNW5GCK51ETHY08UZC9419QOL","A2ONILC0LZKG6Y","3URJ6VVYUP9BUCT1SZOT2DFI02L4OC","","<img src=""img/set1/S4.jpg"" width=""540"" height = ""360"">","null","","","","","","","","","",""
"null","","html-keyboard-response","285","493406","0.0-285.0","3LS2AMNW5GCK51ETHY08UZC9419QOL","A2ONILC0LZKG6Y","3URJ6VVYUP9BUCT1SZOT2DFI02L4OC","","","null","","","","","","","","","",""
"635","","image-keyboard-response","286","494042","0.0-286.0","3LS2AMNW5GCK51ETHY08UZC9419QOL","A2ONILC0LZKG6Y","3URJ6VVYUP9BUCT1SZOT2DFI02L4OC","","img/set1/S2.jpg","68","2","structured_load","68","structured_load,random,structured_normal,structured_incentive","4,2,1,2,2,3","2,1,3,4","true","","",""
"null","","html-keyboard-response","287","494398","0.0-287.0","3LS2AMNW5GCK51ETHY08UZC9419QOL","A2ONILC0LZKG6Y","3URJ6VVYUP9BUCT1SZOT2DFI02L4OC","","<img src=""img/set1/S2.jpg"" width=""540"" height = ""360"" style=""border:16px solid orange"">","null","","","","","","","","","",""
"null","","html-keyboard-response","288","494601","0.0-288.0","3LS2AMNW5GCK51ETHY08UZC9419QOL","A2ONILC0LZKG6Y","3URJ6VVYUP9BUCT1SZOT2DFI02L4OC","","","null","","","","","","","","","",""
"489","","image-keyboard-response","289","495090","0.0-289.0","3LS2AMNW5GCK51ETHY08UZC9419QOL","A2ONILC0LZKG6Y","3URJ6VVYUP9BUCT1SZOT2DFI02L4OC","","img/set1/S3.jpg","74","3","structured_load","72","structured_load,random,structured_normal,structured_incentive","4,2,1,2,2,3","2,1,3,4","false","","",""
"null","","html-keyboard-response","290","495457","0.0-290.0","3LS2AMNW5GCK51ETHY08UZC9419QOL","A2ONILC0LZKG6Y","3URJ6VVYUP9BUCT1SZOT2DFI02L4OC","","<img src=""img/set1/S3.jpg"" width=""540"" height = ""360"">","null","","","","","","","","","",""
"null","","html-keyboard-response","291","495666","0.0-291.0","3LS2AMNW5GCK51ETHY08UZC9419QOL","A2ONILC0LZKG6Y","3URJ6VVYUP9BUCT1SZOT2DFI02L4OC","","","null","","","","","","","","","",""
"706","","image-keyboard-response","292","496373","0.0-292.0","3LS2AMNW5GCK51ETHY08UZC9419QOL","A2ONILC0LZKG6Y","3URJ6VVYUP9BUCT1SZOT2DFI02L4OC","","img/set1/S1.jpg","68","1","structured_load","83","structured_load,random,structured_normal,structured_incentive","4,2,1,2,2,3","2,1,3,4","false","","",""
"null","","html-keyboard-response","293","496727","0.0-293.0","3LS2AMNW5GCK51ETHY08UZC9419QOL","A2ONILC0LZKG6Y","3URJ6VVYUP9BUCT1SZOT2DFI02L4OC","","<img src=""img/set1/S1.jpg"" width=""540"" height = ""360"">","null","","","","","","","","","",""
"null","","html-keyboard-response","294","496930","0.0-294.0","3LS2AMNW5GCK51ETHY08UZC9419QOL","A2ONILC0LZKG6Y","3URJ6VVYUP9BUCT1SZOT2DFI02L4OC","","","null","","","","","","","","","",""
"765","","image-keyboard-response","295","497697","0.0-295.0","3LS2AMNW5GCK51ETHY08UZC9419QOL","A2ONILC0LZKG6Y","3URJ6VVYUP9BUCT1SZOT2DFI02L4OC","","img/set1/S4.jpg","74","4","structured_load","74","structured_load,random,structured_normal,structured_incentive","4,2,1,2,2,3","2,1,3,4","true","","",""
"null","","html-keyboard-response","296","498048","0.0-296.0","3LS2AMNW5GCK51ETHY08UZC9419QOL","A2ONILC0LZKG6Y","3URJ6VVYUP9BUCT1SZOT2DFI02L4OC","","<img src=""img/set1/S4.jpg"" width=""540"" height = ""360"" style=""border:16px solid orange"">","null","","","","","","","","","",""
"null","","html-keyboard-response","297","498253","0.0-297.0","3LS2AMNW5GCK51ETHY08UZC9419QOL","A2ONILC0LZKG6Y","3URJ6VVYUP9BUCT1SZOT2DFI02L4OC","","","null","","","","","","","","","",""
"696","","image-keyboard-response","298","498950","0.0-298.0","3LS2AMNW5GCK51ETHY08UZC9419QOL","A2ONILC0LZKG6Y","3URJ6VVYUP9BUCT1SZOT2DFI02L4OC","","img/set1/S3.jpg","72","3","structured_load","72","structured_load,random,structured_normal,structured_incentive","4,2,1,2,2,3","2,1,3,4","true","","",""
"null","","html-keyboard-response","299","499316","0.0-299.0","3LS2AMNW5GCK51ETHY08UZC9419QOL","A2ONILC0LZKG6Y","3URJ6VVYUP9BUCT1SZOT2DFI02L4OC","","<img src=""img/set1/S3.jpg"" width=""540"" height = ""360"" style=""border:16px solid orange"">","null","","","","","","","","","",""
"null","","html-keyboard-response","300","499517","0.0-300.0","3LS2AMNW5GCK51ETHY08UZC9419QOL","A2ONILC0LZKG6Y","3URJ6VVYUP9BUCT1SZOT2DFI02L4OC","","","null","","","","","","","","","",""
"561","","image-keyboard-response","301","500080","0.0-301.0","3LS2AMNW5GCK51ETHY08UZC9419QOL","A2ONILC0LZKG6Y","3URJ6VVYUP9BUCT1SZOT2DFI02L4OC","","img/set1/S2.jpg","68","2","structured_load","68","structured_load,random,structured_normal,structured_incentive","4,2,1,2,2,3","2,1,3,4","true","","",""
"null","","html-keyboard-response","302","500436","0.0-302.0","3LS2AMNW5GCK51ETHY08UZC9419QOL","A2ONILC0LZKG6Y","3URJ6VVYUP9BUCT1SZOT2DFI02L4OC","","<img src=""img/set1/S2.jpg"" width=""540"" height = ""360"" style=""border:16px solid orange"">","null","","","","","","","","","",""
"null","","html-keyboard-response","303","500638","0.0-303.0","3LS2AMNW5GCK51ETHY08UZC9419QOL","A2ONILC0LZKG6Y","3URJ6VVYUP9BUCT1SZOT2DFI02L4OC","","","null","","","","","","","","","",""
"744","","image-keyboard-response","304","501384","0.0-304.0","3LS2AMNW5GCK51ETHY08UZC9419QOL","A2ONILC0LZKG6Y","3URJ6VVYUP9BUCT1SZOT2DFI02L4OC","","img/set1/S4.jpg","72","4","structured_load","74","structured_load,random,structured_normal,structured_incentive","4,2,1,2,2,3","2,1,3,4","false","","",""
"null","","html-keyboard-response","305","501746","0.0-305.0","3LS2AMNW5GCK51ETHY08UZC9419QOL","A2ONILC0LZKG6Y","3URJ6VVYUP9BUCT1SZOT2DFI02L4OC","","<img src=""img/set1/S4.jpg"" width=""540"" height = ""360"">","null","","","","","","","","","",""
"null","","html-keyboard-response","306","501952","0.0-306.0","3LS2AMNW5GCK51ETHY08UZC9419QOL","A2ONILC0LZKG6Y","3URJ6VVYUP9BUCT1SZOT2DFI02L4OC","","","null","","","","","","","","","",""
"874","","image-keyboard-response","307","502826","0.0-307.0","3LS2AMNW5GCK51ETHY08UZC9419QOL","A2ONILC0LZKG6Y","3URJ6VVYUP9BUCT1SZOT2DFI02L4OC","","img/set1/S2.jpg","68","2","structured_load","68","structured_load,random,structured_normal,structured_incentive","4,2,1,2,2,3","2,1,3,4","true","","",""
"null","","html-keyboard-response","308","503185","0.0-308.0","3LS2AMNW5GCK51ETHY08UZC9419QOL","A2ONILC0LZKG6Y","3URJ6VVYUP9BUCT1SZOT2DFI02L4OC","","<img src=""img/set1/S2.jpg"" width=""540"" height = ""360"" style=""border:16px solid orange"">","null","","","","","","","","","",""
"null","","html-keyboard-response","309","503386","0.0-309.0","3LS2AMNW5GCK51ETHY08UZC9419QOL","A2ONILC0LZKG6Y","3URJ6VVYUP9BUCT1SZOT2DFI02L4OC","","","null","","","","","","","","","",""
"853","","image-keyboard-response","310","504241","0.0-310.0","3LS2AMNW5GCK51ETHY08UZC9419QOL","A2ONILC0LZKG6Y","3URJ6VVYUP9BUCT1SZOT2DFI02L4OC","","img/set1/S3.jpg","72","3","structured_load","72","structured_load,random,structured_normal,structured_incentive","4,2,1,2,2,3","2,1,3,4","true","","",""
"null","","html-keyboard-response","311","504604","0.0-311.0","3LS2AMNW5GCK51ETHY08UZC9419QOL","A2ONILC0LZKG6Y","3URJ6VVYUP9BUCT1SZOT2DFI02L4OC","","<img src=""img/set1/S3.jpg"" width=""540"" height = ""360"" style=""border:16px solid orange"">","null","","","","","","","","","",""
"null","","html-keyboard-response","312","504806","0.0-312.0","3LS2AMNW5GCK51ETHY08UZC9419QOL","A2ONILC0LZKG6Y","3URJ6VVYUP9BUCT1SZOT2DFI02L4OC","","","null","","","","","","","","","",""
"427","","image-keyboard-response","313","505234","0.0-313.0","3LS2AMNW5GCK51ETHY08UZC9419QOL","A2ONILC0LZKG6Y","3URJ6VVYUP9BUCT1SZOT2DFI02L4OC","","img/set1/S3.jpg","72","3","structured_load","72","structured_load,random,structured_normal,structured_incentive","4,2,1,2,2,3","2,1,3,4","true","","",""
"null","","html-keyboard-response","314","505593","0.0-314.0","3LS2AMNW5GCK51ETHY08UZC9419QOL","A2ONILC0LZKG6Y","3URJ6VVYUP9BUCT1SZOT2DFI02L4OC","","<img src=""img/set1/S3.jpg"" width=""540"" height = ""360"" style=""border:16px solid orange"">","null","","","","","","","","","",""
"null","","html-keyboard-response","315","505799","0.0-315.0","3LS2AMNW5GCK51ETHY08UZC9419QOL","A2ONILC0LZKG6Y","3URJ6VVYUP9BUCT1SZOT2DFI02L4OC","","","null","","","","","","","","","",""
"590","","image-keyboard-response","316","506389","0.0-316.0","3LS2AMNW5GCK51ETHY08UZC9419QOL","A2ONILC0LZKG6Y","3URJ6VVYUP9BUCT1SZOT2DFI02L4OC","","img/set1/S4.jpg","74","4","structured_load","74","structured_load,random,structured_normal,structured_incentive","4,2,1,2,2,3","2,1,3,4","true","","",""
"null","","html-keyboard-response","317","506747","0.0-317.0","3LS2AMNW5GCK51ETHY08UZC9419QOL","A2ONILC0LZKG6Y","3URJ6VVYUP9BUCT1SZOT2DFI02L4OC","","<img src=""img/set1/S4.jpg"" width=""540"" height = ""360"" style=""border:16px solid orange"">","null","","","","","","","","","",""
"null","","html-keyboard-response","318","506949","0.0-318.0","3LS2AMNW5GCK51ETHY08UZC9419QOL","A2ONILC0LZKG6Y","3URJ6VVYUP9BUCT1SZOT2DFI02L4OC","","","null","","","","","","","","","",""
"384","","image-keyboard-response","319","507335","0.0-319.0","3LS2AMNW5GCK51ETHY08UZC9419QOL","A2ONILC0LZKG6Y","3URJ6VVYUP9BUCT1SZOT2DFI02L4OC","","img/set1/S3.jpg","72","3","structured_load","72","structured_load,random,structured_normal,structured_incentive","4,2,1,2,2,3","2,1,3,4","true","","",""
"null","","html-keyboard-response","320","507695","0.0-320.0","3LS2AMNW5GCK51ETHY08UZC9419QOL","A2ONILC0LZKG6Y","3URJ6VVYUP9BUCT1SZOT2DFI02L4OC","","<img src=""img/set1/S3.jpg"" width=""540"" height = ""360"" style=""border:16px solid orange"">","null","","","","","","","","","",""
"null","","html-keyboard-response","321","507903","0.0-321.0","3LS2AMNW5GCK51ETHY08UZC9419QOL","A2ONILC0LZKG6Y","3URJ6VVYUP9BUCT1SZOT2DFI02L4OC","","","null","","","","","","","","","",""
"589","","image-keyboard-response","322","508492","0.0-322.0","3LS2AMNW5GCK51ETHY08UZC9419QOL","A2ONILC0LZKG6Y","3URJ6VVYUP9BUCT1SZOT2DFI02L4OC","","img/set1/S1.jpg","83","1","structured_load","83","structured_load,random,structured_normal,structured_incentive","4,2,1,2,2,3","2,1,3,4","true","","",""
"null","","html-keyboard-response","323","508849","0.0-323.0","3LS2AMNW5GCK51ETHY08UZC9419QOL","A2ONILC0LZKG6Y","3URJ6VVYUP9BUCT1SZOT2DFI02L4OC","","<img src=""img/set1/S1.jpg"" width=""540"" height = ""360"" style=""border:16px solid orange"">","null","","","","","","","","","",""
"null","","html-keyboard-response","324","509051","0.0-324.0","3LS2AMNW5GCK51ETHY08UZC9419QOL","A2ONILC0LZKG6Y","3URJ6VVYUP9BUCT1SZOT2DFI02L4OC","","","null","","","","","","","","","",""
"699","","image-keyboard-response","325","509750","0.0-325.0","3LS2AMNW5GCK51ETHY08UZC9419QOL","A2ONILC0LZKG6Y","3URJ6VVYUP9BUCT1SZOT2DFI02L4OC","","img/set1/S3.jpg","72","3","structured_load","72","structured_load,random,structured_normal,structured_incentive","4,2,1,2,2,3","2,1,3,4","true","","",""
"null","","html-keyboard-response","326","510103","0.0-326.0","3LS2AMNW5GCK51ETHY08UZC9419QOL","A2ONILC0LZKG6Y","3URJ6VVYUP9BUCT1SZOT2DFI02L4OC","","<img src=""img/set1/S3.jpg"" width=""540"" height = ""360"" style=""border:16px solid orange"">","null","","","","","","","","","",""
"null","","html-keyboard-response","327","510309","0.0-327.0","3LS2AMNW5GCK51ETHY08UZC9419QOL","A2ONILC0LZKG6Y","3URJ6VVYUP9BUCT1SZOT2DFI02L4OC","","","null","","","","","","","","","",""
"369","","image-keyboard-response","328","510678","0.0-328.0","3LS2AMNW5GCK51ETHY08UZC9419QOL","A2ONILC0LZKG6Y","3URJ6VVYUP9BUCT1SZOT2DFI02L4OC","","img/set1/S3.jpg","72","3","structured_load","72","structured_load,random,structured_normal,structured_incentive","4,2,1,2,2,3","2,1,3,4","true","","",""
"null","","html-keyboard-response","329","511033","0.0-329.0","3LS2AMNW5GCK51ETHY08UZC9419QOL","A2ONILC0LZKG6Y","3URJ6VVYUP9BUCT1SZOT2DFI02L4OC","","<img src=""img/set1/S3.jpg"" width=""540"" height = ""360"" style=""border:16px solid orange"">","null","","","","","","","","","",""
"null","","html-keyboard-response","330","511235","0.0-330.0","3LS2AMNW5GCK51ETHY08UZC9419QOL","A2ONILC0LZKG6Y","3URJ6VVYUP9BUCT1SZOT2DFI02L4OC","","","null","","","","","","","","","",""
"415","","image-keyboard-response","331","511652","0.0-331.0","3LS2AMNW5GCK51ETHY08UZC9419QOL","A2ONILC0LZKG6Y","3URJ6VVYUP9BUCT1SZOT2DFI02L4OC","","img/set1/S4.jpg","74","4","structured_load","74","structured_load,random,structured_normal,structured_incentive","4,2,1,2,2,3","2,1,3,4","true","","",""
"null","","html-keyboard-response","332","512013","0.0-332.0","3LS2AMNW5GCK51ETHY08UZC9419QOL","A2ONILC0LZKG6Y","3URJ6VVYUP9BUCT1SZOT2DFI02L4OC","","<img src=""img/set1/S4.jpg"" width=""540"" height = ""360"" style=""border:16px solid orange"">","null","","","","","","","","","",""
"null","","html-keyboard-response","333","512215","0.0-333.0","3LS2AMNW5GCK51ETHY08UZC9419QOL","A2ONILC0LZKG6Y","3URJ6VVYUP9BUCT1SZOT2DFI02L4OC","","","null","","","","","","","","","",""
"649","","image-keyboard-response","334","512866","0.0-334.0","3LS2AMNW5GCK51ETHY08UZC9419QOL","A2ONILC0LZKG6Y","3URJ6VVYUP9BUCT1SZOT2DFI02L4OC","","img/set1/S2.jpg","68","2","structured_load","68","structured_load,random,structured_normal,structured_incentive","4,2,1,2,2,3","2,1,3,4","true","","",""
"null","","html-keyboard-response","335","513218","0.0-335.0","3LS2AMNW5GCK51ETHY08UZC9419QOL","A2ONILC0LZKG6Y","3URJ6VVYUP9BUCT1SZOT2DFI02L4OC","","<img src=""img/set1/S2.jpg"" width=""540"" height = ""360"" style=""border:16px solid orange"">","null","","","","","","","","","",""
"null","","html-keyboard-response","336","513423","0.0-336.0","3LS2AMNW5GCK51ETHY08UZC9419QOL","A2ONILC0LZKG6Y","3URJ6VVYUP9BUCT1SZOT2DFI02L4OC","","","null","","","","","","","","","",""
"653","","image-keyboard-response","337","514077","0.0-337.0","3LS2AMNW5GCK51ETHY08UZC9419QOL","A2ONILC0LZKG6Y","3URJ6VVYUP9BUCT1SZOT2DFI02L4OC","","img/set1/S1.jpg","83","1","structured_load","83","structured_load,random,structured_normal,structured_incentive","4,2,1,2,2,3","2,1,3,4","true","","",""
"null","","html-keyboard-response","338","514438","0.0-338.0","3LS2AMNW5GCK51ETHY08UZC9419QOL","A2ONILC0LZKG6Y","3URJ6VVYUP9BUCT1SZOT2DFI02L4OC","","<img src=""img/set1/S1.jpg"" width=""540"" height = ""360"" style=""border:16px solid orange"">","null","","","","","","","","","",""
"null","","html-keyboard-response","339","514655","0.0-339.0","3LS2AMNW5GCK51ETHY08UZC9419QOL","A2ONILC0LZKG6Y","3URJ6VVYUP9BUCT1SZOT2DFI02L4OC","","","null","","","","","","","","","",""
"314","","image-keyboard-response","340","514972","0.0-340.0","3LS2AMNW5GCK51ETHY08UZC9419QOL","A2ONILC0LZKG6Y","3URJ6VVYUP9BUCT1SZOT2DFI02L4OC","","img/set1/S1.jpg","83","1","structured_load","83","structured_load,random,structured_normal,structured_incentive","4,2,1,2,2,3","2,1,3,4","true","","",""
"null","","html-keyboard-response","341","515326","0.0-341.0","3LS2AMNW5GCK51ETHY08UZC9419QOL","A2ONILC0LZKG6Y","3URJ6VVYUP9BUCT1SZOT2DFI02L4OC","","<img src=""img/set1/S1.jpg"" width=""540"" height = ""360"" style=""border:16px solid orange"">","null","","","","","","","","","",""
"null","","html-keyboard-response","342","515534","0.0-342.0","3LS2AMNW5GCK51ETHY08UZC9419QOL","A2ONILC0LZKG6Y","3URJ6VVYUP9BUCT1SZOT2DFI02L4OC","","","null","","","","","","","","","",""
"561","","image-keyboard-response","343","516097","0.0-343.0","3LS2AMNW5GCK51ETHY08UZC9419QOL","A2ONILC0LZKG6Y","3URJ6VVYUP9BUCT1SZOT2DFI02L4OC","","img/set1/S4.jpg","72","4","structured_load","74","structured_load,random,structured_normal,structured_incentive","4,2,1,2,2,3","2,1,3,4","false","","",""
"null","","html-keyboard-response","344","516453","0.0-344.0","3LS2AMNW5GCK51ETHY08UZC9419QOL","A2ONILC0LZKG6Y","3URJ6VVYUP9BUCT1SZOT2DFI02L4OC","","<img src=""img/set1/S4.jpg"" width=""540"" height = ""360"">","null","","","","","","","","","",""
"null","","html-keyboard-response","345","516655","0.0-345.0","3LS2AMNW5GCK51ETHY08UZC9419QOL","A2ONILC0LZKG6Y","3URJ6VVYUP9BUCT1SZOT2DFI02L4OC","","","null","","","","","","","","","",""
"661","","image-keyboard-response","346","517317","0.0-346.0","3LS2AMNW5GCK51ETHY08UZC9419QOL","A2ONILC0LZKG6Y","3URJ6VVYUP9BUCT1SZOT2DFI02L4OC","","img/set1/S2.jpg","68","2","structured_load","68","structured_load,random,structured_normal,structured_incentive","4,2,1,2,2,3","2,1,3,4","true","","",""
"null","","html-keyboard-response","347","517681","0.0-347.0","3LS2AMNW5GCK51ETHY08UZC9419QOL","A2ONILC0LZKG6Y","3URJ6VVYUP9BUCT1SZOT2DFI02L4OC","","<img src=""img/set1/S2.jpg"" width=""540"" height = ""360"" style=""border:16px solid orange"">","null","","","","","","","","","",""
"null","","html-keyboard-response","348","517888","0.0-348.0","3LS2AMNW5GCK51ETHY08UZC9419QOL","A2ONILC0LZKG6Y","3URJ6VVYUP9BUCT1SZOT2DFI02L4OC","","","null","","","","","","","","","",""
"628","","image-keyboard-response","349","518516","0.0-349.0","3LS2AMNW5GCK51ETHY08UZC9419QOL","A2ONILC0LZKG6Y","3URJ6VVYUP9BUCT1SZOT2DFI02L4OC","","img/set1/S3.jpg","72","3","structured_load","72","structured_load,random,structured_normal,structured_incentive","4,2,1,2,2,3","2,1,3,4","true","","",""
"null","","html-keyboard-response","350","518878","0.0-350.0","3LS2AMNW5GCK51ETHY08UZC9419QOL","A2ONILC0LZKG6Y","3URJ6VVYUP9BUCT1SZOT2DFI02L4OC","","<img src=""img/set1/S3.jpg"" width=""540"" height = ""360"" style=""border:16px solid orange"">","null","","","","","","","","","",""
"null","","html-keyboard-response","351","519082","0.0-351.0","3LS2AMNW5GCK51ETHY08UZC9419QOL","A2ONILC0LZKG6Y","3URJ6VVYUP9BUCT1SZOT2DFI02L4OC","","","null","","","","","","","","","",""
"797","","image-keyboard-response","352","519880","0.0-352.0","3LS2AMNW5GCK51ETHY08UZC9419QOL","A2ONILC0LZKG6Y","3URJ6VVYUP9BUCT1SZOT2DFI02L4OC","","img/set1/S1.jpg","68","1","structured_load","83","structured_load,random,structured_normal,structured_incentive","4,2,1,2,2,3","2,1,3,4","false","","",""
"null","","html-keyboard-response","353","520236","0.0-353.0","3LS2AMNW5GCK51ETHY08UZC9419QOL","A2ONILC0LZKG6Y","3URJ6VVYUP9BUCT1SZOT2DFI02L4OC","","<img src=""img/set1/S1.jpg"" width=""540"" height = ""360"">","null","","","","","","","","","",""
"null","","html-keyboard-response","354","520442","0.0-354.0","3LS2AMNW5GCK51ETHY08UZC9419QOL","A2ONILC0LZKG6Y","3URJ6VVYUP9BUCT1SZOT2DFI02L4OC","","","null","","","","","","","","","",""
"848","","image-keyboard-response","355","521292","0.0-355.0","3LS2AMNW5GCK51ETHY08UZC9419QOL","A2ONILC0LZKG6Y","3URJ6VVYUP9BUCT1SZOT2DFI02L4OC","","img/set1/S4.jpg","74","4","structured_load","74","structured_load,random,structured_normal,structured_incentive","4,2,1,2,2,3","2,1,3,4","true","","",""
"null","","html-keyboard-response","356","521647","0.0-356.0","3LS2AMNW5GCK51ETHY08UZC9419QOL","A2ONILC0LZKG6Y","3URJ6VVYUP9BUCT1SZOT2DFI02L4OC","","<img src=""img/set1/S4.jpg"" width=""540"" height = ""360"" style=""border:16px solid orange"">","null","","","","","","","","","",""
"null","","html-keyboard-response","357","521863","0.0-357.0","3LS2AMNW5GCK51ETHY08UZC9419QOL","A2ONILC0LZKG6Y","3URJ6VVYUP9BUCT1SZOT2DFI02L4OC","","","null","","","","","","","","","",""
"950","","image-keyboard-response","358","522814","0.0-358.0","3LS2AMNW5GCK51ETHY08UZC9419QOL","A2ONILC0LZKG6Y","3URJ6VVYUP9BUCT1SZOT2DFI02L4OC","","img/set1/S2.jpg","68","2","structured_load","68","structured_load,random,structured_normal,structured_incentive","4,2,1,2,2,3","2,1,3,4","true","","",""
"null","","html-keyboard-response","359","523172","0.0-359.0","3LS2AMNW5GCK51ETHY08UZC9419QOL","A2ONILC0LZKG6Y","3URJ6VVYUP9BUCT1SZOT2DFI02L4OC","","<img src=""img/set1/S2.jpg"" width=""540"" height = ""360"" style=""border:16px solid orange"">","null","","","","","","","","","",""
"null","","html-keyboard-response","360","523375","0.0-360.0","3LS2AMNW5GCK51ETHY08UZC9419QOL","A2ONILC0LZKG6Y","3URJ6VVYUP9BUCT1SZOT2DFI02L4OC","","","null","","","","","","","","","",""
"443","","image-keyboard-response","361","523819","0.0-361.0","3LS2AMNW5GCK51ETHY08UZC9419QOL","A2ONILC0LZKG6Y","3URJ6VVYUP9BUCT1SZOT2DFI02L4OC","","img/set1/S1.jpg","83","1","structured_load","83","structured_load,random,structured_normal,structured_incentive","4,2,1,2,2,3","2,1,3,4","true","","",""
"null","","html-keyboard-response","362","524173","0.0-362.0","3LS2AMNW5GCK51ETHY08UZC9419QOL","A2ONILC0LZKG6Y","3URJ6VVYUP9BUCT1SZOT2DFI02L4OC","","<img src=""img/set1/S1.jpg"" width=""540"" height = ""360"" style=""border:16px solid orange"">","null","","","","","","","","","",""
"null","","html-keyboard-response","363","524374","0.0-363.0","3LS2AMNW5GCK51ETHY08UZC9419QOL","A2ONILC0LZKG6Y","3URJ6VVYUP9BUCT1SZOT2DFI02L4OC","","","null","","","","","","","","","",""
"753","","image-keyboard-response","364","525128","0.0-364.0","3LS2AMNW5GCK51ETHY08UZC9419QOL","A2ONILC0LZKG6Y","3URJ6VVYUP9BUCT1SZOT2DFI02L4OC","","img/set1/S3.jpg","72","3","structured_load","72","structured_load,random,structured_normal,structured_incentive","4,2,1,2,2,3","2,1,3,4","true","","",""
"null","","html-keyboard-response","365","525479","0.0-365.0","3LS2AMNW5GCK51ETHY08UZC9419QOL","A2ONILC0LZKG6Y","3URJ6VVYUP9BUCT1SZOT2DFI02L4OC","","<img src=""img/set1/S3.jpg"" width=""540"" height = ""360"" style=""border:16px solid orange"">","null","","","","","","","","","",""
"null","","html-keyboard-response","366","525684","0.0-366.0","3LS2AMNW5GCK51ETHY08UZC9419QOL","A2ONILC0LZKG6Y","3URJ6VVYUP9BUCT1SZOT2DFI02L4OC","","","null","","","","","","","","","",""
"911","","image-keyboard-response","367","526596","0.0-367.0","3LS2AMNW5GCK51ETHY08UZC9419QOL","A2ONILC0LZKG6Y","3URJ6VVYUP9BUCT1SZOT2DFI02L4OC","","img/set1/S1.jpg","68","1","structured_load","83","structured_load,random,structured_normal,structured_incentive","4,2,1,2,2,3","2,1,3,4","false","","",""
"null","","html-keyboard-response","368","526953","0.0-368.0","3LS2AMNW5GCK51ETHY08UZC9419QOL","A2ONILC0LZKG6Y","3URJ6VVYUP9BUCT1SZOT2DFI02L4OC","","<img src=""img/set1/S1.jpg"" width=""540"" height = ""360"">","null","","","","","","","","","",""
"null","","html-keyboard-response","369","527155","0.0-369.0","3LS2AMNW5GCK51ETHY08UZC9419QOL","A2ONILC0LZKG6Y","3URJ6VVYUP9BUCT1SZOT2DFI02L4OC","","","null","","","","","","","","","",""
"636","","image-keyboard-response","370","527792","0.0-370.0","3LS2AMNW5GCK51ETHY08UZC9419QOL","A2ONILC0LZKG6Y","3URJ6VVYUP9BUCT1SZOT2DFI02L4OC","","img/set1/S4.jpg","72","4","structured_load","74","structured_load,random,structured_normal,structured_incentive","4,2,1,2,2,3","2,1,3,4","false","","",""
"null","","html-keyboard-response","371","528153","0.0-371.0","3LS2AMNW5GCK51ETHY08UZC9419QOL","A2ONILC0LZKG6Y","3URJ6VVYUP9BUCT1SZOT2DFI02L4OC","","<img src=""img/set1/S4.jpg"" width=""540"" height = ""360"">","null","","","","","","","","","",""
"null","","html-keyboard-response","372","528362","0.0-372.0","3LS2AMNW5GCK51ETHY08UZC9419QOL","A2ONILC0LZKG6Y","3URJ6VVYUP9BUCT1SZOT2DFI02L4OC","","","null","","","","","","","","","",""
"867","","image-keyboard-response","373","529230","0.0-373.0","3LS2AMNW5GCK51ETHY08UZC9419QOL","A2ONILC0LZKG6Y","3URJ6VVYUP9BUCT1SZOT2DFI02L4OC","","img/set1/S2.jpg","68","2","structured_load","68","structured_load,random,structured_normal,structured_incentive","4,2,1,2,2,3","2,1,3,4","true","","",""
"null","","html-keyboard-response","374","529582","0.0-374.0","3LS2AMNW5GCK51ETHY08UZC9419QOL","A2ONILC0LZKG6Y","3URJ6VVYUP9BUCT1SZOT2DFI02L4OC","","<img src=""img/set1/S2.jpg"" width=""540"" height = ""360"" style=""border:16px solid orange"">","null","","","","","","","","","",""
"null","","html-keyboard-response","375","529785","0.0-375.0","3LS2AMNW5GCK51ETHY08UZC9419QOL","A2ONILC0LZKG6Y","3URJ6VVYUP9BUCT1SZOT2DFI02L4OC","","","null","","","","","","","","","",""
"530","","image-keyboard-response","376","530316","0.0-376.0","3LS2AMNW5GCK51ETHY08UZC9419QOL","A2ONILC0LZKG6Y","3URJ6VVYUP9BUCT1SZOT2DFI02L4OC","","img/set1/S3.jpg","74","3","structured_load","72","structured_load,random,structured_normal,structured_incentive","4,2,1,2,2,3","2,1,3,4","false","","",""
"null","","html-keyboard-response","377","530677","0.0-377.0","3LS2AMNW5GCK51ETHY08UZC9419QOL","A2ONILC0LZKG6Y","3URJ6VVYUP9BUCT1SZOT2DFI02L4OC","","<img src=""img/set1/S3.jpg"" width=""540"" height = ""360"">","null","","","","","","","","","",""
"null","","html-keyboard-response","378","530880","0.0-378.0","3LS2AMNW5GCK51ETHY08UZC9419QOL","A2ONILC0LZKG6Y","3URJ6VVYUP9BUCT1SZOT2DFI02L4OC","","","null","","","","","","","","","",""
"650","","image-keyboard-response","379","531532","0.0-379.0","3LS2AMNW5GCK51ETHY08UZC9419QOL","A2ONILC0LZKG6Y","3URJ6VVYUP9BUCT1SZOT2DFI02L4OC","","img/set1/S1.jpg","68","1","structured_load","83","structured_load,random,structured_normal,structured_incentive","4,2,1,2,2,3","2,1,3,4","false","","",""
"null","","html-keyboard-response","380","531890","0.0-380.0","3LS2AMNW5GCK51ETHY08UZC9419QOL","A2ONILC0LZKG6Y","3URJ6VVYUP9BUCT1SZOT2DFI02L4OC","","<img src=""img/set1/S1.jpg"" width=""540"" height = ""360"">","null","","","","","","","","","",""
"null","","html-keyboard-response","381","532092","0.0-381.0","3LS2AMNW5GCK51ETHY08UZC9419QOL","A2ONILC0LZKG6Y","3URJ6VVYUP9BUCT1SZOT2DFI02L4OC","","","null","","","","","","","","","",""
"460","","image-keyboard-response","382","532554","0.0-382.0","3LS2AMNW5GCK51ETHY08UZC9419QOL","A2ONILC0LZKG6Y","3URJ6VVYUP9BUCT1SZOT2DFI02L4OC","","img/set1/S1.jpg","83","1","structured_load","83","structured_load,random,structured_normal,structured_incentive","4,2,1,2,2,3","2,1,3,4","true","","",""
"null","","html-keyboard-response","383","532909","0.0-383.0","3LS2AMNW5GCK51ETHY08UZC9419QOL","A2ONILC0LZKG6Y","3URJ6VVYUP9BUCT1SZOT2DFI02L4OC","","<img src=""img/set1/S1.jpg"" width=""540"" height = ""360"" style=""border:16px solid orange"">","null","","","","","","","","","",""
"null","","html-keyboard-response","384","533110","0.0-384.0","3LS2AMNW5GCK51ETHY08UZC9419QOL","A2ONILC0LZKG6Y","3URJ6VVYUP9BUCT1SZOT2DFI02L4OC","","","null","","","","","","","","","",""
"999","","image-keyboard-response","385","534111","0.0-385.0","3LS2AMNW5GCK51ETHY08UZC9419QOL","A2ONILC0LZKG6Y","3URJ6VVYUP9BUCT1SZOT2DFI02L4OC","","img/set1/S2.jpg","68","2","structured_load","68","structured_load,random,structured_normal,structured_incentive","4,2,1,2,2,3","2,1,3,4","true","","",""
"null","","html-keyboard-response","386","534466","0.0-386.0","3LS2AMNW5GCK51ETHY08UZC9419QOL","A2ONILC0LZKG6Y","3URJ6VVYUP9BUCT1SZOT2DFI02L4OC","","<img src=""img/set1/S2.jpg"" width=""540"" height = ""360"" style=""border:16px solid orange"">","null","","","","","","","","","",""
"null","","html-keyboard-response","387","534668","0.0-387.0","3LS2AMNW5GCK51ETHY08UZC9419QOL","A2ONILC0LZKG6Y","3URJ6VVYUP9BUCT1SZOT2DFI02L4OC","","","null","","","","","","","","","",""
"573","","image-keyboard-response","388","535242","0.0-388.0","3LS2AMNW5GCK51ETHY08UZC9419QOL","A2ONILC0LZKG6Y","3URJ6VVYUP9BUCT1SZOT2DFI02L4OC","","img/set1/S1.jpg","83","1","structured_load","83","structured_load,random,structured_normal,structured_incentive","4,2,1,2,2,3","2,1,3,4","true","","",""
"null","","html-keyboard-response","389","535605","0.0-389.0","3LS2AMNW5GCK51ETHY08UZC9419QOL","A2ONILC0LZKG6Y","3URJ6VVYUP9BUCT1SZOT2DFI02L4OC","","<img src=""img/set1/S1.jpg"" width=""540"" height = ""360"" style=""border:16px solid orange"">","null","","","","","","","","","",""
"null","","html-keyboard-response","390","535821","0.0-390.0","3LS2AMNW5GCK51ETHY08UZC9419QOL","A2ONILC0LZKG6Y","3URJ6VVYUP9BUCT1SZOT2DFI02L4OC","","","null","","","","","","","","","",""
