"rt","url","trial_type","trial_index","time_elapsed","internal_node_id","view_history","stimulus","key_press","state","test_part","correct_response","order_block","order_chunk","order_freq","correct","responses","question_order","bonus"
"8984146.400000006","consent.html","external-html","0","8986474","0.0-0.0","","","","","","","","","","","","",""
"74493.39999997616","","instructions","1","9060971","0.0-1.0","[{""page_index"":0,""viewing_time"":6372.5999999940395},{""page_index"":1,""viewing_time"":8573.299999982119},{""page_index"":2,""viewing_time"":15444.200000017881},{""page_index"":3,""viewing_time"":16071.799999982119},{""page_index"":4,""viewing_time"":9280.5},{""page_index"":5,""viewing_time"":12915.700000017881},{""page_index"":6,""viewing_time"":5834}]","","","","","","","","","","","",""
"11959.300000011921","","instructions","2","9072931","0.0-2.0","[{""page_index"":0,""viewing_time"":11959}]","","","","","","","","","","","",""
"6412.199999988079","","instructions","3","9079345","0.0-3.0","[{""page_index"":0,""viewing_time"":6411.799999982119}]","","","","","","","","","","","",""
"null","","image-keyboard-response","4","9081848","0.0-4.0","","img/set1/S1.jpg","null","1","random","83","random,structured_incentive,structured_normal,structured_load","3,4,2,1,2,3","3,1,2,4","false","","",""
"null","","html-keyboard-response","5","9082202","0.0-5.0","","<img src=""img/set1/S1.jpg"" width=""540"" height = ""360"">","null","","","","","","","","","",""
"null","","html-keyboard-response","6","9082412","0.0-6.0","","","null","","","","","","","","","",""
"null","","image-keyboard-response","7","9084919","0.0-7.0","","img/set1/S2.jpg","null","2","random","68","random,structured_incentive,structured_normal,structured_load","3,4,2,1,2,3","3,1,2,4","false","","",""
"null","","html-keyboard-response","8","9085287","0.0-8.0","","<img src=""img/set1/S2.jpg"" width=""540"" height = ""360"">","null","","","","","","","","","",""
"null","","html-keyboard-response","9","9085490","0.0-9.0","","","null","","","","","","","","","",""
"null","","image-keyboard-response","10","9088007","0.0-10.0","","img/set1/S3.jpg","null","3","random","72","random,structured_incentive,structured_normal,structured_load","3,4,2,1,2,3","3,1,2,4","false","","",""
"null","","html-keyboard-response","11","9088370","0.0-11.0","","<img src=""img/set1/S3.jpg"" width=""540"" height = ""360"">","null","","","","","","","","","",""
"null","","html-keyboard-response","12","9088572","0.0-12.0","","","null","","","","","","","","","",""
"null","","image-keyboard-response","13","9091089","0.0-13.0","","img/set1/S1.jpg","null","1","random","83","random,structured_incentive,structured_normal,structured_load","3,4,2,1,2,3","3,1,2,4","false","","",""
"null","","html-keyboard-response","14","9091450","0.0-14.0","","<img src=""img/set1/S1.jpg"" width=""540"" height = ""360"">","null","","","","","","","","","",""
"null","","html-keyboard-response","15","9091656","0.0-15.0","","","null","","","","","","","","","",""
"null","","image-keyboard-response","16","9094169","0.0-16.0","","img/set1/S3.jpg","null","3","random","72","random,structured_incentive,structured_normal,structured_load","3,4,2,1,2,3","3,1,2,4","false","","",""
"null","","html-keyboard-response","17","9094533","0.0-17.0","","<img src=""img/set1/S3.jpg"" width=""540"" height = ""360"">","null","","","","","","","","","",""
"null","","html-keyboard-response","18","9094739","0.0-18.0","","","null","","","","","","","","","",""
"null","","image-keyboard-response","19","9097247","0.0-19.0","","img/set1/S4.jpg","null","4","random","74","random,structured_incentive,structured_normal,structured_load","3,4,2,1,2,3","3,1,2,4","false","","",""
"null","","html-keyboard-response","20","9097614","0.0-20.0","","<img src=""img/set1/S4.jpg"" width=""540"" height = ""360"">","null","","","","","","","","","",""
"null","","html-keyboard-response","21","9097824","0.0-21.0","","","null","","","","","","","","","",""
"null","","image-keyboard-response","22","9100338","0.0-22.0","","img/set1/S4.jpg","null","4","random","74","random,structured_incentive,structured_normal,structured_load","3,4,2,1,2,3","3,1,2,4","false","","",""
"null","","html-keyboard-response","23","9100701","0.0-23.0","","<img src=""img/set1/S4.jpg"" width=""540"" height = ""360"">","null","","","","","","","","","",""
"null","","html-keyboard-response","24","9100902","0.0-24.0","","","null","","","","","","","","","",""
"null","","image-keyboard-response","25","9103414","0.0-25.0","","img/set1/S3.jpg","null","3","random","72","random,structured_incentive,structured_normal,structured_load","3,4,2,1,2,3","3,1,2,4","false","","",""
"null","","html-keyboard-response","26","9103766","0.0-26.0","","<img src=""img/set1/S3.jpg"" width=""540"" height = ""360"">","null","","","","","","","","","",""
"null","","html-keyboard-response","27","9103970","0.0-27.0","","","null","","","","","","","","","",""
"1499.5999999940395","","image-keyboard-response","28","9105471","0.0-28.0","","img/set1/S2.jpg","72","2","random","68","random,structured_incentive,structured_normal,structured_load","3,4,2,1,2,3","3,1,2,4","false","","",""
"null","","html-keyboard-response","29","9105826","0.0-29.0","","<img src=""img/set1/S2.jpg"" width=""540"" height = ""360"">","null","","","","","","","","","",""
"null","","html-keyboard-response","30","9106035","0.0-30.0","","","null","","","","","","","","","",""
"1612.2999999821186","","image-keyboard-response","31","9107648","0.0-31.0","","img/set1/S2.jpg","72","2","random","68","random,structured_incentive,structured_normal,structured_load","3,4,2,1,2,3","3,1,2,4","false","","",""
"null","","html-keyboard-response","32","9108015","0.0-32.0","","<img src=""img/set1/S2.jpg"" width=""540"" height = ""360"">","null","","","","","","","","","",""
"null","","html-keyboard-response","33","9108226","0.0-33.0","","","null","","","","","","","","","",""
"null","","image-keyboard-response","34","9110739","0.0-34.0","","img/set1/S1.jpg","null","1","random","83","random,structured_incentive,structured_normal,structured_load","3,4,2,1,2,3","3,1,2,4","false","","",""
"null","","html-keyboard-response","35","9111091","0.0-35.0","","<img src=""img/set1/S1.jpg"" width=""540"" height = ""360"">","null","","","","","","","","","",""
"null","","html-keyboard-response","36","9111306","0.0-36.0","","","null","","","","","","","","","",""
"null","","image-keyboard-response","37","9113819","0.0-37.0","","img/set1/S4.jpg","null","4","random","74","random,structured_incentive,structured_normal,structured_load","3,4,2,1,2,3","3,1,2,4","false","","",""
"null","","html-keyboard-response","38","9114182","0.0-38.0","","<img src=""img/set1/S4.jpg"" width=""540"" height = ""360"">","null","","","","","","","","","",""
"null","","html-keyboard-response","39","9114385","0.0-39.0","","","null","","","","","","","","","",""
"null","","image-keyboard-response","40","9116891","0.0-40.0","","img/set1/S3.jpg","null","3","random","72","random,structured_incentive,structured_normal,structured_load","3,4,2,1,2,3","3,1,2,4","false","","",""
"null","","html-keyboard-response","41","9117254","0.0-41.0","","<img src=""img/set1/S3.jpg"" width=""540"" height = ""360"">","null","","","","","","","","","",""
"null","","html-keyboard-response","42","9117459","0.0-42.0","","","null","","","","","","","","","",""
"null","","image-keyboard-response","43","9119967","0.0-43.0","","img/set1/S3.jpg","null","3","random","72","random,structured_incentive,structured_normal,structured_load","3,4,2,1,2,3","3,1,2,4","false","","",""
"null","","html-keyboard-response","44","9120329","0.0-44.0","","<img src=""img/set1/S3.jpg"" width=""540"" height = ""360"">","null","","","","","","","","","",""
"null","","html-keyboard-response","45","9120533","0.0-45.0","","","null","","","","","","","","","",""
"null","","image-keyboard-response","46","9123045","0.0-46.0","","img/set1/S1.jpg","null","1","random","83","random,structured_incentive,structured_normal,structured_load","3,4,2,1,2,3","3,1,2,4","false","","",""
"null","","html-keyboard-response","47","9123408","0.0-47.0","","<img src=""img/set1/S1.jpg"" width=""540"" height = ""360"">","null","","","","","","","","","",""
"null","","html-keyboard-response","48","9123612","0.0-48.0","","","null","","","","","","","","","",""
"null","","image-keyboard-response","49","9126127","0.0-49.0","","img/set1/S4.jpg","null","4","random","74","random,structured_incentive,structured_normal,structured_load","3,4,2,1,2,3","3,1,2,4","false","","",""
"null","","html-keyboard-response","50","9126488","0.0-50.0","","<img src=""img/set1/S4.jpg"" width=""540"" height = ""360"">","null","","","","","","","","","",""
"null","","html-keyboard-response","51","9126689","0.0-51.0","","","null","","","","","","","","","",""
"1447.5999999940395","","image-keyboard-response","52","9128138","0.0-52.0","","img/set1/S2.jpg","83","2","random","68","random,structured_incentive,structured_normal,structured_load","3,4,2,1,2,3","3,1,2,4","false","","",""
"null","","html-keyboard-response","53","9128500","0.0-53.0","","<img src=""img/set1/S2.jpg"" width=""540"" height = ""360"">","null","","","","","","","","","",""
"null","","html-keyboard-response","54","9128704","0.0-54.0","","","null","","","","","","","","","",""
"1905","","image-keyboard-response","55","9130611","0.0-55.0","","img/set1/S2.jpg","83","2","random","68","random,structured_incentive,structured_normal,structured_load","3,4,2,1,2,3","3,1,2,4","false","","",""
"null","","html-keyboard-response","56","9130967","0.0-56.0","","<img src=""img/set1/S2.jpg"" width=""540"" height = ""360"">","null","","","","","","","","","",""
"null","","html-keyboard-response","57","9131169","0.0-57.0","","","null","","","","","","","","","",""
"769.5","","image-keyboard-response","58","9131940","0.0-58.0","","img/set1/S2.jpg","83","2","random","68","random,structured_incentive,structured_normal,structured_load","3,4,2,1,2,3","3,1,2,4","false","","",""
"null","","html-keyboard-response","59","9132299","0.0-59.0","","<img src=""img/set1/S2.jpg"" width=""540"" height = ""360"">","null","","","","","","","","","",""
"null","","html-keyboard-response","60","9132505","0.0-60.0","","","null","","","","","","","","","",""
"null","","image-keyboard-response","61","9135007","0.0-61.0","","img/set1/S2.jpg","null","2","random","68","random,structured_incentive,structured_normal,structured_load","3,4,2,1,2,3","3,1,2,4","false","","",""
"null","","html-keyboard-response","62","9135371","0.0-62.0","","<img src=""img/set1/S2.jpg"" width=""540"" height = ""360"">","null","","","","","","","","","",""
"null","","html-keyboard-response","63","9135576","0.0-63.0","","","null","","","","","","","","","",""
"null","","image-keyboard-response","64","9138084","0.0-64.0","","img/set1/S4.jpg","null","4","random","74","random,structured_incentive,structured_normal,structured_load","3,4,2,1,2,3","3,1,2,4","false","","",""
"null","","html-keyboard-response","65","9138436","0.0-65.0","","<img src=""img/set1/S4.jpg"" width=""540"" height = ""360"">","null","","","","","","","","","",""
"null","","html-keyboard-response","66","9138652","0.0-66.0","","","null","","","","","","","","","",""
"null","","image-keyboard-response","67","9141162","0.0-67.0","","img/set1/S4.jpg","null","4","random","74","random,structured_incentive,structured_normal,structured_load","3,4,2,1,2,3","3,1,2,4","false","","",""
"null","","html-keyboard-response","68","9141524","0.0-68.0","","<img src=""img/set1/S4.jpg"" width=""540"" height = ""360"">","null","","","","","","","","","",""
"null","","html-keyboard-response","69","9141729","0.0-69.0","","","null","","","","","","","","","",""
"null","","image-keyboard-response","70","9144244","0.0-70.0","","img/set1/S2.jpg","null","2","random","68","random,structured_incentive,structured_normal,structured_load","3,4,2,1,2,3","3,1,2,4","false","","",""
"null","","html-keyboard-response","71","9144608","0.0-71.0","","<img src=""img/set1/S2.jpg"" width=""540"" height = ""360"">","null","","","","","","","","","",""
"null","","html-keyboard-response","72","9144814","0.0-72.0","","","null","","","","","","","","","",""
"null","","image-keyboard-response","73","9147325","0.0-73.0","","img/set1/S3.jpg","null","3","random","72","random,structured_incentive,structured_normal,structured_load","3,4,2,1,2,3","3,1,2,4","false","","",""
"null","","html-keyboard-response","74","9147688","0.0-74.0","","<img src=""img/set1/S3.jpg"" width=""540"" height = ""360"">","null","","","","","","","","","",""
"null","","html-keyboard-response","75","9147890","0.0-75.0","","","null","","","","","","","","","",""
"null","","image-keyboard-response","76","9150393","0.0-76.0","","img/set1/S3.jpg","null","3","random","72","random,structured_incentive,structured_normal,structured_load","3,4,2,1,2,3","3,1,2,4","false","","",""
"null","","html-keyboard-response","77","9150750","0.0-77.0","","<img src=""img/set1/S3.jpg"" width=""540"" height = ""360"">","null","","","","","","","","","",""
"null","","html-keyboard-response","78","9150955","0.0-78.0","","","null","","","","","","","","","",""
"null","","image-keyboard-response","79","9153463","0.0-79.0","","img/set1/S3.jpg","null","3","random","72","random,structured_incentive,structured_normal,structured_load","3,4,2,1,2,3","3,1,2,4","false","","",""
"null","","html-keyboard-response","80","9153828","0.0-80.0","","<img src=""img/set1/S3.jpg"" width=""540"" height = ""360"">","null","","","","","","","","","",""
"null","","html-keyboard-response","81","9154031","0.0-81.0","","","null","","","","","","","","","",""
"null","","image-keyboard-response","82","9156546","0.0-82.0","","img/set1/S2.jpg","null","2","random","68","random,structured_incentive,structured_normal,structured_load","3,4,2,1,2,3","3,1,2,4","false","","",""
"null","","html-keyboard-response","83","9156911","0.0-83.0","","<img src=""img/set1/S2.jpg"" width=""540"" height = ""360"">","null","","","","","","","","","",""
"null","","html-keyboard-response","84","9157113","0.0-84.0","","","null","","","","","","","","","",""
"null","","image-keyboard-response","85","9159621","0.0-85.0","","img/set1/S2.jpg","null","2","random","68","random,structured_incentive,structured_normal,structured_load","3,4,2,1,2,3","3,1,2,4","false","","",""
"null","","html-keyboard-response","86","9159983","0.0-86.0","","<img src=""img/set1/S2.jpg"" width=""540"" height = ""360"">","null","","","","","","","","","",""
"null","","html-keyboard-response","87","9160187","0.0-87.0","","","null","","","","","","","","","",""
"null","","image-keyboard-response","88","9162694","0.0-88.0","","img/set1/S1.jpg","null","1","random","83","random,structured_incentive,structured_normal,structured_load","3,4,2,1,2,3","3,1,2,4","false","","",""
"null","","html-keyboard-response","89","9163045","0.0-89.0","","<img src=""img/set1/S1.jpg"" width=""540"" height = ""360"">","null","","","","","","","","","",""
"null","","html-keyboard-response","90","9163247","0.0-90.0","","","null","","","","","","","","","",""
"null","","image-keyboard-response","91","9165758","0.0-91.0","","img/set1/S2.jpg","null","2","random","68","random,structured_incentive,structured_normal,structured_load","3,4,2,1,2,3","3,1,2,4","false","","",""
"null","","html-keyboard-response","92","9166119","0.0-92.0","","<img src=""img/set1/S2.jpg"" width=""540"" height = ""360"">","null","","","","","","","","","",""
"null","","html-keyboard-response","93","9166323","0.0-93.0","","","null","","","","","","","","","",""
"null","","image-keyboard-response","94","9168839","0.0-94.0","","img/set1/S4.jpg","null","4","random","74","random,structured_incentive,structured_normal,structured_load","3,4,2,1,2,3","3,1,2,4","false","","",""
"null","","html-keyboard-response","95","9169201","0.0-95.0","","<img src=""img/set1/S4.jpg"" width=""540"" height = ""360"">","null","","","","","","","","","",""
"null","","html-keyboard-response","96","9169405","0.0-96.0","","","null","","","","","","","","","",""
"null","","image-keyboard-response","97","9171911","0.0-97.0","","img/set1/S3.jpg","null","3","random","72","random,structured_incentive,structured_normal,structured_load","3,4,2,1,2,3","3,1,2,4","false","","",""
"null","","html-keyboard-response","98","9172272","0.0-98.0","","<img src=""img/set1/S3.jpg"" width=""540"" height = ""360"">","null","","","","","","","","","",""
"null","","html-keyboard-response","99","9172476","0.0-99.0","","","null","","","","","","","","","",""
"null","","image-keyboard-response","100","9174989","0.0-100.0","","img/set1/S4.jpg","null","4","random","74","random,structured_incentive,structured_normal,structured_load","3,4,2,1,2,3","3,1,2,4","false","","",""
"null","","html-keyboard-response","101","9175356","0.0-101.0","","<img src=""img/set1/S4.jpg"" width=""540"" height = ""360"">","null","","","","","","","","","",""
"null","","html-keyboard-response","102","9175558","0.0-102.0","","","null","","","","","","","","","",""
"null","","image-keyboard-response","103","9178063","0.0-103.0","","img/set1/S1.jpg","null","1","random","83","random,structured_incentive,structured_normal,structured_load","3,4,2,1,2,3","3,1,2,4","false","","",""
"null","","html-keyboard-response","104","9178414","0.0-104.0","","<img src=""img/set1/S1.jpg"" width=""540"" height = ""360"">","null","","","","","","","","","",""
"null","","html-keyboard-response","105","9178625","0.0-105.0","","","null","","","","","","","","","",""
"null","","image-keyboard-response","106","9181134","0.0-106.0","","img/set1/S3.jpg","null","3","random","72","random,structured_incentive,structured_normal,structured_load","3,4,2,1,2,3","3,1,2,4","false","","",""
"null","","html-keyboard-response","107","9181490","0.0-107.0","","<img src=""img/set1/S3.jpg"" width=""540"" height = ""360"">","null","","","","","","","","","",""
"null","","html-keyboard-response","108","9181691","0.0-108.0","","","null","","","","","","","","","",""
"null","","image-keyboard-response","109","9184196","0.0-109.0","","img/set1/S3.jpg","null","3","random","72","random,structured_incentive,structured_normal,structured_load","3,4,2,1,2,3","3,1,2,4","false","","",""
"null","","html-keyboard-response","110","9184548","0.0-110.0","","<img src=""img/set1/S3.jpg"" width=""540"" height = ""360"">","null","","","","","","","","","",""
"null","","html-keyboard-response","111","9184759","0.0-111.0","","","null","","","","","","","","","",""
"null","","image-keyboard-response","112","9187271","0.0-112.0","","img/set1/S1.jpg","null","1","random","83","random,structured_incentive,structured_normal,structured_load","3,4,2,1,2,3","3,1,2,4","false","","",""
"null","","html-keyboard-response","113","9187622","0.0-113.0","","<img src=""img/set1/S1.jpg"" width=""540"" height = ""360"">","null","","","","","","","","","",""
"null","","html-keyboard-response","114","9187835","0.0-114.0","","","null","","","","","","","","","",""
"null","","image-keyboard-response","115","9190340","0.0-115.0","","img/set1/S4.jpg","null","4","random","74","random,structured_incentive,structured_normal,structured_load","3,4,2,1,2,3","3,1,2,4","false","","",""
"null","","html-keyboard-response","116","9190692","0.0-116.0","","<img src=""img/set1/S4.jpg"" width=""540"" height = ""360"">","null","","","","","","","","","",""
"null","","html-keyboard-response","117","9190907","0.0-117.0","","","null","","","","","","","","","",""
"965.8000000119209","","image-keyboard-response","118","9191874","0.0-118.0","","img/set1/S2.jpg","83","2","random","68","random,structured_incentive,structured_normal,structured_load","3,4,2,1,2,3","3,1,2,4","false","","",""
"null","","html-keyboard-response","119","9192236","0.0-119.0","","<img src=""img/set1/S2.jpg"" width=""540"" height = ""360"">","null","","","","","","","","","",""
"null","","html-keyboard-response","120","9192441","0.0-120.0","","","null","","","","","","","","","",""
"759.1000000238419","","image-keyboard-response","121","9193201","0.0-121.0","","img/set1/S3.jpg","68","3","random","72","random,structured_incentive,structured_normal,structured_load","3,4,2,1,2,3","3,1,2,4","false","","",""
"null","","html-keyboard-response","122","9193566","0.0-122.0","","<img src=""img/set1/S3.jpg"" width=""540"" height = ""360"">","null","","","","","","","","","",""
"null","","html-keyboard-response","123","9193774","0.0-123.0","","","null","","","","","","","","","",""
"570.9000000059605","","image-keyboard-response","124","9194346","0.0-124.0","","img/set1/S3.jpg","74","3","random","72","random,structured_incentive,structured_normal,structured_load","3,4,2,1,2,3","3,1,2,4","false","","",""
"null","","html-keyboard-response","125","9194700","0.0-125.0","","<img src=""img/set1/S3.jpg"" width=""540"" height = ""360"">","null","","","","","","","","","",""
"null","","html-keyboard-response","126","9194903","0.0-126.0","","","null","","","","","","","","","",""
"793.5","","image-keyboard-response","127","9195698","0.0-127.0","","img/set1/S2.jpg","72","2","random","68","random,structured_incentive,structured_normal,structured_load","3,4,2,1,2,3","3,1,2,4","false","","",""
"null","","html-keyboard-response","128","9196055","0.0-128.0","","<img src=""img/set1/S2.jpg"" width=""540"" height = ""360"">","null","","","","","","","","","",""
"null","","html-keyboard-response","129","9196257","0.0-129.0","","","null","","","","","","","","","",""
"777.0999999940395","","image-keyboard-response","130","9197035","0.0-130.0","","img/set1/S1.jpg","74","1","random","83","random,structured_incentive,structured_normal,structured_load","3,4,2,1,2,3","3,1,2,4","false","","",""
"null","","html-keyboard-response","131","9197399","0.0-131.0","","<img src=""img/set1/S1.jpg"" width=""540"" height = ""360"">","null","","","","","","","","","",""
"null","","html-keyboard-response","132","9197604","0.0-132.0","","","null","","","","","","","","","",""
"606.5","","image-keyboard-response","133","9198212","0.0-133.0","","img/set1/S1.jpg","74","1","random","83","random,structured_incentive,structured_normal,structured_load","3,4,2,1,2,3","3,1,2,4","false","","",""
"null","","html-keyboard-response","134","9198569","0.0-134.0","","<img src=""img/set1/S1.jpg"" width=""540"" height = ""360"">","null","","","","","","","","","",""
"null","","html-keyboard-response","135","9198774","0.0-135.0","","","null","","","","","","","","","",""
"637","","image-keyboard-response","136","9199412","0.0-136.0","","img/set1/S1.jpg","74","1","random","83","random,structured_incentive,structured_normal,structured_load","3,4,2,1,2,3","3,1,2,4","false","","",""
"null","","html-keyboard-response","137","9199778","0.0-137.0","","<img src=""img/set1/S1.jpg"" width=""540"" height = ""360"">","null","","","","","","","","","",""
"null","","html-keyboard-response","138","9199987","0.0-138.0","","","null","","","","","","","","","",""
"385","","image-keyboard-response","139","9200373","0.0-139.0","","img/set1/S2.jpg","74","2","random","68","random,structured_incentive,structured_normal,structured_load","3,4,2,1,2,3","3,1,2,4","false","","",""
"null","","html-keyboard-response","140","9200729","0.0-140.0","","<img src=""img/set1/S2.jpg"" width=""540"" height = ""360"">","null","","","","","","","","","",""
"null","","html-keyboard-response","141","9200933","0.0-141.0","","","null","","","","","","","","","",""
"null","","image-keyboard-response","142","9203435","0.0-142.0","","img/set1/S4.jpg","null","4","random","74","random,structured_incentive,structured_normal,structured_load","3,4,2,1,2,3","3,1,2,4","false","","",""
"null","","html-keyboard-response","143","9203798","0.0-143.0","","<img src=""img/set1/S4.jpg"" width=""540"" height = ""360"">","null","","","","","","","","","",""
"null","","html-keyboard-response","144","9204003","0.0-144.0","","","null","","","","","","","","","",""
"null","","image-keyboard-response","145","9206508","0.0-145.0","","img/set1/S4.jpg","null","4","random","74","random,structured_incentive,structured_normal,structured_load","3,4,2,1,2,3","3,1,2,4","false","","",""
"null","","html-keyboard-response","146","9206860","0.0-146.0","","<img src=""img/set1/S4.jpg"" width=""540"" height = ""360"">","null","","","","","","","","","",""
"null","","html-keyboard-response","147","9207077","0.0-147.0","","","null","","","","","","","","","",""
"null","","image-keyboard-response","148","9209582","0.0-148.0","","img/set1/S2.jpg","null","2","random","68","random,structured_incentive,structured_normal,structured_load","3,4,2,1,2,3","3,1,2,4","false","","",""
"null","","html-keyboard-response","149","9209934","0.0-149.0","","<img src=""img/set1/S2.jpg"" width=""540"" height = ""360"">","null","","","","","","","","","",""
"null","","html-keyboard-response","150","9210136","0.0-150.0","","","null","","","","","","","","","",""
"null","","image-keyboard-response","151","9212646","0.0-151.0","","img/set1/S2.jpg","null","2","random","68","random,structured_incentive,structured_normal,structured_load","3,4,2,1,2,3","3,1,2,4","false","","",""
"null","","html-keyboard-response","152","9212998","0.0-152.0","","<img src=""img/set1/S2.jpg"" width=""540"" height = ""360"">","null","","","","","","","","","",""
"null","","html-keyboard-response","153","9213199","0.0-153.0","","","null","","","","","","","","","",""
"null","","image-keyboard-response","154","9215712","0.0-154.0","","img/set1/S3.jpg","null","3","random","72","random,structured_incentive,structured_normal,structured_load","3,4,2,1,2,3","3,1,2,4","false","","",""
"null","","html-keyboard-response","155","9216071","0.0-155.0","","<img src=""img/set1/S3.jpg"" width=""540"" height = ""360"">","null","","","","","","","","","",""
"null","","html-keyboard-response","156","9216277","0.0-156.0","","","null","","","","","","","","","",""
"null","","image-keyboard-response","157","9218780","0.0-157.0","","img/set1/S2.jpg","null","2","random","68","random,structured_incentive,structured_normal,structured_load","3,4,2,1,2,3","3,1,2,4","false","","",""
"null","","html-keyboard-response","158","9219132","0.0-158.0","","<img src=""img/set1/S2.jpg"" width=""540"" height = ""360"">","null","","","","","","","","","",""
"null","","html-keyboard-response","159","9219342","0.0-159.0","","","null","","","","","","","","","",""
"null","","image-keyboard-response","160","9221856","0.0-160.0","","img/set1/S3.jpg","null","3","random","72","random,structured_incentive,structured_normal,structured_load","3,4,2,1,2,3","3,1,2,4","false","","",""
"null","","html-keyboard-response","161","9222220","0.0-161.0","","<img src=""img/set1/S3.jpg"" width=""540"" height = ""360"">","null","","","","","","","","","",""
"null","","html-keyboard-response","162","9222422","0.0-162.0","","","null","","","","","","","","","",""
"null","","image-keyboard-response","163","9224933","0.0-163.0","","img/set1/S1.jpg","null","1","random","83","random,structured_incentive,structured_normal,structured_load","3,4,2,1,2,3","3,1,2,4","false","","",""
"null","","html-keyboard-response","164","9225300","0.0-164.0","","<img src=""img/set1/S1.jpg"" width=""540"" height = ""360"">","null","","","","","","","","","",""
"null","","html-keyboard-response","165","9225507","0.0-165.0","","","null","","","","","","","","","",""
"null","","image-keyboard-response","166","9228014","0.0-166.0","","img/set1/S3.jpg","null","3","random","72","random,structured_incentive,structured_normal,structured_load","3,4,2,1,2,3","3,1,2,4","false","","",""
"null","","html-keyboard-response","167","9228366","0.0-167.0","","<img src=""img/set1/S3.jpg"" width=""540"" height = ""360"">","null","","","","","","","","","",""
"null","","html-keyboard-response","168","9228579","0.0-168.0","","","null","","","","","","","","","",""
"null","","image-keyboard-response","169","9231095","0.0-169.0","","img/set1/S1.jpg","null","1","random","83","random,structured_incentive,structured_normal,structured_load","3,4,2,1,2,3","3,1,2,4","false","","",""
"null","","html-keyboard-response","170","9231448","0.0-170.0","","<img src=""img/set1/S1.jpg"" width=""540"" height = ""360"">","null","","","","","","","","","",""
"null","","html-keyboard-response","171","9231655","0.0-171.0","","","null","","","","","","","","","",""
"null","","image-keyboard-response","172","9234156","0.0-172.0","","img/set1/S2.jpg","null","2","random","68","random,structured_incentive,structured_normal,structured_load","3,4,2,1,2,3","3,1,2,4","false","","",""
"null","","html-keyboard-response","173","9234509","0.0-173.0","","<img src=""img/set1/S2.jpg"" width=""540"" height = ""360"">","null","","","","","","","","","",""
"null","","html-keyboard-response","174","9234713","0.0-174.0","","","null","","","","","","","","","",""
"null","","image-keyboard-response","175","9237220","0.0-175.0","","img/set1/S3.jpg","null","3","random","72","random,structured_incentive,structured_normal,structured_load","3,4,2,1,2,3","3,1,2,4","false","","",""
"null","","html-keyboard-response","176","9237582","0.0-176.0","","<img src=""img/set1/S3.jpg"" width=""540"" height = ""360"">","null","","","","","","","","","",""
"null","","html-keyboard-response","177","9237786","0.0-177.0","","","null","","","","","","","","","",""
"null","","image-keyboard-response","178","9240302","0.0-178.0","","img/set1/S1.jpg","null","1","random","83","random,structured_incentive,structured_normal,structured_load","3,4,2,1,2,3","3,1,2,4","false","","",""
"null","","html-keyboard-response","179","9240665","0.0-179.0","","<img src=""img/set1/S1.jpg"" width=""540"" height = ""360"">","null","","","","","","","","","",""
"null","","html-keyboard-response","180","9240874","0.0-180.0","","","null","","","","","","","","","",""
"null","","image-keyboard-response","181","9243376","0.0-181.0","","img/set1/S3.jpg","null","3","random","72","random,structured_incentive,structured_normal,structured_load","3,4,2,1,2,3","3,1,2,4","false","","",""
"null","","html-keyboard-response","182","9243730","0.0-182.0","","<img src=""img/set1/S3.jpg"" width=""540"" height = ""360"">","null","","","","","","","","","",""
"null","","html-keyboard-response","183","9243937","0.0-183.0","","","null","","","","","","","","","",""
"null","","image-keyboard-response","184","9246439","0.0-184.0","","img/set1/S4.jpg","null","4","random","74","random,structured_incentive,structured_normal,structured_load","3,4,2,1,2,3","3,1,2,4","false","","",""
"null","","html-keyboard-response","185","9246791","0.0-185.0","","<img src=""img/set1/S4.jpg"" width=""540"" height = ""360"">","null","","","","","","","","","",""
"null","","html-keyboard-response","186","9246993","0.0-186.0","","","null","","","","","","","","","",""
"null","","image-keyboard-response","187","9249502","0.0-187.0","","img/set1/S3.jpg","null","3","random","72","random,structured_incentive,structured_normal,structured_load","3,4,2,1,2,3","3,1,2,4","false","","",""
"null","","html-keyboard-response","188","9249855","0.0-188.0","","<img src=""img/set1/S3.jpg"" width=""540"" height = ""360"">","null","","","","","","","","","",""
"null","","html-keyboard-response","189","9250056","0.0-189.0","","","null","","","","","","","","","",""
"null","","image-keyboard-response","190","9252559","0.0-190.0","","img/set1/S3.jpg","null","3","random","72","random,structured_incentive,structured_normal,structured_load","3,4,2,1,2,3","3,1,2,4","false","","",""
"null","","html-keyboard-response","191","9252925","0.0-191.0","","<img src=""img/set1/S3.jpg"" width=""540"" height = ""360"">","null","","","","","","","","","",""
"null","","html-keyboard-response","192","9253130","0.0-192.0","","","null","","","","","","","","","",""
"null","","image-keyboard-response","193","9255639","0.0-193.0","","img/set1/S4.jpg","null","4","random","74","random,structured_incentive,structured_normal,structured_load","3,4,2,1,2,3","3,1,2,4","false","","",""
"null","","html-keyboard-response","194","9256005","0.0-194.0","","<img src=""img/set1/S4.jpg"" width=""540"" height = ""360"">","null","","","","","","","","","",""
"null","","html-keyboard-response","195","9256209","0.0-195.0","","","null","","","","","","","","","",""
"null","","image-keyboard-response","196","9258712","0.0-196.0","","img/set1/S1.jpg","null","1","random","83","random,structured_incentive,structured_normal,structured_load","3,4,2,1,2,3","3,1,2,4","false","","",""
"null","","html-keyboard-response","197","9259072","0.0-197.0","","<img src=""img/set1/S1.jpg"" width=""540"" height = ""360"">","null","","","","","","","","","",""
"null","","html-keyboard-response","198","9259277","0.0-198.0","","","null","","","","","","","","","",""
"null","","image-keyboard-response","199","9261795","0.0-199.0","","img/set1/S1.jpg","null","1","random","83","random,structured_incentive,structured_normal,structured_load","3,4,2,1,2,3","3,1,2,4","false","","",""
"null","","html-keyboard-response","200","9262152","0.0-200.0","","<img src=""img/set1/S1.jpg"" width=""540"" height = ""360"">","null","","","","","","","","","",""
"null","","html-keyboard-response","201","9262363","0.0-201.0","","","null","","","","","","","","","",""
"null","","image-keyboard-response","202","9264874","0.0-202.0","","img/set1/S2.jpg","null","2","random","68","random,structured_incentive,structured_normal,structured_load","3,4,2,1,2,3","3,1,2,4","false","","",""
"null","","html-keyboard-response","203","9265238","0.0-203.0","","<img src=""img/set1/S2.jpg"" width=""540"" height = ""360"">","null","","","","","","","","","",""
"null","","html-keyboard-response","204","9265441","0.0-204.0","","","null","","","","","","","","","",""
"null","","image-keyboard-response","205","9267948","0.0-205.0","","img/set1/S2.jpg","null","2","random","68","random,structured_incentive,structured_normal,structured_load","3,4,2,1,2,3","3,1,2,4","false","","",""
"null","","html-keyboard-response","206","9268308","0.0-206.0","","<img src=""img/set1/S2.jpg"" width=""540"" height = ""360"">","null","","","","","","","","","",""
"null","","html-keyboard-response","207","9268513","0.0-207.0","","","null","","","","","","","","","",""
"null","","image-keyboard-response","208","9271024","0.0-208.0","","img/set1/S3.jpg","null","3","random","72","random,structured_incentive,structured_normal,structured_load","3,4,2,1,2,3","3,1,2,4","false","","",""
"null","","html-keyboard-response","209","9271390","0.0-209.0","","<img src=""img/set1/S3.jpg"" width=""540"" height = ""360"">","null","","","","","","","","","",""
"null","","html-keyboard-response","210","9271594","0.0-210.0","","","null","","","","","","","","","",""
"null","","image-keyboard-response","211","9274104","0.0-211.0","","img/set1/S1.jpg","null","1","random","83","random,structured_incentive,structured_normal,structured_load","3,4,2,1,2,3","3,1,2,4","false","","",""
"null","","html-keyboard-response","212","9274456","0.0-212.0","","<img src=""img/set1/S1.jpg"" width=""540"" height = ""360"">","null","","","","","","","","","",""
"null","","html-keyboard-response","213","9274660","0.0-213.0","","","null","","","","","","","","","",""
"null","","image-keyboard-response","214","9277166","0.0-214.0","","img/set1/S1.jpg","null","1","random","83","random,structured_incentive,structured_normal,structured_load","3,4,2,1,2,3","3,1,2,4","false","","",""
"null","","html-keyboard-response","215","9277530","0.0-215.0","","<img src=""img/set1/S1.jpg"" width=""540"" height = ""360"">","null","","","","","","","","","",""
"null","","html-keyboard-response","216","9277734","0.0-216.0","","","null","","","","","","","","","",""
"null","","image-keyboard-response","217","9280244","0.0-217.0","","img/set1/S1.jpg","null","1","random","83","random,structured_incentive,structured_normal,structured_load","3,4,2,1,2,3","3,1,2,4","false","","",""
"null","","html-keyboard-response","218","9280609","0.0-218.0","","<img src=""img/set1/S1.jpg"" width=""540"" height = ""360"">","null","","","","","","","","","",""
"null","","html-keyboard-response","219","9280819","0.0-219.0","","","null","","","","","","","","","",""
"null","","image-keyboard-response","220","9283331","0.0-220.0","","img/set1/S4.jpg","null","4","random","74","random,structured_incentive,structured_normal,structured_load","3,4,2,1,2,3","3,1,2,4","false","","",""
"null","","html-keyboard-response","221","9283690","0.0-221.0","","<img src=""img/set1/S4.jpg"" width=""540"" height = ""360"">","null","","","","","","","","","",""
"null","","html-keyboard-response","222","9283894","0.0-222.0","","","null","","","","","","","","","",""
"null","","image-keyboard-response","223","9286410","0.0-223.0","","img/set1/S3.jpg","null","3","random","72","random,structured_incentive,structured_normal,structured_load","3,4,2,1,2,3","3,1,2,4","false","","",""
"null","","html-keyboard-response","224","9286762","0.0-224.0","","<img src=""img/set1/S3.jpg"" width=""540"" height = ""360"">","null","","","","","","","","","",""
"null","","html-keyboard-response","225","9286963","0.0-225.0","","","null","","","","","","","","","",""
"null","","image-keyboard-response","226","9289473","0.0-226.0","","img/set1/S3.jpg","null","3","random","72","random,structured_incentive,structured_normal,structured_load","3,4,2,1,2,3","3,1,2,4","false","","",""
"null","","html-keyboard-response","227","9289827","0.0-227.0","","<img src=""img/set1/S3.jpg"" width=""540"" height = ""360"">","null","","","","","","","","","",""
"null","","html-keyboard-response","228","9290032","0.0-228.0","","","null","","","","","","","","","",""
"null","","image-keyboard-response","229","9292543","0.0-229.0","","img/set1/S1.jpg","null","1","random","83","random,structured_incentive,structured_normal,structured_load","3,4,2,1,2,3","3,1,2,4","false","","",""
"null","","html-keyboard-response","230","9292904","0.0-230.0","","<img src=""img/set1/S1.jpg"" width=""540"" height = ""360"">","null","","","","","","","","","",""
"null","","html-keyboard-response","231","9293107","0.0-231.0","","","null","","","","","","","","","",""
"null","","image-keyboard-response","232","9295622","0.0-232.0","","img/set1/S1.jpg","null","1","random","83","random,structured_incentive,structured_normal,structured_load","3,4,2,1,2,3","3,1,2,4","false","","",""
"null","","html-keyboard-response","233","9295985","0.0-233.0","","<img src=""img/set1/S1.jpg"" width=""540"" height = ""360"">","null","","","","","","","","","",""
"null","","html-keyboard-response","234","9296195","0.0-234.0","","","null","","","","","","","","","",""
"null","","image-keyboard-response","235","9298709","0.0-235.0","","img/set1/S2.jpg","null","2","random","68","random,structured_incentive,structured_normal,structured_load","3,4,2,1,2,3","3,1,2,4","false","","",""
"null","","html-keyboard-response","236","9299062","0.0-236.0","","<img src=""img/set1/S2.jpg"" width=""540"" height = ""360"">","null","","","","","","","","","",""
"null","","html-keyboard-response","237","9299277","0.0-237.0","","","null","","","","","","","","","",""
"null","","image-keyboard-response","238","9301781","0.0-238.0","","img/set1/S1.jpg","null","1","random","83","random,structured_incentive,structured_normal,structured_load","3,4,2,1,2,3","3,1,2,4","false","","",""
"null","","html-keyboard-response","239","9302145","0.0-239.0","","<img src=""img/set1/S1.jpg"" width=""540"" height = ""360"">","null","","","","","","","","","",""
"null","","html-keyboard-response","240","9302351","0.0-240.0","","","null","","","","","","","","","",""
"null","","image-keyboard-response","241","9304852","0.0-241.0","","img/set1/S4.jpg","null","4","random","74","random,structured_incentive,structured_normal,structured_load","3,4,2,1,2,3","3,1,2,4","false","","",""
"null","","html-keyboard-response","242","9305204","0.0-242.0","","<img src=""img/set1/S4.jpg"" width=""540"" height = ""360"">","null","","","","","","","","","",""
"null","","html-keyboard-response","243","9305411","0.0-243.0","","","null","","","","","","","","","",""
"2419.7000000178814","","image-keyboard-response","244","9307832","0.0-244.0","","img/set1/S1.jpg","83","1","random","83","random,structured_incentive,structured_normal,structured_load","3,4,2,1,2,3","3,1,2,4","true","","",""
"null","","html-keyboard-response","245","9308199","0.0-245.0","","<img src=""img/set1/S1.jpg"" width=""540"" height = ""360"" style=""border:16px solid orange"">","null","","","","","","","","","",""
"null","","html-keyboard-response","246","9308404","0.0-246.0","","","null","","","","","","","","","",""
"940","","image-keyboard-response","247","9309345","0.0-247.0","","img/set1/S4.jpg","68","4","random","74","random,structured_incentive,structured_normal,structured_load","3,4,2,1,2,3","3,1,2,4","false","","",""
"null","","html-keyboard-response","248","9309708","0.0-248.0","","<img src=""img/set1/S4.jpg"" width=""540"" height = ""360"">","null","","","","","","","","","",""
"null","","html-keyboard-response","249","9309916","0.0-249.0","","","null","","","","","","","","","",""
"989.3000000119209","","image-keyboard-response","250","9310907","0.0-250.0","","img/set1/S2.jpg","68","2","random","68","random,structured_incentive,structured_normal,structured_load","3,4,2,1,2,3","3,1,2,4","true","","",""
"null","","html-keyboard-response","251","9311266","0.0-251.0","","<img src=""img/set1/S2.jpg"" width=""540"" height = ""360"" style=""border:16px solid orange"">","null","","","","","","","","","",""
"null","","html-keyboard-response","252","9311471","0.0-252.0","","","null","","","","","","","","","",""
"1098.5999999940395","","image-keyboard-response","253","9312571","0.0-253.0","","img/set1/S1.jpg","68","1","random","83","random,structured_incentive,structured_normal,structured_load","3,4,2,1,2,3","3,1,2,4","false","","",""
"null","","html-keyboard-response","254","9312926","0.0-254.0","","<img src=""img/set1/S1.jpg"" width=""540"" height = ""360"">","null","","","","","","","","","",""
"null","","html-keyboard-response","255","9313131","0.0-255.0","","","null","","","","","","","","","",""
"2175.699999988079","","image-keyboard-response","256","9315308","0.0-256.0","","img/set1/S1.jpg","68","1","random","83","random,structured_incentive,structured_normal,structured_load","3,4,2,1,2,3","3,1,2,4","false","","",""
"null","","html-keyboard-response","257","9315661","0.0-257.0","","<img src=""img/set1/S1.jpg"" width=""540"" height = ""360"">","null","","","","","","","","","",""
"null","","html-keyboard-response","258","9315866","0.0-258.0","","","null","","","","","","","","","",""
"394.40000000596046","","image-keyboard-response","259","9316262","0.0-259.0","","img/set1/S4.jpg","74","4","random","74","random,structured_incentive,structured_normal,structured_load","3,4,2,1,2,3","3,1,2,4","true","","",""
"null","","html-keyboard-response","260","9316626","0.0-260.0","","<img src=""img/set1/S4.jpg"" width=""540"" height = ""360"" style=""border:16px solid orange"">","null","","","","","","","","","",""
"null","","html-keyboard-response","261","9316833","0.0-261.0","","","null","","","","","","","","","",""
"1603.800000011921","","image-keyboard-response","262","9318438","0.0-262.0","","img/set1/S1.jpg","74","1","random","83","random,structured_incentive,structured_normal,structured_load","3,4,2,1,2,3","3,1,2,4","false","","",""
"null","","html-keyboard-response","263","9318803","0.0-263.0","","<img src=""img/set1/S1.jpg"" width=""540"" height = ""360"">","null","","","","","","","","","",""
"null","","html-keyboard-response","264","9319007","0.0-264.0","","","null","","","","","","","","","",""
"654.0999999940395","","image-keyboard-response","265","9319662","0.0-265.0","","img/set1/S3.jpg","74","3","random","72","random,structured_incentive,structured_normal,structured_load","3,4,2,1,2,3","3,1,2,4","false","","",""
"null","","html-keyboard-response","266","9320023","0.0-266.0","","<img src=""img/set1/S3.jpg"" width=""540"" height = ""360"">","null","","","","","","","","","",""
"null","","html-keyboard-response","267","9320228","0.0-267.0","","","null","","","","","","","","","",""
"1.0999999940395355","","image-keyboard-response","268","9320230","0.0-268.0","","img/set1/S2.jpg","68","2","random","68","random,structured_incentive,structured_normal,structured_load","3,4,2,1,2,3","3,1,2,4","true","","",""
"null","","html-keyboard-response","269","9320586","0.0-269.0","","<img src=""img/set1/S2.jpg"" width=""540"" height = ""360"" style=""border:16px solid orange"">","null","","","","","","","","","",""
"null","","html-keyboard-response","270","9320801","0.0-270.0","","","null","","","","","","","","","",""
"1437.699999988079","","image-keyboard-response","271","9322240","0.0-271.0","","img/set1/S1.jpg","83","1","random","83","random,structured_incentive,structured_normal,structured_load","3,4,2,1,2,3","3,1,2,4","true","","",""
"null","","html-keyboard-response","272","9322599","0.0-272.0","","<img src=""img/set1/S1.jpg"" width=""540"" height = ""360"" style=""border:16px solid orange"">","null","","","","","","","","","",""
"null","","html-keyboard-response","273","9322803","0.0-273.0","","","null","","","","","","","","","",""
"971.7999999821186","","image-keyboard-response","274","9323776","0.0-274.0","","img/set1/S3.jpg","74","3","random","72","random,structured_incentive,structured_normal,structured_load","3,4,2,1,2,3","3,1,2,4","false","","",""
"null","","html-keyboard-response","275","9324137","0.0-275.0","","<img src=""img/set1/S3.jpg"" width=""540"" height = ""360"">","null","","","","","","","","","",""
"null","","html-keyboard-response","276","9324345","0.0-276.0","","","null","","","","","","","","","",""
"1710.800000011921","","image-keyboard-response","277","9326057","0.0-277.0","","img/set1/S3.jpg","74","3","random","72","random,structured_incentive,structured_normal,structured_load","3,4,2,1,2,3","3,1,2,4","false","","",""
"null","","html-keyboard-response","278","9326418","0.0-278.0","","<img src=""img/set1/S3.jpg"" width=""540"" height = ""360"">","null","","","","","","","","","",""
"null","","html-keyboard-response","279","9326625","0.0-279.0","","","null","","","","","","","","","",""
"520.4000000059605","","image-keyboard-response","280","9327146","0.0-280.0","","img/set1/S2.jpg","68","2","random","68","random,structured_incentive,structured_normal,structured_load","3,4,2,1,2,3","3,1,2,4","true","","",""
"null","","html-keyboard-response","281","9327511","0.0-281.0","","<img src=""img/set1/S2.jpg"" width=""540"" height = ""360"" style=""border:16px solid orange"">","null","","","","","","","","","",""
"null","","html-keyboard-response","282","9327715","0.0-282.0","","","null","","","","","","","","","",""
"397.30000001192093","","image-keyboard-response","283","9328114","0.0-283.0","","img/set1/S2.jpg","83","2","random","68","random,structured_incentive,structured_normal,structured_load","3,4,2,1,2,3","3,1,2,4","false","","",""
"null","","html-keyboard-response","284","9328476","0.0-284.0","","<img src=""img/set1/S2.jpg"" width=""540"" height = ""360"">","null","","","","","","","","","",""
"null","","html-keyboard-response","285","9328683","0.0-285.0","","","null","","","","","","","","","",""
"583.1000000238419","","image-keyboard-response","286","9329267","0.0-286.0","","img/set1/S3.jpg","68","3","random","72","random,structured_incentive,structured_normal,structured_load","3,4,2,1,2,3","3,1,2,4","false","","",""
"null","","html-keyboard-response","287","9329629","0.0-287.0","","<img src=""img/set1/S3.jpg"" width=""540"" height = ""360"">","null","","","","","","","","","",""
"null","","html-keyboard-response","288","9329836","0.0-288.0","","","null","","","","","","","","","",""
"610.3999999761581","","image-keyboard-response","289","9330447","0.0-289.0","","img/set1/S2.jpg","68","2","random","68","random,structured_incentive,structured_normal,structured_load","3,4,2,1,2,3","3,1,2,4","true","","",""
"null","","html-keyboard-response","290","9330803","0.0-290.0","","<img src=""img/set1/S2.jpg"" width=""540"" height = ""360"" style=""border:16px solid orange"">","null","","","","","","","","","",""
"null","","html-keyboard-response","291","9331007","0.0-291.0","","","null","","","","","","","","","",""
"643.8999999761581","","image-keyboard-response","292","9331653","0.0-292.0","","img/set1/S3.jpg","74","3","random","72","random,structured_incentive,structured_normal,structured_load","3,4,2,1,2,3","3,1,2,4","false","","",""
"null","","html-keyboard-response","293","9332015","0.0-293.0","","<img src=""img/set1/S3.jpg"" width=""540"" height = ""360"">","null","","","","","","","","","",""
"null","","html-keyboard-response","294","9332222","0.0-294.0","","","null","","","","","","","","","",""
"597.9000000059605","","image-keyboard-response","295","9332821","0.0-295.0","","img/set1/S1.jpg","83","1","random","83","random,structured_incentive,structured_normal,structured_load","3,4,2,1,2,3","3,1,2,4","true","","",""
"null","","html-keyboard-response","296","9333184","0.0-296.0","","<img src=""img/set1/S1.jpg"" width=""540"" height = ""360"" style=""border:16px solid orange"">","null","","","","","","","","","",""
"null","","html-keyboard-response","297","9333388","0.0-297.0","","","null","","","","","","","","","",""
"679.2999999821186","","image-keyboard-response","298","9334069","0.0-298.0","","img/set1/S1.jpg","83","1","random","83","random,structured_incentive,structured_normal,structured_load","3,4,2,1,2,3","3,1,2,4","true","","",""
"null","","html-keyboard-response","299","9334435","0.0-299.0","","<img src=""img/set1/S1.jpg"" width=""540"" height = ""360"" style=""border:16px solid orange"">","null","","","","","","","","","",""
"null","","html-keyboard-response","300","9334640","0.0-300.0","","","null","","","","","","","","","",""
"548.7000000178814","","image-keyboard-response","301","9335190","0.0-301.0","","img/set1/S1.jpg","83","1","random","83","random,structured_incentive,structured_normal,structured_load","3,4,2,1,2,3","3,1,2,4","true","","",""
"null","","html-keyboard-response","302","9335545","0.0-302.0","","<img src=""img/set1/S1.jpg"" width=""540"" height = ""360"" style=""border:16px solid orange"">","null","","","","","","","","","",""
"null","","html-keyboard-response","303","9335753","0.0-303.0","","","null","","","","","","","","","",""
"740.1999999880791","","image-keyboard-response","304","9336494","0.0-304.0","","img/set1/S3.jpg","74","3","random","72","random,structured_incentive,structured_normal,structured_load","3,4,2,1,2,3","3,1,2,4","false","","",""
"null","","html-keyboard-response","305","9336849","0.0-305.0","","<img src=""img/set1/S3.jpg"" width=""540"" height = ""360"">","null","","","","","","","","","",""
"null","","html-keyboard-response","306","9337054","0.0-306.0","","","null","","","","","","","","","",""
"664.4000000059605","","image-keyboard-response","307","9337719","0.0-307.0","","img/set1/S1.jpg","83","1","random","83","random,structured_incentive,structured_normal,structured_load","3,4,2,1,2,3","3,1,2,4","true","","",""
"null","","html-keyboard-response","308","9338082","0.0-308.0","","<img src=""img/set1/S1.jpg"" width=""540"" height = ""360"" style=""border:16px solid orange"">","null","","","","","","","","","",""
"null","","html-keyboard-response","309","9338288","0.0-309.0","","","null","","","","","","","","","",""
"677.5999999940395","","image-keyboard-response","310","9338967","0.0-310.0","","img/set1/S3.jpg","74","3","random","72","random,structured_incentive,structured_normal,structured_load","3,4,2,1,2,3","3,1,2,4","false","","",""
"null","","html-keyboard-response","311","9339332","0.0-311.0","","<img src=""img/set1/S3.jpg"" width=""540"" height = ""360"">","null","","","","","","","","","",""
"null","","html-keyboard-response","312","9339536","0.0-312.0","","","null","","","","","","","","","",""
"743.7999999821186","","image-keyboard-response","313","9340281","0.0-313.0","","img/set1/S4.jpg","83","4","random","74","random,structured_incentive,structured_normal,structured_load","3,4,2,1,2,3","3,1,2,4","false","","",""
"null","","html-keyboard-response","314","9340637","0.0-314.0","","<img src=""img/set1/S4.jpg"" width=""540"" height = ""360"">","null","","","","","","","","","",""
"null","","html-keyboard-response","315","9340840","0.0-315.0","","","null","","","","","","","","","",""
"431.19999998807907","","image-keyboard-response","316","9341273","0.0-316.0","","img/set1/S4.jpg","74","4","random","74","random,structured_incentive,structured_normal,structured_load","3,4,2,1,2,3","3,1,2,4","true","","",""
"null","","html-keyboard-response","317","9341626","0.0-317.0","","<img src=""img/set1/S4.jpg"" width=""540"" height = ""360"" style=""border:16px solid orange"">","null","","","","","","","","","",""
"null","","html-keyboard-response","318","9341832","0.0-318.0","","","null","","","","","","","","","",""
"303.39999997615814","","image-keyboard-response","319","9342137","0.0-319.0","","img/set1/S1.jpg","74","1","random","83","random,structured_incentive,structured_normal,structured_load","3,4,2,1,2,3","3,1,2,4","false","","",""
"null","","html-keyboard-response","320","9342499","0.0-320.0","","<img src=""img/set1/S1.jpg"" width=""540"" height = ""360"">","null","","","","","","","","","",""
"null","","html-keyboard-response","321","9342703","0.0-321.0","","","null","","","","","","","","","",""
"265.5","","image-keyboard-response","322","9342970","0.0-322.0","","img/set1/S1.jpg","83","1","random","83","random,structured_incentive,structured_normal,structured_load","3,4,2,1,2,3","3,1,2,4","true","","",""
"null","","html-keyboard-response","323","9343330","0.0-323.0","","<img src=""img/set1/S1.jpg"" width=""540"" height = ""360"" style=""border:16px solid orange"">","null","","","","","","","","","",""
"null","","html-keyboard-response","324","9343537","0.0-324.0","","","null","","","","","","","","","",""
"455.40000000596046","","image-keyboard-response","325","9343994","0.0-325.0","","img/set1/S4.jpg","68","4","random","74","random,structured_incentive,structured_normal,structured_load","3,4,2,1,2,3","3,1,2,4","false","","",""
"null","","html-keyboard-response","326","9344360","0.0-326.0","","<img src=""img/set1/S4.jpg"" width=""540"" height = ""360"">","null","","","","","","","","","",""
"null","","html-keyboard-response","327","9344566","0.0-327.0","","","null","","","","","","","","","",""
"642.8999999761581","","image-keyboard-response","328","9345210","0.0-328.0","","img/set1/S1.jpg","83","1","random","83","random,structured_incentive,structured_normal,structured_load","3,4,2,1,2,3","3,1,2,4","true","","",""
"null","","html-keyboard-response","329","9345565","0.0-329.0","","<img src=""img/set1/S1.jpg"" width=""540"" height = ""360"" style=""border:16px solid orange"">","null","","","","","","","","","",""
"null","","html-keyboard-response","330","9345769","0.0-330.0","","","null","","","","","","","","","",""
"432.7999999821186","","image-keyboard-response","331","9346203","0.0-331.0","","img/set1/S4.jpg","68","4","random","74","random,structured_incentive,structured_normal,structured_load","3,4,2,1,2,3","3,1,2,4","false","","",""
"null","","html-keyboard-response","332","9346559","0.0-332.0","","<img src=""img/set1/S4.jpg"" width=""540"" height = ""360"">","null","","","","","","","","","",""
"null","","html-keyboard-response","333","9346771","0.0-333.0","","","null","","","","","","","","","",""
"1143","","image-keyboard-response","334","9347916","0.0-334.0","","img/set1/S4.jpg","83","4","random","74","random,structured_incentive,structured_normal,structured_load","3,4,2,1,2,3","3,1,2,4","false","","",""
"null","","html-keyboard-response","335","9348281","0.0-335.0","","<img src=""img/set1/S4.jpg"" width=""540"" height = ""360"">","null","","","","","","","","","",""
"null","","html-keyboard-response","336","9348485","0.0-336.0","","","null","","","","","","","","","",""
"181.59999999403954","","image-keyboard-response","337","9348668","0.0-337.0","","img/set1/S1.jpg","83","1","random","83","random,structured_incentive,structured_normal,structured_load","3,4,2,1,2,3","3,1,2,4","true","","",""
"null","","html-keyboard-response","338","9349034","0.0-338.0","","<img src=""img/set1/S1.jpg"" width=""540"" height = ""360"" style=""border:16px solid orange"">","null","","","","","","","","","",""
"null","","html-keyboard-response","339","9349238","0.0-339.0","","","null","","","","","","","","","",""
"389.2000000178814","","image-keyboard-response","340","9349629","0.0-340.0","","img/set1/S2.jpg","83","2","random","68","random,structured_incentive,structured_normal,structured_load","3,4,2,1,2,3","3,1,2,4","false","","",""
"null","","html-keyboard-response","341","9349993","0.0-341.0","","<img src=""img/set1/S2.jpg"" width=""540"" height = ""360"">","null","","","","","","","","","",""
"null","","html-keyboard-response","342","9350195","0.0-342.0","","","null","","","","","","","","","",""
"44.80000001192093","","image-keyboard-response","343","9350241","0.0-343.0","","img/set1/S1.jpg","74","1","random","83","random,structured_incentive,structured_normal,structured_load","3,4,2,1,2,3","3,1,2,4","false","","",""
"null","","html-keyboard-response","344","9350593","0.0-344.0","","<img src=""img/set1/S1.jpg"" width=""540"" height = ""360"">","null","","","","","","","","","",""
"null","","html-keyboard-response","345","9350796","0.0-345.0","","","null","","","","","","","","","",""
"191.19999998807907","","image-keyboard-response","346","9350989","0.0-346.0","","img/set1/S4.jpg","83","4","random","74","random,structured_incentive,structured_normal,structured_load","3,4,2,1,2,3","3,1,2,4","false","","",""
"null","","html-keyboard-response","347","9351348","0.0-347.0","","<img src=""img/set1/S4.jpg"" width=""540"" height = ""360"">","null","","","","","","","","","",""
"null","","html-keyboard-response","348","9351550","0.0-348.0","","","null","","","","","","","","","",""
"158.5","","image-keyboard-response","349","9351710","0.0-349.0","","img/set1/S2.jpg","83","2","random","68","random,structured_incentive,structured_normal,structured_load","3,4,2,1,2,3","3,1,2,4","false","","",""
"null","","html-keyboard-response","350","9352063","0.0-350.0","","<img src=""img/set1/S2.jpg"" width=""540"" height = ""360"">","null","","","","","","","","","",""
"null","","html-keyboard-response","351","9352271","0.0-351.0","","","null","","","","","","","","","",""
"229.40000000596046","","image-keyboard-response","352","9352502","0.0-352.0","","img/set1/S2.jpg","83","2","random","68","random,structured_incentive,structured_normal,structured_load","3,4,2,1,2,3","3,1,2,4","false","","",""
"null","","html-keyboard-response","353","9352868","0.0-353.0","","<img src=""img/set1/S2.jpg"" width=""540"" height = ""360"">","null","","","","","","","","","",""
"null","","html-keyboard-response","354","9353071","0.0-354.0","","","null","","","","","","","","","",""
"197.30000001192093","","image-keyboard-response","355","9353270","0.0-355.0","","img/set1/S1.jpg","68","1","random","83","random,structured_incentive,structured_normal,structured_load","3,4,2,1,2,3","3,1,2,4","false","","",""
"null","","html-keyboard-response","356","9353622","0.0-356.0","","<img src=""img/set1/S1.jpg"" width=""540"" height = ""360"">","null","","","","","","","","","",""
"null","","html-keyboard-response","357","9353836","0.0-357.0","","","null","","","","","","","","","",""
"1185.800000011921","","image-keyboard-response","358","9355023","0.0-358.0","","img/set1/S4.jpg","68","4","random","74","random,structured_incentive,structured_normal,structured_load","3,4,2,1,2,3","3,1,2,4","false","","",""
"null","","html-keyboard-response","359","9355389","0.0-359.0","","<img src=""img/set1/S4.jpg"" width=""540"" height = ""360"">","null","","","","","","","","","",""
"null","","html-keyboard-response","360","9355593","0.0-360.0","","","null","","","","","","","","","",""
"597.9000000059605","","image-keyboard-response","361","9356192","0.0-361.0","","img/set1/S3.jpg","74","3","random","72","random,structured_incentive,structured_normal,structured_load","3,4,2,1,2,3","3,1,2,4","false","","",""
"null","","html-keyboard-response","362","9356544","0.0-362.0","","<img src=""img/set1/S3.jpg"" width=""540"" height = ""360"">","null","","","","","","","","","",""
"null","","html-keyboard-response","363","9356747","0.0-363.0","","","null","","","","","","","","","",""
"35909.80000001192","","html-keyboard-response","364","9392658","0.0-364.0","","<p class=""center-content"">You have completed a block! </p><p class=""center-content"">Press any key on the keyboard to continue, </p><p class=""center-content"">or wait for the automatic progression to the next block after one minute.</p>","32","","","","","","","","","",""
"7290.5999999940395","","instructions","365","9399949","0.0-365.0","[{""page_index"":0,""viewing_time"":7290.200000017881}]","","","","","","","","","","","",""
"19709.80000001192","","instructions","366","9419660","0.0-366.0","[{""page_index"":0,""viewing_time"":16234.800000011921},{""page_index"":1,""viewing_time"":3474.5}]","","","","","","","","","","","",""
"1418","","image-keyboard-response","367","9421079","0.0-367.0","","img/set2/S1.jpg","83","1","structured_incentive","83","random,structured_incentive,structured_normal,structured_load","3,4,2,1,2,3","3,1,2,4","true","","",""
"null","","html-keyboard-response","368","9421432","0.0-368.0","","<img src=""img/set2/S1.jpg"" width=""540"" height = ""360"" style=""border:16px solid orange"">","null","","","","","","","","","",""
"null","","html-keyboard-response","369","9421639","0.0-369.0","","","null","","","","","","","","","",""
"1703.5","","image-keyboard-response","370","9423344","0.0-370.0","","img/set2/S1.jpg","83","1","structured_incentive","83","random,structured_incentive,structured_normal,structured_load","3,4,2,1,2,3","3,1,2,4","true","","",""
"null","","html-keyboard-response","371","9423697","0.0-371.0","","<img src=""img/set2/S1.jpg"" width=""540"" height = ""360"" style=""border:16px solid orange"">","null","","","","","","","","","",""
"null","","html-keyboard-response","372","9423907","0.0-372.0","","","null","","","","","","","","","",""
"1181.5999999940395","","image-keyboard-response","373","9425090","0.0-373.0","","img/set2/S3.jpg","68","3","structured_incentive","72","random,structured_incentive,structured_normal,structured_load","3,4,2,1,2,3","3,1,2,4","false","","",""
"null","","html-keyboard-response","374","9425452","0.0-374.0","","<img src=""img/set2/S3.jpg"" width=""540"" height = ""360"">","null","","","","","","","","","",""
"null","","html-keyboard-response","375","9425664","0.0-375.0","","","null","","","","","","","","","",""
"809","","image-keyboard-response","376","9426474","0.0-376.0","","img/set2/S4.jpg","72","4","structured_incentive","74","random,structured_incentive,structured_normal,structured_load","3,4,2,1,2,3","3,1,2,4","false","","",""
"null","","html-keyboard-response","377","9426837","0.0-377.0","","<img src=""img/set2/S4.jpg"" width=""540"" height = ""360"">","null","","","","","","","","","",""
"null","","html-keyboard-response","378","9427041","0.0-378.0","","","null","","","","","","","","","",""
"631.9000000059605","","image-keyboard-response","379","9427674","0.0-379.0","","img/set2/S1.jpg","83","1","structured_incentive","83","random,structured_incentive,structured_normal,structured_load","3,4,2,1,2,3","3,1,2,4","true","","",""
"null","","html-keyboard-response","380","9428038","0.0-380.0","","<img src=""img/set2/S1.jpg"" width=""540"" height = ""360"" style=""border:16px solid orange"">","null","","","","","","","","","",""
"null","","html-keyboard-response","381","9428243","0.0-381.0","","","null","","","","","","","","","",""
"991.0999999940395","","image-keyboard-response","382","9429235","0.0-382.0","","img/set2/S2.jpg","68","2","structured_incentive","68","random,structured_incentive,structured_normal,structured_load","3,4,2,1,2,3","3,1,2,4","true","","",""
"null","","html-keyboard-response","383","9429594","0.0-383.0","","<img src=""img/set2/S2.jpg"" width=""540"" height = ""360"" style=""border:16px solid orange"">","null","","","","","","","","","",""
"null","","html-keyboard-response","384","9429801","0.0-384.0","","","null","","","","","","","","","",""
"650","","image-keyboard-response","385","9430452","0.0-385.0","","img/set2/S1.jpg","83","1","structured_incentive","83","random,structured_incentive,structured_normal,structured_load","3,4,2,1,2,3","3,1,2,4","true","","",""
"null","","html-keyboard-response","386","9430812","0.0-386.0","","<img src=""img/set2/S1.jpg"" width=""540"" height = ""360"" style=""border:16px solid orange"">","null","","","","","","","","","",""
"null","","html-keyboard-response","387","9431016","0.0-387.0","","","null","","","","","","","","","",""
"450.69999998807907","","image-keyboard-response","388","9431468","0.0-388.0","","img/set2/S2.jpg","68","2","structured_incentive","68","random,structured_incentive,structured_normal,structured_load","3,4,2,1,2,3","3,1,2,4","true","","",""
"null","","html-keyboard-response","389","9431821","0.0-389.0","","<img src=""img/set2/S2.jpg"" width=""540"" height = ""360"" style=""border:16px solid orange"">","null","","","","","","","","","",""
"null","","html-keyboard-response","390","9432038","0.0-390.0","","","null","","","","","","","","","",""
"605.6999999880791","","image-keyboard-response","391","9432645","0.0-391.0","","img/set2/S2.jpg","83","2","structured_incentive","68","random,structured_incentive,structured_normal,structured_load","3,4,2,1,2,3","3,1,2,4","false","","",""
"null","","html-keyboard-response","392","9433008","0.0-392.0","","<img src=""img/set2/S2.jpg"" width=""540"" height = ""360"">","null","","","","","","","","","",""
"null","","html-keyboard-response","393","9433213","0.0-393.0","","","null","","","","","","","","","",""
"552.1999999880791","","image-keyboard-response","394","9433766","0.0-394.0","","img/set2/S1.jpg","83","1","structured_incentive","83","random,structured_incentive,structured_normal,structured_load","3,4,2,1,2,3","3,1,2,4","true","","",""
"null","","html-keyboard-response","395","9434126","0.0-395.0","","<img src=""img/set2/S1.jpg"" width=""540"" height = ""360"" style=""border:16px solid orange"">","null","","","","","","","","","",""
"null","","html-keyboard-response","396","9434334","0.0-396.0","","","null","","","","","","","","","",""
"726.5999999940395","","image-keyboard-response","397","9435062","0.0-397.0","","img/set2/S3.jpg","74","3","structured_incentive","72","random,structured_incentive,structured_normal,structured_load","3,4,2,1,2,3","3,1,2,4","false","","",""
"null","","html-keyboard-response","398","9435414","0.0-398.0","","<img src=""img/set2/S3.jpg"" width=""540"" height = ""360"">","null","","","","","","","","","",""
"null","","html-keyboard-response","399","9435619","0.0-399.0","","","null","","","","","","","","","",""
"1235.699999988079","","image-keyboard-response","400","9436856","0.0-400.0","","img/set2/S4.jpg","74","4","structured_incentive","74","random,structured_incentive,structured_normal,structured_load","3,4,2,1,2,3","3,1,2,4","true","","",""
"null","","html-keyboard-response","401","9437211","0.0-401.0","","<img src=""img/set2/S4.jpg"" width=""540"" height = ""360"" style=""border:16px solid Violet"">","null","","","","","","","","","",""
"null","","html-keyboard-response","402","9437416","0.0-402.0","","","null","","","","","","","","","",""
"1182.2999999821186","","image-keyboard-response","403","9438600","0.0-403.0","","img/set2/S2.jpg","68","2","structured_incentive","68","random,structured_incentive,structured_normal,structured_load","3,4,2,1,2,3","3,1,2,4","true","","",""
"null","","html-keyboard-response","404","9438957","0.0-404.0","","<img src=""img/set2/S2.jpg"" width=""540"" height = ""360"" style=""border:16px solid orange"">","null","","","","","","","","","",""
"null","","html-keyboard-response","405","9439160","0.0-405.0","","","null","","","","","","","","","",""
"1932.0999999940395","","image-keyboard-response","406","9441094","0.0-406.0","","img/set2/S3.jpg","74","3","structured_incentive","72","random,structured_incentive,structured_normal,structured_load","3,4,2,1,2,3","3,1,2,4","false","","",""
"null","","html-keyboard-response","407","9441458","0.0-407.0","","<img src=""img/set2/S3.jpg"" width=""540"" height = ""360"">","null","","","","","","","","","",""
"null","","html-keyboard-response","408","9441664","0.0-408.0","","","null","","","","","","","","","",""
"568.4000000059605","","image-keyboard-response","409","9442234","0.0-409.0","","img/set2/S4.jpg","74","4","structured_incentive","74","random,structured_incentive,structured_normal,structured_load","3,4,2,1,2,3","3,1,2,4","true","","",""
"null","","html-keyboard-response","410","9442589","0.0-410.0","","<img src=""img/set2/S4.jpg"" width=""540"" height = ""360"" style=""border:16px solid Violet"">","null","","","","","","","","","",""
"null","","html-keyboard-response","411","9442796","0.0-411.0","","","null","","","","","","","","","",""
"628.2999999821186","","image-keyboard-response","412","9443426","0.0-412.0","","img/set2/S1.jpg","83","1","structured_incentive","83","random,structured_incentive,structured_normal,structured_load","3,4,2,1,2,3","3,1,2,4","true","","",""
"null","","html-keyboard-response","413","9443790","0.0-413.0","","<img src=""img/set2/S1.jpg"" width=""540"" height = ""360"" style=""border:16px solid orange"">","null","","","","","","","","","",""
"null","","html-keyboard-response","414","9443995","0.0-414.0","","","null","","","","","","","","","",""
"735","","image-keyboard-response","415","9444731","0.0-415.0","","img/set2/S3.jpg","68","3","structured_incentive","72","random,structured_incentive,structured_normal,structured_load","3,4,2,1,2,3","3,1,2,4","false","","",""
"null","","html-keyboard-response","416","9445085","0.0-416.0","","<img src=""img/set2/S3.jpg"" width=""540"" height = ""360"">","null","","","","","","","","","",""
"null","","html-keyboard-response","417","9445289","0.0-417.0","","","null","","","","","","","","","",""
"528","","image-keyboard-response","418","9445819","0.0-418.0","","img/set2/S4.jpg","74","4","structured_incentive","74","random,structured_incentive,structured_normal,structured_load","3,4,2,1,2,3","3,1,2,4","true","","",""
"null","","html-keyboard-response","419","9446174","0.0-419.0","","<img src=""img/set2/S4.jpg"" width=""540"" height = ""360"" style=""border:16px solid Violet"">","null","","","","","","","","","",""
"null","","html-keyboard-response","420","9446380","0.0-420.0","","","null","","","","","","","","","",""
"1295.4000000059605","","image-keyboard-response","421","9447676","0.0-421.0","","img/set2/S3.jpg","68","3","structured_incentive","72","random,structured_incentive,structured_normal,structured_load","3,4,2,1,2,3","3,1,2,4","false","","",""
"null","","html-keyboard-response","422","9448032","0.0-422.0","","<img src=""img/set2/S3.jpg"" width=""540"" height = ""360"">","null","","","","","","","","","",""
"null","","html-keyboard-response","423","9448240","0.0-423.0","","","null","","","","","","","","","",""
"651.1999999880791","","image-keyboard-response","424","9448893","0.0-424.0","","img/set2/S4.jpg","74","4","structured_incentive","74","random,structured_incentive,structured_normal,structured_load","3,4,2,1,2,3","3,1,2,4","true","","",""
"null","","html-keyboard-response","425","9449259","0.0-425.0","","<img src=""img/set2/S4.jpg"" width=""540"" height = ""360"" style=""border:16px solid Violet"">","null","","","","","","","","","",""
"null","","html-keyboard-response","426","9449461","0.0-426.0","","","null","","","","","","","","","",""
"629.1999999880791","","image-keyboard-response","427","9450093","0.0-427.0","","img/set2/S1.jpg","83","1","structured_incentive","83","random,structured_incentive,structured_normal,structured_load","3,4,2,1,2,3","3,1,2,4","true","","",""
"null","","html-keyboard-response","428","9450456","0.0-428.0","","<img src=""img/set2/S1.jpg"" width=""540"" height = ""360"" style=""border:16px solid orange"">","null","","","","","","","","","",""
"null","","html-keyboard-response","429","9450661","0.0-429.0","","","null","","","","","","","","","",""
"679.2999999821186","","image-keyboard-response","430","9451342","0.0-430.0","","img/set2/S2.jpg","68","2","structured_incentive","68","random,structured_incentive,structured_normal,structured_load","3,4,2,1,2,3","3,1,2,4","true","","",""
"null","","html-keyboard-response","431","9451703","0.0-431.0","","<img src=""img/set2/S2.jpg"" width=""540"" height = ""360"" style=""border:16px solid orange"">","null","","","","","","","","","",""
"null","","html-keyboard-response","432","9451910","0.0-432.0","","","null","","","","","","","","","",""
"585.3000000119209","","image-keyboard-response","433","9452497","0.0-433.0","","img/set2/S2.jpg","68","2","structured_incentive","68","random,structured_incentive,structured_normal,structured_load","3,4,2,1,2,3","3,1,2,4","true","","",""
"null","","html-keyboard-response","434","9452857","0.0-434.0","","<img src=""img/set2/S2.jpg"" width=""540"" height = ""360"" style=""border:16px solid orange"">","null","","","","","","","","","",""
"null","","html-keyboard-response","435","9453062","0.0-435.0","","","null","","","","","","","","","",""
"504.5","","image-keyboard-response","436","9453568","0.0-436.0","","img/set2/S1.jpg","68","1","structured_incentive","83","random,structured_incentive,structured_normal,structured_load","3,4,2,1,2,3","3,1,2,4","false","","",""
"null","","html-keyboard-response","437","9453929","0.0-437.0","","<img src=""img/set2/S1.jpg"" width=""540"" height = ""360"">","null","","","","","","","","","",""
"null","","html-keyboard-response","438","9454133","0.0-438.0","","","null","","","","","","","","","",""
"433.5","","image-keyboard-response","439","9454568","0.0-439.0","","img/set2/S1.jpg","83","1","structured_incentive","83","random,structured_incentive,structured_normal,structured_load","3,4,2,1,2,3","3,1,2,4","true","","",""
"null","","html-keyboard-response","440","9454930","0.0-440.0","","<img src=""img/set2/S1.jpg"" width=""540"" height = ""360"" style=""border:16px solid orange"">","null","","","","","","","","","",""
"null","","html-keyboard-response","441","9455134","0.0-441.0","","","null","","","","","","","","","",""
"609.7999999821186","","image-keyboard-response","442","9455745","0.0-442.0","","img/set2/S2.jpg","68","2","structured_incentive","68","random,structured_incentive,structured_normal,structured_load","3,4,2,1,2,3","3,1,2,4","true","","",""
"null","","html-keyboard-response","443","9456109","0.0-443.0","","<img src=""img/set2/S2.jpg"" width=""540"" height = ""360"" style=""border:16px solid orange"">","null","","","","","","","","","",""
"null","","html-keyboard-response","444","9456312","0.0-444.0","","","null","","","","","","","","","",""
"431.19999998807907","","image-keyboard-response","445","9456744","0.0-445.0","","img/set2/S2.jpg","68","2","structured_incentive","68","random,structured_incentive,structured_normal,structured_load","3,4,2,1,2,3","3,1,2,4","true","","",""
"null","","html-keyboard-response","446","9457110","0.0-446.0","","<img src=""img/set2/S2.jpg"" width=""540"" height = ""360"" style=""border:16px solid orange"">","null","","","","","","","","","",""
"null","","html-keyboard-response","447","9457312","0.0-447.0","","","null","","","","","","","","","",""
"496.19999998807907","","image-keyboard-response","448","9457809","0.0-448.0","","img/set2/S2.jpg","68","2","structured_incentive","68","random,structured_incentive,structured_normal,structured_load","3,4,2,1,2,3","3,1,2,4","true","","",""
"null","","html-keyboard-response","449","9458173","0.0-449.0","","<img src=""img/set2/S2.jpg"" width=""540"" height = ""360"" style=""border:16px solid orange"">","null","","","","","","","","","",""
"null","","html-keyboard-response","450","9458377","0.0-450.0","","","null","","","","","","","","","",""
"582.0999999940395","","image-keyboard-response","451","9458961","0.0-451.0","","img/set2/S1.jpg","83","1","structured_incentive","83","random,structured_incentive,structured_normal,structured_load","3,4,2,1,2,3","3,1,2,4","true","","",""
"null","","html-keyboard-response","452","9459319","0.0-452.0","","<img src=""img/set2/S1.jpg"" width=""540"" height = ""360"" style=""border:16px solid orange"">","null","","","","","","","","","",""
"null","","html-keyboard-response","453","9459524","0.0-453.0","","","null","","","","","","","","","",""
"572.8999999761581","","image-keyboard-response","454","9460098","0.0-454.0","","img/set2/S2.jpg","68","2","structured_incentive","68","random,structured_incentive,structured_normal,structured_load","3,4,2,1,2,3","3,1,2,4","true","","",""
"null","","html-keyboard-response","455","9460462","0.0-455.0","","<img src=""img/set2/S2.jpg"" width=""540"" height = ""360"" style=""border:16px solid orange"">","null","","","","","","","","","",""
"null","","html-keyboard-response","456","9460666","0.0-456.0","","","null","","","","","","","","","",""
"502.60000002384186","","image-keyboard-response","457","9461170","0.0-457.0","","img/set2/S1.jpg","68","1","structured_incentive","83","random,structured_incentive,structured_normal,structured_load","3,4,2,1,2,3","3,1,2,4","false","","",""
"null","","html-keyboard-response","458","9461533","0.0-458.0","","<img src=""img/set2/S1.jpg"" width=""540"" height = ""360"">","null","","","","","","","","","",""
"null","","html-keyboard-response","459","9461743","0.0-459.0","","","null","","","","","","","","","",""
"803.4000000059605","","image-keyboard-response","460","9462547","0.0-460.0","","img/set2/S3.jpg","74","3","structured_incentive","72","random,structured_incentive,structured_normal,structured_load","3,4,2,1,2,3","3,1,2,4","false","","",""
"null","","html-keyboard-response","461","9462899","0.0-461.0","","<img src=""img/set2/S3.jpg"" width=""540"" height = ""360"">","null","","","","","","","","","",""
"null","","html-keyboard-response","462","9463109","0.0-462.0","","","null","","","","","","","","","",""
"509.69999998807907","","image-keyboard-response","463","9463620","0.0-463.0","","img/set2/S4.jpg","74","4","structured_incentive","74","random,structured_incentive,structured_normal,structured_load","3,4,2,1,2,3","3,1,2,4","true","","",""
"null","","html-keyboard-response","464","9463976","0.0-464.0","","<img src=""img/set2/S4.jpg"" width=""540"" height = ""360"" style=""border:16px solid Violet"">","null","","","","","","","","","",""
"null","","html-keyboard-response","465","9464180","0.0-465.0","","","null","","","","","","","","","",""
"607.0999999940395","","image-keyboard-response","466","9464788","0.0-466.0","","img/set2/S2.jpg","68","2","structured_incentive","68","random,structured_incentive,structured_normal,structured_load","3,4,2,1,2,3","3,1,2,4","true","","",""
"null","","html-keyboard-response","467","9465145","0.0-467.0","","<img src=""img/set2/S2.jpg"" width=""540"" height = ""360"" style=""border:16px solid orange"">","null","","","","","","","","","",""
"null","","html-keyboard-response","468","9465349","0.0-468.0","","","null","","","","","","","","","",""
"743.9000000059605","","image-keyboard-response","469","9466094","0.0-469.0","","img/set2/S3.jpg","74","3","structured_incentive","72","random,structured_incentive,structured_normal,structured_load","3,4,2,1,2,3","3,1,2,4","false","","",""
"null","","html-keyboard-response","470","9466457","0.0-470.0","","<img src=""img/set2/S3.jpg"" width=""540"" height = ""360"">","null","","","","","","","","","",""
"null","","html-keyboard-response","471","9466660","0.0-471.0","","","null","","","","","","","","","",""
"559.5999999940395","","image-keyboard-response","472","9467221","0.0-472.0","","img/set2/S4.jpg","74","4","structured_incentive","74","random,structured_incentive,structured_normal,structured_load","3,4,2,1,2,3","3,1,2,4","true","","",""
"null","","html-keyboard-response","473","9467586","0.0-473.0","","<img src=""img/set2/S4.jpg"" width=""540"" height = ""360"" style=""border:16px solid Violet"">","null","","","","","","","","","",""
"null","","html-keyboard-response","474","9467791","0.0-474.0","","","null","","","","","","","","","",""
"605.9000000059605","","image-keyboard-response","475","9468398","0.0-475.0","","img/set2/S2.jpg","68","2","structured_incentive","68","random,structured_incentive,structured_normal,structured_load","3,4,2,1,2,3","3,1,2,4","true","","",""
"null","","html-keyboard-response","476","9468764","0.0-476.0","","<img src=""img/set2/S2.jpg"" width=""540"" height = ""360"" style=""border:16px solid orange"">","null","","","","","","","","","",""
"null","","html-keyboard-response","477","9468978","0.0-477.0","","","null","","","","","","","","","",""
"531.3000000119209","","image-keyboard-response","478","9469510","0.0-478.0","","img/set2/S1.jpg","83","1","structured_incentive","83","random,structured_incentive,structured_normal,structured_load","3,4,2,1,2,3","3,1,2,4","true","","",""
"null","","html-keyboard-response","479","9469863","0.0-479.0","","<img src=""img/set2/S1.jpg"" width=""540"" height = ""360"" style=""border:16px solid orange"">","null","","","","","","","","","",""
"null","","html-keyboard-response","480","9470077","0.0-480.0","","","null","","","","","","","","","",""
"880.2999999821186","","image-keyboard-response","481","9470959","0.0-481.0","","img/set2/S2.jpg","68","2","structured_incentive","68","random,structured_incentive,structured_normal,structured_load","3,4,2,1,2,3","3,1,2,4","true","","",""
"null","","html-keyboard-response","482","9471324","0.0-482.0","","<img src=""img/set2/S2.jpg"" width=""540"" height = ""360"" style=""border:16px solid orange"">","null","","","","","","","","","",""
"null","","html-keyboard-response","483","9471527","0.0-483.0","","","null","","","","","","","","","",""
"711.5","","image-keyboard-response","484","9472240","0.0-484.0","","img/set2/S2.jpg","68","2","structured_incentive","68","random,structured_incentive,structured_normal,structured_load","3,4,2,1,2,3","3,1,2,4","true","","",""
"null","","html-keyboard-response","485","9472597","0.0-485.0","","<img src=""img/set2/S2.jpg"" width=""540"" height = ""360"" style=""border:16px solid orange"">","null","","","","","","","","","",""
"null","","html-keyboard-response","486","9472806","0.0-486.0","","","null","","","","","","","","","",""
"496.19999998807907","","image-keyboard-response","487","9473304","0.0-487.0","","img/set2/S2.jpg","68","2","structured_incentive","68","random,structured_incentive,structured_normal,structured_load","3,4,2,1,2,3","3,1,2,4","true","","",""
"null","","html-keyboard-response","488","9473656","0.0-488.0","","<img src=""img/set2/S2.jpg"" width=""540"" height = ""360"" style=""border:16px solid orange"">","null","","","","","","","","","",""
"null","","html-keyboard-response","489","9473861","0.0-489.0","","","null","","","","","","","","","",""
"530.2999999821186","","image-keyboard-response","490","9474393","0.0-490.0","","img/set2/S2.jpg","68","2","structured_incentive","68","random,structured_incentive,structured_normal,structured_load","3,4,2,1,2,3","3,1,2,4","true","","",""
"null","","html-keyboard-response","491","9474751","0.0-491.0","","<img src=""img/set2/S2.jpg"" width=""540"" height = ""360"" style=""border:16px solid orange"">","null","","","","","","","","","",""
"null","","html-keyboard-response","492","9474956","0.0-492.0","","","null","","","","","","","","","",""
"699.5","","image-keyboard-response","493","9475657","0.0-493.0","","img/set2/S1.jpg","83","1","structured_incentive","83","random,structured_incentive,structured_normal,structured_load","3,4,2,1,2,3","3,1,2,4","true","","",""
"null","","html-keyboard-response","494","9476009","0.0-494.0","","<img src=""img/set2/S1.jpg"" width=""540"" height = ""360"" style=""border:16px solid orange"">","null","","","","","","","","","",""
"null","","html-keyboard-response","495","9476212","0.0-495.0","","","null","","","","","","","","","",""
"453.19999998807907","","image-keyboard-response","496","9476667","0.0-496.0","","img/set2/S1.jpg","68","1","structured_incentive","83","random,structured_incentive,structured_normal,structured_load","3,4,2,1,2,3","3,1,2,4","false","","",""
"null","","html-keyboard-response","497","9477025","0.0-497.0","","<img src=""img/set2/S1.jpg"" width=""540"" height = ""360"">","null","","","","","","","","","",""
"null","","html-keyboard-response","498","9477232","0.0-498.0","","","null","","","","","","","","","",""
"473","","image-keyboard-response","499","9477706","0.0-499.0","","img/set2/S1.jpg","83","1","structured_incentive","83","random,structured_incentive,structured_normal,structured_load","3,4,2,1,2,3","3,1,2,4","true","","",""
"null","","html-keyboard-response","500","9478072","0.0-500.0","","<img src=""img/set2/S1.jpg"" width=""540"" height = ""360"" style=""border:16px solid orange"">","null","","","","","","","","","",""
"null","","html-keyboard-response","501","9478275","0.0-501.0","","","null","","","","","","","","","",""
"503.19999998807907","","image-keyboard-response","502","9478780","0.0-502.0","","img/set2/S2.jpg","68","2","structured_incentive","68","random,structured_incentive,structured_normal,structured_load","3,4,2,1,2,3","3,1,2,4","true","","",""
"null","","html-keyboard-response","503","9479147","0.0-503.0","","<img src=""img/set2/S2.jpg"" width=""540"" height = ""360"" style=""border:16px solid orange"">","null","","","","","","","","","",""
"null","","html-keyboard-response","504","9479351","0.0-504.0","","","null","","","","","","","","","",""
"642.5999999940395","","image-keyboard-response","505","9479995","0.0-505.0","","img/set2/S3.jpg","74","3","structured_incentive","72","random,structured_incentive,structured_normal,structured_load","3,4,2,1,2,3","3,1,2,4","false","","",""
"null","","html-keyboard-response","506","9480351","0.0-506.0","","<img src=""img/set2/S3.jpg"" width=""540"" height = ""360"">","null","","","","","","","","","",""
"null","","html-keyboard-response","507","9480555","0.0-507.0","","","null","","","","","","","","","",""
"626.3000000119209","","image-keyboard-response","508","9481183","0.0-508.0","","img/set2/S4.jpg","74","4","structured_incentive","74","random,structured_incentive,structured_normal,structured_load","3,4,2,1,2,3","3,1,2,4","true","","",""
"null","","html-keyboard-response","509","9481550","0.0-509.0","","<img src=""img/set2/S4.jpg"" width=""540"" height = ""360"" style=""border:16px solid Violet"">","null","","","","","","","","","",""
"null","","html-keyboard-response","510","9481754","0.0-510.0","","","null","","","","","","","","","",""
"870.0999999940395","","image-keyboard-response","511","9482625","0.0-511.0","","img/set2/S3.jpg","83","3","structured_incentive","72","random,structured_incentive,structured_normal,structured_load","3,4,2,1,2,3","3,1,2,4","false","","",""
"null","","html-keyboard-response","512","9482985","0.0-512.0","","<img src=""img/set2/S3.jpg"" width=""540"" height = ""360"">","null","","","","","","","","","",""
"null","","html-keyboard-response","513","9483188","0.0-513.0","","","null","","","","","","","","","",""
"520.0999999940395","","image-keyboard-response","514","9483709","0.0-514.0","","img/set2/S4.jpg","74","4","structured_incentive","74","random,structured_incentive,structured_normal,structured_load","3,4,2,1,2,3","3,1,2,4","true","","",""
"null","","html-keyboard-response","515","9484067","0.0-515.0","","<img src=""img/set2/S4.jpg"" width=""540"" height = ""360"" style=""border:16px solid Violet"">","null","","","","","","","","","",""
"null","","html-keyboard-response","516","9484271","0.0-516.0","","","null","","","","","","","","","",""
"462","","image-keyboard-response","517","9484734","0.0-517.0","","img/set2/S3.jpg","83","3","structured_incentive","72","random,structured_incentive,structured_normal,structured_load","3,4,2,1,2,3","3,1,2,4","false","","",""
"null","","html-keyboard-response","518","9485087","0.0-518.0","","<img src=""img/set2/S3.jpg"" width=""540"" height = ""360"">","null","","","","","","","","","",""
"null","","html-keyboard-response","519","9485293","0.0-519.0","","","null","","","","","","","","","",""
"496","","image-keyboard-response","520","9485790","0.0-520.0","","img/set2/S4.jpg","74","4","structured_incentive","74","random,structured_incentive,structured_normal,structured_load","3,4,2,1,2,3","3,1,2,4","true","","",""
"null","","html-keyboard-response","521","9486148","0.0-521.0","","<img src=""img/set2/S4.jpg"" width=""540"" height = ""360"" style=""border:16px solid Violet"">","null","","","","","","","","","",""
"null","","html-keyboard-response","522","9486353","0.0-522.0","","","null","","","","","","","","","",""
"761.1999999880791","","image-keyboard-response","523","9487115","0.0-523.0","","img/set2/S3.jpg","74","3","structured_incentive","72","random,structured_incentive,structured_normal,structured_load","3,4,2,1,2,3","3,1,2,4","false","","",""
"null","","html-keyboard-response","524","9487473","0.0-524.0","","<img src=""img/set2/S3.jpg"" width=""540"" height = ""360"">","null","","","","","","","","","",""
"null","","html-keyboard-response","525","9487677","0.0-525.0","","","null","","","","","","","","","",""
"568.7999999821186","","image-keyboard-response","526","9488247","0.0-526.0","","img/set2/S4.jpg","74","4","structured_incentive","74","random,structured_incentive,structured_normal,structured_load","3,4,2,1,2,3","3,1,2,4","true","","",""
"null","","html-keyboard-response","527","9488600","0.0-527.0","","<img src=""img/set2/S4.jpg"" width=""540"" height = ""360"" style=""border:16px solid Violet"">","null","","","","","","","","","",""
"null","","html-keyboard-response","528","9488806","0.0-528.0","","","null","","","","","","","","","",""
"528.5","","image-keyboard-response","529","9489336","0.0-529.0","","img/set2/S1.jpg","83","1","structured_incentive","83","random,structured_incentive,structured_normal,structured_load","3,4,2,1,2,3","3,1,2,4","true","","",""
"null","","html-keyboard-response","530","9489700","0.0-530.0","","<img src=""img/set2/S1.jpg"" width=""540"" height = ""360"" style=""border:16px solid orange"">","null","","","","","","","","","",""
"null","","html-keyboard-response","531","9489903","0.0-531.0","","","null","","","","","","","","","",""
"463.59999999403954","","image-keyboard-response","532","9490368","0.0-532.0","","img/set2/S1.jpg","83","1","structured_incentive","83","random,structured_incentive,structured_normal,structured_load","3,4,2,1,2,3","3,1,2,4","true","","",""
"null","","html-keyboard-response","533","9490728","0.0-533.0","","<img src=""img/set2/S1.jpg"" width=""540"" height = ""360"" style=""border:16px solid orange"">","null","","","","","","","","","",""
"null","","html-keyboard-response","534","9490940","0.0-534.0","","","null","","","","","","","","","",""
"659.4000000059605","","image-keyboard-response","535","9491601","0.0-535.0","","img/set2/S3.jpg","74","3","structured_incentive","72","random,structured_incentive,structured_normal,structured_load","3,4,2,1,2,3","3,1,2,4","false","","",""
"null","","html-keyboard-response","536","9491958","0.0-536.0","","<img src=""img/set2/S3.jpg"" width=""540"" height = ""360"">","null","","","","","","","","","",""
"null","","html-keyboard-response","537","9492172","0.0-537.0","","","null","","","","","","","","","",""
"1004.5","","image-keyboard-response","538","9493178","0.0-538.0","","img/set2/S4.jpg","74","4","structured_incentive","74","random,structured_incentive,structured_normal,structured_load","3,4,2,1,2,3","3,1,2,4","true","","",""
"null","","html-keyboard-response","539","9493544","0.0-539.0","","<img src=""img/set2/S4.jpg"" width=""540"" height = ""360"" style=""border:16px solid Violet"">","null","","","","","","","","","",""
"null","","html-keyboard-response","540","9493747","0.0-540.0","","","null","","","","","","","","","",""
"814","","image-keyboard-response","541","9494562","0.0-541.0","","img/set2/S1.jpg","83","1","structured_incentive","83","random,structured_incentive,structured_normal,structured_load","3,4,2,1,2,3","3,1,2,4","true","","",""
"null","","html-keyboard-response","542","9494917","0.0-542.0","","<img src=""img/set2/S1.jpg"" width=""540"" height = ""360"" style=""border:16px solid orange"">","null","","","","","","","","","",""
"null","","html-keyboard-response","543","9495121","0.0-543.0","","","null","","","","","","","","","",""
"552.2999999821186","","image-keyboard-response","544","9495675","0.0-544.0","","img/set2/S3.jpg","68","3","structured_incentive","72","random,structured_incentive,structured_normal,structured_load","3,4,2,1,2,3","3,1,2,4","false","","",""
"null","","html-keyboard-response","545","9496034","0.0-545.0","","<img src=""img/set2/S3.jpg"" width=""540"" height = ""360"">","null","","","","","","","","","",""
"null","","html-keyboard-response","546","9496236","0.0-546.0","","","null","","","","","","","","","",""
"742.6999999880791","","image-keyboard-response","547","9496980","0.0-547.0","","img/set2/S4.jpg","68","4","structured_incentive","74","random,structured_incentive,structured_normal,structured_load","3,4,2,1,2,3","3,1,2,4","false","","",""
"null","","html-keyboard-response","548","9497342","0.0-548.0","","<img src=""img/set2/S4.jpg"" width=""540"" height = ""360"">","null","","","","","","","","","",""
"null","","html-keyboard-response","549","9497544","0.0-549.0","","","null","","","","","","","","","",""
"698","","image-keyboard-response","550","9498244","0.0-550.0","","img/set2/S2.jpg","68","2","structured_incentive","68","random,structured_incentive,structured_normal,structured_load","3,4,2,1,2,3","3,1,2,4","true","","",""
"null","","html-keyboard-response","551","9498610","0.0-551.0","","<img src=""img/set2/S2.jpg"" width=""540"" height = ""360"" style=""border:16px solid orange"">","null","","","","","","","","","",""
"null","","html-keyboard-response","552","9498813","0.0-552.0","","","null","","","","","","","","","",""
"null","","image-keyboard-response","553","9501317","0.0-553.0","","img/set2/S3.jpg","null","3","structured_incentive","72","random,structured_incentive,structured_normal,structured_load","3,4,2,1,2,3","3,1,2,4","false","","",""
"null","","html-keyboard-response","554","9501677","0.0-554.0","","<img src=""img/set2/S3.jpg"" width=""540"" height = ""360"">","null","","","","","","","","","",""
"null","","html-keyboard-response","555","9501892","0.0-555.0","","","null","","","","","","","","","",""
"529","","image-keyboard-response","556","9502422","0.0-556.0","","img/set2/S4.jpg","74","4","structured_incentive","74","random,structured_incentive,structured_normal,structured_load","3,4,2,1,2,3","3,1,2,4","true","","",""
"null","","html-keyboard-response","557","9502775","0.0-557.0","","<img src=""img/set2/S4.jpg"" width=""540"" height = ""360"" style=""border:16px solid Violet"">","null","","","","","","","","","",""
"null","","html-keyboard-response","558","9502978","0.0-558.0","","","null","","","","","","","","","",""
"787.5999999940395","","image-keyboard-response","559","9503767","0.0-559.0","","img/set2/S3.jpg","68","3","structured_incentive","72","random,structured_incentive,structured_normal,structured_load","3,4,2,1,2,3","3,1,2,4","false","","",""
"null","","html-keyboard-response","560","9504120","0.0-560.0","","<img src=""img/set2/S3.jpg"" width=""540"" height = ""360"">","null","","","","","","","","","",""
"null","","html-keyboard-response","561","9504326","0.0-561.0","","","null","","","","","","","","","",""
"527.5999999940395","","image-keyboard-response","562","9504855","0.0-562.0","","img/set2/S4.jpg","74","4","structured_incentive","74","random,structured_incentive,structured_normal,structured_load","3,4,2,1,2,3","3,1,2,4","true","","",""
"null","","html-keyboard-response","563","9505221","0.0-563.0","","<img src=""img/set2/S4.jpg"" width=""540"" height = ""360"" style=""border:16px solid Violet"">","null","","","","","","","","","",""
"null","","html-keyboard-response","564","9505431","0.0-564.0","","","null","","","","","","","","","",""
"639.8999999761581","","image-keyboard-response","565","9506072","0.0-565.0","","img/set2/S1.jpg","83","1","structured_incentive","83","random,structured_incentive,structured_normal,structured_load","3,4,2,1,2,3","3,1,2,4","true","","",""
"null","","html-keyboard-response","566","9506427","0.0-566.0","","<img src=""img/set2/S1.jpg"" width=""540"" height = ""360"" style=""border:16px solid orange"">","null","","","","","","","","","",""
"null","","html-keyboard-response","567","9506634","0.0-567.0","","","null","","","","","","","","","",""
"564.9000000059605","","image-keyboard-response","568","9507201","0.0-568.0","","img/set2/S1.jpg","83","1","structured_incentive","83","random,structured_incentive,structured_normal,structured_load","3,4,2,1,2,3","3,1,2,4","true","","",""
"null","","html-keyboard-response","569","9507561","0.0-569.0","","<img src=""img/set2/S1.jpg"" width=""540"" height = ""360"" style=""border:16px solid orange"">","null","","","","","","","","","",""
"null","","html-keyboard-response","570","9507766","0.0-570.0","","","null","","","","","","","","","",""
"736.9000000059605","","image-keyboard-response","571","9508505","0.0-571.0","","img/set2/S3.jpg","68","3","structured_incentive","72","random,structured_incentive,structured_normal,structured_load","3,4,2,1,2,3","3,1,2,4","false","","",""
"null","","html-keyboard-response","572","9508867","0.0-572.0","","<img src=""img/set2/S3.jpg"" width=""540"" height = ""360"">","null","","","","","","","","","",""
"null","","html-keyboard-response","573","9509081","0.0-573.0","","","null","","","","","","","","","",""
"576","","image-keyboard-response","574","9509658","0.0-574.0","","img/set2/S4.jpg","74","4","structured_incentive","74","random,structured_incentive,structured_normal,structured_load","3,4,2,1,2,3","3,1,2,4","true","","",""
"null","","html-keyboard-response","575","9510019","0.0-575.0","","<img src=""img/set2/S4.jpg"" width=""540"" height = ""360"" style=""border:16px solid Violet"">","null","","","","","","","","","",""
"null","","html-keyboard-response","576","9510220","0.0-576.0","","","null","","","","","","","","","",""
"694.6999999880791","","image-keyboard-response","577","9510917","0.0-577.0","","img/set2/S1.jpg","83","1","structured_incentive","83","random,structured_incentive,structured_normal,structured_load","3,4,2,1,2,3","3,1,2,4","true","","",""
"null","","html-keyboard-response","578","9511277","0.0-578.0","","<img src=""img/set2/S1.jpg"" width=""540"" height = ""360"" style=""border:16px solid orange"">","null","","","","","","","","","",""
"null","","html-keyboard-response","579","9511485","0.0-579.0","","","null","","","","","","","","","",""
"669.4000000059605","","image-keyboard-response","580","9512156","0.0-580.0","","img/set2/S3.jpg","74","3","structured_incentive","72","random,structured_incentive,structured_normal,structured_load","3,4,2,1,2,3","3,1,2,4","false","","",""
"null","","html-keyboard-response","581","9512510","0.0-581.0","","<img src=""img/set2/S3.jpg"" width=""540"" height = ""360"">","null","","","","","","","","","",""
"null","","html-keyboard-response","582","9512713","0.0-582.0","","","null","","","","","","","","","",""
