"rt","url","trial_type","trial_index","time_elapsed","internal_node_id","assignmentID","mturkID","hitID","view_history","stimulus","key_press","state","test_part","correct_response","order_block","order_chunk","order_freq","correct","responses","question_order","bonus"
"9720.699999988079","consent.html","external-html","0","9846","0.0-0.0","3RKNTXVS3NKOESXU9IODQ1RZJR54AY","A2POU9TTW177VH","3URJ6VVYUP9BUCT1SZOT2DFI02L4OC","","","","","","","","","","","","",""
"106030.09999996424","","instructions","1","115879","0.0-1.0","3RKNTXVS3NKOESXU9IODQ1RZJR54AY","A2POU9TTW177VH","3URJ6VVYUP9BUCT1SZOT2DFI02L4OC","[{""page_index"":0,""viewing_time"":12261.099999964237},{""page_index"":1,""viewing_time"":15582.900000035763},{""page_index"":2,""viewing_time"":13683.599999964237},{""page_index"":3,""viewing_time"":17345.400000035763},{""page_index"":4,""viewing_time"":11104.899999976158},{""page_index"":5,""viewing_time"":20547.399999976158},{""page_index"":6,""viewing_time"":15502.600000023842}]","","","","","","","","","","","",""
"16539.899999976158","","instructions","2","132421","0.0-2.0","3RKNTXVS3NKOESXU9IODQ1RZJR54AY","A2POU9TTW177VH","3URJ6VVYUP9BUCT1SZOT2DFI02L4OC","[{""page_index"":0,""viewing_time"":16539.19999998808}]","","","","","","","","","","","",""
"21909.5","","instructions","3","154331","0.0-3.0","3RKNTXVS3NKOESXU9IODQ1RZJR54AY","A2POU9TTW177VH","3URJ6VVYUP9BUCT1SZOT2DFI02L4OC","[{""page_index"":0,""viewing_time"":10653.300000011921},{""page_index"":1,""viewing_time"":11255.800000011921}]","","","","","","","","","","","",""
"2363.600000023842","","image-keyboard-response","4","156698","0.0-4.0","3RKNTXVS3NKOESXU9IODQ1RZJR54AY","A2POU9TTW177VH","3URJ6VVYUP9BUCT1SZOT2DFI02L4OC","","img/set1/S1.jpg","83","1","structured_incentive","83","structured_incentive,structured_load,structured_normal,random","4,2,2,3,1,2","2,3,4,1","true","","",""
"null","","html-keyboard-response","5","157065","0.0-5.0","3RKNTXVS3NKOESXU9IODQ1RZJR54AY","A2POU9TTW177VH","3URJ6VVYUP9BUCT1SZOT2DFI02L4OC","","<img src=""img/set1/S1.jpg"" width=""540"" height = ""360"" style=""border:16px solid orange"">","null","","","","","","","","","",""
"null","","html-keyboard-response","6","157268","0.0-6.0","3RKNTXVS3NKOESXU9IODQ1RZJR54AY","A2POU9TTW177VH","3URJ6VVYUP9BUCT1SZOT2DFI02L4OC","","","null","","","","","","","","","",""
"1085.1000000238419","","image-keyboard-response","7","158358","0.0-7.0","3RKNTXVS3NKOESXU9IODQ1RZJR54AY","A2POU9TTW177VH","3URJ6VVYUP9BUCT1SZOT2DFI02L4OC","","img/set1/S1.jpg","72","1","structured_incentive","83","structured_incentive,structured_load,structured_normal,random","4,2,2,3,1,2","2,3,4,1","false","","",""
"null","","html-keyboard-response","8","158726","0.0-8.0","3RKNTXVS3NKOESXU9IODQ1RZJR54AY","A2POU9TTW177VH","3URJ6VVYUP9BUCT1SZOT2DFI02L4OC","","<img src=""img/set1/S1.jpg"" width=""540"" height = ""360"">","null","","","","","","","","","",""
"null","","html-keyboard-response","9","158939","0.0-9.0","3RKNTXVS3NKOESXU9IODQ1RZJR54AY","A2POU9TTW177VH","3URJ6VVYUP9BUCT1SZOT2DFI02L4OC","","","null","","","","","","","","","",""
"1273.1000000238419","","image-keyboard-response","10","160214","0.0-10.0","3RKNTXVS3NKOESXU9IODQ1RZJR54AY","A2POU9TTW177VH","3URJ6VVYUP9BUCT1SZOT2DFI02L4OC","","img/set1/S4.jpg","83","4","structured_incentive","74","structured_incentive,structured_load,structured_normal,random","4,2,2,3,1,2","2,3,4,1","false","","",""
"null","","html-keyboard-response","11","160577","0.0-11.0","3RKNTXVS3NKOESXU9IODQ1RZJR54AY","A2POU9TTW177VH","3URJ6VVYUP9BUCT1SZOT2DFI02L4OC","","<img src=""img/set1/S4.jpg"" width=""540"" height = ""360"">","null","","","","","","","","","",""
"null","","html-keyboard-response","12","160794","0.0-12.0","3RKNTXVS3NKOESXU9IODQ1RZJR54AY","A2POU9TTW177VH","3URJ6VVYUP9BUCT1SZOT2DFI02L4OC","","","null","","","","","","","","","",""
"1013.9000000357628","","image-keyboard-response","13","161811","0.0-13.0","3RKNTXVS3NKOESXU9IODQ1RZJR54AY","A2POU9TTW177VH","3URJ6VVYUP9BUCT1SZOT2DFI02L4OC","","img/set1/S2.jpg","74","2","structured_incentive","68","structured_incentive,structured_load,structured_normal,random","4,2,2,3,1,2","2,3,4,1","false","","",""
"null","","html-keyboard-response","14","162175","0.0-14.0","3RKNTXVS3NKOESXU9IODQ1RZJR54AY","A2POU9TTW177VH","3URJ6VVYUP9BUCT1SZOT2DFI02L4OC","","<img src=""img/set1/S2.jpg"" width=""540"" height = ""360"">","null","","","","","","","","","",""
"null","","html-keyboard-response","15","162387","0.0-15.0","3RKNTXVS3NKOESXU9IODQ1RZJR54AY","A2POU9TTW177VH","3URJ6VVYUP9BUCT1SZOT2DFI02L4OC","","","null","","","","","","","","","",""
"912.8000000119209","","image-keyboard-response","16","163302","0.0-16.0","3RKNTXVS3NKOESXU9IODQ1RZJR54AY","A2POU9TTW177VH","3URJ6VVYUP9BUCT1SZOT2DFI02L4OC","","img/set1/S4.jpg","72","4","structured_incentive","74","structured_incentive,structured_load,structured_normal,random","4,2,2,3,1,2","2,3,4,1","false","","",""
"null","","html-keyboard-response","17","163662","0.0-17.0","3RKNTXVS3NKOESXU9IODQ1RZJR54AY","A2POU9TTW177VH","3URJ6VVYUP9BUCT1SZOT2DFI02L4OC","","<img src=""img/set1/S4.jpg"" width=""540"" height = ""360"">","null","","","","","","","","","",""
"null","","html-keyboard-response","18","163878","0.0-18.0","3RKNTXVS3NKOESXU9IODQ1RZJR54AY","A2POU9TTW177VH","3URJ6VVYUP9BUCT1SZOT2DFI02L4OC","","","null","","","","","","","","","",""
"878.8000000119209","","image-keyboard-response","19","164760","0.0-19.0","3RKNTXVS3NKOESXU9IODQ1RZJR54AY","A2POU9TTW177VH","3URJ6VVYUP9BUCT1SZOT2DFI02L4OC","","img/set1/S2.jpg","68","2","structured_incentive","68","structured_incentive,structured_load,structured_normal,random","4,2,2,3,1,2","2,3,4,1","true","","",""
"null","","html-keyboard-response","20","165114","0.0-20.0","3RKNTXVS3NKOESXU9IODQ1RZJR54AY","A2POU9TTW177VH","3URJ6VVYUP9BUCT1SZOT2DFI02L4OC","","<img src=""img/set1/S2.jpg"" width=""540"" height = ""360"" style=""border:16px solid orange"">","null","","","","","","","","","",""
"null","","html-keyboard-response","21","165332","0.0-21.0","3RKNTXVS3NKOESXU9IODQ1RZJR54AY","A2POU9TTW177VH","3URJ6VVYUP9BUCT1SZOT2DFI02L4OC","","","null","","","","","","","","","",""
"937.2000000476837","","image-keyboard-response","22","166271","0.0-22.0","3RKNTXVS3NKOESXU9IODQ1RZJR54AY","A2POU9TTW177VH","3URJ6VVYUP9BUCT1SZOT2DFI02L4OC","","img/set1/S4.jpg","68","4","structured_incentive","74","structured_incentive,structured_load,structured_normal,random","4,2,2,3,1,2","2,3,4,1","false","","",""
"null","","html-keyboard-response","23","166625","0.0-23.0","3RKNTXVS3NKOESXU9IODQ1RZJR54AY","A2POU9TTW177VH","3URJ6VVYUP9BUCT1SZOT2DFI02L4OC","","<img src=""img/set1/S4.jpg"" width=""540"" height = ""360"">","null","","","","","","","","","",""
"null","","html-keyboard-response","24","166840","0.0-24.0","3RKNTXVS3NKOESXU9IODQ1RZJR54AY","A2POU9TTW177VH","3URJ6VVYUP9BUCT1SZOT2DFI02L4OC","","","null","","","","","","","","","",""
"633.3999999761581","","image-keyboard-response","25","167476","0.0-25.0","3RKNTXVS3NKOESXU9IODQ1RZJR54AY","A2POU9TTW177VH","3URJ6VVYUP9BUCT1SZOT2DFI02L4OC","","img/set1/S2.jpg","72","2","structured_incentive","68","structured_incentive,structured_load,structured_normal,random","4,2,2,3,1,2","2,3,4,1","false","","",""
"null","","html-keyboard-response","26","167828","0.0-26.0","3RKNTXVS3NKOESXU9IODQ1RZJR54AY","A2POU9TTW177VH","3URJ6VVYUP9BUCT1SZOT2DFI02L4OC","","<img src=""img/set1/S2.jpg"" width=""540"" height = ""360"">","null","","","","","","","","","",""
"null","","html-keyboard-response","27","168042","0.0-27.0","3RKNTXVS3NKOESXU9IODQ1RZJR54AY","A2POU9TTW177VH","3URJ6VVYUP9BUCT1SZOT2DFI02L4OC","","","null","","","","","","","","","",""
"652","","image-keyboard-response","28","168696","0.0-28.0","3RKNTXVS3NKOESXU9IODQ1RZJR54AY","A2POU9TTW177VH","3URJ6VVYUP9BUCT1SZOT2DFI02L4OC","","img/set1/S1.jpg","74","1","structured_incentive","83","structured_incentive,structured_load,structured_normal,random","4,2,2,3,1,2","2,3,4,1","false","","",""
"null","","html-keyboard-response","29","169052","0.0-29.0","3RKNTXVS3NKOESXU9IODQ1RZJR54AY","A2POU9TTW177VH","3URJ6VVYUP9BUCT1SZOT2DFI02L4OC","","<img src=""img/set1/S1.jpg"" width=""540"" height = ""360"">","null","","","","","","","","","",""
"null","","html-keyboard-response","30","169255","0.0-30.0","3RKNTXVS3NKOESXU9IODQ1RZJR54AY","A2POU9TTW177VH","3URJ6VVYUP9BUCT1SZOT2DFI02L4OC","","","null","","","","","","","","","",""
"427.7999999523163","","image-keyboard-response","31","169686","0.0-31.0","3RKNTXVS3NKOESXU9IODQ1RZJR54AY","A2POU9TTW177VH","3URJ6VVYUP9BUCT1SZOT2DFI02L4OC","","img/set1/S1.jpg","68","1","structured_incentive","83","structured_incentive,structured_load,structured_normal,random","4,2,2,3,1,2","2,3,4,1","false","","",""
"null","","html-keyboard-response","32","170051","0.0-32.0","3RKNTXVS3NKOESXU9IODQ1RZJR54AY","A2POU9TTW177VH","3URJ6VVYUP9BUCT1SZOT2DFI02L4OC","","<img src=""img/set1/S1.jpg"" width=""540"" height = ""360"">","null","","","","","","","","","",""
"null","","html-keyboard-response","33","170263","0.0-33.0","3RKNTXVS3NKOESXU9IODQ1RZJR54AY","A2POU9TTW177VH","3URJ6VVYUP9BUCT1SZOT2DFI02L4OC","","","null","","","","","","","","","",""
"446.89999997615814","","image-keyboard-response","34","170713","0.0-34.0","3RKNTXVS3NKOESXU9IODQ1RZJR54AY","A2POU9TTW177VH","3URJ6VVYUP9BUCT1SZOT2DFI02L4OC","","img/set1/S1.jpg","83","1","structured_incentive","83","structured_incentive,structured_load,structured_normal,random","4,2,2,3,1,2","2,3,4,1","true","","",""
"null","","html-keyboard-response","35","171080","0.0-35.0","3RKNTXVS3NKOESXU9IODQ1RZJR54AY","A2POU9TTW177VH","3URJ6VVYUP9BUCT1SZOT2DFI02L4OC","","<img src=""img/set1/S1.jpg"" width=""540"" height = ""360"" style=""border:16px solid orange"">","null","","","","","","","","","",""
"null","","html-keyboard-response","36","171284","0.0-36.0","3RKNTXVS3NKOESXU9IODQ1RZJR54AY","A2POU9TTW177VH","3URJ6VVYUP9BUCT1SZOT2DFI02L4OC","","","null","","","","","","","","","",""
"883.0999999642372","","image-keyboard-response","37","172170","0.0-37.0","3RKNTXVS3NKOESXU9IODQ1RZJR54AY","A2POU9TTW177VH","3URJ6VVYUP9BUCT1SZOT2DFI02L4OC","","img/set1/S4.jpg","72","4","structured_incentive","74","structured_incentive,structured_load,structured_normal,random","4,2,2,3,1,2","2,3,4,1","false","","",""
"null","","html-keyboard-response","38","172525","0.0-38.0","3RKNTXVS3NKOESXU9IODQ1RZJR54AY","A2POU9TTW177VH","3URJ6VVYUP9BUCT1SZOT2DFI02L4OC","","<img src=""img/set1/S4.jpg"" width=""540"" height = ""360"">","null","","","","","","","","","",""
"null","","html-keyboard-response","39","172738","0.0-39.0","3RKNTXVS3NKOESXU9IODQ1RZJR54AY","A2POU9TTW177VH","3URJ6VVYUP9BUCT1SZOT2DFI02L4OC","","","null","","","","","","","","","",""
"691.8999999761581","","image-keyboard-response","40","173433","0.0-40.0","3RKNTXVS3NKOESXU9IODQ1RZJR54AY","A2POU9TTW177VH","3URJ6VVYUP9BUCT1SZOT2DFI02L4OC","","img/set1/S2.jpg","74","2","structured_incentive","68","structured_incentive,structured_load,structured_normal,random","4,2,2,3,1,2","2,3,4,1","false","","",""
"null","","html-keyboard-response","41","173787","0.0-41.0","3RKNTXVS3NKOESXU9IODQ1RZJR54AY","A2POU9TTW177VH","3URJ6VVYUP9BUCT1SZOT2DFI02L4OC","","<img src=""img/set1/S2.jpg"" width=""540"" height = ""360"">","null","","","","","","","","","",""
"null","","html-keyboard-response","42","174005","0.0-42.0","3RKNTXVS3NKOESXU9IODQ1RZJR54AY","A2POU9TTW177VH","3URJ6VVYUP9BUCT1SZOT2DFI02L4OC","","","null","","","","","","","","","",""
"678.3999999761581","","image-keyboard-response","43","174686","0.0-43.0","3RKNTXVS3NKOESXU9IODQ1RZJR54AY","A2POU9TTW177VH","3URJ6VVYUP9BUCT1SZOT2DFI02L4OC","","img/set1/S3.jpg","68","3","structured_incentive","72","structured_incentive,structured_load,structured_normal,random","4,2,2,3,1,2","2,3,4,1","false","","",""
"null","","html-keyboard-response","44","175043","0.0-44.0","3RKNTXVS3NKOESXU9IODQ1RZJR54AY","A2POU9TTW177VH","3URJ6VVYUP9BUCT1SZOT2DFI02L4OC","","<img src=""img/set1/S3.jpg"" width=""540"" height = ""360"">","null","","","","","","","","","",""
"null","","html-keyboard-response","45","175246","0.0-45.0","3RKNTXVS3NKOESXU9IODQ1RZJR54AY","A2POU9TTW177VH","3URJ6VVYUP9BUCT1SZOT2DFI02L4OC","","","null","","","","","","","","","",""
"712.3000000119209","","image-keyboard-response","46","175960","0.0-46.0","3RKNTXVS3NKOESXU9IODQ1RZJR54AY","A2POU9TTW177VH","3URJ6VVYUP9BUCT1SZOT2DFI02L4OC","","img/set1/S1.jpg","83","1","structured_incentive","83","structured_incentive,structured_load,structured_normal,random","4,2,2,3,1,2","2,3,4,1","true","","",""
"null","","html-keyboard-response","47","176314","0.0-47.0","3RKNTXVS3NKOESXU9IODQ1RZJR54AY","A2POU9TTW177VH","3URJ6VVYUP9BUCT1SZOT2DFI02L4OC","","<img src=""img/set1/S1.jpg"" width=""540"" height = ""360"" style=""border:16px solid orange"">","null","","","","","","","","","",""
"null","","html-keyboard-response","48","176527","0.0-48.0","3RKNTXVS3NKOESXU9IODQ1RZJR54AY","A2POU9TTW177VH","3URJ6VVYUP9BUCT1SZOT2DFI02L4OC","","","null","","","","","","","","","",""
"738.8000000119209","","image-keyboard-response","49","177269","0.0-49.0","3RKNTXVS3NKOESXU9IODQ1RZJR54AY","A2POU9TTW177VH","3URJ6VVYUP9BUCT1SZOT2DFI02L4OC","","img/set1/S4.jpg","83","4","structured_incentive","74","structured_incentive,structured_load,structured_normal,random","4,2,2,3,1,2","2,3,4,1","false","","",""
"null","","html-keyboard-response","50","177633","0.0-50.0","3RKNTXVS3NKOESXU9IODQ1RZJR54AY","A2POU9TTW177VH","3URJ6VVYUP9BUCT1SZOT2DFI02L4OC","","<img src=""img/set1/S4.jpg"" width=""540"" height = ""360"">","null","","","","","","","","","",""
"null","","html-keyboard-response","51","177850","0.0-51.0","3RKNTXVS3NKOESXU9IODQ1RZJR54AY","A2POU9TTW177VH","3URJ6VVYUP9BUCT1SZOT2DFI02L4OC","","","null","","","","","","","","","",""
"778.1000000238419","","image-keyboard-response","52","178630","0.0-52.0","3RKNTXVS3NKOESXU9IODQ1RZJR54AY","A2POU9TTW177VH","3URJ6VVYUP9BUCT1SZOT2DFI02L4OC","","img/set1/S3.jpg","83","3","structured_incentive","72","structured_incentive,structured_load,structured_normal,random","4,2,2,3,1,2","2,3,4,1","false","","",""
"null","","html-keyboard-response","53","178984","0.0-53.0","3RKNTXVS3NKOESXU9IODQ1RZJR54AY","A2POU9TTW177VH","3URJ6VVYUP9BUCT1SZOT2DFI02L4OC","","<img src=""img/set1/S3.jpg"" width=""540"" height = ""360"">","null","","","","","","","","","",""
"null","","html-keyboard-response","54","179200","0.0-54.0","3RKNTXVS3NKOESXU9IODQ1RZJR54AY","A2POU9TTW177VH","3URJ6VVYUP9BUCT1SZOT2DFI02L4OC","","","null","","","","","","","","","",""
"525.6999999880791","","image-keyboard-response","55","179729","0.0-55.0","3RKNTXVS3NKOESXU9IODQ1RZJR54AY","A2POU9TTW177VH","3URJ6VVYUP9BUCT1SZOT2DFI02L4OC","","img/set1/S1.jpg","68","1","structured_incentive","83","structured_incentive,structured_load,structured_normal,random","4,2,2,3,1,2","2,3,4,1","false","","",""
"null","","html-keyboard-response","56","180097","0.0-56.0","3RKNTXVS3NKOESXU9IODQ1RZJR54AY","A2POU9TTW177VH","3URJ6VVYUP9BUCT1SZOT2DFI02L4OC","","<img src=""img/set1/S1.jpg"" width=""540"" height = ""360"">","null","","","","","","","","","",""
"null","","html-keyboard-response","57","180309","0.0-57.0","3RKNTXVS3NKOESXU9IODQ1RZJR54AY","A2POU9TTW177VH","3URJ6VVYUP9BUCT1SZOT2DFI02L4OC","","","null","","","","","","","","","",""
"480.80000001192093","","image-keyboard-response","58","180791","0.0-58.0","3RKNTXVS3NKOESXU9IODQ1RZJR54AY","A2POU9TTW177VH","3URJ6VVYUP9BUCT1SZOT2DFI02L4OC","","img/set1/S1.jpg","72","1","structured_incentive","83","structured_incentive,structured_load,structured_normal,random","4,2,2,3,1,2","2,3,4,1","false","","",""
"null","","html-keyboard-response","59","181152","0.0-59.0","3RKNTXVS3NKOESXU9IODQ1RZJR54AY","A2POU9TTW177VH","3URJ6VVYUP9BUCT1SZOT2DFI02L4OC","","<img src=""img/set1/S1.jpg"" width=""540"" height = ""360"">","null","","","","","","","","","",""
"null","","html-keyboard-response","60","181368","0.0-60.0","3RKNTXVS3NKOESXU9IODQ1RZJR54AY","A2POU9TTW177VH","3URJ6VVYUP9BUCT1SZOT2DFI02L4OC","","","null","","","","","","","","","",""
"336.5","","image-keyboard-response","61","181707","0.0-61.0","3RKNTXVS3NKOESXU9IODQ1RZJR54AY","A2POU9TTW177VH","3URJ6VVYUP9BUCT1SZOT2DFI02L4OC","","img/set1/S3.jpg","74","3","structured_incentive","72","structured_incentive,structured_load,structured_normal,random","4,2,2,3,1,2","2,3,4,1","false","","",""
"null","","html-keyboard-response","62","182068","0.0-62.0","3RKNTXVS3NKOESXU9IODQ1RZJR54AY","A2POU9TTW177VH","3URJ6VVYUP9BUCT1SZOT2DFI02L4OC","","<img src=""img/set1/S3.jpg"" width=""540"" height = ""360"">","null","","","","","","","","","",""
"null","","html-keyboard-response","63","182280","0.0-63.0","3RKNTXVS3NKOESXU9IODQ1RZJR54AY","A2POU9TTW177VH","3URJ6VVYUP9BUCT1SZOT2DFI02L4OC","","","null","","","","","","","","","",""
"611.7999999523163","","image-keyboard-response","64","182895","0.0-64.0","3RKNTXVS3NKOESXU9IODQ1RZJR54AY","A2POU9TTW177VH","3URJ6VVYUP9BUCT1SZOT2DFI02L4OC","","img/set1/S4.jpg","83","4","structured_incentive","74","structured_incentive,structured_load,structured_normal,random","4,2,2,3,1,2","2,3,4,1","false","","",""
"null","","html-keyboard-response","65","183256","0.0-65.0","3RKNTXVS3NKOESXU9IODQ1RZJR54AY","A2POU9TTW177VH","3URJ6VVYUP9BUCT1SZOT2DFI02L4OC","","<img src=""img/set1/S4.jpg"" width=""540"" height = ""360"">","null","","","","","","","","","",""
"null","","html-keyboard-response","66","183467","0.0-66.0","3RKNTXVS3NKOESXU9IODQ1RZJR54AY","A2POU9TTW177VH","3URJ6VVYUP9BUCT1SZOT2DFI02L4OC","","","null","","","","","","","","","",""
"629","","image-keyboard-response","67","184098","0.0-67.0","3RKNTXVS3NKOESXU9IODQ1RZJR54AY","A2POU9TTW177VH","3URJ6VVYUP9BUCT1SZOT2DFI02L4OC","","img/set1/S2.jpg","68","2","structured_incentive","68","structured_incentive,structured_load,structured_normal,random","4,2,2,3,1,2","2,3,4,1","true","","",""
"null","","html-keyboard-response","68","184451","0.0-68.0","3RKNTXVS3NKOESXU9IODQ1RZJR54AY","A2POU9TTW177VH","3URJ6VVYUP9BUCT1SZOT2DFI02L4OC","","<img src=""img/set1/S2.jpg"" width=""540"" height = ""360"" style=""border:16px solid orange"">","null","","","","","","","","","",""
"null","","html-keyboard-response","69","184664","0.0-69.0","3RKNTXVS3NKOESXU9IODQ1RZJR54AY","A2POU9TTW177VH","3URJ6VVYUP9BUCT1SZOT2DFI02L4OC","","","null","","","","","","","","","",""
"735.5","","image-keyboard-response","70","185406","0.0-70.0","3RKNTXVS3NKOESXU9IODQ1RZJR54AY","A2POU9TTW177VH","3URJ6VVYUP9BUCT1SZOT2DFI02L4OC","","img/set1/S3.jpg","72","3","structured_incentive","72","structured_incentive,structured_load,structured_normal,random","4,2,2,3,1,2","2,3,4,1","true","","",""
"null","","html-keyboard-response","71","185767","0.0-71.0","3RKNTXVS3NKOESXU9IODQ1RZJR54AY","A2POU9TTW177VH","3URJ6VVYUP9BUCT1SZOT2DFI02L4OC","","<img src=""img/set1/S3.jpg"" width=""540"" height = ""360"" style=""border:16px solid Violet"">","null","","","","","","","","","",""
"null","","html-keyboard-response","72","185973","0.0-72.0","3RKNTXVS3NKOESXU9IODQ1RZJR54AY","A2POU9TTW177VH","3URJ6VVYUP9BUCT1SZOT2DFI02L4OC","","","null","","","","","","","","","",""
"776.5","","image-keyboard-response","73","186751","0.0-73.0","3RKNTXVS3NKOESXU9IODQ1RZJR54AY","A2POU9TTW177VH","3URJ6VVYUP9BUCT1SZOT2DFI02L4OC","","img/set1/S3.jpg","72","3","structured_incentive","72","structured_incentive,structured_load,structured_normal,random","4,2,2,3,1,2","2,3,4,1","true","","",""
"null","","html-keyboard-response","74","187114","0.0-74.0","3RKNTXVS3NKOESXU9IODQ1RZJR54AY","A2POU9TTW177VH","3URJ6VVYUP9BUCT1SZOT2DFI02L4OC","","<img src=""img/set1/S3.jpg"" width=""540"" height = ""360"" style=""border:16px solid Violet"">","null","","","","","","","","","",""
"null","","html-keyboard-response","75","187322","0.0-75.0","3RKNTXVS3NKOESXU9IODQ1RZJR54AY","A2POU9TTW177VH","3URJ6VVYUP9BUCT1SZOT2DFI02L4OC","","","null","","","","","","","","","",""
"791.6000000238419","","image-keyboard-response","76","188116","0.0-76.0","3RKNTXVS3NKOESXU9IODQ1RZJR54AY","A2POU9TTW177VH","3URJ6VVYUP9BUCT1SZOT2DFI02L4OC","","img/set1/S1.jpg","74","1","structured_incentive","83","structured_incentive,structured_load,structured_normal,random","4,2,2,3,1,2","2,3,4,1","false","","",""
"null","","html-keyboard-response","77","188472","0.0-77.0","3RKNTXVS3NKOESXU9IODQ1RZJR54AY","A2POU9TTW177VH","3URJ6VVYUP9BUCT1SZOT2DFI02L4OC","","<img src=""img/set1/S1.jpg"" width=""540"" height = ""360"">","null","","","","","","","","","",""
"null","","html-keyboard-response","78","188686","0.0-78.0","3RKNTXVS3NKOESXU9IODQ1RZJR54AY","A2POU9TTW177VH","3URJ6VVYUP9BUCT1SZOT2DFI02L4OC","","","null","","","","","","","","","",""
"763.1000000238419","","image-keyboard-response","79","189451","0.0-79.0","3RKNTXVS3NKOESXU9IODQ1RZJR54AY","A2POU9TTW177VH","3URJ6VVYUP9BUCT1SZOT2DFI02L4OC","","img/set1/S4.jpg","68","4","structured_incentive","74","structured_incentive,structured_load,structured_normal,random","4,2,2,3,1,2","2,3,4,1","false","","",""
"null","","html-keyboard-response","80","189815","0.0-80.0","3RKNTXVS3NKOESXU9IODQ1RZJR54AY","A2POU9TTW177VH","3URJ6VVYUP9BUCT1SZOT2DFI02L4OC","","<img src=""img/set1/S4.jpg"" width=""540"" height = ""360"">","null","","","","","","","","","",""
"null","","html-keyboard-response","81","190027","0.0-81.0","3RKNTXVS3NKOESXU9IODQ1RZJR54AY","A2POU9TTW177VH","3URJ6VVYUP9BUCT1SZOT2DFI02L4OC","","","null","","","","","","","","","",""
"896.5","","image-keyboard-response","82","190927","0.0-82.0","3RKNTXVS3NKOESXU9IODQ1RZJR54AY","A2POU9TTW177VH","3URJ6VVYUP9BUCT1SZOT2DFI02L4OC","","img/set1/S2.jpg","68","2","structured_incentive","68","structured_incentive,structured_load,structured_normal,random","4,2,2,3,1,2","2,3,4,1","true","","",""
"null","","html-keyboard-response","83","191284","0.0-83.0","3RKNTXVS3NKOESXU9IODQ1RZJR54AY","A2POU9TTW177VH","3URJ6VVYUP9BUCT1SZOT2DFI02L4OC","","<img src=""img/set1/S2.jpg"" width=""540"" height = ""360"" style=""border:16px solid orange"">","null","","","","","","","","","",""
"null","","html-keyboard-response","84","191489","0.0-84.0","3RKNTXVS3NKOESXU9IODQ1RZJR54AY","A2POU9TTW177VH","3URJ6VVYUP9BUCT1SZOT2DFI02L4OC","","","null","","","","","","","","","",""
"841.6000000238419","","image-keyboard-response","85","192334","0.0-85.0","3RKNTXVS3NKOESXU9IODQ1RZJR54AY","A2POU9TTW177VH","3URJ6VVYUP9BUCT1SZOT2DFI02L4OC","","img/set1/S4.jpg","72","4","structured_incentive","74","structured_incentive,structured_load,structured_normal,random","4,2,2,3,1,2","2,3,4,1","false","","",""
"null","","html-keyboard-response","86","192689","0.0-86.0","3RKNTXVS3NKOESXU9IODQ1RZJR54AY","A2POU9TTW177VH","3URJ6VVYUP9BUCT1SZOT2DFI02L4OC","","<img src=""img/set1/S4.jpg"" width=""540"" height = ""360"">","null","","","","","","","","","",""
"null","","html-keyboard-response","87","192903","0.0-87.0","3RKNTXVS3NKOESXU9IODQ1RZJR54AY","A2POU9TTW177VH","3URJ6VVYUP9BUCT1SZOT2DFI02L4OC","","","null","","","","","","","","","",""
"724.2000000476837","","image-keyboard-response","88","193630","0.0-88.0","3RKNTXVS3NKOESXU9IODQ1RZJR54AY","A2POU9TTW177VH","3URJ6VVYUP9BUCT1SZOT2DFI02L4OC","","img/set1/S2.jpg","74","2","structured_incentive","68","structured_incentive,structured_load,structured_normal,random","4,2,2,3,1,2","2,3,4,1","false","","",""
"null","","html-keyboard-response","89","193999","0.0-89.0","3RKNTXVS3NKOESXU9IODQ1RZJR54AY","A2POU9TTW177VH","3URJ6VVYUP9BUCT1SZOT2DFI02L4OC","","<img src=""img/set1/S2.jpg"" width=""540"" height = ""360"">","null","","","","","","","","","",""
"null","","html-keyboard-response","90","194211","0.0-90.0","3RKNTXVS3NKOESXU9IODQ1RZJR54AY","A2POU9TTW177VH","3URJ6VVYUP9BUCT1SZOT2DFI02L4OC","","","null","","","","","","","","","",""
"612.3999999761581","","image-keyboard-response","91","194825","0.0-91.0","3RKNTXVS3NKOESXU9IODQ1RZJR54AY","A2POU9TTW177VH","3URJ6VVYUP9BUCT1SZOT2DFI02L4OC","","img/set1/S1.jpg","83","1","structured_incentive","83","structured_incentive,structured_load,structured_normal,random","4,2,2,3,1,2","2,3,4,1","true","","",""
"null","","html-keyboard-response","92","195189","0.0-92.0","3RKNTXVS3NKOESXU9IODQ1RZJR54AY","A2POU9TTW177VH","3URJ6VVYUP9BUCT1SZOT2DFI02L4OC","","<img src=""img/set1/S1.jpg"" width=""540"" height = ""360"" style=""border:16px solid orange"">","null","","","","","","","","","",""
"null","","html-keyboard-response","93","195403","0.0-93.0","3RKNTXVS3NKOESXU9IODQ1RZJR54AY","A2POU9TTW177VH","3URJ6VVYUP9BUCT1SZOT2DFI02L4OC","","","null","","","","","","","","","",""
"911.3999999761581","","image-keyboard-response","94","196317","0.0-94.0","3RKNTXVS3NKOESXU9IODQ1RZJR54AY","A2POU9TTW177VH","3URJ6VVYUP9BUCT1SZOT2DFI02L4OC","","img/set1/S1.jpg","72","1","structured_incentive","83","structured_incentive,structured_load,structured_normal,random","4,2,2,3,1,2","2,3,4,1","false","","",""
"null","","html-keyboard-response","95","196685","0.0-95.0","3RKNTXVS3NKOESXU9IODQ1RZJR54AY","A2POU9TTW177VH","3URJ6VVYUP9BUCT1SZOT2DFI02L4OC","","<img src=""img/set1/S1.jpg"" width=""540"" height = ""360"">","null","","","","","","","","","",""
"null","","html-keyboard-response","96","196901","0.0-96.0","3RKNTXVS3NKOESXU9IODQ1RZJR54AY","A2POU9TTW177VH","3URJ6VVYUP9BUCT1SZOT2DFI02L4OC","","","null","","","","","","","","","",""
"1022.5","","image-keyboard-response","97","197928","0.0-97.0","3RKNTXVS3NKOESXU9IODQ1RZJR54AY","A2POU9TTW177VH","3URJ6VVYUP9BUCT1SZOT2DFI02L4OC","","img/set1/S4.jpg","68","4","structured_incentive","74","structured_incentive,structured_load,structured_normal,random","4,2,2,3,1,2","2,3,4,1","false","","",""
"null","","html-keyboard-response","98","198294","0.0-98.0","3RKNTXVS3NKOESXU9IODQ1RZJR54AY","A2POU9TTW177VH","3URJ6VVYUP9BUCT1SZOT2DFI02L4OC","","<img src=""img/set1/S4.jpg"" width=""540"" height = ""360"">","null","","","","","","","","","",""
"null","","html-keyboard-response","99","198508","0.0-99.0","3RKNTXVS3NKOESXU9IODQ1RZJR54AY","A2POU9TTW177VH","3URJ6VVYUP9BUCT1SZOT2DFI02L4OC","","","null","","","","","","","","","",""
"640.5999999642372","","image-keyboard-response","100","199151","0.0-100.0","3RKNTXVS3NKOESXU9IODQ1RZJR54AY","A2POU9TTW177VH","3URJ6VVYUP9BUCT1SZOT2DFI02L4OC","","img/set1/S2.jpg","74","2","structured_incentive","68","structured_incentive,structured_load,structured_normal,random","4,2,2,3,1,2","2,3,4,1","false","","",""
"null","","html-keyboard-response","101","199519","0.0-101.0","3RKNTXVS3NKOESXU9IODQ1RZJR54AY","A2POU9TTW177VH","3URJ6VVYUP9BUCT1SZOT2DFI02L4OC","","<img src=""img/set1/S2.jpg"" width=""540"" height = ""360"">","null","","","","","","","","","",""
"null","","html-keyboard-response","102","199732","0.0-102.0","3RKNTXVS3NKOESXU9IODQ1RZJR54AY","A2POU9TTW177VH","3URJ6VVYUP9BUCT1SZOT2DFI02L4OC","","","null","","","","","","","","","",""
"722.1000000238419","","image-keyboard-response","103","200457","0.0-103.0","3RKNTXVS3NKOESXU9IODQ1RZJR54AY","A2POU9TTW177VH","3URJ6VVYUP9BUCT1SZOT2DFI02L4OC","","img/set1/S3.jpg","72","3","structured_incentive","72","structured_incentive,structured_load,structured_normal,random","4,2,2,3,1,2","2,3,4,1","true","","",""
"null","","html-keyboard-response","104","200810","0.0-104.0","3RKNTXVS3NKOESXU9IODQ1RZJR54AY","A2POU9TTW177VH","3URJ6VVYUP9BUCT1SZOT2DFI02L4OC","","<img src=""img/set1/S3.jpg"" width=""540"" height = ""360"" style=""border:16px solid Violet"">","null","","","","","","","","","",""
"null","","html-keyboard-response","105","201019","0.0-105.0","3RKNTXVS3NKOESXU9IODQ1RZJR54AY","A2POU9TTW177VH","3URJ6VVYUP9BUCT1SZOT2DFI02L4OC","","","null","","","","","","","","","",""
"948.6000000238419","","image-keyboard-response","106","201970","0.0-106.0","3RKNTXVS3NKOESXU9IODQ1RZJR54AY","A2POU9TTW177VH","3URJ6VVYUP9BUCT1SZOT2DFI02L4OC","","img/set1/S4.jpg","68","4","structured_incentive","74","structured_incentive,structured_load,structured_normal,random","4,2,2,3,1,2","2,3,4,1","false","","",""
"null","","html-keyboard-response","107","202324","0.0-107.0","3RKNTXVS3NKOESXU9IODQ1RZJR54AY","A2POU9TTW177VH","3URJ6VVYUP9BUCT1SZOT2DFI02L4OC","","<img src=""img/set1/S4.jpg"" width=""540"" height = ""360"">","null","","","","","","","","","",""
"null","","html-keyboard-response","108","202538","0.0-108.0","3RKNTXVS3NKOESXU9IODQ1RZJR54AY","A2POU9TTW177VH","3URJ6VVYUP9BUCT1SZOT2DFI02L4OC","","","null","","","","","","","","","",""
"672.9000000357628","","image-keyboard-response","109","203213","0.0-109.0","3RKNTXVS3NKOESXU9IODQ1RZJR54AY","A2POU9TTW177VH","3URJ6VVYUP9BUCT1SZOT2DFI02L4OC","","img/set1/S3.jpg","83","3","structured_incentive","72","structured_incentive,structured_load,structured_normal,random","4,2,2,3,1,2","2,3,4,1","false","","",""
"null","","html-keyboard-response","110","203565","0.0-110.0","3RKNTXVS3NKOESXU9IODQ1RZJR54AY","A2POU9TTW177VH","3URJ6VVYUP9BUCT1SZOT2DFI02L4OC","","<img src=""img/set1/S3.jpg"" width=""540"" height = ""360"">","null","","","","","","","","","",""
"null","","html-keyboard-response","111","203778","0.0-111.0","3RKNTXVS3NKOESXU9IODQ1RZJR54AY","A2POU9TTW177VH","3URJ6VVYUP9BUCT1SZOT2DFI02L4OC","","","null","","","","","","","","","",""
"568.6999999880791","","image-keyboard-response","112","204349","0.0-112.0","3RKNTXVS3NKOESXU9IODQ1RZJR54AY","A2POU9TTW177VH","3URJ6VVYUP9BUCT1SZOT2DFI02L4OC","","img/set1/S1.jpg","74","1","structured_incentive","83","structured_incentive,structured_load,structured_normal,random","4,2,2,3,1,2","2,3,4,1","false","","",""
"null","","html-keyboard-response","113","204703","0.0-113.0","3RKNTXVS3NKOESXU9IODQ1RZJR54AY","A2POU9TTW177VH","3URJ6VVYUP9BUCT1SZOT2DFI02L4OC","","<img src=""img/set1/S1.jpg"" width=""540"" height = ""360"">","null","","","","","","","","","",""
"null","","html-keyboard-response","114","204917","0.0-114.0","3RKNTXVS3NKOESXU9IODQ1RZJR54AY","A2POU9TTW177VH","3URJ6VVYUP9BUCT1SZOT2DFI02L4OC","","","null","","","","","","","","","",""
"661.3999999761581","","image-keyboard-response","115","205581","0.0-115.0","3RKNTXVS3NKOESXU9IODQ1RZJR54AY","A2POU9TTW177VH","3URJ6VVYUP9BUCT1SZOT2DFI02L4OC","","img/set1/S3.jpg","72","3","structured_incentive","72","structured_incentive,structured_load,structured_normal,random","4,2,2,3,1,2","2,3,4,1","true","","",""
"null","","html-keyboard-response","116","205943","0.0-116.0","3RKNTXVS3NKOESXU9IODQ1RZJR54AY","A2POU9TTW177VH","3URJ6VVYUP9BUCT1SZOT2DFI02L4OC","","<img src=""img/set1/S3.jpg"" width=""540"" height = ""360"" style=""border:16px solid Violet"">","null","","","","","","","","","",""
"null","","html-keyboard-response","117","206155","0.0-117.0","3RKNTXVS3NKOESXU9IODQ1RZJR54AY","A2POU9TTW177VH","3URJ6VVYUP9BUCT1SZOT2DFI02L4OC","","","null","","","","","","","","","",""
"911.5","","image-keyboard-response","118","207069","0.0-118.0","3RKNTXVS3NKOESXU9IODQ1RZJR54AY","A2POU9TTW177VH","3URJ6VVYUP9BUCT1SZOT2DFI02L4OC","","img/set1/S4.jpg","72","4","structured_incentive","74","structured_incentive,structured_load,structured_normal,random","4,2,2,3,1,2","2,3,4,1","false","","",""
"null","","html-keyboard-response","119","207432","0.0-119.0","3RKNTXVS3NKOESXU9IODQ1RZJR54AY","A2POU9TTW177VH","3URJ6VVYUP9BUCT1SZOT2DFI02L4OC","","<img src=""img/set1/S4.jpg"" width=""540"" height = ""360"">","null","","","","","","","","","",""
"null","","html-keyboard-response","120","207635","0.0-120.0","3RKNTXVS3NKOESXU9IODQ1RZJR54AY","A2POU9TTW177VH","3URJ6VVYUP9BUCT1SZOT2DFI02L4OC","","","null","","","","","","","","","",""
"519","","image-keyboard-response","121","208157","0.0-121.0","3RKNTXVS3NKOESXU9IODQ1RZJR54AY","A2POU9TTW177VH","3URJ6VVYUP9BUCT1SZOT2DFI02L4OC","","img/set1/S3.jpg","68","3","structured_incentive","72","structured_incentive,structured_load,structured_normal,random","4,2,2,3,1,2","2,3,4,1","false","","",""
"null","","html-keyboard-response","122","208526","0.0-122.0","3RKNTXVS3NKOESXU9IODQ1RZJR54AY","A2POU9TTW177VH","3URJ6VVYUP9BUCT1SZOT2DFI02L4OC","","<img src=""img/set1/S3.jpg"" width=""540"" height = ""360"">","null","","","","","","","","","",""
"null","","html-keyboard-response","123","208731","0.0-123.0","3RKNTXVS3NKOESXU9IODQ1RZJR54AY","A2POU9TTW177VH","3URJ6VVYUP9BUCT1SZOT2DFI02L4OC","","","null","","","","","","","","","",""
"738.2000000476837","","image-keyboard-response","124","209471","0.0-124.0","3RKNTXVS3NKOESXU9IODQ1RZJR54AY","A2POU9TTW177VH","3URJ6VVYUP9BUCT1SZOT2DFI02L4OC","","img/set1/S3.jpg","72","3","structured_incentive","72","structured_incentive,structured_load,structured_normal,random","4,2,2,3,1,2","2,3,4,1","true","","",""
"null","","html-keyboard-response","125","209824","0.0-125.0","3RKNTXVS3NKOESXU9IODQ1RZJR54AY","A2POU9TTW177VH","3URJ6VVYUP9BUCT1SZOT2DFI02L4OC","","<img src=""img/set1/S3.jpg"" width=""540"" height = ""360"" style=""border:16px solid Violet"">","null","","","","","","","","","",""
"null","","html-keyboard-response","126","210029","0.0-126.0","3RKNTXVS3NKOESXU9IODQ1RZJR54AY","A2POU9TTW177VH","3URJ6VVYUP9BUCT1SZOT2DFI02L4OC","","","null","","","","","","","","","",""
"959.6999999880791","","image-keyboard-response","127","210992","0.0-127.0","3RKNTXVS3NKOESXU9IODQ1RZJR54AY","A2POU9TTW177VH","3URJ6VVYUP9BUCT1SZOT2DFI02L4OC","","img/set1/S4.jpg","68","4","structured_incentive","74","structured_incentive,structured_load,structured_normal,random","4,2,2,3,1,2","2,3,4,1","false","","",""
"null","","html-keyboard-response","128","211348","0.0-128.0","3RKNTXVS3NKOESXU9IODQ1RZJR54AY","A2POU9TTW177VH","3URJ6VVYUP9BUCT1SZOT2DFI02L4OC","","<img src=""img/set1/S4.jpg"" width=""540"" height = ""360"">","null","","","","","","","","","",""
"null","","html-keyboard-response","129","211561","0.0-129.0","3RKNTXVS3NKOESXU9IODQ1RZJR54AY","A2POU9TTW177VH","3URJ6VVYUP9BUCT1SZOT2DFI02L4OC","","","null","","","","","","","","","",""
"754.8000000119209","","image-keyboard-response","130","212318","0.0-130.0","3RKNTXVS3NKOESXU9IODQ1RZJR54AY","A2POU9TTW177VH","3URJ6VVYUP9BUCT1SZOT2DFI02L4OC","","img/set1/S2.jpg","83","2","structured_incentive","68","structured_incentive,structured_load,structured_normal,random","4,2,2,3,1,2","2,3,4,1","false","","",""
"null","","html-keyboard-response","131","212687","0.0-131.0","3RKNTXVS3NKOESXU9IODQ1RZJR54AY","A2POU9TTW177VH","3URJ6VVYUP9BUCT1SZOT2DFI02L4OC","","<img src=""img/set1/S2.jpg"" width=""540"" height = ""360"">","null","","","","","","","","","",""
"null","","html-keyboard-response","132","212899","0.0-132.0","3RKNTXVS3NKOESXU9IODQ1RZJR54AY","A2POU9TTW177VH","3URJ6VVYUP9BUCT1SZOT2DFI02L4OC","","","null","","","","","","","","","",""
"810.8999999761581","","image-keyboard-response","133","213713","0.0-133.0","3RKNTXVS3NKOESXU9IODQ1RZJR54AY","A2POU9TTW177VH","3URJ6VVYUP9BUCT1SZOT2DFI02L4OC","","img/set1/S1.jpg","74","1","structured_incentive","83","structured_incentive,structured_load,structured_normal,random","4,2,2,3,1,2","2,3,4,1","false","","",""
"null","","html-keyboard-response","134","214066","0.0-134.0","3RKNTXVS3NKOESXU9IODQ1RZJR54AY","A2POU9TTW177VH","3URJ6VVYUP9BUCT1SZOT2DFI02L4OC","","<img src=""img/set1/S1.jpg"" width=""540"" height = ""360"">","null","","","","","","","","","",""
"null","","html-keyboard-response","135","214280","0.0-135.0","3RKNTXVS3NKOESXU9IODQ1RZJR54AY","A2POU9TTW177VH","3URJ6VVYUP9BUCT1SZOT2DFI02L4OC","","","null","","","","","","","","","",""
"625.5999999642372","","image-keyboard-response","136","214908","0.0-136.0","3RKNTXVS3NKOESXU9IODQ1RZJR54AY","A2POU9TTW177VH","3URJ6VVYUP9BUCT1SZOT2DFI02L4OC","","img/set1/S4.jpg","72","4","structured_incentive","74","structured_incentive,structured_load,structured_normal,random","4,2,2,3,1,2","2,3,4,1","false","","",""
"null","","html-keyboard-response","137","215261","0.0-137.0","3RKNTXVS3NKOESXU9IODQ1RZJR54AY","A2POU9TTW177VH","3URJ6VVYUP9BUCT1SZOT2DFI02L4OC","","<img src=""img/set1/S4.jpg"" width=""540"" height = ""360"">","null","","","","","","","","","",""
"null","","html-keyboard-response","138","215478","0.0-138.0","3RKNTXVS3NKOESXU9IODQ1RZJR54AY","A2POU9TTW177VH","3URJ6VVYUP9BUCT1SZOT2DFI02L4OC","","","null","","","","","","","","","",""
"674.6999999880791","","image-keyboard-response","139","216154","0.0-139.0","3RKNTXVS3NKOESXU9IODQ1RZJR54AY","A2POU9TTW177VH","3URJ6VVYUP9BUCT1SZOT2DFI02L4OC","","img/set1/S3.jpg","68","3","structured_incentive","72","structured_incentive,structured_load,structured_normal,random","4,2,2,3,1,2","2,3,4,1","false","","",""
"null","","html-keyboard-response","140","216509","0.0-140.0","3RKNTXVS3NKOESXU9IODQ1RZJR54AY","A2POU9TTW177VH","3URJ6VVYUP9BUCT1SZOT2DFI02L4OC","","<img src=""img/set1/S3.jpg"" width=""540"" height = ""360"">","null","","","","","","","","","",""
"null","","html-keyboard-response","141","216721","0.0-141.0","3RKNTXVS3NKOESXU9IODQ1RZJR54AY","A2POU9TTW177VH","3URJ6VVYUP9BUCT1SZOT2DFI02L4OC","","","null","","","","","","","","","",""
"671.5","","image-keyboard-response","142","217395","0.0-142.0","3RKNTXVS3NKOESXU9IODQ1RZJR54AY","A2POU9TTW177VH","3URJ6VVYUP9BUCT1SZOT2DFI02L4OC","","img/set1/S4.jpg","72","4","structured_incentive","74","structured_incentive,structured_load,structured_normal,random","4,2,2,3,1,2","2,3,4,1","false","","",""
"null","","html-keyboard-response","143","217748","0.0-143.0","3RKNTXVS3NKOESXU9IODQ1RZJR54AY","A2POU9TTW177VH","3URJ6VVYUP9BUCT1SZOT2DFI02L4OC","","<img src=""img/set1/S4.jpg"" width=""540"" height = ""360"">","null","","","","","","","","","",""
"null","","html-keyboard-response","144","217961","0.0-144.0","3RKNTXVS3NKOESXU9IODQ1RZJR54AY","A2POU9TTW177VH","3URJ6VVYUP9BUCT1SZOT2DFI02L4OC","","","null","","","","","","","","","",""
"723","","image-keyboard-response","145","218686","0.0-145.0","3RKNTXVS3NKOESXU9IODQ1RZJR54AY","A2POU9TTW177VH","3URJ6VVYUP9BUCT1SZOT2DFI02L4OC","","img/set1/S2.jpg","72","2","structured_incentive","68","structured_incentive,structured_load,structured_normal,random","4,2,2,3,1,2","2,3,4,1","false","","",""
"null","","html-keyboard-response","146","219054","0.0-146.0","3RKNTXVS3NKOESXU9IODQ1RZJR54AY","A2POU9TTW177VH","3URJ6VVYUP9BUCT1SZOT2DFI02L4OC","","<img src=""img/set1/S2.jpg"" width=""540"" height = ""360"">","null","","","","","","","","","",""
"null","","html-keyboard-response","147","219257","0.0-147.0","3RKNTXVS3NKOESXU9IODQ1RZJR54AY","A2POU9TTW177VH","3URJ6VVYUP9BUCT1SZOT2DFI02L4OC","","","null","","","","","","","","","",""
"725.6999999880791","","image-keyboard-response","148","219985","0.0-148.0","3RKNTXVS3NKOESXU9IODQ1RZJR54AY","A2POU9TTW177VH","3URJ6VVYUP9BUCT1SZOT2DFI02L4OC","","img/set1/S4.jpg","74","4","structured_incentive","74","structured_incentive,structured_load,structured_normal,random","4,2,2,3,1,2","2,3,4,1","true","","",""
"null","","html-keyboard-response","149","220339","0.0-149.0","3RKNTXVS3NKOESXU9IODQ1RZJR54AY","A2POU9TTW177VH","3URJ6VVYUP9BUCT1SZOT2DFI02L4OC","","<img src=""img/set1/S4.jpg"" width=""540"" height = ""360"" style=""border:16px solid orange"">","null","","","","","","","","","",""
"null","","html-keyboard-response","150","220554","0.0-150.0","3RKNTXVS3NKOESXU9IODQ1RZJR54AY","A2POU9TTW177VH","3URJ6VVYUP9BUCT1SZOT2DFI02L4OC","","","null","","","","","","","","","",""
"992.7000000476837","","image-keyboard-response","151","221549","0.0-151.0","3RKNTXVS3NKOESXU9IODQ1RZJR54AY","A2POU9TTW177VH","3URJ6VVYUP9BUCT1SZOT2DFI02L4OC","","img/set1/S2.jpg","72","2","structured_incentive","68","structured_incentive,structured_load,structured_normal,random","4,2,2,3,1,2","2,3,4,1","false","","",""
"null","","html-keyboard-response","152","221915","0.0-152.0","3RKNTXVS3NKOESXU9IODQ1RZJR54AY","A2POU9TTW177VH","3URJ6VVYUP9BUCT1SZOT2DFI02L4OC","","<img src=""img/set1/S2.jpg"" width=""540"" height = ""360"">","null","","","","","","","","","",""
"null","","html-keyboard-response","153","222126","0.0-153.0","3RKNTXVS3NKOESXU9IODQ1RZJR54AY","A2POU9TTW177VH","3URJ6VVYUP9BUCT1SZOT2DFI02L4OC","","","null","","","","","","","","","",""
"1000.1999999880791","","image-keyboard-response","154","223129","0.0-154.0","3RKNTXVS3NKOESXU9IODQ1RZJR54AY","A2POU9TTW177VH","3URJ6VVYUP9BUCT1SZOT2DFI02L4OC","","img/set1/S1.jpg","74","1","structured_incentive","83","structured_incentive,structured_load,structured_normal,random","4,2,2,3,1,2","2,3,4,1","false","","",""
"null","","html-keyboard-response","155","223492","0.0-155.0","3RKNTXVS3NKOESXU9IODQ1RZJR54AY","A2POU9TTW177VH","3URJ6VVYUP9BUCT1SZOT2DFI02L4OC","","<img src=""img/set1/S1.jpg"" width=""540"" height = ""360"">","null","","","","","","","","","",""
"null","","html-keyboard-response","156","223695","0.0-156.0","3RKNTXVS3NKOESXU9IODQ1RZJR54AY","A2POU9TTW177VH","3URJ6VVYUP9BUCT1SZOT2DFI02L4OC","","","null","","","","","","","","","",""
"853.2000000476837","","image-keyboard-response","157","224551","0.0-157.0","3RKNTXVS3NKOESXU9IODQ1RZJR54AY","A2POU9TTW177VH","3URJ6VVYUP9BUCT1SZOT2DFI02L4OC","","img/set1/S2.jpg","68","2","structured_incentive","68","structured_incentive,structured_load,structured_normal,random","4,2,2,3,1,2","2,3,4,1","true","","",""
"null","","html-keyboard-response","158","224906","0.0-158.0","3RKNTXVS3NKOESXU9IODQ1RZJR54AY","A2POU9TTW177VH","3URJ6VVYUP9BUCT1SZOT2DFI02L4OC","","<img src=""img/set1/S2.jpg"" width=""540"" height = ""360"" style=""border:16px solid orange"">","null","","","","","","","","","",""
"null","","html-keyboard-response","159","225111","0.0-159.0","3RKNTXVS3NKOESXU9IODQ1RZJR54AY","A2POU9TTW177VH","3URJ6VVYUP9BUCT1SZOT2DFI02L4OC","","","null","","","","","","","","","",""
"948.1999999880791","","image-keyboard-response","160","226062","0.0-160.0","3RKNTXVS3NKOESXU9IODQ1RZJR54AY","A2POU9TTW177VH","3URJ6VVYUP9BUCT1SZOT2DFI02L4OC","","img/set1/S3.jpg","68","3","structured_incentive","72","structured_incentive,structured_load,structured_normal,random","4,2,2,3,1,2","2,3,4,1","false","","",""
"null","","html-keyboard-response","161","226430","0.0-161.0","3RKNTXVS3NKOESXU9IODQ1RZJR54AY","A2POU9TTW177VH","3URJ6VVYUP9BUCT1SZOT2DFI02L4OC","","<img src=""img/set1/S3.jpg"" width=""540"" height = ""360"">","null","","","","","","","","","",""
"null","","html-keyboard-response","162","226647","0.0-162.0","3RKNTXVS3NKOESXU9IODQ1RZJR54AY","A2POU9TTW177VH","3URJ6VVYUP9BUCT1SZOT2DFI02L4OC","","","null","","","","","","","","","",""
"744.2999999523163","","image-keyboard-response","163","227394","0.0-163.0","3RKNTXVS3NKOESXU9IODQ1RZJR54AY","A2POU9TTW177VH","3URJ6VVYUP9BUCT1SZOT2DFI02L4OC","","img/set1/S3.jpg","74","3","structured_incentive","72","structured_incentive,structured_load,structured_normal,random","4,2,2,3,1,2","2,3,4,1","false","","",""
"null","","html-keyboard-response","164","227762","0.0-164.0","3RKNTXVS3NKOESXU9IODQ1RZJR54AY","A2POU9TTW177VH","3URJ6VVYUP9BUCT1SZOT2DFI02L4OC","","<img src=""img/set1/S3.jpg"" width=""540"" height = ""360"">","null","","","","","","","","","",""
"null","","html-keyboard-response","165","227974","0.0-165.0","3RKNTXVS3NKOESXU9IODQ1RZJR54AY","A2POU9TTW177VH","3URJ6VVYUP9BUCT1SZOT2DFI02L4OC","","","null","","","","","","","","","",""
"536.3000000119209","","image-keyboard-response","166","228512","0.0-166.0","3RKNTXVS3NKOESXU9IODQ1RZJR54AY","A2POU9TTW177VH","3URJ6VVYUP9BUCT1SZOT2DFI02L4OC","","img/set1/S3.jpg","83","3","structured_incentive","72","structured_incentive,structured_load,structured_normal,random","4,2,2,3,1,2","2,3,4,1","false","","",""
"null","","html-keyboard-response","167","228866","0.0-167.0","3RKNTXVS3NKOESXU9IODQ1RZJR54AY","A2POU9TTW177VH","3URJ6VVYUP9BUCT1SZOT2DFI02L4OC","","<img src=""img/set1/S3.jpg"" width=""540"" height = ""360"">","null","","","","","","","","","",""
"null","","html-keyboard-response","168","229069","0.0-168.0","3RKNTXVS3NKOESXU9IODQ1RZJR54AY","A2POU9TTW177VH","3URJ6VVYUP9BUCT1SZOT2DFI02L4OC","","","null","","","","","","","","","",""
"898.9000000357628","","image-keyboard-response","169","229970","0.0-169.0","3RKNTXVS3NKOESXU9IODQ1RZJR54AY","A2POU9TTW177VH","3URJ6VVYUP9BUCT1SZOT2DFI02L4OC","","img/set1/S3.jpg","68","3","structured_incentive","72","structured_incentive,structured_load,structured_normal,random","4,2,2,3,1,2","2,3,4,1","false","","",""
"null","","html-keyboard-response","170","230326","0.0-170.0","3RKNTXVS3NKOESXU9IODQ1RZJR54AY","A2POU9TTW177VH","3URJ6VVYUP9BUCT1SZOT2DFI02L4OC","","<img src=""img/set1/S3.jpg"" width=""540"" height = ""360"">","null","","","","","","","","","",""
"null","","html-keyboard-response","171","230534","0.0-171.0","3RKNTXVS3NKOESXU9IODQ1RZJR54AY","A2POU9TTW177VH","3URJ6VVYUP9BUCT1SZOT2DFI02L4OC","","","null","","","","","","","","","",""
"917.8000000119209","","image-keyboard-response","172","231454","0.0-172.0","3RKNTXVS3NKOESXU9IODQ1RZJR54AY","A2POU9TTW177VH","3URJ6VVYUP9BUCT1SZOT2DFI02L4OC","","img/set1/S2.jpg","72","2","structured_incentive","68","structured_incentive,structured_load,structured_normal,random","4,2,2,3,1,2","2,3,4,1","false","","",""
"null","","html-keyboard-response","173","231807","0.0-173.0","3RKNTXVS3NKOESXU9IODQ1RZJR54AY","A2POU9TTW177VH","3URJ6VVYUP9BUCT1SZOT2DFI02L4OC","","<img src=""img/set1/S2.jpg"" width=""540"" height = ""360"">","null","","","","","","","","","",""
"null","","html-keyboard-response","174","232011","0.0-174.0","3RKNTXVS3NKOESXU9IODQ1RZJR54AY","A2POU9TTW177VH","3URJ6VVYUP9BUCT1SZOT2DFI02L4OC","","","null","","","","","","","","","",""
"845.8999999761581","","image-keyboard-response","175","232859","0.0-175.0","3RKNTXVS3NKOESXU9IODQ1RZJR54AY","A2POU9TTW177VH","3URJ6VVYUP9BUCT1SZOT2DFI02L4OC","","img/set1/S4.jpg","72","4","structured_incentive","74","structured_incentive,structured_load,structured_normal,random","4,2,2,3,1,2","2,3,4,1","false","","",""
"null","","html-keyboard-response","176","233213","0.0-176.0","3RKNTXVS3NKOESXU9IODQ1RZJR54AY","A2POU9TTW177VH","3URJ6VVYUP9BUCT1SZOT2DFI02L4OC","","<img src=""img/set1/S4.jpg"" width=""540"" height = ""360"">","null","","","","","","","","","",""
"null","","html-keyboard-response","177","233418","0.0-177.0","3RKNTXVS3NKOESXU9IODQ1RZJR54AY","A2POU9TTW177VH","3URJ6VVYUP9BUCT1SZOT2DFI02L4OC","","","null","","","","","","","","","",""
"702.8999999761581","","image-keyboard-response","178","234123","0.0-178.0","3RKNTXVS3NKOESXU9IODQ1RZJR54AY","A2POU9TTW177VH","3URJ6VVYUP9BUCT1SZOT2DFI02L4OC","","img/set1/S2.jpg","74","2","structured_incentive","68","structured_incentive,structured_load,structured_normal,random","4,2,2,3,1,2","2,3,4,1","false","","",""
"null","","html-keyboard-response","179","234478","0.0-179.0","3RKNTXVS3NKOESXU9IODQ1RZJR54AY","A2POU9TTW177VH","3URJ6VVYUP9BUCT1SZOT2DFI02L4OC","","<img src=""img/set1/S2.jpg"" width=""540"" height = ""360"">","null","","","","","","","","","",""
"null","","html-keyboard-response","180","234692","0.0-180.0","3RKNTXVS3NKOESXU9IODQ1RZJR54AY","A2POU9TTW177VH","3URJ6VVYUP9BUCT1SZOT2DFI02L4OC","","","null","","","","","","","","","",""
"915.1000000238419","","image-keyboard-response","181","235610","0.0-181.0","3RKNTXVS3NKOESXU9IODQ1RZJR54AY","A2POU9TTW177VH","3URJ6VVYUP9BUCT1SZOT2DFI02L4OC","","img/set1/S3.jpg","68","3","structured_incentive","72","structured_incentive,structured_load,structured_normal,random","4,2,2,3,1,2","2,3,4,1","false","","",""
"null","","html-keyboard-response","182","235978","0.0-182.0","3RKNTXVS3NKOESXU9IODQ1RZJR54AY","A2POU9TTW177VH","3URJ6VVYUP9BUCT1SZOT2DFI02L4OC","","<img src=""img/set1/S3.jpg"" width=""540"" height = ""360"">","null","","","","","","","","","",""
"null","","html-keyboard-response","183","236190","0.0-183.0","3RKNTXVS3NKOESXU9IODQ1RZJR54AY","A2POU9TTW177VH","3URJ6VVYUP9BUCT1SZOT2DFI02L4OC","","","null","","","","","","","","","",""
"596.5999999642372","","image-keyboard-response","184","236789","0.0-184.0","3RKNTXVS3NKOESXU9IODQ1RZJR54AY","A2POU9TTW177VH","3URJ6VVYUP9BUCT1SZOT2DFI02L4OC","","img/set1/S1.jpg","83","1","structured_incentive","83","structured_incentive,structured_load,structured_normal,random","4,2,2,3,1,2","2,3,4,1","true","","",""
"null","","html-keyboard-response","185","237152","0.0-185.0","3RKNTXVS3NKOESXU9IODQ1RZJR54AY","A2POU9TTW177VH","3URJ6VVYUP9BUCT1SZOT2DFI02L4OC","","<img src=""img/set1/S1.jpg"" width=""540"" height = ""360"" style=""border:16px solid orange"">","null","","","","","","","","","",""
"null","","html-keyboard-response","186","237363","0.0-186.0","3RKNTXVS3NKOESXU9IODQ1RZJR54AY","A2POU9TTW177VH","3URJ6VVYUP9BUCT1SZOT2DFI02L4OC","","","null","","","","","","","","","",""
"722.1000000238419","","image-keyboard-response","187","238090","0.0-187.0","3RKNTXVS3NKOESXU9IODQ1RZJR54AY","A2POU9TTW177VH","3URJ6VVYUP9BUCT1SZOT2DFI02L4OC","","img/set1/S3.jpg","68","3","structured_incentive","72","structured_incentive,structured_load,structured_normal,random","4,2,2,3,1,2","2,3,4,1","false","","",""
"null","","html-keyboard-response","188","238444","0.0-188.0","3RKNTXVS3NKOESXU9IODQ1RZJR54AY","A2POU9TTW177VH","3URJ6VVYUP9BUCT1SZOT2DFI02L4OC","","<img src=""img/set1/S3.jpg"" width=""540"" height = ""360"">","null","","","","","","","","","",""
"null","","html-keyboard-response","189","238654","0.0-189.0","3RKNTXVS3NKOESXU9IODQ1RZJR54AY","A2POU9TTW177VH","3URJ6VVYUP9BUCT1SZOT2DFI02L4OC","","","null","","","","","","","","","",""
"740","","image-keyboard-response","190","239396","0.0-190.0","3RKNTXVS3NKOESXU9IODQ1RZJR54AY","A2POU9TTW177VH","3URJ6VVYUP9BUCT1SZOT2DFI02L4OC","","img/set1/S1.jpg","74","1","structured_incentive","83","structured_incentive,structured_load,structured_normal,random","4,2,2,3,1,2","2,3,4,1","false","","",""
"null","","html-keyboard-response","191","239754","0.0-191.0","3RKNTXVS3NKOESXU9IODQ1RZJR54AY","A2POU9TTW177VH","3URJ6VVYUP9BUCT1SZOT2DFI02L4OC","","<img src=""img/set1/S1.jpg"" width=""540"" height = ""360"">","null","","","","","","","","","",""
"null","","html-keyboard-response","192","239958","0.0-192.0","3RKNTXVS3NKOESXU9IODQ1RZJR54AY","A2POU9TTW177VH","3URJ6VVYUP9BUCT1SZOT2DFI02L4OC","","","null","","","","","","","","","",""
"930.8999999761581","","image-keyboard-response","193","240891","0.0-193.0","3RKNTXVS3NKOESXU9IODQ1RZJR54AY","A2POU9TTW177VH","3URJ6VVYUP9BUCT1SZOT2DFI02L4OC","","img/set1/S2.jpg","72","2","structured_incentive","68","structured_incentive,structured_load,structured_normal,random","4,2,2,3,1,2","2,3,4,1","false","","",""
"null","","html-keyboard-response","194","241257","0.0-194.0","3RKNTXVS3NKOESXU9IODQ1RZJR54AY","A2POU9TTW177VH","3URJ6VVYUP9BUCT1SZOT2DFI02L4OC","","<img src=""img/set1/S2.jpg"" width=""540"" height = ""360"">","null","","","","","","","","","",""
"null","","html-keyboard-response","195","241473","0.0-195.0","3RKNTXVS3NKOESXU9IODQ1RZJR54AY","A2POU9TTW177VH","3URJ6VVYUP9BUCT1SZOT2DFI02L4OC","","","null","","","","","","","","","",""
"808.6999999880791","","image-keyboard-response","196","242284","0.0-196.0","3RKNTXVS3NKOESXU9IODQ1RZJR54AY","A2POU9TTW177VH","3URJ6VVYUP9BUCT1SZOT2DFI02L4OC","","img/set1/S4.jpg","68","4","structured_incentive","74","structured_incentive,structured_load,structured_normal,random","4,2,2,3,1,2","2,3,4,1","false","","",""
"null","","html-keyboard-response","197","242653","0.0-197.0","3RKNTXVS3NKOESXU9IODQ1RZJR54AY","A2POU9TTW177VH","3URJ6VVYUP9BUCT1SZOT2DFI02L4OC","","<img src=""img/set1/S4.jpg"" width=""540"" height = ""360"">","null","","","","","","","","","",""
"null","","html-keyboard-response","198","242866","0.0-198.0","3RKNTXVS3NKOESXU9IODQ1RZJR54AY","A2POU9TTW177VH","3URJ6VVYUP9BUCT1SZOT2DFI02L4OC","","","null","","","","","","","","","",""
"881.1999999880791","","image-keyboard-response","199","243748","0.0-199.0","3RKNTXVS3NKOESXU9IODQ1RZJR54AY","A2POU9TTW177VH","3URJ6VVYUP9BUCT1SZOT2DFI02L4OC","","img/set1/S2.jpg","68","2","structured_incentive","68","structured_incentive,structured_load,structured_normal,random","4,2,2,3,1,2","2,3,4,1","true","","",""
"null","","html-keyboard-response","200","244110","0.0-200.0","3RKNTXVS3NKOESXU9IODQ1RZJR54AY","A2POU9TTW177VH","3URJ6VVYUP9BUCT1SZOT2DFI02L4OC","","<img src=""img/set1/S2.jpg"" width=""540"" height = ""360"" style=""border:16px solid orange"">","null","","","","","","","","","",""
"null","","html-keyboard-response","201","244324","0.0-201.0","3RKNTXVS3NKOESXU9IODQ1RZJR54AY","A2POU9TTW177VH","3URJ6VVYUP9BUCT1SZOT2DFI02L4OC","","","null","","","","","","","","","",""
"855.9000000357628","","image-keyboard-response","202","245182","0.0-202.0","3RKNTXVS3NKOESXU9IODQ1RZJR54AY","A2POU9TTW177VH","3URJ6VVYUP9BUCT1SZOT2DFI02L4OC","","img/set1/S1.jpg","72","1","structured_incentive","83","structured_incentive,structured_load,structured_normal,random","4,2,2,3,1,2","2,3,4,1","false","","",""
"null","","html-keyboard-response","203","245548","0.0-203.0","3RKNTXVS3NKOESXU9IODQ1RZJR54AY","A2POU9TTW177VH","3URJ6VVYUP9BUCT1SZOT2DFI02L4OC","","<img src=""img/set1/S1.jpg"" width=""540"" height = ""360"">","null","","","","","","","","","",""
"null","","html-keyboard-response","204","245765","0.0-204.0","3RKNTXVS3NKOESXU9IODQ1RZJR54AY","A2POU9TTW177VH","3URJ6VVYUP9BUCT1SZOT2DFI02L4OC","","","null","","","","","","","","","",""
"1044","","image-keyboard-response","205","246810","0.0-205.0","3RKNTXVS3NKOESXU9IODQ1RZJR54AY","A2POU9TTW177VH","3URJ6VVYUP9BUCT1SZOT2DFI02L4OC","","img/set1/S3.jpg","74","3","structured_incentive","72","structured_incentive,structured_load,structured_normal,random","4,2,2,3,1,2","2,3,4,1","false","","",""
"null","","html-keyboard-response","206","247172","0.0-206.0","3RKNTXVS3NKOESXU9IODQ1RZJR54AY","A2POU9TTW177VH","3URJ6VVYUP9BUCT1SZOT2DFI02L4OC","","<img src=""img/set1/S3.jpg"" width=""540"" height = ""360"">","null","","","","","","","","","",""
"null","","html-keyboard-response","207","247383","0.0-207.0","3RKNTXVS3NKOESXU9IODQ1RZJR54AY","A2POU9TTW177VH","3URJ6VVYUP9BUCT1SZOT2DFI02L4OC","","","null","","","","","","","","","",""
"724.8000000119209","","image-keyboard-response","208","248111","0.0-208.0","3RKNTXVS3NKOESXU9IODQ1RZJR54AY","A2POU9TTW177VH","3URJ6VVYUP9BUCT1SZOT2DFI02L4OC","","img/set1/S3.jpg","74","3","structured_incentive","72","structured_incentive,structured_load,structured_normal,random","4,2,2,3,1,2","2,3,4,1","false","","",""
"null","","html-keyboard-response","209","248479","0.0-209.0","3RKNTXVS3NKOESXU9IODQ1RZJR54AY","A2POU9TTW177VH","3URJ6VVYUP9BUCT1SZOT2DFI02L4OC","","<img src=""img/set1/S3.jpg"" width=""540"" height = ""360"">","null","","","","","","","","","",""
"null","","html-keyboard-response","210","248692","0.0-210.0","3RKNTXVS3NKOESXU9IODQ1RZJR54AY","A2POU9TTW177VH","3URJ6VVYUP9BUCT1SZOT2DFI02L4OC","","","null","","","","","","","","","",""
"978.3999999761581","","image-keyboard-response","211","249673","0.0-211.0","3RKNTXVS3NKOESXU9IODQ1RZJR54AY","A2POU9TTW177VH","3URJ6VVYUP9BUCT1SZOT2DFI02L4OC","","img/set1/S1.jpg","72","1","structured_incentive","83","structured_incentive,structured_load,structured_normal,random","4,2,2,3,1,2","2,3,4,1","false","","",""
"null","","html-keyboard-response","212","250029","0.0-212.0","3RKNTXVS3NKOESXU9IODQ1RZJR54AY","A2POU9TTW177VH","3URJ6VVYUP9BUCT1SZOT2DFI02L4OC","","<img src=""img/set1/S1.jpg"" width=""540"" height = ""360"">","null","","","","","","","","","",""
"null","","html-keyboard-response","213","250246","0.0-213.0","3RKNTXVS3NKOESXU9IODQ1RZJR54AY","A2POU9TTW177VH","3URJ6VVYUP9BUCT1SZOT2DFI02L4OC","","","null","","","","","","","","","",""
"758.2999999523163","","image-keyboard-response","214","251007","0.0-214.0","3RKNTXVS3NKOESXU9IODQ1RZJR54AY","A2POU9TTW177VH","3URJ6VVYUP9BUCT1SZOT2DFI02L4OC","","img/set1/S2.jpg","83","2","structured_incentive","68","structured_incentive,structured_load,structured_normal,random","4,2,2,3,1,2","2,3,4,1","false","","",""
"null","","html-keyboard-response","215","251375","0.0-215.0","3RKNTXVS3NKOESXU9IODQ1RZJR54AY","A2POU9TTW177VH","3URJ6VVYUP9BUCT1SZOT2DFI02L4OC","","<img src=""img/set1/S2.jpg"" width=""540"" height = ""360"">","null","","","","","","","","","",""
"null","","html-keyboard-response","216","251586","0.0-216.0","3RKNTXVS3NKOESXU9IODQ1RZJR54AY","A2POU9TTW177VH","3URJ6VVYUP9BUCT1SZOT2DFI02L4OC","","","null","","","","","","","","","",""
"903.5","","image-keyboard-response","217","252492","0.0-217.0","3RKNTXVS3NKOESXU9IODQ1RZJR54AY","A2POU9TTW177VH","3URJ6VVYUP9BUCT1SZOT2DFI02L4OC","","img/set1/S3.jpg","68","3","structured_incentive","72","structured_incentive,structured_load,structured_normal,random","4,2,2,3,1,2","2,3,4,1","false","","",""
"null","","html-keyboard-response","218","252860","0.0-218.0","3RKNTXVS3NKOESXU9IODQ1RZJR54AY","A2POU9TTW177VH","3URJ6VVYUP9BUCT1SZOT2DFI02L4OC","","<img src=""img/set1/S3.jpg"" width=""540"" height = ""360"">","null","","","","","","","","","",""
"null","","html-keyboard-response","219","253080","0.0-219.0","3RKNTXVS3NKOESXU9IODQ1RZJR54AY","A2POU9TTW177VH","3URJ6VVYUP9BUCT1SZOT2DFI02L4OC","","","null","","","","","","","","","",""
"631.5","","image-keyboard-response","220","253714","0.0-220.0","3RKNTXVS3NKOESXU9IODQ1RZJR54AY","A2POU9TTW177VH","3URJ6VVYUP9BUCT1SZOT2DFI02L4OC","","img/set1/S3.jpg","74","3","structured_incentive","72","structured_incentive,structured_load,structured_normal,random","4,2,2,3,1,2","2,3,4,1","false","","",""
"null","","html-keyboard-response","221","254082","0.0-221.0","3RKNTXVS3NKOESXU9IODQ1RZJR54AY","A2POU9TTW177VH","3URJ6VVYUP9BUCT1SZOT2DFI02L4OC","","<img src=""img/set1/S3.jpg"" width=""540"" height = ""360"">","null","","","","","","","","","",""
"null","","html-keyboard-response","222","254285","0.0-222.0","3RKNTXVS3NKOESXU9IODQ1RZJR54AY","A2POU9TTW177VH","3URJ6VVYUP9BUCT1SZOT2DFI02L4OC","","","null","","","","","","","","","",""
"947.5999999642372","","image-keyboard-response","223","255235","0.0-223.0","3RKNTXVS3NKOESXU9IODQ1RZJR54AY","A2POU9TTW177VH","3URJ6VVYUP9BUCT1SZOT2DFI02L4OC","","img/set1/S2.jpg","72","2","structured_incentive","68","structured_incentive,structured_load,structured_normal,random","4,2,2,3,1,2","2,3,4,1","false","","",""
"null","","html-keyboard-response","224","255592","0.0-224.0","3RKNTXVS3NKOESXU9IODQ1RZJR54AY","A2POU9TTW177VH","3URJ6VVYUP9BUCT1SZOT2DFI02L4OC","","<img src=""img/set1/S2.jpg"" width=""540"" height = ""360"">","null","","","","","","","","","",""
"null","","html-keyboard-response","225","255796","0.0-225.0","3RKNTXVS3NKOESXU9IODQ1RZJR54AY","A2POU9TTW177VH","3URJ6VVYUP9BUCT1SZOT2DFI02L4OC","","","null","","","","","","","","","",""
"564","","image-keyboard-response","226","256362","0.0-226.0","3RKNTXVS3NKOESXU9IODQ1RZJR54AY","A2POU9TTW177VH","3URJ6VVYUP9BUCT1SZOT2DFI02L4OC","","img/set1/S4.jpg","68","4","structured_incentive","74","structured_incentive,structured_load,structured_normal,random","4,2,2,3,1,2","2,3,4,1","false","","",""
"null","","html-keyboard-response","227","256715","0.0-227.0","3RKNTXVS3NKOESXU9IODQ1RZJR54AY","A2POU9TTW177VH","3URJ6VVYUP9BUCT1SZOT2DFI02L4OC","","<img src=""img/set1/S4.jpg"" width=""540"" height = ""360"">","null","","","","","","","","","",""
"null","","html-keyboard-response","228","256918","0.0-228.0","3RKNTXVS3NKOESXU9IODQ1RZJR54AY","A2POU9TTW177VH","3URJ6VVYUP9BUCT1SZOT2DFI02L4OC","","","null","","","","","","","","","",""
"752.5999999642372","","image-keyboard-response","229","257673","0.0-229.0","3RKNTXVS3NKOESXU9IODQ1RZJR54AY","A2POU9TTW177VH","3URJ6VVYUP9BUCT1SZOT2DFI02L4OC","","img/set1/S2.jpg","83","2","structured_incentive","68","structured_incentive,structured_load,structured_normal,random","4,2,2,3,1,2","2,3,4,1","false","","",""
"null","","html-keyboard-response","230","258028","0.0-230.0","3RKNTXVS3NKOESXU9IODQ1RZJR54AY","A2POU9TTW177VH","3URJ6VVYUP9BUCT1SZOT2DFI02L4OC","","<img src=""img/set1/S2.jpg"" width=""540"" height = ""360"">","null","","","","","","","","","",""
"null","","html-keyboard-response","231","258230","0.0-231.0","3RKNTXVS3NKOESXU9IODQ1RZJR54AY","A2POU9TTW177VH","3URJ6VVYUP9BUCT1SZOT2DFI02L4OC","","","null","","","","","","","","","",""
"919.1000000238419","","image-keyboard-response","232","259151","0.0-232.0","3RKNTXVS3NKOESXU9IODQ1RZJR54AY","A2POU9TTW177VH","3URJ6VVYUP9BUCT1SZOT2DFI02L4OC","","img/set1/S1.jpg","74","1","structured_incentive","83","structured_incentive,structured_load,structured_normal,random","4,2,2,3,1,2","2,3,4,1","false","","",""
"null","","html-keyboard-response","233","259507","0.0-233.0","3RKNTXVS3NKOESXU9IODQ1RZJR54AY","A2POU9TTW177VH","3URJ6VVYUP9BUCT1SZOT2DFI02L4OC","","<img src=""img/set1/S1.jpg"" width=""540"" height = ""360"">","null","","","","","","","","","",""
"null","","html-keyboard-response","234","259721","0.0-234.0","3RKNTXVS3NKOESXU9IODQ1RZJR54AY","A2POU9TTW177VH","3URJ6VVYUP9BUCT1SZOT2DFI02L4OC","","","null","","","","","","","","","",""
"1025.800000011921","","image-keyboard-response","235","260749","0.0-235.0","3RKNTXVS3NKOESXU9IODQ1RZJR54AY","A2POU9TTW177VH","3URJ6VVYUP9BUCT1SZOT2DFI02L4OC","","img/set1/S4.jpg","72","4","structured_incentive","74","structured_incentive,structured_load,structured_normal,random","4,2,2,3,1,2","2,3,4,1","false","","",""
"null","","html-keyboard-response","236","261116","0.0-236.0","3RKNTXVS3NKOESXU9IODQ1RZJR54AY","A2POU9TTW177VH","3URJ6VVYUP9BUCT1SZOT2DFI02L4OC","","<img src=""img/set1/S4.jpg"" width=""540"" height = ""360"">","null","","","","","","","","","",""
"null","","html-keyboard-response","237","261326","0.0-237.0","3RKNTXVS3NKOESXU9IODQ1RZJR54AY","A2POU9TTW177VH","3URJ6VVYUP9BUCT1SZOT2DFI02L4OC","","","null","","","","","","","","","",""
"580.8999999761581","","image-keyboard-response","238","261909","0.0-238.0","3RKNTXVS3NKOESXU9IODQ1RZJR54AY","A2POU9TTW177VH","3URJ6VVYUP9BUCT1SZOT2DFI02L4OC","","img/set1/S2.jpg","74","2","structured_incentive","68","structured_incentive,structured_load,structured_normal,random","4,2,2,3,1,2","2,3,4,1","false","","",""
"null","","html-keyboard-response","239","262276","0.0-239.0","3RKNTXVS3NKOESXU9IODQ1RZJR54AY","A2POU9TTW177VH","3URJ6VVYUP9BUCT1SZOT2DFI02L4OC","","<img src=""img/set1/S2.jpg"" width=""540"" height = ""360"">","null","","","","","","","","","",""
"null","","html-keyboard-response","240","262488","0.0-240.0","3RKNTXVS3NKOESXU9IODQ1RZJR54AY","A2POU9TTW177VH","3URJ6VVYUP9BUCT1SZOT2DFI02L4OC","","","null","","","","","","","","","",""
"743","","image-keyboard-response","241","263234","0.0-241.0","3RKNTXVS3NKOESXU9IODQ1RZJR54AY","A2POU9TTW177VH","3URJ6VVYUP9BUCT1SZOT2DFI02L4OC","","img/set1/S1.jpg","68","1","structured_incentive","83","structured_incentive,structured_load,structured_normal,random","4,2,2,3,1,2","2,3,4,1","false","","",""
"null","","html-keyboard-response","242","263590","0.0-242.0","3RKNTXVS3NKOESXU9IODQ1RZJR54AY","A2POU9TTW177VH","3URJ6VVYUP9BUCT1SZOT2DFI02L4OC","","<img src=""img/set1/S1.jpg"" width=""540"" height = ""360"">","null","","","","","","","","","",""
"null","","html-keyboard-response","243","263803","0.0-243.0","3RKNTXVS3NKOESXU9IODQ1RZJR54AY","A2POU9TTW177VH","3URJ6VVYUP9BUCT1SZOT2DFI02L4OC","","","null","","","","","","","","","",""
"999.6999999880791","","image-keyboard-response","244","264805","0.0-244.0","3RKNTXVS3NKOESXU9IODQ1RZJR54AY","A2POU9TTW177VH","3URJ6VVYUP9BUCT1SZOT2DFI02L4OC","","img/set1/S1.jpg","83","1","structured_incentive","83","structured_incentive,structured_load,structured_normal,random","4,2,2,3,1,2","2,3,4,1","true","","",""
"null","","html-keyboard-response","245","265172","0.0-245.0","3RKNTXVS3NKOESXU9IODQ1RZJR54AY","A2POU9TTW177VH","3URJ6VVYUP9BUCT1SZOT2DFI02L4OC","","<img src=""img/set1/S1.jpg"" width=""540"" height = ""360"" style=""border:16px solid orange"">","null","","","","","","","","","",""
"null","","html-keyboard-response","246","265375","0.0-246.0","3RKNTXVS3NKOESXU9IODQ1RZJR54AY","A2POU9TTW177VH","3URJ6VVYUP9BUCT1SZOT2DFI02L4OC","","","null","","","","","","","","","",""
"904.5","","image-keyboard-response","247","266282","0.0-247.0","3RKNTXVS3NKOESXU9IODQ1RZJR54AY","A2POU9TTW177VH","3URJ6VVYUP9BUCT1SZOT2DFI02L4OC","","img/set1/S4.jpg","68","4","structured_incentive","74","structured_incentive,structured_load,structured_normal,random","4,2,2,3,1,2","2,3,4,1","false","","",""
"null","","html-keyboard-response","248","266635","0.0-248.0","3RKNTXVS3NKOESXU9IODQ1RZJR54AY","A2POU9TTW177VH","3URJ6VVYUP9BUCT1SZOT2DFI02L4OC","","<img src=""img/set1/S4.jpg"" width=""540"" height = ""360"">","null","","","","","","","","","",""
"null","","html-keyboard-response","249","266848","0.0-249.0","3RKNTXVS3NKOESXU9IODQ1RZJR54AY","A2POU9TTW177VH","3URJ6VVYUP9BUCT1SZOT2DFI02L4OC","","","null","","","","","","","","","",""
"826.4000000357628","","image-keyboard-response","250","267678","0.0-250.0","3RKNTXVS3NKOESXU9IODQ1RZJR54AY","A2POU9TTW177VH","3URJ6VVYUP9BUCT1SZOT2DFI02L4OC","","img/set1/S2.jpg","72","2","structured_incentive","68","structured_incentive,structured_load,structured_normal,random","4,2,2,3,1,2","2,3,4,1","false","","",""
"null","","html-keyboard-response","251","268034","0.0-251.0","3RKNTXVS3NKOESXU9IODQ1RZJR54AY","A2POU9TTW177VH","3URJ6VVYUP9BUCT1SZOT2DFI02L4OC","","<img src=""img/set1/S2.jpg"" width=""540"" height = ""360"">","null","","","","","","","","","",""
"null","","html-keyboard-response","252","268241","0.0-252.0","3RKNTXVS3NKOESXU9IODQ1RZJR54AY","A2POU9TTW177VH","3URJ6VVYUP9BUCT1SZOT2DFI02L4OC","","","null","","","","","","","","","",""
"951.6000000238419","","image-keyboard-response","253","269195","0.0-253.0","3RKNTXVS3NKOESXU9IODQ1RZJR54AY","A2POU9TTW177VH","3URJ6VVYUP9BUCT1SZOT2DFI02L4OC","","img/set1/S4.jpg","74","4","structured_incentive","74","structured_incentive,structured_load,structured_normal,random","4,2,2,3,1,2","2,3,4,1","true","","",""
"null","","html-keyboard-response","254","269560","0.0-254.0","3RKNTXVS3NKOESXU9IODQ1RZJR54AY","A2POU9TTW177VH","3URJ6VVYUP9BUCT1SZOT2DFI02L4OC","","<img src=""img/set1/S4.jpg"" width=""540"" height = ""360"" style=""border:16px solid orange"">","null","","","","","","","","","",""
"null","","html-keyboard-response","255","269772","0.0-255.0","3RKNTXVS3NKOESXU9IODQ1RZJR54AY","A2POU9TTW177VH","3URJ6VVYUP9BUCT1SZOT2DFI02L4OC","","","null","","","","","","","","","",""
"915.3999999761581","","image-keyboard-response","256","270690","0.0-256.0","3RKNTXVS3NKOESXU9IODQ1RZJR54AY","A2POU9TTW177VH","3URJ6VVYUP9BUCT1SZOT2DFI02L4OC","","img/set1/S2.jpg","72","2","structured_incentive","68","structured_incentive,structured_load,structured_normal,random","4,2,2,3,1,2","2,3,4,1","false","","",""
"null","","html-keyboard-response","257","271044","0.0-257.0","3RKNTXVS3NKOESXU9IODQ1RZJR54AY","A2POU9TTW177VH","3URJ6VVYUP9BUCT1SZOT2DFI02L4OC","","<img src=""img/set1/S2.jpg"" width=""540"" height = ""360"">","null","","","","","","","","","",""
"null","","html-keyboard-response","258","271261","0.0-258.0","3RKNTXVS3NKOESXU9IODQ1RZJR54AY","A2POU9TTW177VH","3URJ6VVYUP9BUCT1SZOT2DFI02L4OC","","","null","","","","","","","","","",""
"1034.5","","image-keyboard-response","259","272298","0.0-259.0","3RKNTXVS3NKOESXU9IODQ1RZJR54AY","A2POU9TTW177VH","3URJ6VVYUP9BUCT1SZOT2DFI02L4OC","","img/set1/S1.jpg","68","1","structured_incentive","83","structured_incentive,structured_load,structured_normal,random","4,2,2,3,1,2","2,3,4,1","false","","",""
"null","","html-keyboard-response","260","272652","0.0-260.0","3RKNTXVS3NKOESXU9IODQ1RZJR54AY","A2POU9TTW177VH","3URJ6VVYUP9BUCT1SZOT2DFI02L4OC","","<img src=""img/set1/S1.jpg"" width=""540"" height = ""360"">","null","","","","","","","","","",""
"null","","html-keyboard-response","261","272865","0.0-261.0","3RKNTXVS3NKOESXU9IODQ1RZJR54AY","A2POU9TTW177VH","3URJ6VVYUP9BUCT1SZOT2DFI02L4OC","","","null","","","","","","","","","",""
"1076.0999999642372","","image-keyboard-response","262","273943","0.0-262.0","3RKNTXVS3NKOESXU9IODQ1RZJR54AY","A2POU9TTW177VH","3URJ6VVYUP9BUCT1SZOT2DFI02L4OC","","img/set1/S4.jpg","72","4","structured_incentive","74","structured_incentive,structured_load,structured_normal,random","4,2,2,3,1,2","2,3,4,1","false","","",""
"null","","html-keyboard-response","263","274297","0.0-263.0","3RKNTXVS3NKOESXU9IODQ1RZJR54AY","A2POU9TTW177VH","3URJ6VVYUP9BUCT1SZOT2DFI02L4OC","","<img src=""img/set1/S4.jpg"" width=""540"" height = ""360"">","null","","","","","","","","","",""
"null","","html-keyboard-response","264","274501","0.0-264.0","3RKNTXVS3NKOESXU9IODQ1RZJR54AY","A2POU9TTW177VH","3URJ6VVYUP9BUCT1SZOT2DFI02L4OC","","","null","","","","","","","","","",""
"931.6000000238419","","image-keyboard-response","265","275436","0.0-265.0","3RKNTXVS3NKOESXU9IODQ1RZJR54AY","A2POU9TTW177VH","3URJ6VVYUP9BUCT1SZOT2DFI02L4OC","","img/set1/S2.jpg","83","2","structured_incentive","68","structured_incentive,structured_load,structured_normal,random","4,2,2,3,1,2","2,3,4,1","false","","",""
"null","","html-keyboard-response","266","275789","0.0-266.0","3RKNTXVS3NKOESXU9IODQ1RZJR54AY","A2POU9TTW177VH","3URJ6VVYUP9BUCT1SZOT2DFI02L4OC","","<img src=""img/set1/S2.jpg"" width=""540"" height = ""360"">","null","","","","","","","","","",""
"null","","html-keyboard-response","267","276003","0.0-267.0","3RKNTXVS3NKOESXU9IODQ1RZJR54AY","A2POU9TTW177VH","3URJ6VVYUP9BUCT1SZOT2DFI02L4OC","","","null","","","","","","","","","",""
"1081.800000011921","","image-keyboard-response","268","277086","0.0-268.0","3RKNTXVS3NKOESXU9IODQ1RZJR54AY","A2POU9TTW177VH","3URJ6VVYUP9BUCT1SZOT2DFI02L4OC","","img/set1/S3.jpg","74","3","structured_incentive","72","structured_incentive,structured_load,structured_normal,random","4,2,2,3,1,2","2,3,4,1","false","","",""
"null","","html-keyboard-response","269","277446","0.0-269.0","3RKNTXVS3NKOESXU9IODQ1RZJR54AY","A2POU9TTW177VH","3URJ6VVYUP9BUCT1SZOT2DFI02L4OC","","<img src=""img/set1/S3.jpg"" width=""540"" height = ""360"">","null","","","","","","","","","",""
"null","","html-keyboard-response","270","277659","0.0-270.0","3RKNTXVS3NKOESXU9IODQ1RZJR54AY","A2POU9TTW177VH","3URJ6VVYUP9BUCT1SZOT2DFI02L4OC","","","null","","","","","","","","","",""
"945.8000000119209","","image-keyboard-response","271","278607","0.0-271.0","3RKNTXVS3NKOESXU9IODQ1RZJR54AY","A2POU9TTW177VH","3URJ6VVYUP9BUCT1SZOT2DFI02L4OC","","img/set1/S1.jpg","68","1","structured_incentive","83","structured_incentive,structured_load,structured_normal,random","4,2,2,3,1,2","2,3,4,1","false","","",""
"null","","html-keyboard-response","272","278969","0.0-272.0","3RKNTXVS3NKOESXU9IODQ1RZJR54AY","A2POU9TTW177VH","3URJ6VVYUP9BUCT1SZOT2DFI02L4OC","","<img src=""img/set1/S1.jpg"" width=""540"" height = ""360"">","null","","","","","","","","","",""
"null","","html-keyboard-response","273","279176","0.0-273.0","3RKNTXVS3NKOESXU9IODQ1RZJR54AY","A2POU9TTW177VH","3URJ6VVYUP9BUCT1SZOT2DFI02L4OC","","","null","","","","","","","","","",""
"847","","image-keyboard-response","274","280026","0.0-274.0","3RKNTXVS3NKOESXU9IODQ1RZJR54AY","A2POU9TTW177VH","3URJ6VVYUP9BUCT1SZOT2DFI02L4OC","","img/set1/S1.jpg","72","1","structured_incentive","83","structured_incentive,structured_load,structured_normal,random","4,2,2,3,1,2","2,3,4,1","false","","",""
"null","","html-keyboard-response","275","280380","0.0-275.0","3RKNTXVS3NKOESXU9IODQ1RZJR54AY","A2POU9TTW177VH","3URJ6VVYUP9BUCT1SZOT2DFI02L4OC","","<img src=""img/set1/S1.jpg"" width=""540"" height = ""360"">","null","","","","","","","","","",""
"null","","html-keyboard-response","276","280593","0.0-276.0","3RKNTXVS3NKOESXU9IODQ1RZJR54AY","A2POU9TTW177VH","3URJ6VVYUP9BUCT1SZOT2DFI02L4OC","","","null","","","","","","","","","",""
"1075.1000000238419","","image-keyboard-response","277","281671","0.0-277.0","3RKNTXVS3NKOESXU9IODQ1RZJR54AY","A2POU9TTW177VH","3URJ6VVYUP9BUCT1SZOT2DFI02L4OC","","img/set1/S1.jpg","68","1","structured_incentive","83","structured_incentive,structured_load,structured_normal,random","4,2,2,3,1,2","2,3,4,1","false","","",""
"null","","html-keyboard-response","278","282026","0.0-278.0","3RKNTXVS3NKOESXU9IODQ1RZJR54AY","A2POU9TTW177VH","3URJ6VVYUP9BUCT1SZOT2DFI02L4OC","","<img src=""img/set1/S1.jpg"" width=""540"" height = ""360"">","null","","","","","","","","","",""
"null","","html-keyboard-response","279","282239","0.0-279.0","3RKNTXVS3NKOESXU9IODQ1RZJR54AY","A2POU9TTW177VH","3URJ6VVYUP9BUCT1SZOT2DFI02L4OC","","","null","","","","","","","","","",""
"537.1999999880791","","image-keyboard-response","280","282779","0.0-280.0","3RKNTXVS3NKOESXU9IODQ1RZJR54AY","A2POU9TTW177VH","3URJ6VVYUP9BUCT1SZOT2DFI02L4OC","","img/set1/S1.jpg","83","1","structured_incentive","83","structured_incentive,structured_load,structured_normal,random","4,2,2,3,1,2","2,3,4,1","true","","",""
"null","","html-keyboard-response","281","283134","0.0-281.0","3RKNTXVS3NKOESXU9IODQ1RZJR54AY","A2POU9TTW177VH","3URJ6VVYUP9BUCT1SZOT2DFI02L4OC","","<img src=""img/set1/S1.jpg"" width=""540"" height = ""360"" style=""border:16px solid orange"">","null","","","","","","","","","",""
"null","","html-keyboard-response","282","283337","0.0-282.0","3RKNTXVS3NKOESXU9IODQ1RZJR54AY","A2POU9TTW177VH","3URJ6VVYUP9BUCT1SZOT2DFI02L4OC","","","null","","","","","","","","","",""
"1360.2000000476837","","image-keyboard-response","283","284699","0.0-283.0","3RKNTXVS3NKOESXU9IODQ1RZJR54AY","A2POU9TTW177VH","3URJ6VVYUP9BUCT1SZOT2DFI02L4OC","","img/set1/S3.jpg","83","3","structured_incentive","72","structured_incentive,structured_load,structured_normal,random","4,2,2,3,1,2","2,3,4,1","false","","",""
"null","","html-keyboard-response","284","285055","0.0-284.0","3RKNTXVS3NKOESXU9IODQ1RZJR54AY","A2POU9TTW177VH","3URJ6VVYUP9BUCT1SZOT2DFI02L4OC","","<img src=""img/set1/S3.jpg"" width=""540"" height = ""360"">","null","","","","","","","","","",""
"null","","html-keyboard-response","285","285261","0.0-285.0","3RKNTXVS3NKOESXU9IODQ1RZJR54AY","A2POU9TTW177VH","3URJ6VVYUP9BUCT1SZOT2DFI02L4OC","","","null","","","","","","","","","",""
"1013.0999999642372","","image-keyboard-response","286","286276","0.0-286.0","3RKNTXVS3NKOESXU9IODQ1RZJR54AY","A2POU9TTW177VH","3URJ6VVYUP9BUCT1SZOT2DFI02L4OC","","img/set1/S3.jpg","68","3","structured_incentive","72","structured_incentive,structured_load,structured_normal,random","4,2,2,3,1,2","2,3,4,1","false","","",""
"null","","html-keyboard-response","287","286645","0.0-287.0","3RKNTXVS3NKOESXU9IODQ1RZJR54AY","A2POU9TTW177VH","3URJ6VVYUP9BUCT1SZOT2DFI02L4OC","","<img src=""img/set1/S3.jpg"" width=""540"" height = ""360"">","null","","","","","","","","","",""
"null","","html-keyboard-response","288","286858","0.0-288.0","3RKNTXVS3NKOESXU9IODQ1RZJR54AY","A2POU9TTW177VH","3URJ6VVYUP9BUCT1SZOT2DFI02L4OC","","","null","","","","","","","","","",""
"570.5999999642372","","image-keyboard-response","289","287431","0.0-289.0","3RKNTXVS3NKOESXU9IODQ1RZJR54AY","A2POU9TTW177VH","3URJ6VVYUP9BUCT1SZOT2DFI02L4OC","","img/set1/S3.jpg","74","3","structured_incentive","72","structured_incentive,structured_load,structured_normal,random","4,2,2,3,1,2","2,3,4,1","false","","",""
"null","","html-keyboard-response","290","287785","0.0-290.0","3RKNTXVS3NKOESXU9IODQ1RZJR54AY","A2POU9TTW177VH","3URJ6VVYUP9BUCT1SZOT2DFI02L4OC","","<img src=""img/set1/S3.jpg"" width=""540"" height = ""360"">","null","","","","","","","","","",""
"null","","html-keyboard-response","291","287998","0.0-291.0","3RKNTXVS3NKOESXU9IODQ1RZJR54AY","A2POU9TTW177VH","3URJ6VVYUP9BUCT1SZOT2DFI02L4OC","","","null","","","","","","","","","",""
"542.4000000357628","","image-keyboard-response","292","288543","0.0-292.0","3RKNTXVS3NKOESXU9IODQ1RZJR54AY","A2POU9TTW177VH","3URJ6VVYUP9BUCT1SZOT2DFI02L4OC","","img/set1/S3.jpg","72","3","structured_incentive","72","structured_incentive,structured_load,structured_normal,random","4,2,2,3,1,2","2,3,4,1","true","","",""
"null","","html-keyboard-response","293","288912","0.0-293.0","3RKNTXVS3NKOESXU9IODQ1RZJR54AY","A2POU9TTW177VH","3URJ6VVYUP9BUCT1SZOT2DFI02L4OC","","<img src=""img/set1/S3.jpg"" width=""540"" height = ""360"" style=""border:16px solid Violet"">","null","","","","","","","","","",""
"null","","html-keyboard-response","294","289128","0.0-294.0","3RKNTXVS3NKOESXU9IODQ1RZJR54AY","A2POU9TTW177VH","3URJ6VVYUP9BUCT1SZOT2DFI02L4OC","","","null","","","","","","","","","",""
"1250.6000000238419","","image-keyboard-response","295","290381","0.0-295.0","3RKNTXVS3NKOESXU9IODQ1RZJR54AY","A2POU9TTW177VH","3URJ6VVYUP9BUCT1SZOT2DFI02L4OC","","img/set1/S1.jpg","68","1","structured_incentive","83","structured_incentive,structured_load,structured_normal,random","4,2,2,3,1,2","2,3,4,1","false","","",""
"null","","html-keyboard-response","296","290740","0.0-296.0","3RKNTXVS3NKOESXU9IODQ1RZJR54AY","A2POU9TTW177VH","3URJ6VVYUP9BUCT1SZOT2DFI02L4OC","","<img src=""img/set1/S1.jpg"" width=""540"" height = ""360"">","null","","","","","","","","","",""
"null","","html-keyboard-response","297","290952","0.0-297.0","3RKNTXVS3NKOESXU9IODQ1RZJR54AY","A2POU9TTW177VH","3URJ6VVYUP9BUCT1SZOT2DFI02L4OC","","","null","","","","","","","","","",""
"1361.8999999761581","","image-keyboard-response","298","292318","0.0-298.0","3RKNTXVS3NKOESXU9IODQ1RZJR54AY","A2POU9TTW177VH","3URJ6VVYUP9BUCT1SZOT2DFI02L4OC","","img/set1/S4.jpg","68","4","structured_incentive","74","structured_incentive,structured_load,structured_normal,random","4,2,2,3,1,2","2,3,4,1","false","","",""
"null","","html-keyboard-response","299","292684","0.0-299.0","3RKNTXVS3NKOESXU9IODQ1RZJR54AY","A2POU9TTW177VH","3URJ6VVYUP9BUCT1SZOT2DFI02L4OC","","<img src=""img/set1/S4.jpg"" width=""540"" height = ""360"">","null","","","","","","","","","",""
"null","","html-keyboard-response","300","292895","0.0-300.0","3RKNTXVS3NKOESXU9IODQ1RZJR54AY","A2POU9TTW177VH","3URJ6VVYUP9BUCT1SZOT2DFI02L4OC","","","null","","","","","","","","","",""
"933.8000000119209","","image-keyboard-response","301","293832","0.0-301.0","3RKNTXVS3NKOESXU9IODQ1RZJR54AY","A2POU9TTW177VH","3URJ6VVYUP9BUCT1SZOT2DFI02L4OC","","img/set1/S2.jpg","74","2","structured_incentive","68","structured_incentive,structured_load,structured_normal,random","4,2,2,3,1,2","2,3,4,1","false","","",""
"null","","html-keyboard-response","302","294192","0.0-302.0","3RKNTXVS3NKOESXU9IODQ1RZJR54AY","A2POU9TTW177VH","3URJ6VVYUP9BUCT1SZOT2DFI02L4OC","","<img src=""img/set1/S2.jpg"" width=""540"" height = ""360"">","null","","","","","","","","","",""
"null","","html-keyboard-response","303","294404","0.0-303.0","3RKNTXVS3NKOESXU9IODQ1RZJR54AY","A2POU9TTW177VH","3URJ6VVYUP9BUCT1SZOT2DFI02L4OC","","","null","","","","","","","","","",""
"742.9000000357628","","image-keyboard-response","304","295149","0.0-304.0","3RKNTXVS3NKOESXU9IODQ1RZJR54AY","A2POU9TTW177VH","3URJ6VVYUP9BUCT1SZOT2DFI02L4OC","","img/set1/S1.jpg","72","1","structured_incentive","83","structured_incentive,structured_load,structured_normal,random","4,2,2,3,1,2","2,3,4,1","false","","",""
"null","","html-keyboard-response","305","295508","0.0-305.0","3RKNTXVS3NKOESXU9IODQ1RZJR54AY","A2POU9TTW177VH","3URJ6VVYUP9BUCT1SZOT2DFI02L4OC","","<img src=""img/set1/S1.jpg"" width=""540"" height = ""360"">","null","","","","","","","","","",""
"null","","html-keyboard-response","306","295720","0.0-306.0","3RKNTXVS3NKOESXU9IODQ1RZJR54AY","A2POU9TTW177VH","3URJ6VVYUP9BUCT1SZOT2DFI02L4OC","","","null","","","","","","","","","",""
"1197.300000011921","","image-keyboard-response","307","296920","0.0-307.0","3RKNTXVS3NKOESXU9IODQ1RZJR54AY","A2POU9TTW177VH","3URJ6VVYUP9BUCT1SZOT2DFI02L4OC","","img/set1/S4.jpg","68","4","structured_incentive","74","structured_incentive,structured_load,structured_normal,random","4,2,2,3,1,2","2,3,4,1","false","","",""
"null","","html-keyboard-response","308","297277","0.0-308.0","3RKNTXVS3NKOESXU9IODQ1RZJR54AY","A2POU9TTW177VH","3URJ6VVYUP9BUCT1SZOT2DFI02L4OC","","<img src=""img/set1/S4.jpg"" width=""540"" height = ""360"">","null","","","","","","","","","",""
"null","","html-keyboard-response","309","297480","0.0-309.0","3RKNTXVS3NKOESXU9IODQ1RZJR54AY","A2POU9TTW177VH","3URJ6VVYUP9BUCT1SZOT2DFI02L4OC","","","null","","","","","","","","","",""
"823.5","","image-keyboard-response","310","298306","0.0-310.0","3RKNTXVS3NKOESXU9IODQ1RZJR54AY","A2POU9TTW177VH","3URJ6VVYUP9BUCT1SZOT2DFI02L4OC","","img/set1/S3.jpg","83","3","structured_incentive","72","structured_incentive,structured_load,structured_normal,random","4,2,2,3,1,2","2,3,4,1","false","","",""
"null","","html-keyboard-response","311","298664","0.0-311.0","3RKNTXVS3NKOESXU9IODQ1RZJR54AY","A2POU9TTW177VH","3URJ6VVYUP9BUCT1SZOT2DFI02L4OC","","<img src=""img/set1/S3.jpg"" width=""540"" height = ""360"">","null","","","","","","","","","",""
"null","","html-keyboard-response","312","298880","0.0-312.0","3RKNTXVS3NKOESXU9IODQ1RZJR54AY","A2POU9TTW177VH","3URJ6VVYUP9BUCT1SZOT2DFI02L4OC","","","null","","","","","","","","","",""
"1154.199999988079","","image-keyboard-response","313","300038","0.0-313.0","3RKNTXVS3NKOESXU9IODQ1RZJR54AY","A2POU9TTW177VH","3URJ6VVYUP9BUCT1SZOT2DFI02L4OC","","img/set1/S3.jpg","74","3","structured_incentive","72","structured_incentive,structured_load,structured_normal,random","4,2,2,3,1,2","2,3,4,1","false","","",""
"null","","html-keyboard-response","314","300398","0.0-314.0","3RKNTXVS3NKOESXU9IODQ1RZJR54AY","A2POU9TTW177VH","3URJ6VVYUP9BUCT1SZOT2DFI02L4OC","","<img src=""img/set1/S3.jpg"" width=""540"" height = ""360"">","null","","","","","","","","","",""
"null","","html-keyboard-response","315","300611","0.0-315.0","3RKNTXVS3NKOESXU9IODQ1RZJR54AY","A2POU9TTW177VH","3URJ6VVYUP9BUCT1SZOT2DFI02L4OC","","","null","","","","","","","","","",""
"1162.0999999642372","","image-keyboard-response","316","301776","0.0-316.0","3RKNTXVS3NKOESXU9IODQ1RZJR54AY","A2POU9TTW177VH","3URJ6VVYUP9BUCT1SZOT2DFI02L4OC","","img/set1/S4.jpg","72","4","structured_incentive","74","structured_incentive,structured_load,structured_normal,random","4,2,2,3,1,2","2,3,4,1","false","","",""
"null","","html-keyboard-response","317","302141","0.0-317.0","3RKNTXVS3NKOESXU9IODQ1RZJR54AY","A2POU9TTW177VH","3URJ6VVYUP9BUCT1SZOT2DFI02L4OC","","<img src=""img/set1/S4.jpg"" width=""540"" height = ""360"">","null","","","","","","","","","",""
"null","","html-keyboard-response","318","302350","0.0-318.0","3RKNTXVS3NKOESXU9IODQ1RZJR54AY","A2POU9TTW177VH","3URJ6VVYUP9BUCT1SZOT2DFI02L4OC","","","null","","","","","","","","","",""
"1014.3000000119209","","image-keyboard-response","319","303367","0.0-319.0","3RKNTXVS3NKOESXU9IODQ1RZJR54AY","A2POU9TTW177VH","3URJ6VVYUP9BUCT1SZOT2DFI02L4OC","","img/set1/S2.jpg","74","2","structured_incentive","68","structured_incentive,structured_load,structured_normal,random","4,2,2,3,1,2","2,3,4,1","false","","",""
"null","","html-keyboard-response","320","303721","0.0-320.0","3RKNTXVS3NKOESXU9IODQ1RZJR54AY","A2POU9TTW177VH","3URJ6VVYUP9BUCT1SZOT2DFI02L4OC","","<img src=""img/set1/S2.jpg"" width=""540"" height = ""360"">","null","","","","","","","","","",""
"null","","html-keyboard-response","321","303932","0.0-321.0","3RKNTXVS3NKOESXU9IODQ1RZJR54AY","A2POU9TTW177VH","3URJ6VVYUP9BUCT1SZOT2DFI02L4OC","","","null","","","","","","","","","",""
"1033.9000000357628","","image-keyboard-response","322","304968","0.0-322.0","3RKNTXVS3NKOESXU9IODQ1RZJR54AY","A2POU9TTW177VH","3URJ6VVYUP9BUCT1SZOT2DFI02L4OC","","img/set1/S2.jpg","72","2","structured_incentive","68","structured_incentive,structured_load,structured_normal,random","4,2,2,3,1,2","2,3,4,1","false","","",""
"null","","html-keyboard-response","323","305334","0.0-323.0","3RKNTXVS3NKOESXU9IODQ1RZJR54AY","A2POU9TTW177VH","3URJ6VVYUP9BUCT1SZOT2DFI02L4OC","","<img src=""img/set1/S2.jpg"" width=""540"" height = ""360"">","null","","","","","","","","","",""
"null","","html-keyboard-response","324","305548","0.0-324.0","3RKNTXVS3NKOESXU9IODQ1RZJR54AY","A2POU9TTW177VH","3URJ6VVYUP9BUCT1SZOT2DFI02L4OC","","","null","","","","","","","","","",""
"1306.3999999761581","","image-keyboard-response","325","306857","0.0-325.0","3RKNTXVS3NKOESXU9IODQ1RZJR54AY","A2POU9TTW177VH","3URJ6VVYUP9BUCT1SZOT2DFI02L4OC","","img/set1/S4.jpg","83","4","structured_incentive","74","structured_incentive,structured_load,structured_normal,random","4,2,2,3,1,2","2,3,4,1","false","","",""
"null","","html-keyboard-response","326","307218","0.0-326.0","3RKNTXVS3NKOESXU9IODQ1RZJR54AY","A2POU9TTW177VH","3URJ6VVYUP9BUCT1SZOT2DFI02L4OC","","<img src=""img/set1/S4.jpg"" width=""540"" height = ""360"">","null","","","","","","","","","",""
"null","","html-keyboard-response","327","307430","0.0-327.0","3RKNTXVS3NKOESXU9IODQ1RZJR54AY","A2POU9TTW177VH","3URJ6VVYUP9BUCT1SZOT2DFI02L4OC","","","null","","","","","","","","","",""
"1236.199999988079","","image-keyboard-response","328","308669","0.0-328.0","3RKNTXVS3NKOESXU9IODQ1RZJR54AY","A2POU9TTW177VH","3URJ6VVYUP9BUCT1SZOT2DFI02L4OC","","img/set1/S2.jpg","68","2","structured_incentive","68","structured_incentive,structured_load,structured_normal,random","4,2,2,3,1,2","2,3,4,1","true","","",""
"null","","html-keyboard-response","329","309037","0.0-329.0","3RKNTXVS3NKOESXU9IODQ1RZJR54AY","A2POU9TTW177VH","3URJ6VVYUP9BUCT1SZOT2DFI02L4OC","","<img src=""img/set1/S2.jpg"" width=""540"" height = ""360"" style=""border:16px solid orange"">","null","","","","","","","","","",""
"null","","html-keyboard-response","330","309249","0.0-330.0","3RKNTXVS3NKOESXU9IODQ1RZJR54AY","A2POU9TTW177VH","3URJ6VVYUP9BUCT1SZOT2DFI02L4OC","","","null","","","","","","","","","",""
"914.1000000238419","","image-keyboard-response","331","310165","0.0-331.0","3RKNTXVS3NKOESXU9IODQ1RZJR54AY","A2POU9TTW177VH","3URJ6VVYUP9BUCT1SZOT2DFI02L4OC","","img/set1/S4.jpg","68","4","structured_incentive","74","structured_incentive,structured_load,structured_normal,random","4,2,2,3,1,2","2,3,4,1","false","","",""
"null","","html-keyboard-response","332","310526","0.0-332.0","3RKNTXVS3NKOESXU9IODQ1RZJR54AY","A2POU9TTW177VH","3URJ6VVYUP9BUCT1SZOT2DFI02L4OC","","<img src=""img/set1/S4.jpg"" width=""540"" height = ""360"">","null","","","","","","","","","",""
"null","","html-keyboard-response","333","310740","0.0-333.0","3RKNTXVS3NKOESXU9IODQ1RZJR54AY","A2POU9TTW177VH","3URJ6VVYUP9BUCT1SZOT2DFI02L4OC","","","null","","","","","","","","","",""
"634.5999999642372","","image-keyboard-response","334","311378","0.0-334.0","3RKNTXVS3NKOESXU9IODQ1RZJR54AY","A2POU9TTW177VH","3URJ6VVYUP9BUCT1SZOT2DFI02L4OC","","img/set1/S2.jpg","72","2","structured_incentive","68","structured_incentive,structured_load,structured_normal,random","4,2,2,3,1,2","2,3,4,1","false","","",""
"null","","html-keyboard-response","335","311740","0.0-335.0","3RKNTXVS3NKOESXU9IODQ1RZJR54AY","A2POU9TTW177VH","3URJ6VVYUP9BUCT1SZOT2DFI02L4OC","","<img src=""img/set1/S2.jpg"" width=""540"" height = ""360"">","null","","","","","","","","","",""
"null","","html-keyboard-response","336","311952","0.0-336.0","3RKNTXVS3NKOESXU9IODQ1RZJR54AY","A2POU9TTW177VH","3URJ6VVYUP9BUCT1SZOT2DFI02L4OC","","","null","","","","","","","","","",""
"646.3000000119209","","image-keyboard-response","337","312601","0.0-337.0","3RKNTXVS3NKOESXU9IODQ1RZJR54AY","A2POU9TTW177VH","3URJ6VVYUP9BUCT1SZOT2DFI02L4OC","","img/set1/S4.jpg","74","4","structured_incentive","74","structured_incentive,structured_load,structured_normal,random","4,2,2,3,1,2","2,3,4,1","true","","",""
"null","","html-keyboard-response","338","312961","0.0-338.0","3RKNTXVS3NKOESXU9IODQ1RZJR54AY","A2POU9TTW177VH","3URJ6VVYUP9BUCT1SZOT2DFI02L4OC","","<img src=""img/set1/S4.jpg"" width=""540"" height = ""360"" style=""border:16px solid orange"">","null","","","","","","","","","",""
"null","","html-keyboard-response","339","313173","0.0-339.0","3RKNTXVS3NKOESXU9IODQ1RZJR54AY","A2POU9TTW177VH","3URJ6VVYUP9BUCT1SZOT2DFI02L4OC","","","null","","","","","","","","","",""
"1495.800000011921","","image-keyboard-response","340","314671","0.0-340.0","3RKNTXVS3NKOESXU9IODQ1RZJR54AY","A2POU9TTW177VH","3URJ6VVYUP9BUCT1SZOT2DFI02L4OC","","img/set1/S2.jpg","72","2","structured_incentive","68","structured_incentive,structured_load,structured_normal,random","4,2,2,3,1,2","2,3,4,1","false","","",""
"null","","html-keyboard-response","341","315038","0.0-341.0","3RKNTXVS3NKOESXU9IODQ1RZJR54AY","A2POU9TTW177VH","3URJ6VVYUP9BUCT1SZOT2DFI02L4OC","","<img src=""img/set1/S2.jpg"" width=""540"" height = ""360"">","null","","","","","","","","","",""
"null","","html-keyboard-response","342","315253","0.0-342.0","3RKNTXVS3NKOESXU9IODQ1RZJR54AY","A2POU9TTW177VH","3URJ6VVYUP9BUCT1SZOT2DFI02L4OC","","","null","","","","","","","","","",""
"818.3000000119209","","image-keyboard-response","343","316073","0.0-343.0","3RKNTXVS3NKOESXU9IODQ1RZJR54AY","A2POU9TTW177VH","3URJ6VVYUP9BUCT1SZOT2DFI02L4OC","","img/set1/S2.jpg","83","2","structured_incentive","68","structured_incentive,structured_load,structured_normal,random","4,2,2,3,1,2","2,3,4,1","false","","",""
"null","","html-keyboard-response","344","316427","0.0-344.0","3RKNTXVS3NKOESXU9IODQ1RZJR54AY","A2POU9TTW177VH","3URJ6VVYUP9BUCT1SZOT2DFI02L4OC","","<img src=""img/set1/S2.jpg"" width=""540"" height = ""360"">","null","","","","","","","","","",""
"null","","html-keyboard-response","345","316640","0.0-345.0","3RKNTXVS3NKOESXU9IODQ1RZJR54AY","A2POU9TTW177VH","3URJ6VVYUP9BUCT1SZOT2DFI02L4OC","","","null","","","","","","","","","",""
"1060.6000000238419","","image-keyboard-response","346","317703","0.0-346.0","3RKNTXVS3NKOESXU9IODQ1RZJR54AY","A2POU9TTW177VH","3URJ6VVYUP9BUCT1SZOT2DFI02L4OC","","img/set1/S3.jpg","72","3","structured_incentive","72","structured_incentive,structured_load,structured_normal,random","4,2,2,3,1,2","2,3,4,1","true","","",""
"null","","html-keyboard-response","347","318060","0.0-347.0","3RKNTXVS3NKOESXU9IODQ1RZJR54AY","A2POU9TTW177VH","3URJ6VVYUP9BUCT1SZOT2DFI02L4OC","","<img src=""img/set1/S3.jpg"" width=""540"" height = ""360"" style=""border:16px solid Violet"">","null","","","","","","","","","",""
"null","","html-keyboard-response","348","318274","0.0-348.0","3RKNTXVS3NKOESXU9IODQ1RZJR54AY","A2POU9TTW177VH","3URJ6VVYUP9BUCT1SZOT2DFI02L4OC","","","null","","","","","","","","","",""
"1144.5","","image-keyboard-response","349","319421","0.0-349.0","3RKNTXVS3NKOESXU9IODQ1RZJR54AY","A2POU9TTW177VH","3URJ6VVYUP9BUCT1SZOT2DFI02L4OC","","img/set1/S4.jpg","74","4","structured_incentive","74","structured_incentive,structured_load,structured_normal,random","4,2,2,3,1,2","2,3,4,1","true","","",""
"null","","html-keyboard-response","350","319780","0.0-350.0","3RKNTXVS3NKOESXU9IODQ1RZJR54AY","A2POU9TTW177VH","3URJ6VVYUP9BUCT1SZOT2DFI02L4OC","","<img src=""img/set1/S4.jpg"" width=""540"" height = ""360"" style=""border:16px solid orange"">","null","","","","","","","","","",""
"null","","html-keyboard-response","351","319990","0.0-351.0","3RKNTXVS3NKOESXU9IODQ1RZJR54AY","A2POU9TTW177VH","3URJ6VVYUP9BUCT1SZOT2DFI02L4OC","","","null","","","","","","","","","",""
"1227.5999999642372","","image-keyboard-response","352","321220","0.0-352.0","3RKNTXVS3NKOESXU9IODQ1RZJR54AY","A2POU9TTW177VH","3URJ6VVYUP9BUCT1SZOT2DFI02L4OC","","img/set1/S2.jpg","68","2","structured_incentive","68","structured_incentive,structured_load,structured_normal,random","4,2,2,3,1,2","2,3,4,1","true","","",""
"null","","html-keyboard-response","353","321574","0.0-353.0","3RKNTXVS3NKOESXU9IODQ1RZJR54AY","A2POU9TTW177VH","3URJ6VVYUP9BUCT1SZOT2DFI02L4OC","","<img src=""img/set1/S2.jpg"" width=""540"" height = ""360"" style=""border:16px solid orange"">","null","","","","","","","","","",""
"null","","html-keyboard-response","354","321788","0.0-354.0","3RKNTXVS3NKOESXU9IODQ1RZJR54AY","A2POU9TTW177VH","3URJ6VVYUP9BUCT1SZOT2DFI02L4OC","","","null","","","","","","","","","",""
"1309.7000000476837","","image-keyboard-response","355","323101","0.0-355.0","3RKNTXVS3NKOESXU9IODQ1RZJR54AY","A2POU9TTW177VH","3URJ6VVYUP9BUCT1SZOT2DFI02L4OC","","img/set1/S4.jpg","74","4","structured_incentive","74","structured_incentive,structured_load,structured_normal,random","4,2,2,3,1,2","2,3,4,1","true","","",""
"null","","html-keyboard-response","356","323455","0.0-356.0","3RKNTXVS3NKOESXU9IODQ1RZJR54AY","A2POU9TTW177VH","3URJ6VVYUP9BUCT1SZOT2DFI02L4OC","","<img src=""img/set1/S4.jpg"" width=""540"" height = ""360"" style=""border:16px solid orange"">","null","","","","","","","","","",""
"null","","html-keyboard-response","357","323672","0.0-357.0","3RKNTXVS3NKOESXU9IODQ1RZJR54AY","A2POU9TTW177VH","3URJ6VVYUP9BUCT1SZOT2DFI02L4OC","","","null","","","","","","","","","",""
"1043.2000000476837","","image-keyboard-response","358","324716","0.0-358.0","3RKNTXVS3NKOESXU9IODQ1RZJR54AY","A2POU9TTW177VH","3URJ6VVYUP9BUCT1SZOT2DFI02L4OC","","img/set1/S2.jpg","72","2","structured_incentive","68","structured_incentive,structured_load,structured_normal,random","4,2,2,3,1,2","2,3,4,1","false","","",""
"null","","html-keyboard-response","359","325082","0.0-359.0","3RKNTXVS3NKOESXU9IODQ1RZJR54AY","A2POU9TTW177VH","3URJ6VVYUP9BUCT1SZOT2DFI02L4OC","","<img src=""img/set1/S2.jpg"" width=""540"" height = ""360"">","null","","","","","","","","","",""
"null","","html-keyboard-response","360","325294","0.0-360.0","3RKNTXVS3NKOESXU9IODQ1RZJR54AY","A2POU9TTW177VH","3URJ6VVYUP9BUCT1SZOT2DFI02L4OC","","","null","","","","","","","","","",""
"1299.5999999642372","","image-keyboard-response","361","326597","0.0-361.0","3RKNTXVS3NKOESXU9IODQ1RZJR54AY","A2POU9TTW177VH","3URJ6VVYUP9BUCT1SZOT2DFI02L4OC","","img/set1/S3.jpg","68","3","structured_incentive","72","structured_incentive,structured_load,structured_normal,random","4,2,2,3,1,2","2,3,4,1","false","","",""
"null","","html-keyboard-response","362","326951","0.0-362.0","3RKNTXVS3NKOESXU9IODQ1RZJR54AY","A2POU9TTW177VH","3URJ6VVYUP9BUCT1SZOT2DFI02L4OC","","<img src=""img/set1/S3.jpg"" width=""540"" height = ""360"">","null","","","","","","","","","",""
"null","","html-keyboard-response","363","327170","0.0-363.0","3RKNTXVS3NKOESXU9IODQ1RZJR54AY","A2POU9TTW177VH","3URJ6VVYUP9BUCT1SZOT2DFI02L4OC","","","null","","","","","","","","","",""
"1182.199999988079","","image-keyboard-response","364","328354","0.0-364.0","3RKNTXVS3NKOESXU9IODQ1RZJR54AY","A2POU9TTW177VH","3URJ6VVYUP9BUCT1SZOT2DFI02L4OC","","img/set1/S1.jpg","83","1","structured_incentive","83","structured_incentive,structured_load,structured_normal,random","4,2,2,3,1,2","2,3,4,1","true","","",""
"null","","html-keyboard-response","365","328712","0.0-365.0","3RKNTXVS3NKOESXU9IODQ1RZJR54AY","A2POU9TTW177VH","3URJ6VVYUP9BUCT1SZOT2DFI02L4OC","","<img src=""img/set1/S1.jpg"" width=""540"" height = ""360"" style=""border:16px solid orange"">","null","","","","","","","","","",""
"null","","html-keyboard-response","366","328925","0.0-366.0","3RKNTXVS3NKOESXU9IODQ1RZJR54AY","A2POU9TTW177VH","3URJ6VVYUP9BUCT1SZOT2DFI02L4OC","","","null","","","","","","","","","",""
"877.4000000357628","","image-keyboard-response","367","329805","0.0-367.0","3RKNTXVS3NKOESXU9IODQ1RZJR54AY","A2POU9TTW177VH","3URJ6VVYUP9BUCT1SZOT2DFI02L4OC","","img/set1/S1.jpg","83","1","structured_incentive","83","structured_incentive,structured_load,structured_normal,random","4,2,2,3,1,2","2,3,4,1","true","","",""
"null","","html-keyboard-response","368","330162","0.0-368.0","3RKNTXVS3NKOESXU9IODQ1RZJR54AY","A2POU9TTW177VH","3URJ6VVYUP9BUCT1SZOT2DFI02L4OC","","<img src=""img/set1/S1.jpg"" width=""540"" height = ""360"" style=""border:16px solid orange"">","null","","","","","","","","","",""
"null","","html-keyboard-response","369","330381","0.0-369.0","3RKNTXVS3NKOESXU9IODQ1RZJR54AY","A2POU9TTW177VH","3URJ6VVYUP9BUCT1SZOT2DFI02L4OC","","","null","","","","","","","","","",""
"780.8999999761581","","image-keyboard-response","370","331163","0.0-370.0","3RKNTXVS3NKOESXU9IODQ1RZJR54AY","A2POU9TTW177VH","3URJ6VVYUP9BUCT1SZOT2DFI02L4OC","","img/set1/S1.jpg","83","1","structured_incentive","83","structured_incentive,structured_load,structured_normal,random","4,2,2,3,1,2","2,3,4,1","true","","",""
"null","","html-keyboard-response","371","331517","0.0-371.0","3RKNTXVS3NKOESXU9IODQ1RZJR54AY","A2POU9TTW177VH","3URJ6VVYUP9BUCT1SZOT2DFI02L4OC","","<img src=""img/set1/S1.jpg"" width=""540"" height = ""360"" style=""border:16px solid orange"">","null","","","","","","","","","",""
"null","","html-keyboard-response","372","331731","0.0-372.0","3RKNTXVS3NKOESXU9IODQ1RZJR54AY","A2POU9TTW177VH","3URJ6VVYUP9BUCT1SZOT2DFI02L4OC","","","null","","","","","","","","","",""
"975.1999999880791","","image-keyboard-response","373","332708","0.0-373.0","3RKNTXVS3NKOESXU9IODQ1RZJR54AY","A2POU9TTW177VH","3URJ6VVYUP9BUCT1SZOT2DFI02L4OC","","img/set1/S4.jpg","74","4","structured_incentive","74","structured_incentive,structured_load,structured_normal,random","4,2,2,3,1,2","2,3,4,1","true","","",""
"null","","html-keyboard-response","374","333069","0.0-374.0","3RKNTXVS3NKOESXU9IODQ1RZJR54AY","A2POU9TTW177VH","3URJ6VVYUP9BUCT1SZOT2DFI02L4OC","","<img src=""img/set1/S4.jpg"" width=""540"" height = ""360"" style=""border:16px solid orange"">","null","","","","","","","","","",""
"null","","html-keyboard-response","375","333278","0.0-375.0","3RKNTXVS3NKOESXU9IODQ1RZJR54AY","A2POU9TTW177VH","3URJ6VVYUP9BUCT1SZOT2DFI02L4OC","","","null","","","","","","","","","",""
"1106.6000000238419","","image-keyboard-response","376","334387","0.0-376.0","3RKNTXVS3NKOESXU9IODQ1RZJR54AY","A2POU9TTW177VH","3URJ6VVYUP9BUCT1SZOT2DFI02L4OC","","img/set1/S2.jpg","72","2","structured_incentive","68","structured_incentive,structured_load,structured_normal,random","4,2,2,3,1,2","2,3,4,1","false","","",""
"null","","html-keyboard-response","377","334754","0.0-377.0","3RKNTXVS3NKOESXU9IODQ1RZJR54AY","A2POU9TTW177VH","3URJ6VVYUP9BUCT1SZOT2DFI02L4OC","","<img src=""img/set1/S2.jpg"" width=""540"" height = ""360"">","null","","","","","","","","","",""
"null","","html-keyboard-response","378","334958","0.0-378.0","3RKNTXVS3NKOESXU9IODQ1RZJR54AY","A2POU9TTW177VH","3URJ6VVYUP9BUCT1SZOT2DFI02L4OC","","","null","","","","","","","","","",""
"1449","","image-keyboard-response","379","336409","0.0-379.0","3RKNTXVS3NKOESXU9IODQ1RZJR54AY","A2POU9TTW177VH","3URJ6VVYUP9BUCT1SZOT2DFI02L4OC","","img/set1/S3.jpg","68","3","structured_incentive","72","structured_incentive,structured_load,structured_normal,random","4,2,2,3,1,2","2,3,4,1","false","","",""
"null","","html-keyboard-response","380","336762","0.0-380.0","3RKNTXVS3NKOESXU9IODQ1RZJR54AY","A2POU9TTW177VH","3URJ6VVYUP9BUCT1SZOT2DFI02L4OC","","<img src=""img/set1/S3.jpg"" width=""540"" height = ""360"">","null","","","","","","","","","",""
"null","","html-keyboard-response","381","336965","0.0-381.0","3RKNTXVS3NKOESXU9IODQ1RZJR54AY","A2POU9TTW177VH","3URJ6VVYUP9BUCT1SZOT2DFI02L4OC","","","null","","","","","","","","","",""
"1127.1000000238419","","image-keyboard-response","382","338095","0.0-382.0","3RKNTXVS3NKOESXU9IODQ1RZJR54AY","A2POU9TTW177VH","3URJ6VVYUP9BUCT1SZOT2DFI02L4OC","","img/set1/S1.jpg","83","1","structured_incentive","83","structured_incentive,structured_load,structured_normal,random","4,2,2,3,1,2","2,3,4,1","true","","",""
"null","","html-keyboard-response","383","338448","0.0-383.0","3RKNTXVS3NKOESXU9IODQ1RZJR54AY","A2POU9TTW177VH","3URJ6VVYUP9BUCT1SZOT2DFI02L4OC","","<img src=""img/set1/S1.jpg"" width=""540"" height = ""360"" style=""border:16px solid orange"">","null","","","","","","","","","",""
"null","","html-keyboard-response","384","338664","0.0-384.0","3RKNTXVS3NKOESXU9IODQ1RZJR54AY","A2POU9TTW177VH","3URJ6VVYUP9BUCT1SZOT2DFI02L4OC","","","null","","","","","","","","","",""
"724.1000000238419","","image-keyboard-response","385","339391","0.0-385.0","3RKNTXVS3NKOESXU9IODQ1RZJR54AY","A2POU9TTW177VH","3URJ6VVYUP9BUCT1SZOT2DFI02L4OC","","img/set1/S1.jpg","83","1","structured_incentive","83","structured_incentive,structured_load,structured_normal,random","4,2,2,3,1,2","2,3,4,1","true","","",""
"null","","html-keyboard-response","386","339745","0.0-386.0","3RKNTXVS3NKOESXU9IODQ1RZJR54AY","A2POU9TTW177VH","3URJ6VVYUP9BUCT1SZOT2DFI02L4OC","","<img src=""img/set1/S1.jpg"" width=""540"" height = ""360"" style=""border:16px solid orange"">","null","","","","","","","","","",""
"null","","html-keyboard-response","387","339957","0.0-387.0","3RKNTXVS3NKOESXU9IODQ1RZJR54AY","A2POU9TTW177VH","3URJ6VVYUP9BUCT1SZOT2DFI02L4OC","","","null","","","","","","","","","",""
"1358.0999999642372","","image-keyboard-response","388","341318","0.0-388.0","3RKNTXVS3NKOESXU9IODQ1RZJR54AY","A2POU9TTW177VH","3URJ6VVYUP9BUCT1SZOT2DFI02L4OC","","img/set1/S4.jpg","74","4","structured_incentive","74","structured_incentive,structured_load,structured_normal,random","4,2,2,3,1,2","2,3,4,1","true","","",""
