"rt","url","trial_type","trial_index","time_elapsed","internal_node_id","assignmentID","mturkID","hitID","view_history","stimulus","key_press","state","test_part","correct_response","order_block","order_chunk","order_freq","correct","responses","question_order","bonus"
"2514.199999988079","consent.html","external-html","0","2579","0.0-0.0","3YGXWBAF713C77USTWK4WWHNJUQ4C0","A2PSR3CMNR1R9X","3G9UA71JVVGUCOKNEKUVXTI6SA17JG","","","","","","","","","","","","",""
"66739.70000004768","","instructions","1","69323","0.0-1.0","3YGXWBAF713C77USTWK4WWHNJUQ4C0","A2PSR3CMNR1R9X","3G9UA71JVVGUCOKNEKUVXTI6SA17JG","[{""page_index"":0,""viewing_time"":3703.400000035763},{""page_index"":1,""viewing_time"":8669.800000011921},{""page_index"":2,""viewing_time"":11936.099999964237},{""page_index"":3,""viewing_time"":12231.800000011921},{""page_index"":4,""viewing_time"":6084},{""page_index"":5,""viewing_time"":14398.100000023842},{""page_index"":6,""viewing_time"":9715.899999976158}]","","","","","","","","","","","",""
"10135","","instructions","2","79459","0.0-2.0","3YGXWBAF713C77USTWK4WWHNJUQ4C0","A2PSR3CMNR1R9X","3G9UA71JVVGUCOKNEKUVXTI6SA17JG","[{""page_index"":0,""viewing_time"":10134.800000011921}]","","","","","","","","","","","",""
"24445.399999976158","","instructions","3","103905","0.0-3.0","3YGXWBAF713C77USTWK4WWHNJUQ4C0","A2PSR3CMNR1R9X","3G9UA71JVVGUCOKNEKUVXTI6SA17JG","[{""page_index"":0,""viewing_time"":16375.099999964237},{""page_index"":1,""viewing_time"":8070.200000047684}]","","","","","","","","","","","",""
"1317.1000000238419","","image-keyboard-response","4","105223","0.0-4.0","3YGXWBAF713C77USTWK4WWHNJUQ4C0","A2PSR3CMNR1R9X","3G9UA71JVVGUCOKNEKUVXTI6SA17JG","","img/set1/S1.jpg","83","1","structured_load","83","structured_load,random,structured_normal,structured_incentive","4,2,1,2,2,3","2,1,3,4","true","","",""
"null","","html-keyboard-response","5","105576","0.0-5.0","3YGXWBAF713C77USTWK4WWHNJUQ4C0","A2PSR3CMNR1R9X","3G9UA71JVVGUCOKNEKUVXTI6SA17JG","","<img src=""img/set1/S1.jpg"" width=""540"" height = ""360"" style=""border:16px solid orange"">","null","","","","","","","","","",""
"null","","html-keyboard-response","6","105780","0.0-6.0","3YGXWBAF713C77USTWK4WWHNJUQ4C0","A2PSR3CMNR1R9X","3G9UA71JVVGUCOKNEKUVXTI6SA17JG","","","null","","","","","","","","","",""
"586.5","","image-keyboard-response","7","106369","0.0-7.0","3YGXWBAF713C77USTWK4WWHNJUQ4C0","A2PSR3CMNR1R9X","3G9UA71JVVGUCOKNEKUVXTI6SA17JG","","img/set1/S4.jpg","83","4","structured_load","74","structured_load,random,structured_normal,structured_incentive","4,2,1,2,2,3","2,1,3,4","false","","",""
"null","","html-keyboard-response","8","106722","0.0-8.0","3YGXWBAF713C77USTWK4WWHNJUQ4C0","A2PSR3CMNR1R9X","3G9UA71JVVGUCOKNEKUVXTI6SA17JG","","<img src=""img/set1/S4.jpg"" width=""540"" height = ""360"">","null","","","","","","","","","",""
"null","","html-keyboard-response","9","106925","0.0-9.0","3YGXWBAF713C77USTWK4WWHNJUQ4C0","A2PSR3CMNR1R9X","3G9UA71JVVGUCOKNEKUVXTI6SA17JG","","","null","","","","","","","","","",""
"441.0999999642372","","image-keyboard-response","10","107369","0.0-10.0","3YGXWBAF713C77USTWK4WWHNJUQ4C0","A2PSR3CMNR1R9X","3G9UA71JVVGUCOKNEKUVXTI6SA17JG","","img/set1/S2.jpg","68","2","structured_load","68","structured_load,random,structured_normal,structured_incentive","4,2,1,2,2,3","2,1,3,4","true","","",""
"null","","html-keyboard-response","11","107722","0.0-11.0","3YGXWBAF713C77USTWK4WWHNJUQ4C0","A2PSR3CMNR1R9X","3G9UA71JVVGUCOKNEKUVXTI6SA17JG","","<img src=""img/set1/S2.jpg"" width=""540"" height = ""360"" style=""border:16px solid orange"">","null","","","","","","","","","",""
"null","","html-keyboard-response","12","107924","0.0-12.0","3YGXWBAF713C77USTWK4WWHNJUQ4C0","A2PSR3CMNR1R9X","3G9UA71JVVGUCOKNEKUVXTI6SA17JG","","","null","","","","","","","","","",""
"618.3999999761581","","image-keyboard-response","13","108544","0.0-13.0","3YGXWBAF713C77USTWK4WWHNJUQ4C0","A2PSR3CMNR1R9X","3G9UA71JVVGUCOKNEKUVXTI6SA17JG","","img/set1/S4.jpg","72","4","structured_load","74","structured_load,random,structured_normal,structured_incentive","4,2,1,2,2,3","2,1,3,4","false","","",""
"null","","html-keyboard-response","14","108897","0.0-14.0","3YGXWBAF713C77USTWK4WWHNJUQ4C0","A2PSR3CMNR1R9X","3G9UA71JVVGUCOKNEKUVXTI6SA17JG","","<img src=""img/set1/S4.jpg"" width=""540"" height = ""360"">","null","","","","","","","","","",""
"null","","html-keyboard-response","15","109099","0.0-15.0","3YGXWBAF713C77USTWK4WWHNJUQ4C0","A2PSR3CMNR1R9X","3G9UA71JVVGUCOKNEKUVXTI6SA17JG","","","null","","","","","","","","","",""
"340.39999997615814","","image-keyboard-response","16","109440","0.0-16.0","3YGXWBAF713C77USTWK4WWHNJUQ4C0","A2PSR3CMNR1R9X","3G9UA71JVVGUCOKNEKUVXTI6SA17JG","","img/set1/S3.jpg","74","3","structured_load","72","structured_load,random,structured_normal,structured_incentive","4,2,1,2,2,3","2,1,3,4","false","","",""
"null","","html-keyboard-response","17","109801","0.0-17.0","3YGXWBAF713C77USTWK4WWHNJUQ4C0","A2PSR3CMNR1R9X","3G9UA71JVVGUCOKNEKUVXTI6SA17JG","","<img src=""img/set1/S3.jpg"" width=""540"" height = ""360"">","null","","","","","","","","","",""
"null","","html-keyboard-response","18","110003","0.0-18.0","3YGXWBAF713C77USTWK4WWHNJUQ4C0","A2PSR3CMNR1R9X","3G9UA71JVVGUCOKNEKUVXTI6SA17JG","","","null","","","","","","","","","",""
"299.30000001192093","","image-keyboard-response","19","110303","0.0-19.0","3YGXWBAF713C77USTWK4WWHNJUQ4C0","A2PSR3CMNR1R9X","3G9UA71JVVGUCOKNEKUVXTI6SA17JG","","img/set1/S4.jpg","83","4","structured_load","74","structured_load,random,structured_normal,structured_incentive","4,2,1,2,2,3","2,1,3,4","false","","",""
"null","","html-keyboard-response","20","110654","0.0-20.0","3YGXWBAF713C77USTWK4WWHNJUQ4C0","A2PSR3CMNR1R9X","3G9UA71JVVGUCOKNEKUVXTI6SA17JG","","<img src=""img/set1/S4.jpg"" width=""540"" height = ""360"">","null","","","","","","","","","",""
"null","","html-keyboard-response","21","110857","0.0-21.0","3YGXWBAF713C77USTWK4WWHNJUQ4C0","A2PSR3CMNR1R9X","3G9UA71JVVGUCOKNEKUVXTI6SA17JG","","","null","","","","","","","","","",""
"238.30000001192093","","image-keyboard-response","22","111096","0.0-22.0","3YGXWBAF713C77USTWK4WWHNJUQ4C0","A2PSR3CMNR1R9X","3G9UA71JVVGUCOKNEKUVXTI6SA17JG","","img/set1/S2.jpg","68","2","structured_load","68","structured_load,random,structured_normal,structured_incentive","4,2,1,2,2,3","2,1,3,4","true","","",""
"null","","html-keyboard-response","23","111449","0.0-23.0","3YGXWBAF713C77USTWK4WWHNJUQ4C0","A2PSR3CMNR1R9X","3G9UA71JVVGUCOKNEKUVXTI6SA17JG","","<img src=""img/set1/S2.jpg"" width=""540"" height = ""360"" style=""border:16px solid orange"">","null","","","","","","","","","",""
"null","","html-keyboard-response","24","111663","0.0-24.0","3YGXWBAF713C77USTWK4WWHNJUQ4C0","A2PSR3CMNR1R9X","3G9UA71JVVGUCOKNEKUVXTI6SA17JG","","","null","","","","","","","","","",""
"342.9000000357628","","image-keyboard-response","25","112006","0.0-25.0","3YGXWBAF713C77USTWK4WWHNJUQ4C0","A2PSR3CMNR1R9X","3G9UA71JVVGUCOKNEKUVXTI6SA17JG","","img/set1/S4.jpg","68","4","structured_load","74","structured_load,random,structured_normal,structured_incentive","4,2,1,2,2,3","2,1,3,4","false","","",""
"null","","html-keyboard-response","26","112358","0.0-26.0","3YGXWBAF713C77USTWK4WWHNJUQ4C0","A2PSR3CMNR1R9X","3G9UA71JVVGUCOKNEKUVXTI6SA17JG","","<img src=""img/set1/S4.jpg"" width=""540"" height = ""360"">","null","","","","","","","","","",""
"null","","html-keyboard-response","27","112561","0.0-27.0","3YGXWBAF713C77USTWK4WWHNJUQ4C0","A2PSR3CMNR1R9X","3G9UA71JVVGUCOKNEKUVXTI6SA17JG","","","null","","","","","","","","","",""
"363.9000000357628","","image-keyboard-response","28","112927","0.0-28.0","3YGXWBAF713C77USTWK4WWHNJUQ4C0","A2PSR3CMNR1R9X","3G9UA71JVVGUCOKNEKUVXTI6SA17JG","","img/set1/S3.jpg","72","3","structured_load","72","structured_load,random,structured_normal,structured_incentive","4,2,1,2,2,3","2,1,3,4","true","","",""
"null","","html-keyboard-response","29","113279","0.0-29.0","3YGXWBAF713C77USTWK4WWHNJUQ4C0","A2PSR3CMNR1R9X","3G9UA71JVVGUCOKNEKUVXTI6SA17JG","","<img src=""img/set1/S3.jpg"" width=""540"" height = ""360"" style=""border:16px solid orange"">","null","","","","","","","","","",""
"null","","html-keyboard-response","30","113482","0.0-30.0","3YGXWBAF713C77USTWK4WWHNJUQ4C0","A2PSR3CMNR1R9X","3G9UA71JVVGUCOKNEKUVXTI6SA17JG","","","null","","","","","","","","","",""
"259.9000000357628","","image-keyboard-response","31","113744","0.0-31.0","3YGXWBAF713C77USTWK4WWHNJUQ4C0","A2PSR3CMNR1R9X","3G9UA71JVVGUCOKNEKUVXTI6SA17JG","","img/set1/S4.jpg","68","4","structured_load","74","structured_load,random,structured_normal,structured_incentive","4,2,1,2,2,3","2,1,3,4","false","","",""
"null","","html-keyboard-response","32","114097","0.0-32.0","3YGXWBAF713C77USTWK4WWHNJUQ4C0","A2PSR3CMNR1R9X","3G9UA71JVVGUCOKNEKUVXTI6SA17JG","","<img src=""img/set1/S4.jpg"" width=""540"" height = ""360"">","null","","","","","","","","","",""
"null","","html-keyboard-response","33","114299","0.0-33.0","3YGXWBAF713C77USTWK4WWHNJUQ4C0","A2PSR3CMNR1R9X","3G9UA71JVVGUCOKNEKUVXTI6SA17JG","","","null","","","","","","","","","",""
"275.0999999642372","","image-keyboard-response","34","114576","0.0-34.0","3YGXWBAF713C77USTWK4WWHNJUQ4C0","A2PSR3CMNR1R9X","3G9UA71JVVGUCOKNEKUVXTI6SA17JG","","img/set1/S2.jpg","72","2","structured_load","68","structured_load,random,structured_normal,structured_incentive","4,2,1,2,2,3","2,1,3,4","false","","",""
"null","","html-keyboard-response","35","114929","0.0-35.0","3YGXWBAF713C77USTWK4WWHNJUQ4C0","A2PSR3CMNR1R9X","3G9UA71JVVGUCOKNEKUVXTI6SA17JG","","<img src=""img/set1/S2.jpg"" width=""540"" height = ""360"">","null","","","","","","","","","",""
"null","","html-keyboard-response","36","115141","0.0-36.0","3YGXWBAF713C77USTWK4WWHNJUQ4C0","A2PSR3CMNR1R9X","3G9UA71JVVGUCOKNEKUVXTI6SA17JG","","","null","","","","","","","","","",""
"375.80000001192093","","image-keyboard-response","37","115519","0.0-37.0","3YGXWBAF713C77USTWK4WWHNJUQ4C0","A2PSR3CMNR1R9X","3G9UA71JVVGUCOKNEKUVXTI6SA17JG","","img/set1/S1.jpg","83","1","structured_load","83","structured_load,random,structured_normal,structured_incentive","4,2,1,2,2,3","2,1,3,4","true","","",""
"null","","html-keyboard-response","38","115872","0.0-38.0","3YGXWBAF713C77USTWK4WWHNJUQ4C0","A2PSR3CMNR1R9X","3G9UA71JVVGUCOKNEKUVXTI6SA17JG","","<img src=""img/set1/S1.jpg"" width=""540"" height = ""360"" style=""border:16px solid orange"">","null","","","","","","","","","",""
"null","","html-keyboard-response","39","116074","0.0-39.0","3YGXWBAF713C77USTWK4WWHNJUQ4C0","A2PSR3CMNR1R9X","3G9UA71JVVGUCOKNEKUVXTI6SA17JG","","","null","","","","","","","","","",""
"300.2000000476837","","image-keyboard-response","40","116376","0.0-40.0","3YGXWBAF713C77USTWK4WWHNJUQ4C0","A2PSR3CMNR1R9X","3G9UA71JVVGUCOKNEKUVXTI6SA17JG","","img/set1/S1.jpg","68","1","structured_load","83","structured_load,random,structured_normal,structured_incentive","4,2,1,2,2,3","2,1,3,4","false","","",""
"null","","html-keyboard-response","41","116739","0.0-41.0","3YGXWBAF713C77USTWK4WWHNJUQ4C0","A2PSR3CMNR1R9X","3G9UA71JVVGUCOKNEKUVXTI6SA17JG","","<img src=""img/set1/S1.jpg"" width=""540"" height = ""360"">","null","","","","","","","","","",""
"null","","html-keyboard-response","42","116954","0.0-42.0","3YGXWBAF713C77USTWK4WWHNJUQ4C0","A2PSR3CMNR1R9X","3G9UA71JVVGUCOKNEKUVXTI6SA17JG","","","null","","","","","","","","","",""
"597.0999999642372","","image-keyboard-response","43","117552","0.0-43.0","3YGXWBAF713C77USTWK4WWHNJUQ4C0","A2PSR3CMNR1R9X","3G9UA71JVVGUCOKNEKUVXTI6SA17JG","","img/set1/S4.jpg","68","4","structured_load","74","structured_load,random,structured_normal,structured_incentive","4,2,1,2,2,3","2,1,3,4","false","","",""
"null","","html-keyboard-response","44","117905","0.0-44.0","3YGXWBAF713C77USTWK4WWHNJUQ4C0","A2PSR3CMNR1R9X","3G9UA71JVVGUCOKNEKUVXTI6SA17JG","","<img src=""img/set1/S4.jpg"" width=""540"" height = ""360"">","null","","","","","","","","","",""
"null","","html-keyboard-response","45","118107","0.0-45.0","3YGXWBAF713C77USTWK4WWHNJUQ4C0","A2PSR3CMNR1R9X","3G9UA71JVVGUCOKNEKUVXTI6SA17JG","","","null","","","","","","","","","",""
"386.5999999642372","","image-keyboard-response","46","118496","0.0-46.0","3YGXWBAF713C77USTWK4WWHNJUQ4C0","A2PSR3CMNR1R9X","3G9UA71JVVGUCOKNEKUVXTI6SA17JG","","img/set1/S2.jpg","83","2","structured_load","68","structured_load,random,structured_normal,structured_incentive","4,2,1,2,2,3","2,1,3,4","false","","",""
"null","","html-keyboard-response","47","118849","0.0-47.0","3YGXWBAF713C77USTWK4WWHNJUQ4C0","A2PSR3CMNR1R9X","3G9UA71JVVGUCOKNEKUVXTI6SA17JG","","<img src=""img/set1/S2.jpg"" width=""540"" height = ""360"">","null","","","","","","","","","",""
"null","","html-keyboard-response","48","119050","0.0-48.0","3YGXWBAF713C77USTWK4WWHNJUQ4C0","A2PSR3CMNR1R9X","3G9UA71JVVGUCOKNEKUVXTI6SA17JG","","","null","","","","","","","","","",""
"435.89999997615814","","image-keyboard-response","49","119488","0.0-49.0","3YGXWBAF713C77USTWK4WWHNJUQ4C0","A2PSR3CMNR1R9X","3G9UA71JVVGUCOKNEKUVXTI6SA17JG","","img/set1/S1.jpg","68","1","structured_load","83","structured_load,random,structured_normal,structured_incentive","4,2,1,2,2,3","2,1,3,4","false","","",""
"null","","html-keyboard-response","50","119841","0.0-50.0","3YGXWBAF713C77USTWK4WWHNJUQ4C0","A2PSR3CMNR1R9X","3G9UA71JVVGUCOKNEKUVXTI6SA17JG","","<img src=""img/set1/S1.jpg"" width=""540"" height = ""360"">","null","","","","","","","","","",""
"null","","html-keyboard-response","51","120043","0.0-51.0","3YGXWBAF713C77USTWK4WWHNJUQ4C0","A2PSR3CMNR1R9X","3G9UA71JVVGUCOKNEKUVXTI6SA17JG","","","null","","","","","","","","","",""
"297.60000002384186","","image-keyboard-response","52","120342","0.0-52.0","3YGXWBAF713C77USTWK4WWHNJUQ4C0","A2PSR3CMNR1R9X","3G9UA71JVVGUCOKNEKUVXTI6SA17JG","","img/set1/S3.jpg","83","3","structured_load","72","structured_load,random,structured_normal,structured_incentive","4,2,1,2,2,3","2,1,3,4","false","","",""
"null","","html-keyboard-response","53","120695","0.0-53.0","3YGXWBAF713C77USTWK4WWHNJUQ4C0","A2PSR3CMNR1R9X","3G9UA71JVVGUCOKNEKUVXTI6SA17JG","","<img src=""img/set1/S3.jpg"" width=""540"" height = ""360"">","null","","","","","","","","","",""
"null","","html-keyboard-response","54","120897","0.0-54.0","3YGXWBAF713C77USTWK4WWHNJUQ4C0","A2PSR3CMNR1R9X","3G9UA71JVVGUCOKNEKUVXTI6SA17JG","","","null","","","","","","","","","",""
"244.39999997615814","","image-keyboard-response","55","121143","0.0-55.0","3YGXWBAF713C77USTWK4WWHNJUQ4C0","A2PSR3CMNR1R9X","3G9UA71JVVGUCOKNEKUVXTI6SA17JG","","img/set1/S1.jpg","72","1","structured_load","83","structured_load,random,structured_normal,structured_incentive","4,2,1,2,2,3","2,1,3,4","false","","",""
"null","","html-keyboard-response","56","121495","0.0-56.0","3YGXWBAF713C77USTWK4WWHNJUQ4C0","A2PSR3CMNR1R9X","3G9UA71JVVGUCOKNEKUVXTI6SA17JG","","<img src=""img/set1/S1.jpg"" width=""540"" height = ""360"">","null","","","","","","","","","",""
"null","","html-keyboard-response","57","121697","0.0-57.0","3YGXWBAF713C77USTWK4WWHNJUQ4C0","A2PSR3CMNR1R9X","3G9UA71JVVGUCOKNEKUVXTI6SA17JG","","","null","","","","","","","","","",""
"181.60000002384186","","image-keyboard-response","58","121880","0.0-58.0","3YGXWBAF713C77USTWK4WWHNJUQ4C0","A2PSR3CMNR1R9X","3G9UA71JVVGUCOKNEKUVXTI6SA17JG","","img/set1/S1.jpg","68","1","structured_load","83","structured_load,random,structured_normal,structured_incentive","4,2,1,2,2,3","2,1,3,4","false","","",""
"null","","html-keyboard-response","59","122234","0.0-59.0","3YGXWBAF713C77USTWK4WWHNJUQ4C0","A2PSR3CMNR1R9X","3G9UA71JVVGUCOKNEKUVXTI6SA17JG","","<img src=""img/set1/S1.jpg"" width=""540"" height = ""360"">","null","","","","","","","","","",""
"null","","html-keyboard-response","60","122436","0.0-60.0","3YGXWBAF713C77USTWK4WWHNJUQ4C0","A2PSR3CMNR1R9X","3G9UA71JVVGUCOKNEKUVXTI6SA17JG","","","null","","","","","","","","","",""
"169.80000001192093","","image-keyboard-response","61","122608","0.0-61.0","3YGXWBAF713C77USTWK4WWHNJUQ4C0","A2PSR3CMNR1R9X","3G9UA71JVVGUCOKNEKUVXTI6SA17JG","","img/set1/S1.jpg","74","1","structured_load","83","structured_load,random,structured_normal,structured_incentive","4,2,1,2,2,3","2,1,3,4","false","","",""
"null","","html-keyboard-response","62","122960","0.0-62.0","3YGXWBAF713C77USTWK4WWHNJUQ4C0","A2PSR3CMNR1R9X","3G9UA71JVVGUCOKNEKUVXTI6SA17JG","","<img src=""img/set1/S1.jpg"" width=""540"" height = ""360"">","null","","","","","","","","","",""
"null","","html-keyboard-response","63","123162","0.0-63.0","3YGXWBAF713C77USTWK4WWHNJUQ4C0","A2PSR3CMNR1R9X","3G9UA71JVVGUCOKNEKUVXTI6SA17JG","","","null","","","","","","","","","",""
"299.30000001192093","","image-keyboard-response","64","123464","0.0-64.0","3YGXWBAF713C77USTWK4WWHNJUQ4C0","A2PSR3CMNR1R9X","3G9UA71JVVGUCOKNEKUVXTI6SA17JG","","img/set1/S1.jpg","68","1","structured_load","83","structured_load,random,structured_normal,structured_incentive","4,2,1,2,2,3","2,1,3,4","false","","",""
"null","","html-keyboard-response","65","123817","0.0-65.0","3YGXWBAF713C77USTWK4WWHNJUQ4C0","A2PSR3CMNR1R9X","3G9UA71JVVGUCOKNEKUVXTI6SA17JG","","<img src=""img/set1/S1.jpg"" width=""540"" height = ""360"">","null","","","","","","","","","",""
"null","","html-keyboard-response","66","124019","0.0-66.0","3YGXWBAF713C77USTWK4WWHNJUQ4C0","A2PSR3CMNR1R9X","3G9UA71JVVGUCOKNEKUVXTI6SA17JG","","","null","","","","","","","","","",""
"274.9000000357628","","image-keyboard-response","67","124296","0.0-67.0","3YGXWBAF713C77USTWK4WWHNJUQ4C0","A2PSR3CMNR1R9X","3G9UA71JVVGUCOKNEKUVXTI6SA17JG","","img/set1/S4.jpg","83","4","structured_load","74","structured_load,random,structured_normal,structured_incentive","4,2,1,2,2,3","2,1,3,4","false","","",""
"null","","html-keyboard-response","68","124649","0.0-68.0","3YGXWBAF713C77USTWK4WWHNJUQ4C0","A2PSR3CMNR1R9X","3G9UA71JVVGUCOKNEKUVXTI6SA17JG","","<img src=""img/set1/S4.jpg"" width=""540"" height = ""360"">","null","","","","","","","","","",""
"null","","html-keyboard-response","69","124851","0.0-69.0","3YGXWBAF713C77USTWK4WWHNJUQ4C0","A2PSR3CMNR1R9X","3G9UA71JVVGUCOKNEKUVXTI6SA17JG","","","null","","","","","","","","","",""
"272.7000000476837","","image-keyboard-response","70","125129","0.0-70.0","3YGXWBAF713C77USTWK4WWHNJUQ4C0","A2PSR3CMNR1R9X","3G9UA71JVVGUCOKNEKUVXTI6SA17JG","","img/set1/S2.jpg","68","2","structured_load","68","structured_load,random,structured_normal,structured_incentive","4,2,1,2,2,3","2,1,3,4","true","","",""
"null","","html-keyboard-response","71","125482","0.0-71.0","3YGXWBAF713C77USTWK4WWHNJUQ4C0","A2PSR3CMNR1R9X","3G9UA71JVVGUCOKNEKUVXTI6SA17JG","","<img src=""img/set1/S2.jpg"" width=""540"" height = ""360"" style=""border:16px solid orange"">","null","","","","","","","","","",""
"null","","html-keyboard-response","72","125684","0.0-72.0","3YGXWBAF713C77USTWK4WWHNJUQ4C0","A2PSR3CMNR1R9X","3G9UA71JVVGUCOKNEKUVXTI6SA17JG","","","null","","","","","","","","","",""
"378.7999999523163","","image-keyboard-response","73","126064","0.0-73.0","3YGXWBAF713C77USTWK4WWHNJUQ4C0","A2PSR3CMNR1R9X","3G9UA71JVVGUCOKNEKUVXTI6SA17JG","","img/set1/S4.jpg","68","4","structured_load","74","structured_load,random,structured_normal,structured_incentive","4,2,1,2,2,3","2,1,3,4","false","","",""
"null","","html-keyboard-response","74","126417","0.0-74.0","3YGXWBAF713C77USTWK4WWHNJUQ4C0","A2PSR3CMNR1R9X","3G9UA71JVVGUCOKNEKUVXTI6SA17JG","","<img src=""img/set1/S4.jpg"" width=""540"" height = ""360"">","null","","","","","","","","","",""
"null","","html-keyboard-response","75","126619","0.0-75.0","3YGXWBAF713C77USTWK4WWHNJUQ4C0","A2PSR3CMNR1R9X","3G9UA71JVVGUCOKNEKUVXTI6SA17JG","","","null","","","","","","","","","",""
"314.19999998807907","","image-keyboard-response","76","126936","0.0-76.0","3YGXWBAF713C77USTWK4WWHNJUQ4C0","A2PSR3CMNR1R9X","3G9UA71JVVGUCOKNEKUVXTI6SA17JG","","img/set1/S2.jpg","68","2","structured_load","68","structured_load,random,structured_normal,structured_incentive","4,2,1,2,2,3","2,1,3,4","true","","",""
"null","","html-keyboard-response","77","127289","0.0-77.0","3YGXWBAF713C77USTWK4WWHNJUQ4C0","A2PSR3CMNR1R9X","3G9UA71JVVGUCOKNEKUVXTI6SA17JG","","<img src=""img/set1/S2.jpg"" width=""540"" height = ""360"" style=""border:16px solid orange"">","null","","","","","","","","","",""
"null","","html-keyboard-response","78","127497","0.0-78.0","3YGXWBAF713C77USTWK4WWHNJUQ4C0","A2PSR3CMNR1R9X","3G9UA71JVVGUCOKNEKUVXTI6SA17JG","","","null","","","","","","","","","",""
"507.19999998807907","","image-keyboard-response","79","128006","0.0-79.0","3YGXWBAF713C77USTWK4WWHNJUQ4C0","A2PSR3CMNR1R9X","3G9UA71JVVGUCOKNEKUVXTI6SA17JG","","img/set1/S3.jpg","83","3","structured_load","72","structured_load,random,structured_normal,structured_incentive","4,2,1,2,2,3","2,1,3,4","false","","",""
"null","","html-keyboard-response","80","128358","0.0-80.0","3YGXWBAF713C77USTWK4WWHNJUQ4C0","A2PSR3CMNR1R9X","3G9UA71JVVGUCOKNEKUVXTI6SA17JG","","<img src=""img/set1/S3.jpg"" width=""540"" height = ""360"">","null","","","","","","","","","",""
"null","","html-keyboard-response","81","128561","0.0-81.0","3YGXWBAF713C77USTWK4WWHNJUQ4C0","A2PSR3CMNR1R9X","3G9UA71JVVGUCOKNEKUVXTI6SA17JG","","","null","","","","","","","","","",""
"365.30000001192093","","image-keyboard-response","82","128928","0.0-82.0","3YGXWBAF713C77USTWK4WWHNJUQ4C0","A2PSR3CMNR1R9X","3G9UA71JVVGUCOKNEKUVXTI6SA17JG","","img/set1/S4.jpg","72","4","structured_load","74","structured_load,random,structured_normal,structured_incentive","4,2,1,2,2,3","2,1,3,4","false","","",""
"null","","html-keyboard-response","83","129281","0.0-83.0","3YGXWBAF713C77USTWK4WWHNJUQ4C0","A2PSR3CMNR1R9X","3G9UA71JVVGUCOKNEKUVXTI6SA17JG","","<img src=""img/set1/S4.jpg"" width=""540"" height = ""360"">","null","","","","","","","","","",""
"null","","html-keyboard-response","84","129483","0.0-84.0","3YGXWBAF713C77USTWK4WWHNJUQ4C0","A2PSR3CMNR1R9X","3G9UA71JVVGUCOKNEKUVXTI6SA17JG","","","null","","","","","","","","","",""
"379.80000001192093","","image-keyboard-response","85","129864","0.0-85.0","3YGXWBAF713C77USTWK4WWHNJUQ4C0","A2PSR3CMNR1R9X","3G9UA71JVVGUCOKNEKUVXTI6SA17JG","","img/set1/S2.jpg","68","2","structured_load","68","structured_load,random,structured_normal,structured_incentive","4,2,1,2,2,3","2,1,3,4","true","","",""
"null","","html-keyboard-response","86","130217","0.0-86.0","3YGXWBAF713C77USTWK4WWHNJUQ4C0","A2PSR3CMNR1R9X","3G9UA71JVVGUCOKNEKUVXTI6SA17JG","","<img src=""img/set1/S2.jpg"" width=""540"" height = ""360"" style=""border:16px solid orange"">","null","","","","","","","","","",""
"null","","html-keyboard-response","87","130418","0.0-87.0","3YGXWBAF713C77USTWK4WWHNJUQ4C0","A2PSR3CMNR1R9X","3G9UA71JVVGUCOKNEKUVXTI6SA17JG","","","null","","","","","","","","","",""
"333.10000002384186","","image-keyboard-response","88","130752","0.0-88.0","3YGXWBAF713C77USTWK4WWHNJUQ4C0","A2PSR3CMNR1R9X","3G9UA71JVVGUCOKNEKUVXTI6SA17JG","","img/set1/S3.jpg","83","3","structured_load","72","structured_load,random,structured_normal,structured_incentive","4,2,1,2,2,3","2,1,3,4","false","","",""
"null","","html-keyboard-response","89","131105","0.0-89.0","3YGXWBAF713C77USTWK4WWHNJUQ4C0","A2PSR3CMNR1R9X","3G9UA71JVVGUCOKNEKUVXTI6SA17JG","","<img src=""img/set1/S3.jpg"" width=""540"" height = ""360"">","null","","","","","","","","","",""
"null","","html-keyboard-response","90","131306","0.0-90.0","3YGXWBAF713C77USTWK4WWHNJUQ4C0","A2PSR3CMNR1R9X","3G9UA71JVVGUCOKNEKUVXTI6SA17JG","","","null","","","","","","","","","",""
"643.8999999761581","","image-keyboard-response","91","131952","0.0-91.0","3YGXWBAF713C77USTWK4WWHNJUQ4C0","A2PSR3CMNR1R9X","3G9UA71JVVGUCOKNEKUVXTI6SA17JG","","img/set1/S4.jpg","72","4","structured_load","74","structured_load,random,structured_normal,structured_incentive","4,2,1,2,2,3","2,1,3,4","false","","",""
"null","","html-keyboard-response","92","132306","0.0-92.0","3YGXWBAF713C77USTWK4WWHNJUQ4C0","A2PSR3CMNR1R9X","3G9UA71JVVGUCOKNEKUVXTI6SA17JG","","<img src=""img/set1/S4.jpg"" width=""540"" height = ""360"">","null","","","","","","","","","",""
"null","","html-keyboard-response","93","132508","0.0-93.0","3YGXWBAF713C77USTWK4WWHNJUQ4C0","A2PSR3CMNR1R9X","3G9UA71JVVGUCOKNEKUVXTI6SA17JG","","","null","","","","","","","","","",""
"402.39999997615814","","image-keyboard-response","94","132912","0.0-94.0","3YGXWBAF713C77USTWK4WWHNJUQ4C0","A2PSR3CMNR1R9X","3G9UA71JVVGUCOKNEKUVXTI6SA17JG","","img/set1/S2.jpg","68","2","structured_load","68","structured_load,random,structured_normal,structured_incentive","4,2,1,2,2,3","2,1,3,4","true","","",""
"null","","html-keyboard-response","95","133265","0.0-95.0","3YGXWBAF713C77USTWK4WWHNJUQ4C0","A2PSR3CMNR1R9X","3G9UA71JVVGUCOKNEKUVXTI6SA17JG","","<img src=""img/set1/S2.jpg"" width=""540"" height = ""360"" style=""border:16px solid orange"">","null","","","","","","","","","",""
"null","","html-keyboard-response","96","133468","0.0-96.0","3YGXWBAF713C77USTWK4WWHNJUQ4C0","A2PSR3CMNR1R9X","3G9UA71JVVGUCOKNEKUVXTI6SA17JG","","","null","","","","","","","","","",""
"299.19999998807907","","image-keyboard-response","97","133768","0.0-97.0","3YGXWBAF713C77USTWK4WWHNJUQ4C0","A2PSR3CMNR1R9X","3G9UA71JVVGUCOKNEKUVXTI6SA17JG","","img/set1/S4.jpg","68","4","structured_load","74","structured_load,random,structured_normal,structured_incentive","4,2,1,2,2,3","2,1,3,4","false","","",""
"null","","html-keyboard-response","98","134121","0.0-98.0","3YGXWBAF713C77USTWK4WWHNJUQ4C0","A2PSR3CMNR1R9X","3G9UA71JVVGUCOKNEKUVXTI6SA17JG","","<img src=""img/set1/S4.jpg"" width=""540"" height = ""360"">","null","","","","","","","","","",""
"null","","html-keyboard-response","99","134323","0.0-99.0","3YGXWBAF713C77USTWK4WWHNJUQ4C0","A2PSR3CMNR1R9X","3G9UA71JVVGUCOKNEKUVXTI6SA17JG","","","null","","","","","","","","","",""
"563.1000000238419","","image-keyboard-response","100","134888","0.0-100.0","3YGXWBAF713C77USTWK4WWHNJUQ4C0","A2PSR3CMNR1R9X","3G9UA71JVVGUCOKNEKUVXTI6SA17JG","","img/set1/S3.jpg","74","3","structured_load","72","structured_load,random,structured_normal,structured_incentive","4,2,1,2,2,3","2,1,3,4","false","","",""
"null","","html-keyboard-response","101","135242","0.0-101.0","3YGXWBAF713C77USTWK4WWHNJUQ4C0","A2PSR3CMNR1R9X","3G9UA71JVVGUCOKNEKUVXTI6SA17JG","","<img src=""img/set1/S3.jpg"" width=""540"" height = ""360"">","null","","","","","","","","","",""
"null","","html-keyboard-response","102","135445","0.0-102.0","3YGXWBAF713C77USTWK4WWHNJUQ4C0","A2PSR3CMNR1R9X","3G9UA71JVVGUCOKNEKUVXTI6SA17JG","","","null","","","","","","","","","",""
"281.19999998807907","","image-keyboard-response","103","135728","0.0-103.0","3YGXWBAF713C77USTWK4WWHNJUQ4C0","A2PSR3CMNR1R9X","3G9UA71JVVGUCOKNEKUVXTI6SA17JG","","img/set1/S1.jpg","74","1","structured_load","83","structured_load,random,structured_normal,structured_incentive","4,2,1,2,2,3","2,1,3,4","false","","",""
"null","","html-keyboard-response","104","136081","0.0-104.0","3YGXWBAF713C77USTWK4WWHNJUQ4C0","A2PSR3CMNR1R9X","3G9UA71JVVGUCOKNEKUVXTI6SA17JG","","<img src=""img/set1/S1.jpg"" width=""540"" height = ""360"">","null","","","","","","","","","",""
"null","","html-keyboard-response","105","136283","0.0-105.0","3YGXWBAF713C77USTWK4WWHNJUQ4C0","A2PSR3CMNR1R9X","3G9UA71JVVGUCOKNEKUVXTI6SA17JG","","","null","","","","","","","","","",""
"251.4000000357628","","image-keyboard-response","106","136536","0.0-106.0","3YGXWBAF713C77USTWK4WWHNJUQ4C0","A2PSR3CMNR1R9X","3G9UA71JVVGUCOKNEKUVXTI6SA17JG","","img/set1/S4.jpg","74","4","structured_load","74","structured_load,random,structured_normal,structured_incentive","4,2,1,2,2,3","2,1,3,4","true","","",""
"null","","html-keyboard-response","107","136890","0.0-107.0","3YGXWBAF713C77USTWK4WWHNJUQ4C0","A2PSR3CMNR1R9X","3G9UA71JVVGUCOKNEKUVXTI6SA17JG","","<img src=""img/set1/S4.jpg"" width=""540"" height = ""360"" style=""border:16px solid orange"">","null","","","","","","","","","",""
"null","","html-keyboard-response","108","137091","0.0-108.0","3YGXWBAF713C77USTWK4WWHNJUQ4C0","A2PSR3CMNR1R9X","3G9UA71JVVGUCOKNEKUVXTI6SA17JG","","","null","","","","","","","","","",""
"554.6999999880791","","image-keyboard-response","109","137648","0.0-109.0","3YGXWBAF713C77USTWK4WWHNJUQ4C0","A2PSR3CMNR1R9X","3G9UA71JVVGUCOKNEKUVXTI6SA17JG","","img/set1/S2.jpg","68","2","structured_load","68","structured_load,random,structured_normal,structured_incentive","4,2,1,2,2,3","2,1,3,4","true","","",""
"null","","html-keyboard-response","110","138001","0.0-110.0","3YGXWBAF713C77USTWK4WWHNJUQ4C0","A2PSR3CMNR1R9X","3G9UA71JVVGUCOKNEKUVXTI6SA17JG","","<img src=""img/set1/S2.jpg"" width=""540"" height = ""360"" style=""border:16px solid orange"">","null","","","","","","","","","",""
"null","","html-keyboard-response","111","138202","0.0-111.0","3YGXWBAF713C77USTWK4WWHNJUQ4C0","A2PSR3CMNR1R9X","3G9UA71JVVGUCOKNEKUVXTI6SA17JG","","","null","","","","","","","","","",""
"459.5999999642372","","image-keyboard-response","112","138664","0.0-112.0","3YGXWBAF713C77USTWK4WWHNJUQ4C0","A2PSR3CMNR1R9X","3G9UA71JVVGUCOKNEKUVXTI6SA17JG","","img/set1/S1.jpg","68","1","structured_load","83","structured_load,random,structured_normal,structured_incentive","4,2,1,2,2,3","2,1,3,4","false","","",""
"null","","html-keyboard-response","113","139017","0.0-113.0","3YGXWBAF713C77USTWK4WWHNJUQ4C0","A2PSR3CMNR1R9X","3G9UA71JVVGUCOKNEKUVXTI6SA17JG","","<img src=""img/set1/S1.jpg"" width=""540"" height = ""360"">","null","","","","","","","","","",""
"null","","html-keyboard-response","114","139219","0.0-114.0","3YGXWBAF713C77USTWK4WWHNJUQ4C0","A2PSR3CMNR1R9X","3G9UA71JVVGUCOKNEKUVXTI6SA17JG","","","null","","","","","","","","","",""
"339","","image-keyboard-response","115","139560","0.0-115.0","3YGXWBAF713C77USTWK4WWHNJUQ4C0","A2PSR3CMNR1R9X","3G9UA71JVVGUCOKNEKUVXTI6SA17JG","","img/set1/S3.jpg","68","3","structured_load","72","structured_load,random,structured_normal,structured_incentive","4,2,1,2,2,3","2,1,3,4","false","","",""
"null","","html-keyboard-response","116","139913","0.0-116.0","3YGXWBAF713C77USTWK4WWHNJUQ4C0","A2PSR3CMNR1R9X","3G9UA71JVVGUCOKNEKUVXTI6SA17JG","","<img src=""img/set1/S3.jpg"" width=""540"" height = ""360"">","null","","","","","","","","","",""
"null","","html-keyboard-response","117","140115","0.0-117.0","3YGXWBAF713C77USTWK4WWHNJUQ4C0","A2PSR3CMNR1R9X","3G9UA71JVVGUCOKNEKUVXTI6SA17JG","","","null","","","","","","","","","",""
"411","","image-keyboard-response","118","140528","0.0-118.0","3YGXWBAF713C77USTWK4WWHNJUQ4C0","A2PSR3CMNR1R9X","3G9UA71JVVGUCOKNEKUVXTI6SA17JG","","img/set1/S3.jpg","74","3","structured_load","72","structured_load,random,structured_normal,structured_incentive","4,2,1,2,2,3","2,1,3,4","false","","",""
"null","","html-keyboard-response","119","140881","0.0-119.0","3YGXWBAF713C77USTWK4WWHNJUQ4C0","A2PSR3CMNR1R9X","3G9UA71JVVGUCOKNEKUVXTI6SA17JG","","<img src=""img/set1/S3.jpg"" width=""540"" height = ""360"">","null","","","","","","","","","",""
"null","","html-keyboard-response","120","141082","0.0-120.0","3YGXWBAF713C77USTWK4WWHNJUQ4C0","A2PSR3CMNR1R9X","3G9UA71JVVGUCOKNEKUVXTI6SA17JG","","","null","","","","","","","","","",""
"772.8999999761581","","image-keyboard-response","121","141856","0.0-121.0","3YGXWBAF713C77USTWK4WWHNJUQ4C0","A2PSR3CMNR1R9X","3G9UA71JVVGUCOKNEKUVXTI6SA17JG","","img/set1/S4.jpg","74","4","structured_load","74","structured_load,random,structured_normal,structured_incentive","4,2,1,2,2,3","2,1,3,4","true","","",""
"null","","html-keyboard-response","122","142209","0.0-122.0","3YGXWBAF713C77USTWK4WWHNJUQ4C0","A2PSR3CMNR1R9X","3G9UA71JVVGUCOKNEKUVXTI6SA17JG","","<img src=""img/set1/S4.jpg"" width=""540"" height = ""360"" style=""border:16px solid orange"">","null","","","","","","","","","",""
"null","","html-keyboard-response","123","142411","0.0-123.0","3YGXWBAF713C77USTWK4WWHNJUQ4C0","A2PSR3CMNR1R9X","3G9UA71JVVGUCOKNEKUVXTI6SA17JG","","","null","","","","","","","","","",""
"418.89999997615814","","image-keyboard-response","124","142832","0.0-124.0","3YGXWBAF713C77USTWK4WWHNJUQ4C0","A2PSR3CMNR1R9X","3G9UA71JVVGUCOKNEKUVXTI6SA17JG","","img/set1/S2.jpg","68","2","structured_load","68","structured_load,random,structured_normal,structured_incentive","4,2,1,2,2,3","2,1,3,4","true","","",""
"null","","html-keyboard-response","125","143185","0.0-125.0","3YGXWBAF713C77USTWK4WWHNJUQ4C0","A2PSR3CMNR1R9X","3G9UA71JVVGUCOKNEKUVXTI6SA17JG","","<img src=""img/set1/S2.jpg"" width=""540"" height = ""360"" style=""border:16px solid orange"">","null","","","","","","","","","",""
"null","","html-keyboard-response","126","143387","0.0-126.0","3YGXWBAF713C77USTWK4WWHNJUQ4C0","A2PSR3CMNR1R9X","3G9UA71JVVGUCOKNEKUVXTI6SA17JG","","","null","","","","","","","","","",""
"514.8999999761581","","image-keyboard-response","127","143904","0.0-127.0","3YGXWBAF713C77USTWK4WWHNJUQ4C0","A2PSR3CMNR1R9X","3G9UA71JVVGUCOKNEKUVXTI6SA17JG","","img/set1/S3.jpg","74","3","structured_load","72","structured_load,random,structured_normal,structured_incentive","4,2,1,2,2,3","2,1,3,4","false","","",""
"null","","html-keyboard-response","128","144257","0.0-128.0","3YGXWBAF713C77USTWK4WWHNJUQ4C0","A2PSR3CMNR1R9X","3G9UA71JVVGUCOKNEKUVXTI6SA17JG","","<img src=""img/set1/S3.jpg"" width=""540"" height = ""360"">","null","","","","","","","","","",""
"null","","html-keyboard-response","129","144459","0.0-129.0","3YGXWBAF713C77USTWK4WWHNJUQ4C0","A2PSR3CMNR1R9X","3G9UA71JVVGUCOKNEKUVXTI6SA17JG","","","null","","","","","","","","","",""
"1673.2000000476837","","image-keyboard-response","130","146134","0.0-130.0","3YGXWBAF713C77USTWK4WWHNJUQ4C0","A2PSR3CMNR1R9X","3G9UA71JVVGUCOKNEKUVXTI6SA17JG","","img/set1/S4.jpg","74","4","structured_load","74","structured_load,random,structured_normal,structured_incentive","4,2,1,2,2,3","2,1,3,4","true","","",""
"null","","html-keyboard-response","131","146487","0.0-131.0","3YGXWBAF713C77USTWK4WWHNJUQ4C0","A2PSR3CMNR1R9X","3G9UA71JVVGUCOKNEKUVXTI6SA17JG","","<img src=""img/set1/S4.jpg"" width=""540"" height = ""360"" style=""border:16px solid orange"">","null","","","","","","","","","",""
"null","","html-keyboard-response","132","146689","0.0-132.0","3YGXWBAF713C77USTWK4WWHNJUQ4C0","A2PSR3CMNR1R9X","3G9UA71JVVGUCOKNEKUVXTI6SA17JG","","","null","","","","","","","","","",""
"749.0999999642372","","image-keyboard-response","133","147440","0.0-133.0","3YGXWBAF713C77USTWK4WWHNJUQ4C0","A2PSR3CMNR1R9X","3G9UA71JVVGUCOKNEKUVXTI6SA17JG","","img/set1/S3.jpg","72","3","structured_load","72","structured_load,random,structured_normal,structured_incentive","4,2,1,2,2,3","2,1,3,4","true","","",""
"null","","html-keyboard-response","134","147793","0.0-134.0","3YGXWBAF713C77USTWK4WWHNJUQ4C0","A2PSR3CMNR1R9X","3G9UA71JVVGUCOKNEKUVXTI6SA17JG","","<img src=""img/set1/S3.jpg"" width=""540"" height = ""360"" style=""border:16px solid orange"">","null","","","","","","","","","",""
"null","","html-keyboard-response","135","147996","0.0-135.0","3YGXWBAF713C77USTWK4WWHNJUQ4C0","A2PSR3CMNR1R9X","3G9UA71JVVGUCOKNEKUVXTI6SA17JG","","","null","","","","","","","","","",""
"419.10000002384186","","image-keyboard-response","136","148416","0.0-136.0","3YGXWBAF713C77USTWK4WWHNJUQ4C0","A2PSR3CMNR1R9X","3G9UA71JVVGUCOKNEKUVXTI6SA17JG","","img/set1/S3.jpg","72","3","structured_load","72","structured_load,random,structured_normal,structured_incentive","4,2,1,2,2,3","2,1,3,4","true","","",""
"null","","html-keyboard-response","137","148769","0.0-137.0","3YGXWBAF713C77USTWK4WWHNJUQ4C0","A2PSR3CMNR1R9X","3G9UA71JVVGUCOKNEKUVXTI6SA17JG","","<img src=""img/set1/S3.jpg"" width=""540"" height = ""360"" style=""border:16px solid orange"">","null","","","","","","","","","",""
"null","","html-keyboard-response","138","148971","0.0-138.0","3YGXWBAF713C77USTWK4WWHNJUQ4C0","A2PSR3CMNR1R9X","3G9UA71JVVGUCOKNEKUVXTI6SA17JG","","","null","","","","","","","","","",""
"466.7000000476837","","image-keyboard-response","139","149440","0.0-139.0","3YGXWBAF713C77USTWK4WWHNJUQ4C0","A2PSR3CMNR1R9X","3G9UA71JVVGUCOKNEKUVXTI6SA17JG","","img/set1/S3.jpg","72","3","structured_load","72","structured_load,random,structured_normal,structured_incentive","4,2,1,2,2,3","2,1,3,4","true","","",""
"null","","html-keyboard-response","140","149793","0.0-140.0","3YGXWBAF713C77USTWK4WWHNJUQ4C0","A2PSR3CMNR1R9X","3G9UA71JVVGUCOKNEKUVXTI6SA17JG","","<img src=""img/set1/S3.jpg"" width=""540"" height = ""360"" style=""border:16px solid orange"">","null","","","","","","","","","",""
"null","","html-keyboard-response","141","149994","0.0-141.0","3YGXWBAF713C77USTWK4WWHNJUQ4C0","A2PSR3CMNR1R9X","3G9UA71JVVGUCOKNEKUVXTI6SA17JG","","","null","","","","","","","","","",""
"412.69999998807907","","image-keyboard-response","142","150408","0.0-142.0","3YGXWBAF713C77USTWK4WWHNJUQ4C0","A2PSR3CMNR1R9X","3G9UA71JVVGUCOKNEKUVXTI6SA17JG","","img/set1/S3.jpg","72","3","structured_load","72","structured_load,random,structured_normal,structured_incentive","4,2,1,2,2,3","2,1,3,4","true","","",""
"null","","html-keyboard-response","143","150762","0.0-143.0","3YGXWBAF713C77USTWK4WWHNJUQ4C0","A2PSR3CMNR1R9X","3G9UA71JVVGUCOKNEKUVXTI6SA17JG","","<img src=""img/set1/S3.jpg"" width=""540"" height = ""360"" style=""border:16px solid orange"">","null","","","","","","","","","",""
"null","","html-keyboard-response","144","150964","0.0-144.0","3YGXWBAF713C77USTWK4WWHNJUQ4C0","A2PSR3CMNR1R9X","3G9UA71JVVGUCOKNEKUVXTI6SA17JG","","","null","","","","","","","","","",""
"611","","image-keyboard-response","145","151576","0.0-145.0","3YGXWBAF713C77USTWK4WWHNJUQ4C0","A2PSR3CMNR1R9X","3G9UA71JVVGUCOKNEKUVXTI6SA17JG","","img/set1/S4.jpg","74","4","structured_load","74","structured_load,random,structured_normal,structured_incentive","4,2,1,2,2,3","2,1,3,4","true","","",""
"null","","html-keyboard-response","146","151929","0.0-146.0","3YGXWBAF713C77USTWK4WWHNJUQ4C0","A2PSR3CMNR1R9X","3G9UA71JVVGUCOKNEKUVXTI6SA17JG","","<img src=""img/set1/S4.jpg"" width=""540"" height = ""360"" style=""border:16px solid orange"">","null","","","","","","","","","",""
"null","","html-keyboard-response","147","152144","0.0-147.0","3YGXWBAF713C77USTWK4WWHNJUQ4C0","A2PSR3CMNR1R9X","3G9UA71JVVGUCOKNEKUVXTI6SA17JG","","","null","","","","","","","","","",""
"1117.300000011921","","image-keyboard-response","148","153264","0.0-148.0","3YGXWBAF713C77USTWK4WWHNJUQ4C0","A2PSR3CMNR1R9X","3G9UA71JVVGUCOKNEKUVXTI6SA17JG","","img/set1/S3.jpg","74","3","structured_load","72","structured_load,random,structured_normal,structured_incentive","4,2,1,2,2,3","2,1,3,4","false","","",""
"null","","html-keyboard-response","149","153617","0.0-149.0","3YGXWBAF713C77USTWK4WWHNJUQ4C0","A2PSR3CMNR1R9X","3G9UA71JVVGUCOKNEKUVXTI6SA17JG","","<img src=""img/set1/S3.jpg"" width=""540"" height = ""360"">","null","","","","","","","","","",""
"null","","html-keyboard-response","150","153818","0.0-150.0","3YGXWBAF713C77USTWK4WWHNJUQ4C0","A2PSR3CMNR1R9X","3G9UA71JVVGUCOKNEKUVXTI6SA17JG","","","null","","","","","","","","","",""
"667.6999999880791","","image-keyboard-response","151","154486","0.0-151.0","3YGXWBAF713C77USTWK4WWHNJUQ4C0","A2PSR3CMNR1R9X","3G9UA71JVVGUCOKNEKUVXTI6SA17JG","","img/set1/S1.jpg","83","1","structured_load","83","structured_load,random,structured_normal,structured_incentive","4,2,1,2,2,3","2,1,3,4","true","","",""
"null","","html-keyboard-response","152","154838","0.0-152.0","3YGXWBAF713C77USTWK4WWHNJUQ4C0","A2PSR3CMNR1R9X","3G9UA71JVVGUCOKNEKUVXTI6SA17JG","","<img src=""img/set1/S1.jpg"" width=""540"" height = ""360"" style=""border:16px solid orange"">","null","","","","","","","","","",""
"null","","html-keyboard-response","153","155040","0.0-153.0","3YGXWBAF713C77USTWK4WWHNJUQ4C0","A2PSR3CMNR1R9X","3G9UA71JVVGUCOKNEKUVXTI6SA17JG","","","null","","","","","","","","","",""
"781.6000000238419","","image-keyboard-response","154","155824","0.0-154.0","3YGXWBAF713C77USTWK4WWHNJUQ4C0","A2PSR3CMNR1R9X","3G9UA71JVVGUCOKNEKUVXTI6SA17JG","","img/set1/S3.jpg","72","3","structured_load","72","structured_load,random,structured_normal,structured_incentive","4,2,1,2,2,3","2,1,3,4","true","","",""
"null","","html-keyboard-response","155","156179","0.0-155.0","3YGXWBAF713C77USTWK4WWHNJUQ4C0","A2PSR3CMNR1R9X","3G9UA71JVVGUCOKNEKUVXTI6SA17JG","","<img src=""img/set1/S3.jpg"" width=""540"" height = ""360"" style=""border:16px solid orange"">","null","","","","","","","","","",""
"null","","html-keyboard-response","156","156380","0.0-156.0","3YGXWBAF713C77USTWK4WWHNJUQ4C0","A2PSR3CMNR1R9X","3G9UA71JVVGUCOKNEKUVXTI6SA17JG","","","null","","","","","","","","","",""
"433.4000000357628","","image-keyboard-response","157","156816","0.0-157.0","3YGXWBAF713C77USTWK4WWHNJUQ4C0","A2PSR3CMNR1R9X","3G9UA71JVVGUCOKNEKUVXTI6SA17JG","","img/set1/S1.jpg","68","1","structured_load","83","structured_load,random,structured_normal,structured_incentive","4,2,1,2,2,3","2,1,3,4","false","","",""
"null","","html-keyboard-response","158","157168","0.0-158.0","3YGXWBAF713C77USTWK4WWHNJUQ4C0","A2PSR3CMNR1R9X","3G9UA71JVVGUCOKNEKUVXTI6SA17JG","","<img src=""img/set1/S1.jpg"" width=""540"" height = ""360"">","null","","","","","","","","","",""
"null","","html-keyboard-response","159","157370","0.0-159.0","3YGXWBAF713C77USTWK4WWHNJUQ4C0","A2PSR3CMNR1R9X","3G9UA71JVVGUCOKNEKUVXTI6SA17JG","","","null","","","","","","","","","",""
"244","","image-keyboard-response","160","157616","0.0-160.0","3YGXWBAF713C77USTWK4WWHNJUQ4C0","A2PSR3CMNR1R9X","3G9UA71JVVGUCOKNEKUVXTI6SA17JG","","img/set1/S4.jpg","74","4","structured_load","74","structured_load,random,structured_normal,structured_incentive","4,2,1,2,2,3","2,1,3,4","true","","",""
"null","","html-keyboard-response","161","157969","0.0-161.0","3YGXWBAF713C77USTWK4WWHNJUQ4C0","A2PSR3CMNR1R9X","3G9UA71JVVGUCOKNEKUVXTI6SA17JG","","<img src=""img/set1/S4.jpg"" width=""540"" height = ""360"" style=""border:16px solid orange"">","null","","","","","","","","","",""
"null","","html-keyboard-response","162","158170","0.0-162.0","3YGXWBAF713C77USTWK4WWHNJUQ4C0","A2PSR3CMNR1R9X","3G9UA71JVVGUCOKNEKUVXTI6SA17JG","","","null","","","","","","","","","",""
"731.9000000357628","","image-keyboard-response","163","158904","0.0-163.0","3YGXWBAF713C77USTWK4WWHNJUQ4C0","A2PSR3CMNR1R9X","3G9UA71JVVGUCOKNEKUVXTI6SA17JG","","img/set1/S2.jpg","68","2","structured_load","68","structured_load,random,structured_normal,structured_incentive","4,2,1,2,2,3","2,1,3,4","true","","",""
"null","","html-keyboard-response","164","159269","0.0-164.0","3YGXWBAF713C77USTWK4WWHNJUQ4C0","A2PSR3CMNR1R9X","3G9UA71JVVGUCOKNEKUVXTI6SA17JG","","<img src=""img/set1/S2.jpg"" width=""540"" height = ""360"" style=""border:16px solid orange"">","null","","","","","","","","","",""
"null","","html-keyboard-response","165","159471","0.0-165.0","3YGXWBAF713C77USTWK4WWHNJUQ4C0","A2PSR3CMNR1R9X","3G9UA71JVVGUCOKNEKUVXTI6SA17JG","","","null","","","","","","","","","",""
"743.3999999761581","","image-keyboard-response","166","160216","0.0-166.0","3YGXWBAF713C77USTWK4WWHNJUQ4C0","A2PSR3CMNR1R9X","3G9UA71JVVGUCOKNEKUVXTI6SA17JG","","img/set1/S4.jpg","74","4","structured_load","74","structured_load,random,structured_normal,structured_incentive","4,2,1,2,2,3","2,1,3,4","true","","",""
"null","","html-keyboard-response","167","160570","0.0-167.0","3YGXWBAF713C77USTWK4WWHNJUQ4C0","A2PSR3CMNR1R9X","3G9UA71JVVGUCOKNEKUVXTI6SA17JG","","<img src=""img/set1/S4.jpg"" width=""540"" height = ""360"" style=""border:16px solid orange"">","null","","","","","","","","","",""
"null","","html-keyboard-response","168","160772","0.0-168.0","3YGXWBAF713C77USTWK4WWHNJUQ4C0","A2PSR3CMNR1R9X","3G9UA71JVVGUCOKNEKUVXTI6SA17JG","","","null","","","","","","","","","",""
"520.7000000476837","","image-keyboard-response","169","161294","0.0-169.0","3YGXWBAF713C77USTWK4WWHNJUQ4C0","A2PSR3CMNR1R9X","3G9UA71JVVGUCOKNEKUVXTI6SA17JG","","img/set1/S2.jpg","68","2","structured_load","68","structured_load,random,structured_normal,structured_incentive","4,2,1,2,2,3","2,1,3,4","true","","",""
"null","","html-keyboard-response","170","161646","0.0-170.0","3YGXWBAF713C77USTWK4WWHNJUQ4C0","A2PSR3CMNR1R9X","3G9UA71JVVGUCOKNEKUVXTI6SA17JG","","<img src=""img/set1/S2.jpg"" width=""540"" height = ""360"" style=""border:16px solid orange"">","null","","","","","","","","","",""
"null","","html-keyboard-response","171","161848","0.0-171.0","3YGXWBAF713C77USTWK4WWHNJUQ4C0","A2PSR3CMNR1R9X","3G9UA71JVVGUCOKNEKUVXTI6SA17JG","","","null","","","","","","","","","",""
"460.60000002384186","","image-keyboard-response","172","162310","0.0-172.0","3YGXWBAF713C77USTWK4WWHNJUQ4C0","A2PSR3CMNR1R9X","3G9UA71JVVGUCOKNEKUVXTI6SA17JG","","img/set1/S4.jpg","74","4","structured_load","74","structured_load,random,structured_normal,structured_incentive","4,2,1,2,2,3","2,1,3,4","true","","",""
"null","","html-keyboard-response","173","162662","0.0-173.0","3YGXWBAF713C77USTWK4WWHNJUQ4C0","A2PSR3CMNR1R9X","3G9UA71JVVGUCOKNEKUVXTI6SA17JG","","<img src=""img/set1/S4.jpg"" width=""540"" height = ""360"" style=""border:16px solid orange"">","null","","","","","","","","","",""
"null","","html-keyboard-response","174","162864","0.0-174.0","3YGXWBAF713C77USTWK4WWHNJUQ4C0","A2PSR3CMNR1R9X","3G9UA71JVVGUCOKNEKUVXTI6SA17JG","","","null","","","","","","","","","",""
"670.1999999880791","","image-keyboard-response","175","163536","0.0-175.0","3YGXWBAF713C77USTWK4WWHNJUQ4C0","A2PSR3CMNR1R9X","3G9UA71JVVGUCOKNEKUVXTI6SA17JG","","img/set1/S2.jpg","68","2","structured_load","68","structured_load,random,structured_normal,structured_incentive","4,2,1,2,2,3","2,1,3,4","true","","",""
"null","","html-keyboard-response","176","163889","0.0-176.0","3YGXWBAF713C77USTWK4WWHNJUQ4C0","A2PSR3CMNR1R9X","3G9UA71JVVGUCOKNEKUVXTI6SA17JG","","<img src=""img/set1/S2.jpg"" width=""540"" height = ""360"" style=""border:16px solid orange"">","null","","","","","","","","","",""
"null","","html-keyboard-response","177","164092","0.0-177.0","3YGXWBAF713C77USTWK4WWHNJUQ4C0","A2PSR3CMNR1R9X","3G9UA71JVVGUCOKNEKUVXTI6SA17JG","","","null","","","","","","","","","",""
"448.4000000357628","","image-keyboard-response","178","164542","0.0-178.0","3YGXWBAF713C77USTWK4WWHNJUQ4C0","A2PSR3CMNR1R9X","3G9UA71JVVGUCOKNEKUVXTI6SA17JG","","img/set1/S4.jpg","74","4","structured_load","74","structured_load,random,structured_normal,structured_incentive","4,2,1,2,2,3","2,1,3,4","true","","",""
"null","","html-keyboard-response","179","164894","0.0-179.0","3YGXWBAF713C77USTWK4WWHNJUQ4C0","A2PSR3CMNR1R9X","3G9UA71JVVGUCOKNEKUVXTI6SA17JG","","<img src=""img/set1/S4.jpg"" width=""540"" height = ""360"" style=""border:16px solid orange"">","null","","","","","","","","","",""
"null","","html-keyboard-response","180","165097","0.0-180.0","3YGXWBAF713C77USTWK4WWHNJUQ4C0","A2PSR3CMNR1R9X","3G9UA71JVVGUCOKNEKUVXTI6SA17JG","","","null","","","","","","","","","",""
"380.39999997615814","","image-keyboard-response","181","165480","0.0-181.0","3YGXWBAF713C77USTWK4WWHNJUQ4C0","A2PSR3CMNR1R9X","3G9UA71JVVGUCOKNEKUVXTI6SA17JG","","img/set1/S3.jpg","68","3","structured_load","72","structured_load,random,structured_normal,structured_incentive","4,2,1,2,2,3","2,1,3,4","false","","",""
"null","","html-keyboard-response","182","165833","0.0-182.0","3YGXWBAF713C77USTWK4WWHNJUQ4C0","A2PSR3CMNR1R9X","3G9UA71JVVGUCOKNEKUVXTI6SA17JG","","<img src=""img/set1/S3.jpg"" width=""540"" height = ""360"">","null","","","","","","","","","",""
"null","","html-keyboard-response","183","166035","0.0-183.0","3YGXWBAF713C77USTWK4WWHNJUQ4C0","A2PSR3CMNR1R9X","3G9UA71JVVGUCOKNEKUVXTI6SA17JG","","","null","","","","","","","","","",""
"619","","image-keyboard-response","184","166656","0.0-184.0","3YGXWBAF713C77USTWK4WWHNJUQ4C0","A2PSR3CMNR1R9X","3G9UA71JVVGUCOKNEKUVXTI6SA17JG","","img/set1/S1.jpg","83","1","structured_load","83","structured_load,random,structured_normal,structured_incentive","4,2,1,2,2,3","2,1,3,4","true","","",""
"null","","html-keyboard-response","185","167009","0.0-185.0","3YGXWBAF713C77USTWK4WWHNJUQ4C0","A2PSR3CMNR1R9X","3G9UA71JVVGUCOKNEKUVXTI6SA17JG","","<img src=""img/set1/S1.jpg"" width=""540"" height = ""360"" style=""border:16px solid orange"">","null","","","","","","","","","",""
"null","","html-keyboard-response","186","167211","0.0-186.0","3YGXWBAF713C77USTWK4WWHNJUQ4C0","A2PSR3CMNR1R9X","3G9UA71JVVGUCOKNEKUVXTI6SA17JG","","","null","","","","","","","","","",""
"635","","image-keyboard-response","187","167848","0.0-187.0","3YGXWBAF713C77USTWK4WWHNJUQ4C0","A2PSR3CMNR1R9X","3G9UA71JVVGUCOKNEKUVXTI6SA17JG","","img/set1/S4.jpg","72","4","structured_load","74","structured_load,random,structured_normal,structured_incentive","4,2,1,2,2,3","2,1,3,4","false","","",""
"null","","html-keyboard-response","188","168201","0.0-188.0","3YGXWBAF713C77USTWK4WWHNJUQ4C0","A2PSR3CMNR1R9X","3G9UA71JVVGUCOKNEKUVXTI6SA17JG","","<img src=""img/set1/S4.jpg"" width=""540"" height = ""360"">","null","","","","","","","","","",""
"null","","html-keyboard-response","189","168402","0.0-189.0","3YGXWBAF713C77USTWK4WWHNJUQ4C0","A2PSR3CMNR1R9X","3G9UA71JVVGUCOKNEKUVXTI6SA17JG","","","null","","","","","","","","","",""
"604","","image-keyboard-response","190","169008","0.0-190.0","3YGXWBAF713C77USTWK4WWHNJUQ4C0","A2PSR3CMNR1R9X","3G9UA71JVVGUCOKNEKUVXTI6SA17JG","","img/set1/S2.jpg","68","2","structured_load","68","structured_load,random,structured_normal,structured_incentive","4,2,1,2,2,3","2,1,3,4","true","","",""
"null","","html-keyboard-response","191","169362","0.0-191.0","3YGXWBAF713C77USTWK4WWHNJUQ4C0","A2PSR3CMNR1R9X","3G9UA71JVVGUCOKNEKUVXTI6SA17JG","","<img src=""img/set1/S2.jpg"" width=""540"" height = ""360"" style=""border:16px solid orange"">","null","","","","","","","","","",""
"null","","html-keyboard-response","192","169564","0.0-192.0","3YGXWBAF713C77USTWK4WWHNJUQ4C0","A2PSR3CMNR1R9X","3G9UA71JVVGUCOKNEKUVXTI6SA17JG","","","null","","","","","","","","","",""
"442.10000002384186","","image-keyboard-response","193","170008","0.0-193.0","3YGXWBAF713C77USTWK4WWHNJUQ4C0","A2PSR3CMNR1R9X","3G9UA71JVVGUCOKNEKUVXTI6SA17JG","","img/set1/S3.jpg","74","3","structured_load","72","structured_load,random,structured_normal,structured_incentive","4,2,1,2,2,3","2,1,3,4","false","","",""
"null","","html-keyboard-response","194","170361","0.0-194.0","3YGXWBAF713C77USTWK4WWHNJUQ4C0","A2PSR3CMNR1R9X","3G9UA71JVVGUCOKNEKUVXTI6SA17JG","","<img src=""img/set1/S3.jpg"" width=""540"" height = ""360"">","null","","","","","","","","","",""
"null","","html-keyboard-response","195","170563","0.0-195.0","3YGXWBAF713C77USTWK4WWHNJUQ4C0","A2PSR3CMNR1R9X","3G9UA71JVVGUCOKNEKUVXTI6SA17JG","","","null","","","","","","","","","",""
"554.3000000119209","","image-keyboard-response","196","171120","0.0-196.0","3YGXWBAF713C77USTWK4WWHNJUQ4C0","A2PSR3CMNR1R9X","3G9UA71JVVGUCOKNEKUVXTI6SA17JG","","img/set1/S2.jpg","68","2","structured_load","68","structured_load,random,structured_normal,structured_incentive","4,2,1,2,2,3","2,1,3,4","true","","",""
"null","","html-keyboard-response","197","171472","0.0-197.0","3YGXWBAF713C77USTWK4WWHNJUQ4C0","A2PSR3CMNR1R9X","3G9UA71JVVGUCOKNEKUVXTI6SA17JG","","<img src=""img/set1/S2.jpg"" width=""540"" height = ""360"" style=""border:16px solid orange"">","null","","","","","","","","","",""
"null","","html-keyboard-response","198","171675","0.0-198.0","3YGXWBAF713C77USTWK4WWHNJUQ4C0","A2PSR3CMNR1R9X","3G9UA71JVVGUCOKNEKUVXTI6SA17JG","","","null","","","","","","","","","",""
"651.1999999880791","","image-keyboard-response","199","172328","0.0-199.0","3YGXWBAF713C77USTWK4WWHNJUQ4C0","A2PSR3CMNR1R9X","3G9UA71JVVGUCOKNEKUVXTI6SA17JG","","img/set1/S1.jpg","83","1","structured_load","83","structured_load,random,structured_normal,structured_incentive","4,2,1,2,2,3","2,1,3,4","true","","",""
"null","","html-keyboard-response","200","172681","0.0-200.0","3YGXWBAF713C77USTWK4WWHNJUQ4C0","A2PSR3CMNR1R9X","3G9UA71JVVGUCOKNEKUVXTI6SA17JG","","<img src=""img/set1/S1.jpg"" width=""540"" height = ""360"" style=""border:16px solid orange"">","null","","","","","","","","","",""
"null","","html-keyboard-response","201","172884","0.0-201.0","3YGXWBAF713C77USTWK4WWHNJUQ4C0","A2PSR3CMNR1R9X","3G9UA71JVVGUCOKNEKUVXTI6SA17JG","","","null","","","","","","","","","",""
"1065.699999988079","","image-keyboard-response","202","173952","0.0-202.0","3YGXWBAF713C77USTWK4WWHNJUQ4C0","A2PSR3CMNR1R9X","3G9UA71JVVGUCOKNEKUVXTI6SA17JG","","img/set1/S4.jpg","74","4","structured_load","74","structured_load,random,structured_normal,structured_incentive","4,2,1,2,2,3","2,1,3,4","true","","",""
"null","","html-keyboard-response","203","174317","0.0-203.0","3YGXWBAF713C77USTWK4WWHNJUQ4C0","A2PSR3CMNR1R9X","3G9UA71JVVGUCOKNEKUVXTI6SA17JG","","<img src=""img/set1/S4.jpg"" width=""540"" height = ""360"" style=""border:16px solid orange"">","null","","","","","","","","","",""
"null","","html-keyboard-response","204","174518","0.0-204.0","3YGXWBAF713C77USTWK4WWHNJUQ4C0","A2PSR3CMNR1R9X","3G9UA71JVVGUCOKNEKUVXTI6SA17JG","","","null","","","","","","","","","",""
"608.3000000119209","","image-keyboard-response","205","175128","0.0-205.0","3YGXWBAF713C77USTWK4WWHNJUQ4C0","A2PSR3CMNR1R9X","3G9UA71JVVGUCOKNEKUVXTI6SA17JG","","img/set1/S2.jpg","68","2","structured_load","68","structured_load,random,structured_normal,structured_incentive","4,2,1,2,2,3","2,1,3,4","true","","",""
"null","","html-keyboard-response","206","175482","0.0-206.0","3YGXWBAF713C77USTWK4WWHNJUQ4C0","A2PSR3CMNR1R9X","3G9UA71JVVGUCOKNEKUVXTI6SA17JG","","<img src=""img/set1/S2.jpg"" width=""540"" height = ""360"" style=""border:16px solid orange"">","null","","","","","","","","","",""
"null","","html-keyboard-response","207","175684","0.0-207.0","3YGXWBAF713C77USTWK4WWHNJUQ4C0","A2PSR3CMNR1R9X","3G9UA71JVVGUCOKNEKUVXTI6SA17JG","","","null","","","","","","","","","",""
"720.4000000357628","","image-keyboard-response","208","176406","0.0-208.0","3YGXWBAF713C77USTWK4WWHNJUQ4C0","A2PSR3CMNR1R9X","3G9UA71JVVGUCOKNEKUVXTI6SA17JG","","img/set1/S1.jpg","83","1","structured_load","83","structured_load,random,structured_normal,structured_incentive","4,2,1,2,2,3","2,1,3,4","true","","",""
"null","","html-keyboard-response","209","176757","0.0-209.0","3YGXWBAF713C77USTWK4WWHNJUQ4C0","A2PSR3CMNR1R9X","3G9UA71JVVGUCOKNEKUVXTI6SA17JG","","<img src=""img/set1/S1.jpg"" width=""540"" height = ""360"" style=""border:16px solid orange"">","null","","","","","","","","","",""
"null","","html-keyboard-response","210","176959","0.0-210.0","3YGXWBAF713C77USTWK4WWHNJUQ4C0","A2PSR3CMNR1R9X","3G9UA71JVVGUCOKNEKUVXTI6SA17JG","","","null","","","","","","","","","",""
"526.5999999642372","","image-keyboard-response","211","177488","0.0-211.0","3YGXWBAF713C77USTWK4WWHNJUQ4C0","A2PSR3CMNR1R9X","3G9UA71JVVGUCOKNEKUVXTI6SA17JG","","img/set1/S1.jpg","83","1","structured_load","83","structured_load,random,structured_normal,structured_incentive","4,2,1,2,2,3","2,1,3,4","true","","",""
"null","","html-keyboard-response","212","177841","0.0-212.0","3YGXWBAF713C77USTWK4WWHNJUQ4C0","A2PSR3CMNR1R9X","3G9UA71JVVGUCOKNEKUVXTI6SA17JG","","<img src=""img/set1/S1.jpg"" width=""540"" height = ""360"" style=""border:16px solid orange"">","null","","","","","","","","","",""
"null","","html-keyboard-response","213","178043","0.0-213.0","3YGXWBAF713C77USTWK4WWHNJUQ4C0","A2PSR3CMNR1R9X","3G9UA71JVVGUCOKNEKUVXTI6SA17JG","","","null","","","","","","","","","",""
"762.6999999880791","","image-keyboard-response","214","178808","0.0-214.0","3YGXWBAF713C77USTWK4WWHNJUQ4C0","A2PSR3CMNR1R9X","3G9UA71JVVGUCOKNEKUVXTI6SA17JG","","img/set1/S4.jpg","74","4","structured_load","74","structured_load,random,structured_normal,structured_incentive","4,2,1,2,2,3","2,1,3,4","true","","",""
"null","","html-keyboard-response","215","179161","0.0-215.0","3YGXWBAF713C77USTWK4WWHNJUQ4C0","A2PSR3CMNR1R9X","3G9UA71JVVGUCOKNEKUVXTI6SA17JG","","<img src=""img/set1/S4.jpg"" width=""540"" height = ""360"" style=""border:16px solid orange"">","null","","","","","","","","","",""
"null","","html-keyboard-response","216","179361","0.0-216.0","3YGXWBAF713C77USTWK4WWHNJUQ4C0","A2PSR3CMNR1R9X","3G9UA71JVVGUCOKNEKUVXTI6SA17JG","","","null","","","","","","","","","",""
"732.3000000119209","","image-keyboard-response","217","180095","0.0-217.0","3YGXWBAF713C77USTWK4WWHNJUQ4C0","A2PSR3CMNR1R9X","3G9UA71JVVGUCOKNEKUVXTI6SA17JG","","img/set1/S2.jpg","68","2","structured_load","68","structured_load,random,structured_normal,structured_incentive","4,2,1,2,2,3","2,1,3,4","true","","",""
"null","","html-keyboard-response","218","180446","0.0-218.0","3YGXWBAF713C77USTWK4WWHNJUQ4C0","A2PSR3CMNR1R9X","3G9UA71JVVGUCOKNEKUVXTI6SA17JG","","<img src=""img/set1/S2.jpg"" width=""540"" height = ""360"" style=""border:16px solid orange"">","null","","","","","","","","","",""
"null","","html-keyboard-response","219","180648","0.0-219.0","3YGXWBAF713C77USTWK4WWHNJUQ4C0","A2PSR3CMNR1R9X","3G9UA71JVVGUCOKNEKUVXTI6SA17JG","","","null","","","","","","","","","",""
"357.89999997615814","","image-keyboard-response","220","181008","0.0-220.0","3YGXWBAF713C77USTWK4WWHNJUQ4C0","A2PSR3CMNR1R9X","3G9UA71JVVGUCOKNEKUVXTI6SA17JG","","img/set1/S2.jpg","68","2","structured_load","68","structured_load,random,structured_normal,structured_incentive","4,2,1,2,2,3","2,1,3,4","true","","",""
"null","","html-keyboard-response","221","181361","0.0-221.0","3YGXWBAF713C77USTWK4WWHNJUQ4C0","A2PSR3CMNR1R9X","3G9UA71JVVGUCOKNEKUVXTI6SA17JG","","<img src=""img/set1/S2.jpg"" width=""540"" height = ""360"" style=""border:16px solid orange"">","null","","","","","","","","","",""
"null","","html-keyboard-response","222","181563","0.0-222.0","3YGXWBAF713C77USTWK4WWHNJUQ4C0","A2PSR3CMNR1R9X","3G9UA71JVVGUCOKNEKUVXTI6SA17JG","","","null","","","","","","","","","",""
"283.30000001192093","","image-keyboard-response","223","181848","0.0-223.0","3YGXWBAF713C77USTWK4WWHNJUQ4C0","A2PSR3CMNR1R9X","3G9UA71JVVGUCOKNEKUVXTI6SA17JG","","img/set1/S4.jpg","68","4","structured_load","74","structured_load,random,structured_normal,structured_incentive","4,2,1,2,2,3","2,1,3,4","false","","",""
"null","","html-keyboard-response","224","182201","0.0-224.0","3YGXWBAF713C77USTWK4WWHNJUQ4C0","A2PSR3CMNR1R9X","3G9UA71JVVGUCOKNEKUVXTI6SA17JG","","<img src=""img/set1/S4.jpg"" width=""540"" height = ""360"">","null","","","","","","","","","",""
"null","","html-keyboard-response","225","182403","0.0-225.0","3YGXWBAF713C77USTWK4WWHNJUQ4C0","A2PSR3CMNR1R9X","3G9UA71JVVGUCOKNEKUVXTI6SA17JG","","","null","","","","","","","","","",""
"556.3000000119209","","image-keyboard-response","226","182960","0.0-226.0","3YGXWBAF713C77USTWK4WWHNJUQ4C0","A2PSR3CMNR1R9X","3G9UA71JVVGUCOKNEKUVXTI6SA17JG","","img/set1/S2.jpg","68","2","structured_load","68","structured_load,random,structured_normal,structured_incentive","4,2,1,2,2,3","2,1,3,4","true","","",""
"null","","html-keyboard-response","227","183313","0.0-227.0","3YGXWBAF713C77USTWK4WWHNJUQ4C0","A2PSR3CMNR1R9X","3G9UA71JVVGUCOKNEKUVXTI6SA17JG","","<img src=""img/set1/S2.jpg"" width=""540"" height = ""360"" style=""border:16px solid orange"">","null","","","","","","","","","",""
"null","","html-keyboard-response","228","183516","0.0-228.0","3YGXWBAF713C77USTWK4WWHNJUQ4C0","A2PSR3CMNR1R9X","3G9UA71JVVGUCOKNEKUVXTI6SA17JG","","","null","","","","","","","","","",""
"618.3000000119209","","image-keyboard-response","229","184136","0.0-229.0","3YGXWBAF713C77USTWK4WWHNJUQ4C0","A2PSR3CMNR1R9X","3G9UA71JVVGUCOKNEKUVXTI6SA17JG","","img/set1/S1.jpg","83","1","structured_load","83","structured_load,random,structured_normal,structured_incentive","4,2,1,2,2,3","2,1,3,4","true","","",""
"null","","html-keyboard-response","230","184490","0.0-230.0","3YGXWBAF713C77USTWK4WWHNJUQ4C0","A2PSR3CMNR1R9X","3G9UA71JVVGUCOKNEKUVXTI6SA17JG","","<img src=""img/set1/S1.jpg"" width=""540"" height = ""360"" style=""border:16px solid orange"">","null","","","","","","","","","",""
"null","","html-keyboard-response","231","184692","0.0-231.0","3YGXWBAF713C77USTWK4WWHNJUQ4C0","A2PSR3CMNR1R9X","3G9UA71JVVGUCOKNEKUVXTI6SA17JG","","","null","","","","","","","","","",""
"768.5","","image-keyboard-response","232","185462","0.0-232.0","3YGXWBAF713C77USTWK4WWHNJUQ4C0","A2PSR3CMNR1R9X","3G9UA71JVVGUCOKNEKUVXTI6SA17JG","","img/set1/S3.jpg","74","3","structured_load","72","structured_load,random,structured_normal,structured_incentive","4,2,1,2,2,3","2,1,3,4","false","","",""
"null","","html-keyboard-response","233","185815","0.0-233.0","3YGXWBAF713C77USTWK4WWHNJUQ4C0","A2PSR3CMNR1R9X","3G9UA71JVVGUCOKNEKUVXTI6SA17JG","","<img src=""img/set1/S3.jpg"" width=""540"" height = ""360"">","null","","","","","","","","","",""
"null","","html-keyboard-response","234","186017","0.0-234.0","3YGXWBAF713C77USTWK4WWHNJUQ4C0","A2PSR3CMNR1R9X","3G9UA71JVVGUCOKNEKUVXTI6SA17JG","","","null","","","","","","","","","",""
"614.6000000238419","","image-keyboard-response","235","186633","0.0-235.0","3YGXWBAF713C77USTWK4WWHNJUQ4C0","A2PSR3CMNR1R9X","3G9UA71JVVGUCOKNEKUVXTI6SA17JG","","img/set1/S1.jpg","83","1","structured_load","83","structured_load,random,structured_normal,structured_incentive","4,2,1,2,2,3","2,1,3,4","true","","",""
"null","","html-keyboard-response","236","186987","0.0-236.0","3YGXWBAF713C77USTWK4WWHNJUQ4C0","A2PSR3CMNR1R9X","3G9UA71JVVGUCOKNEKUVXTI6SA17JG","","<img src=""img/set1/S1.jpg"" width=""540"" height = ""360"" style=""border:16px solid orange"">","null","","","","","","","","","",""
"null","","html-keyboard-response","237","187189","0.0-237.0","3YGXWBAF713C77USTWK4WWHNJUQ4C0","A2PSR3CMNR1R9X","3G9UA71JVVGUCOKNEKUVXTI6SA17JG","","","null","","","","","","","","","",""
"490.39999997615814","","image-keyboard-response","238","187680","0.0-238.0","3YGXWBAF713C77USTWK4WWHNJUQ4C0","A2PSR3CMNR1R9X","3G9UA71JVVGUCOKNEKUVXTI6SA17JG","","img/set1/S1.jpg","83","1","structured_load","83","structured_load,random,structured_normal,structured_incentive","4,2,1,2,2,3","2,1,3,4","true","","",""
"null","","html-keyboard-response","239","188039","0.0-239.0","3YGXWBAF713C77USTWK4WWHNJUQ4C0","A2PSR3CMNR1R9X","3G9UA71JVVGUCOKNEKUVXTI6SA17JG","","<img src=""img/set1/S1.jpg"" width=""540"" height = ""360"" style=""border:16px solid orange"">","null","","","","","","","","","",""
"null","","html-keyboard-response","240","188240","0.0-240.0","3YGXWBAF713C77USTWK4WWHNJUQ4C0","A2PSR3CMNR1R9X","3G9UA71JVVGUCOKNEKUVXTI6SA17JG","","","null","","","","","","","","","",""
"829.5","","image-keyboard-response","241","189071","0.0-241.0","3YGXWBAF713C77USTWK4WWHNJUQ4C0","A2PSR3CMNR1R9X","3G9UA71JVVGUCOKNEKUVXTI6SA17JG","","img/set1/S3.jpg","72","3","structured_load","72","structured_load,random,structured_normal,structured_incentive","4,2,1,2,2,3","2,1,3,4","true","","",""
"null","","html-keyboard-response","242","189423","0.0-242.0","3YGXWBAF713C77USTWK4WWHNJUQ4C0","A2PSR3CMNR1R9X","3G9UA71JVVGUCOKNEKUVXTI6SA17JG","","<img src=""img/set1/S3.jpg"" width=""540"" height = ""360"" style=""border:16px solid orange"">","null","","","","","","","","","",""
"null","","html-keyboard-response","243","189624","0.0-243.0","3YGXWBAF713C77USTWK4WWHNJUQ4C0","A2PSR3CMNR1R9X","3G9UA71JVVGUCOKNEKUVXTI6SA17JG","","","null","","","","","","","","","",""
"398.19999998807907","","image-keyboard-response","244","190025","0.0-244.0","3YGXWBAF713C77USTWK4WWHNJUQ4C0","A2PSR3CMNR1R9X","3G9UA71JVVGUCOKNEKUVXTI6SA17JG","","img/set1/S3.jpg","68","3","structured_load","72","structured_load,random,structured_normal,structured_incentive","4,2,1,2,2,3","2,1,3,4","false","","",""
"null","","html-keyboard-response","245","190378","0.0-245.0","3YGXWBAF713C77USTWK4WWHNJUQ4C0","A2PSR3CMNR1R9X","3G9UA71JVVGUCOKNEKUVXTI6SA17JG","","<img src=""img/set1/S3.jpg"" width=""540"" height = ""360"">","null","","","","","","","","","",""
"null","","html-keyboard-response","246","190581","0.0-246.0","3YGXWBAF713C77USTWK4WWHNJUQ4C0","A2PSR3CMNR1R9X","3G9UA71JVVGUCOKNEKUVXTI6SA17JG","","","null","","","","","","","","","",""
"624.6000000238419","","image-keyboard-response","247","191207","0.0-247.0","3YGXWBAF713C77USTWK4WWHNJUQ4C0","A2PSR3CMNR1R9X","3G9UA71JVVGUCOKNEKUVXTI6SA17JG","","img/set1/S1.jpg","83","1","structured_load","83","structured_load,random,structured_normal,structured_incentive","4,2,1,2,2,3","2,1,3,4","true","","",""
"null","","html-keyboard-response","248","191559","0.0-248.0","3YGXWBAF713C77USTWK4WWHNJUQ4C0","A2PSR3CMNR1R9X","3G9UA71JVVGUCOKNEKUVXTI6SA17JG","","<img src=""img/set1/S1.jpg"" width=""540"" height = ""360"" style=""border:16px solid orange"">","null","","","","","","","","","",""
"null","","html-keyboard-response","249","191762","0.0-249.0","3YGXWBAF713C77USTWK4WWHNJUQ4C0","A2PSR3CMNR1R9X","3G9UA71JVVGUCOKNEKUVXTI6SA17JG","","","null","","","","","","","","","",""
"538.8999999761581","","image-keyboard-response","250","192303","0.0-250.0","3YGXWBAF713C77USTWK4WWHNJUQ4C0","A2PSR3CMNR1R9X","3G9UA71JVVGUCOKNEKUVXTI6SA17JG","","img/set1/S4.jpg","74","4","structured_load","74","structured_load,random,structured_normal,structured_incentive","4,2,1,2,2,3","2,1,3,4","true","","",""
"null","","html-keyboard-response","251","192654","0.0-251.0","3YGXWBAF713C77USTWK4WWHNJUQ4C0","A2PSR3CMNR1R9X","3G9UA71JVVGUCOKNEKUVXTI6SA17JG","","<img src=""img/set1/S4.jpg"" width=""540"" height = ""360"" style=""border:16px solid orange"">","null","","","","","","","","","",""
"null","","html-keyboard-response","252","192858","0.0-252.0","3YGXWBAF713C77USTWK4WWHNJUQ4C0","A2PSR3CMNR1R9X","3G9UA71JVVGUCOKNEKUVXTI6SA17JG","","","null","","","","","","","","","",""
"589","","image-keyboard-response","253","193449","0.0-253.0","3YGXWBAF713C77USTWK4WWHNJUQ4C0","A2PSR3CMNR1R9X","3G9UA71JVVGUCOKNEKUVXTI6SA17JG","","img/set1/S2.jpg","68","2","structured_load","68","structured_load,random,structured_normal,structured_incentive","4,2,1,2,2,3","2,1,3,4","true","","",""
"null","","html-keyboard-response","254","193802","0.0-254.0","3YGXWBAF713C77USTWK4WWHNJUQ4C0","A2PSR3CMNR1R9X","3G9UA71JVVGUCOKNEKUVXTI6SA17JG","","<img src=""img/set1/S2.jpg"" width=""540"" height = ""360"" style=""border:16px solid orange"">","null","","","","","","","","","",""
"null","","html-keyboard-response","255","194004","0.0-255.0","3YGXWBAF713C77USTWK4WWHNJUQ4C0","A2PSR3CMNR1R9X","3G9UA71JVVGUCOKNEKUVXTI6SA17JG","","","null","","","","","","","","","",""
"713.5","","image-keyboard-response","256","194720","0.0-256.0","3YGXWBAF713C77USTWK4WWHNJUQ4C0","A2PSR3CMNR1R9X","3G9UA71JVVGUCOKNEKUVXTI6SA17JG","","img/set1/S3.jpg","72","3","structured_load","72","structured_load,random,structured_normal,structured_incentive","4,2,1,2,2,3","2,1,3,4","true","","",""
"null","","html-keyboard-response","257","195073","0.0-257.0","3YGXWBAF713C77USTWK4WWHNJUQ4C0","A2PSR3CMNR1R9X","3G9UA71JVVGUCOKNEKUVXTI6SA17JG","","<img src=""img/set1/S3.jpg"" width=""540"" height = ""360"" style=""border:16px solid orange"">","null","","","","","","","","","",""
"null","","html-keyboard-response","258","195275","0.0-258.0","3YGXWBAF713C77USTWK4WWHNJUQ4C0","A2PSR3CMNR1R9X","3G9UA71JVVGUCOKNEKUVXTI6SA17JG","","","null","","","","","","","","","",""
"554","","image-keyboard-response","259","195831","0.0-259.0","3YGXWBAF713C77USTWK4WWHNJUQ4C0","A2PSR3CMNR1R9X","3G9UA71JVVGUCOKNEKUVXTI6SA17JG","","img/set1/S2.jpg","68","2","structured_load","68","structured_load,random,structured_normal,structured_incentive","4,2,1,2,2,3","2,1,3,4","true","","",""
"null","","html-keyboard-response","260","196182","0.0-260.0","3YGXWBAF713C77USTWK4WWHNJUQ4C0","A2PSR3CMNR1R9X","3G9UA71JVVGUCOKNEKUVXTI6SA17JG","","<img src=""img/set1/S2.jpg"" width=""540"" height = ""360"" style=""border:16px solid orange"">","null","","","","","","","","","",""
"null","","html-keyboard-response","261","196384","0.0-261.0","3YGXWBAF713C77USTWK4WWHNJUQ4C0","A2PSR3CMNR1R9X","3G9UA71JVVGUCOKNEKUVXTI6SA17JG","","","null","","","","","","","","","",""
"678.7000000476837","","image-keyboard-response","262","197064","0.0-262.0","3YGXWBAF713C77USTWK4WWHNJUQ4C0","A2PSR3CMNR1R9X","3G9UA71JVVGUCOKNEKUVXTI6SA17JG","","img/set1/S4.jpg","72","4","structured_load","74","structured_load,random,structured_normal,structured_incentive","4,2,1,2,2,3","2,1,3,4","false","","",""
"null","","html-keyboard-response","263","197418","0.0-263.0","3YGXWBAF713C77USTWK4WWHNJUQ4C0","A2PSR3CMNR1R9X","3G9UA71JVVGUCOKNEKUVXTI6SA17JG","","<img src=""img/set1/S4.jpg"" width=""540"" height = ""360"">","null","","","","","","","","","",""
"null","","html-keyboard-response","264","197620","0.0-264.0","3YGXWBAF713C77USTWK4WWHNJUQ4C0","A2PSR3CMNR1R9X","3G9UA71JVVGUCOKNEKUVXTI6SA17JG","","","null","","","","","","","","","",""
"674.6000000238419","","image-keyboard-response","265","198296","0.0-265.0","3YGXWBAF713C77USTWK4WWHNJUQ4C0","A2PSR3CMNR1R9X","3G9UA71JVVGUCOKNEKUVXTI6SA17JG","","img/set1/S2.jpg","68","2","structured_load","68","structured_load,random,structured_normal,structured_incentive","4,2,1,2,2,3","2,1,3,4","true","","",""
"null","","html-keyboard-response","266","198650","0.0-266.0","3YGXWBAF713C77USTWK4WWHNJUQ4C0","A2PSR3CMNR1R9X","3G9UA71JVVGUCOKNEKUVXTI6SA17JG","","<img src=""img/set1/S2.jpg"" width=""540"" height = ""360"" style=""border:16px solid orange"">","null","","","","","","","","","",""
"null","","html-keyboard-response","267","198852","0.0-267.0","3YGXWBAF713C77USTWK4WWHNJUQ4C0","A2PSR3CMNR1R9X","3G9UA71JVVGUCOKNEKUVXTI6SA17JG","","","null","","","","","","","","","",""
"513.7000000476837","","image-keyboard-response","268","199368","0.0-268.0","3YGXWBAF713C77USTWK4WWHNJUQ4C0","A2PSR3CMNR1R9X","3G9UA71JVVGUCOKNEKUVXTI6SA17JG","","img/set1/S4.jpg","74","4","structured_load","74","structured_load,random,structured_normal,structured_incentive","4,2,1,2,2,3","2,1,3,4","true","","",""
"null","","html-keyboard-response","269","199721","0.0-269.0","3YGXWBAF713C77USTWK4WWHNJUQ4C0","A2PSR3CMNR1R9X","3G9UA71JVVGUCOKNEKUVXTI6SA17JG","","<img src=""img/set1/S4.jpg"" width=""540"" height = ""360"" style=""border:16px solid orange"">","null","","","","","","","","","",""
"null","","html-keyboard-response","270","199923","0.0-270.0","3YGXWBAF713C77USTWK4WWHNJUQ4C0","A2PSR3CMNR1R9X","3G9UA71JVVGUCOKNEKUVXTI6SA17JG","","","null","","","","","","","","","",""
"562.6000000238419","","image-keyboard-response","271","200488","0.0-271.0","3YGXWBAF713C77USTWK4WWHNJUQ4C0","A2PSR3CMNR1R9X","3G9UA71JVVGUCOKNEKUVXTI6SA17JG","","img/set1/S2.jpg","68","2","structured_load","68","structured_load,random,structured_normal,structured_incentive","4,2,1,2,2,3","2,1,3,4","true","","",""
"null","","html-keyboard-response","272","200841","0.0-272.0","3YGXWBAF713C77USTWK4WWHNJUQ4C0","A2PSR3CMNR1R9X","3G9UA71JVVGUCOKNEKUVXTI6SA17JG","","<img src=""img/set1/S2.jpg"" width=""540"" height = ""360"" style=""border:16px solid orange"">","null","","","","","","","","","",""
"null","","html-keyboard-response","273","201044","0.0-273.0","3YGXWBAF713C77USTWK4WWHNJUQ4C0","A2PSR3CMNR1R9X","3G9UA71JVVGUCOKNEKUVXTI6SA17JG","","","null","","","","","","","","","",""
"570.1999999880791","","image-keyboard-response","274","201617","0.0-274.0","3YGXWBAF713C77USTWK4WWHNJUQ4C0","A2PSR3CMNR1R9X","3G9UA71JVVGUCOKNEKUVXTI6SA17JG","","img/set1/S1.jpg","83","1","structured_load","83","structured_load,random,structured_normal,structured_incentive","4,2,1,2,2,3","2,1,3,4","true","","",""
"null","","html-keyboard-response","275","201981","0.0-275.0","3YGXWBAF713C77USTWK4WWHNJUQ4C0","A2PSR3CMNR1R9X","3G9UA71JVVGUCOKNEKUVXTI6SA17JG","","<img src=""img/set1/S1.jpg"" width=""540"" height = ""360"" style=""border:16px solid orange"">","null","","","","","","","","","",""
"null","","html-keyboard-response","276","202182","0.0-276.0","3YGXWBAF713C77USTWK4WWHNJUQ4C0","A2PSR3CMNR1R9X","3G9UA71JVVGUCOKNEKUVXTI6SA17JG","","","null","","","","","","","","","",""
"447.5","","image-keyboard-response","277","202630","0.0-277.0","3YGXWBAF713C77USTWK4WWHNJUQ4C0","A2PSR3CMNR1R9X","3G9UA71JVVGUCOKNEKUVXTI6SA17JG","","img/set1/S4.jpg","68","4","structured_load","74","structured_load,random,structured_normal,structured_incentive","4,2,1,2,2,3","2,1,3,4","false","","",""
"null","","html-keyboard-response","278","202983","0.0-278.0","3YGXWBAF713C77USTWK4WWHNJUQ4C0","A2PSR3CMNR1R9X","3G9UA71JVVGUCOKNEKUVXTI6SA17JG","","<img src=""img/set1/S4.jpg"" width=""540"" height = ""360"">","null","","","","","","","","","",""
"null","","html-keyboard-response","279","203185","0.0-279.0","3YGXWBAF713C77USTWK4WWHNJUQ4C0","A2PSR3CMNR1R9X","3G9UA71JVVGUCOKNEKUVXTI6SA17JG","","","null","","","","","","","","","",""
"549.8000000119209","","image-keyboard-response","280","203736","0.0-280.0","3YGXWBAF713C77USTWK4WWHNJUQ4C0","A2PSR3CMNR1R9X","3G9UA71JVVGUCOKNEKUVXTI6SA17JG","","img/set1/S2.jpg","68","2","structured_load","68","structured_load,random,structured_normal,structured_incentive","4,2,1,2,2,3","2,1,3,4","true","","",""
"null","","html-keyboard-response","281","204089","0.0-281.0","3YGXWBAF713C77USTWK4WWHNJUQ4C0","A2PSR3CMNR1R9X","3G9UA71JVVGUCOKNEKUVXTI6SA17JG","","<img src=""img/set1/S2.jpg"" width=""540"" height = ""360"" style=""border:16px solid orange"">","null","","","","","","","","","",""
"null","","html-keyboard-response","282","204291","0.0-282.0","3YGXWBAF713C77USTWK4WWHNJUQ4C0","A2PSR3CMNR1R9X","3G9UA71JVVGUCOKNEKUVXTI6SA17JG","","","null","","","","","","","","","",""
"651.1000000238419","","image-keyboard-response","283","204945","0.0-283.0","3YGXWBAF713C77USTWK4WWHNJUQ4C0","A2PSR3CMNR1R9X","3G9UA71JVVGUCOKNEKUVXTI6SA17JG","","img/set1/S3.jpg","72","3","structured_load","72","structured_load,random,structured_normal,structured_incentive","4,2,1,2,2,3","2,1,3,4","true","","",""
"null","","html-keyboard-response","284","205298","0.0-284.0","3YGXWBAF713C77USTWK4WWHNJUQ4C0","A2PSR3CMNR1R9X","3G9UA71JVVGUCOKNEKUVXTI6SA17JG","","<img src=""img/set1/S3.jpg"" width=""540"" height = ""360"" style=""border:16px solid orange"">","null","","","","","","","","","",""
"null","","html-keyboard-response","285","205500","0.0-285.0","3YGXWBAF713C77USTWK4WWHNJUQ4C0","A2PSR3CMNR1R9X","3G9UA71JVVGUCOKNEKUVXTI6SA17JG","","","null","","","","","","","","","",""
"417.69999998807907","","image-keyboard-response","286","205920","0.0-286.0","3YGXWBAF713C77USTWK4WWHNJUQ4C0","A2PSR3CMNR1R9X","3G9UA71JVVGUCOKNEKUVXTI6SA17JG","","img/set1/S3.jpg","72","3","structured_load","72","structured_load,random,structured_normal,structured_incentive","4,2,1,2,2,3","2,1,3,4","true","","",""
"null","","html-keyboard-response","287","206273","0.0-287.0","3YGXWBAF713C77USTWK4WWHNJUQ4C0","A2PSR3CMNR1R9X","3G9UA71JVVGUCOKNEKUVXTI6SA17JG","","<img src=""img/set1/S3.jpg"" width=""540"" height = ""360"" style=""border:16px solid orange"">","null","","","","","","","","","",""
"null","","html-keyboard-response","288","206476","0.0-288.0","3YGXWBAF713C77USTWK4WWHNJUQ4C0","A2PSR3CMNR1R9X","3G9UA71JVVGUCOKNEKUVXTI6SA17JG","","","null","","","","","","","","","",""
"627.0999999642372","","image-keyboard-response","289","207105","0.0-289.0","3YGXWBAF713C77USTWK4WWHNJUQ4C0","A2PSR3CMNR1R9X","3G9UA71JVVGUCOKNEKUVXTI6SA17JG","","img/set1/S1.jpg","83","1","structured_load","83","structured_load,random,structured_normal,structured_incentive","4,2,1,2,2,3","2,1,3,4","true","","",""
"null","","html-keyboard-response","290","207459","0.0-290.0","3YGXWBAF713C77USTWK4WWHNJUQ4C0","A2PSR3CMNR1R9X","3G9UA71JVVGUCOKNEKUVXTI6SA17JG","","<img src=""img/set1/S1.jpg"" width=""540"" height = ""360"" style=""border:16px solid orange"">","null","","","","","","","","","",""
"null","","html-keyboard-response","291","207661","0.0-291.0","3YGXWBAF713C77USTWK4WWHNJUQ4C0","A2PSR3CMNR1R9X","3G9UA71JVVGUCOKNEKUVXTI6SA17JG","","","null","","","","","","","","","",""
"649.5","","image-keyboard-response","292","208313","0.0-292.0","3YGXWBAF713C77USTWK4WWHNJUQ4C0","A2PSR3CMNR1R9X","3G9UA71JVVGUCOKNEKUVXTI6SA17JG","","img/set1/S4.jpg","74","4","structured_load","74","structured_load,random,structured_normal,structured_incentive","4,2,1,2,2,3","2,1,3,4","true","","",""
"null","","html-keyboard-response","293","208666","0.0-293.0","3YGXWBAF713C77USTWK4WWHNJUQ4C0","A2PSR3CMNR1R9X","3G9UA71JVVGUCOKNEKUVXTI6SA17JG","","<img src=""img/set1/S4.jpg"" width=""540"" height = ""360"" style=""border:16px solid orange"">","null","","","","","","","","","",""
"null","","html-keyboard-response","294","208869","0.0-294.0","3YGXWBAF713C77USTWK4WWHNJUQ4C0","A2PSR3CMNR1R9X","3G9UA71JVVGUCOKNEKUVXTI6SA17JG","","","null","","","","","","","","","",""
"607.6999999880791","","image-keyboard-response","295","209478","0.0-295.0","3YGXWBAF713C77USTWK4WWHNJUQ4C0","A2PSR3CMNR1R9X","3G9UA71JVVGUCOKNEKUVXTI6SA17JG","","img/set1/S2.jpg","68","2","structured_load","68","structured_load,random,structured_normal,structured_incentive","4,2,1,2,2,3","2,1,3,4","true","","",""
"null","","html-keyboard-response","296","209830","0.0-296.0","3YGXWBAF713C77USTWK4WWHNJUQ4C0","A2PSR3CMNR1R9X","3G9UA71JVVGUCOKNEKUVXTI6SA17JG","","<img src=""img/set1/S2.jpg"" width=""540"" height = ""360"" style=""border:16px solid orange"">","null","","","","","","","","","",""
"null","","html-keyboard-response","297","210032","0.0-297.0","3YGXWBAF713C77USTWK4WWHNJUQ4C0","A2PSR3CMNR1R9X","3G9UA71JVVGUCOKNEKUVXTI6SA17JG","","","null","","","","","","","","","",""
"635.3000000119209","","image-keyboard-response","298","210671","0.0-298.0","3YGXWBAF713C77USTWK4WWHNJUQ4C0","A2PSR3CMNR1R9X","3G9UA71JVVGUCOKNEKUVXTI6SA17JG","","img/set1/S4.jpg","74","4","structured_load","74","structured_load,random,structured_normal,structured_incentive","4,2,1,2,2,3","2,1,3,4","true","","",""
"null","","html-keyboard-response","299","211022","0.0-299.0","3YGXWBAF713C77USTWK4WWHNJUQ4C0","A2PSR3CMNR1R9X","3G9UA71JVVGUCOKNEKUVXTI6SA17JG","","<img src=""img/set1/S4.jpg"" width=""540"" height = ""360"" style=""border:16px solid orange"">","null","","","","","","","","","",""
"null","","html-keyboard-response","300","211224","0.0-300.0","3YGXWBAF713C77USTWK4WWHNJUQ4C0","A2PSR3CMNR1R9X","3G9UA71JVVGUCOKNEKUVXTI6SA17JG","","","null","","","","","","","","","",""
"581.6999999880791","","image-keyboard-response","301","211808","0.0-301.0","3YGXWBAF713C77USTWK4WWHNJUQ4C0","A2PSR3CMNR1R9X","3G9UA71JVVGUCOKNEKUVXTI6SA17JG","","img/set1/S3.jpg","72","3","structured_load","72","structured_load,random,structured_normal,structured_incentive","4,2,1,2,2,3","2,1,3,4","true","","",""
"null","","html-keyboard-response","302","212161","0.0-302.0","3YGXWBAF713C77USTWK4WWHNJUQ4C0","A2PSR3CMNR1R9X","3G9UA71JVVGUCOKNEKUVXTI6SA17JG","","<img src=""img/set1/S3.jpg"" width=""540"" height = ""360"" style=""border:16px solid orange"">","null","","","","","","","","","",""
"null","","html-keyboard-response","303","212363","0.0-303.0","3YGXWBAF713C77USTWK4WWHNJUQ4C0","A2PSR3CMNR1R9X","3G9UA71JVVGUCOKNEKUVXTI6SA17JG","","","null","","","","","","","","","",""
"388.80000001192093","","image-keyboard-response","304","212753","0.0-304.0","3YGXWBAF713C77USTWK4WWHNJUQ4C0","A2PSR3CMNR1R9X","3G9UA71JVVGUCOKNEKUVXTI6SA17JG","","img/set1/S1.jpg","83","1","structured_load","83","structured_load,random,structured_normal,structured_incentive","4,2,1,2,2,3","2,1,3,4","true","","",""
"null","","html-keyboard-response","305","213107","0.0-305.0","3YGXWBAF713C77USTWK4WWHNJUQ4C0","A2PSR3CMNR1R9X","3G9UA71JVVGUCOKNEKUVXTI6SA17JG","","<img src=""img/set1/S1.jpg"" width=""540"" height = ""360"" style=""border:16px solid orange"">","null","","","","","","","","","",""
"null","","html-keyboard-response","306","213309","0.0-306.0","3YGXWBAF713C77USTWK4WWHNJUQ4C0","A2PSR3CMNR1R9X","3G9UA71JVVGUCOKNEKUVXTI6SA17JG","","","null","","","","","","","","","",""
"449.80000001192093","","image-keyboard-response","307","213760","0.0-307.0","3YGXWBAF713C77USTWK4WWHNJUQ4C0","A2PSR3CMNR1R9X","3G9UA71JVVGUCOKNEKUVXTI6SA17JG","","img/set1/S1.jpg","83","1","structured_load","83","structured_load,random,structured_normal,structured_incentive","4,2,1,2,2,3","2,1,3,4","true","","",""
"null","","html-keyboard-response","308","214113","0.0-308.0","3YGXWBAF713C77USTWK4WWHNJUQ4C0","A2PSR3CMNR1R9X","3G9UA71JVVGUCOKNEKUVXTI6SA17JG","","<img src=""img/set1/S1.jpg"" width=""540"" height = ""360"" style=""border:16px solid orange"">","null","","","","","","","","","",""
"null","","html-keyboard-response","309","214319","0.0-309.0","3YGXWBAF713C77USTWK4WWHNJUQ4C0","A2PSR3CMNR1R9X","3G9UA71JVVGUCOKNEKUVXTI6SA17JG","","","null","","","","","","","","","",""
"349.80000001192093","","image-keyboard-response","310","214671","0.0-310.0","3YGXWBAF713C77USTWK4WWHNJUQ4C0","A2PSR3CMNR1R9X","3G9UA71JVVGUCOKNEKUVXTI6SA17JG","","img/set1/S1.jpg","83","1","structured_load","83","structured_load,random,structured_normal,structured_incentive","4,2,1,2,2,3","2,1,3,4","true","","",""
"null","","html-keyboard-response","311","215022","0.0-311.0","3YGXWBAF713C77USTWK4WWHNJUQ4C0","A2PSR3CMNR1R9X","3G9UA71JVVGUCOKNEKUVXTI6SA17JG","","<img src=""img/set1/S1.jpg"" width=""540"" height = ""360"" style=""border:16px solid orange"">","null","","","","","","","","","",""
"null","","html-keyboard-response","312","215224","0.0-312.0","3YGXWBAF713C77USTWK4WWHNJUQ4C0","A2PSR3CMNR1R9X","3G9UA71JVVGUCOKNEKUVXTI6SA17JG","","","null","","","","","","","","","",""
"381.5","","image-keyboard-response","313","215608","0.0-313.0","3YGXWBAF713C77USTWK4WWHNJUQ4C0","A2PSR3CMNR1R9X","3G9UA71JVVGUCOKNEKUVXTI6SA17JG","","img/set1/S1.jpg","83","1","structured_load","83","structured_load,random,structured_normal,structured_incentive","4,2,1,2,2,3","2,1,3,4","true","","",""
"null","","html-keyboard-response","314","215961","0.0-314.0","3YGXWBAF713C77USTWK4WWHNJUQ4C0","A2PSR3CMNR1R9X","3G9UA71JVVGUCOKNEKUVXTI6SA17JG","","<img src=""img/set1/S1.jpg"" width=""540"" height = ""360"" style=""border:16px solid orange"">","null","","","","","","","","","",""
"null","","html-keyboard-response","315","216163","0.0-315.0","3YGXWBAF713C77USTWK4WWHNJUQ4C0","A2PSR3CMNR1R9X","3G9UA71JVVGUCOKNEKUVXTI6SA17JG","","","null","","","","","","","","","",""
"404.4000000357628","","image-keyboard-response","316","216568","0.0-316.0","3YGXWBAF713C77USTWK4WWHNJUQ4C0","A2PSR3CMNR1R9X","3G9UA71JVVGUCOKNEKUVXTI6SA17JG","","img/set1/S1.jpg","83","1","structured_load","83","structured_load,random,structured_normal,structured_incentive","4,2,1,2,2,3","2,1,3,4","true","","",""
"null","","html-keyboard-response","317","216922","0.0-317.0","3YGXWBAF713C77USTWK4WWHNJUQ4C0","A2PSR3CMNR1R9X","3G9UA71JVVGUCOKNEKUVXTI6SA17JG","","<img src=""img/set1/S1.jpg"" width=""540"" height = ""360"" style=""border:16px solid orange"">","null","","","","","","","","","",""
"null","","html-keyboard-response","318","217124","0.0-318.0","3YGXWBAF713C77USTWK4WWHNJUQ4C0","A2PSR3CMNR1R9X","3G9UA71JVVGUCOKNEKUVXTI6SA17JG","","","null","","","","","","","","","",""
"722","","image-keyboard-response","319","217848","0.0-319.0","3YGXWBAF713C77USTWK4WWHNJUQ4C0","A2PSR3CMNR1R9X","3G9UA71JVVGUCOKNEKUVXTI6SA17JG","","img/set1/S3.jpg","72","3","structured_load","72","structured_load,random,structured_normal,structured_incentive","4,2,1,2,2,3","2,1,3,4","true","","",""
"null","","html-keyboard-response","320","218201","0.0-320.0","3YGXWBAF713C77USTWK4WWHNJUQ4C0","A2PSR3CMNR1R9X","3G9UA71JVVGUCOKNEKUVXTI6SA17JG","","<img src=""img/set1/S3.jpg"" width=""540"" height = ""360"" style=""border:16px solid orange"">","null","","","","","","","","","",""
"null","","html-keyboard-response","321","218402","0.0-321.0","3YGXWBAF713C77USTWK4WWHNJUQ4C0","A2PSR3CMNR1R9X","3G9UA71JVVGUCOKNEKUVXTI6SA17JG","","","null","","","","","","","","","",""
"475.9000000357628","","image-keyboard-response","322","218880","0.0-322.0","3YGXWBAF713C77USTWK4WWHNJUQ4C0","A2PSR3CMNR1R9X","3G9UA71JVVGUCOKNEKUVXTI6SA17JG","","img/set1/S3.jpg","72","3","structured_load","72","structured_load,random,structured_normal,structured_incentive","4,2,1,2,2,3","2,1,3,4","true","","",""
"null","","html-keyboard-response","323","219233","0.0-323.0","3YGXWBAF713C77USTWK4WWHNJUQ4C0","A2PSR3CMNR1R9X","3G9UA71JVVGUCOKNEKUVXTI6SA17JG","","<img src=""img/set1/S3.jpg"" width=""540"" height = ""360"" style=""border:16px solid orange"">","null","","","","","","","","","",""
"null","","html-keyboard-response","324","219435","0.0-324.0","3YGXWBAF713C77USTWK4WWHNJUQ4C0","A2PSR3CMNR1R9X","3G9UA71JVVGUCOKNEKUVXTI6SA17JG","","","null","","","","","","","","","",""
"563.3999999761581","","image-keyboard-response","325","220000","0.0-325.0","3YGXWBAF713C77USTWK4WWHNJUQ4C0","A2PSR3CMNR1R9X","3G9UA71JVVGUCOKNEKUVXTI6SA17JG","","img/set1/S4.jpg","74","4","structured_load","74","structured_load,random,structured_normal,structured_incentive","4,2,1,2,2,3","2,1,3,4","true","","",""
"null","","html-keyboard-response","326","220353","0.0-326.0","3YGXWBAF713C77USTWK4WWHNJUQ4C0","A2PSR3CMNR1R9X","3G9UA71JVVGUCOKNEKUVXTI6SA17JG","","<img src=""img/set1/S4.jpg"" width=""540"" height = ""360"" style=""border:16px solid orange"">","null","","","","","","","","","",""
"null","","html-keyboard-response","327","220556","0.0-327.0","3YGXWBAF713C77USTWK4WWHNJUQ4C0","A2PSR3CMNR1R9X","3G9UA71JVVGUCOKNEKUVXTI6SA17JG","","","null","","","","","","","","","",""
"537.9000000357628","","image-keyboard-response","328","221096","0.0-328.0","3YGXWBAF713C77USTWK4WWHNJUQ4C0","A2PSR3CMNR1R9X","3G9UA71JVVGUCOKNEKUVXTI6SA17JG","","img/set1/S2.jpg","68","2","structured_load","68","structured_load,random,structured_normal,structured_incentive","4,2,1,2,2,3","2,1,3,4","true","","",""
"null","","html-keyboard-response","329","221449","0.0-329.0","3YGXWBAF713C77USTWK4WWHNJUQ4C0","A2PSR3CMNR1R9X","3G9UA71JVVGUCOKNEKUVXTI6SA17JG","","<img src=""img/set1/S2.jpg"" width=""540"" height = ""360"" style=""border:16px solid orange"">","null","","","","","","","","","",""
"null","","html-keyboard-response","330","221651","0.0-330.0","3YGXWBAF713C77USTWK4WWHNJUQ4C0","A2PSR3CMNR1R9X","3G9UA71JVVGUCOKNEKUVXTI6SA17JG","","","null","","","","","","","","","",""
"594.7999999523163","","image-keyboard-response","331","222248","0.0-331.0","3YGXWBAF713C77USTWK4WWHNJUQ4C0","A2PSR3CMNR1R9X","3G9UA71JVVGUCOKNEKUVXTI6SA17JG","","img/set1/S3.jpg","72","3","structured_load","72","structured_load,random,structured_normal,structured_incentive","4,2,1,2,2,3","2,1,3,4","true","","",""
"null","","html-keyboard-response","332","222601","0.0-332.0","3YGXWBAF713C77USTWK4WWHNJUQ4C0","A2PSR3CMNR1R9X","3G9UA71JVVGUCOKNEKUVXTI6SA17JG","","<img src=""img/set1/S3.jpg"" width=""540"" height = ""360"" style=""border:16px solid orange"">","null","","","","","","","","","",""
"null","","html-keyboard-response","333","222803","0.0-333.0","3YGXWBAF713C77USTWK4WWHNJUQ4C0","A2PSR3CMNR1R9X","3G9UA71JVVGUCOKNEKUVXTI6SA17JG","","","null","","","","","","","","","",""
"531.1000000238419","","image-keyboard-response","334","223336","0.0-334.0","3YGXWBAF713C77USTWK4WWHNJUQ4C0","A2PSR3CMNR1R9X","3G9UA71JVVGUCOKNEKUVXTI6SA17JG","","img/set1/S4.jpg","74","4","structured_load","74","structured_load,random,structured_normal,structured_incentive","4,2,1,2,2,3","2,1,3,4","true","","",""
"null","","html-keyboard-response","335","223690","0.0-335.0","3YGXWBAF713C77USTWK4WWHNJUQ4C0","A2PSR3CMNR1R9X","3G9UA71JVVGUCOKNEKUVXTI6SA17JG","","<img src=""img/set1/S4.jpg"" width=""540"" height = ""360"" style=""border:16px solid orange"">","null","","","","","","","","","",""
"null","","html-keyboard-response","336","223892","0.0-336.0","3YGXWBAF713C77USTWK4WWHNJUQ4C0","A2PSR3CMNR1R9X","3G9UA71JVVGUCOKNEKUVXTI6SA17JG","","","null","","","","","","","","","",""
"513.1999999880791","","image-keyboard-response","337","224407","0.0-337.0","3YGXWBAF713C77USTWK4WWHNJUQ4C0","A2PSR3CMNR1R9X","3G9UA71JVVGUCOKNEKUVXTI6SA17JG","","img/set1/S2.jpg","68","2","structured_load","68","structured_load,random,structured_normal,structured_incentive","4,2,1,2,2,3","2,1,3,4","true","","",""
"null","","html-keyboard-response","338","224759","0.0-338.0","3YGXWBAF713C77USTWK4WWHNJUQ4C0","A2PSR3CMNR1R9X","3G9UA71JVVGUCOKNEKUVXTI6SA17JG","","<img src=""img/set1/S2.jpg"" width=""540"" height = ""360"" style=""border:16px solid orange"">","null","","","","","","","","","",""
"null","","html-keyboard-response","339","224960","0.0-339.0","3YGXWBAF713C77USTWK4WWHNJUQ4C0","A2PSR3CMNR1R9X","3G9UA71JVVGUCOKNEKUVXTI6SA17JG","","","null","","","","","","","","","",""
"462.10000002384186","","image-keyboard-response","340","225423","0.0-340.0","3YGXWBAF713C77USTWK4WWHNJUQ4C0","A2PSR3CMNR1R9X","3G9UA71JVVGUCOKNEKUVXTI6SA17JG","","img/set1/S1.jpg","83","1","structured_load","83","structured_load,random,structured_normal,structured_incentive","4,2,1,2,2,3","2,1,3,4","true","","",""
"null","","html-keyboard-response","341","225774","0.0-341.0","3YGXWBAF713C77USTWK4WWHNJUQ4C0","A2PSR3CMNR1R9X","3G9UA71JVVGUCOKNEKUVXTI6SA17JG","","<img src=""img/set1/S1.jpg"" width=""540"" height = ""360"" style=""border:16px solid orange"">","null","","","","","","","","","",""
"null","","html-keyboard-response","342","225976","0.0-342.0","3YGXWBAF713C77USTWK4WWHNJUQ4C0","A2PSR3CMNR1R9X","3G9UA71JVVGUCOKNEKUVXTI6SA17JG","","","null","","","","","","","","","",""
"310.4000000357628","","image-keyboard-response","343","226288","0.0-343.0","3YGXWBAF713C77USTWK4WWHNJUQ4C0","A2PSR3CMNR1R9X","3G9UA71JVVGUCOKNEKUVXTI6SA17JG","","img/set1/S3.jpg","83","3","structured_load","72","structured_load,random,structured_normal,structured_incentive","4,2,1,2,2,3","2,1,3,4","false","","",""
"null","","html-keyboard-response","344","226643","0.0-344.0","3YGXWBAF713C77USTWK4WWHNJUQ4C0","A2PSR3CMNR1R9X","3G9UA71JVVGUCOKNEKUVXTI6SA17JG","","<img src=""img/set1/S3.jpg"" width=""540"" height = ""360"">","null","","","","","","","","","",""
"null","","html-keyboard-response","345","226845","0.0-345.0","3YGXWBAF713C77USTWK4WWHNJUQ4C0","A2PSR3CMNR1R9X","3G9UA71JVVGUCOKNEKUVXTI6SA17JG","","","null","","","","","","","","","",""
"625.8999999761581","","image-keyboard-response","346","227472","0.0-346.0","3YGXWBAF713C77USTWK4WWHNJUQ4C0","A2PSR3CMNR1R9X","3G9UA71JVVGUCOKNEKUVXTI6SA17JG","","img/set1/S4.jpg","74","4","structured_load","74","structured_load,random,structured_normal,structured_incentive","4,2,1,2,2,3","2,1,3,4","true","","",""
"null","","html-keyboard-response","347","227825","0.0-347.0","3YGXWBAF713C77USTWK4WWHNJUQ4C0","A2PSR3CMNR1R9X","3G9UA71JVVGUCOKNEKUVXTI6SA17JG","","<img src=""img/set1/S4.jpg"" width=""540"" height = ""360"" style=""border:16px solid orange"">","null","","","","","","","","","",""
"null","","html-keyboard-response","348","228027","0.0-348.0","3YGXWBAF713C77USTWK4WWHNJUQ4C0","A2PSR3CMNR1R9X","3G9UA71JVVGUCOKNEKUVXTI6SA17JG","","","null","","","","","","","","","",""
"562.8999999761581","","image-keyboard-response","349","228592","0.0-349.0","3YGXWBAF713C77USTWK4WWHNJUQ4C0","A2PSR3CMNR1R9X","3G9UA71JVVGUCOKNEKUVXTI6SA17JG","","img/set1/S2.jpg","68","2","structured_load","68","structured_load,random,structured_normal,structured_incentive","4,2,1,2,2,3","2,1,3,4","true","","",""
"null","","html-keyboard-response","350","228945","0.0-350.0","3YGXWBAF713C77USTWK4WWHNJUQ4C0","A2PSR3CMNR1R9X","3G9UA71JVVGUCOKNEKUVXTI6SA17JG","","<img src=""img/set1/S2.jpg"" width=""540"" height = ""360"" style=""border:16px solid orange"">","null","","","","","","","","","",""
"null","","html-keyboard-response","351","229147","0.0-351.0","3YGXWBAF713C77USTWK4WWHNJUQ4C0","A2PSR3CMNR1R9X","3G9UA71JVVGUCOKNEKUVXTI6SA17JG","","","null","","","","","","","","","",""
"634.8999999761581","","image-keyboard-response","352","229784","0.0-352.0","3YGXWBAF713C77USTWK4WWHNJUQ4C0","A2PSR3CMNR1R9X","3G9UA71JVVGUCOKNEKUVXTI6SA17JG","","img/set1/S1.jpg","83","1","structured_load","83","structured_load,random,structured_normal,structured_incentive","4,2,1,2,2,3","2,1,3,4","true","","",""
"null","","html-keyboard-response","353","230138","0.0-353.0","3YGXWBAF713C77USTWK4WWHNJUQ4C0","A2PSR3CMNR1R9X","3G9UA71JVVGUCOKNEKUVXTI6SA17JG","","<img src=""img/set1/S1.jpg"" width=""540"" height = ""360"" style=""border:16px solid orange"">","null","","","","","","","","","",""
"null","","html-keyboard-response","354","230339","0.0-354.0","3YGXWBAF713C77USTWK4WWHNJUQ4C0","A2PSR3CMNR1R9X","3G9UA71JVVGUCOKNEKUVXTI6SA17JG","","","null","","","","","","","","","",""
"666.8999999761581","","image-keyboard-response","355","231009","0.0-355.0","3YGXWBAF713C77USTWK4WWHNJUQ4C0","A2PSR3CMNR1R9X","3G9UA71JVVGUCOKNEKUVXTI6SA17JG","","img/set1/S4.jpg","74","4","structured_load","74","structured_load,random,structured_normal,structured_incentive","4,2,1,2,2,3","2,1,3,4","true","","",""
"null","","html-keyboard-response","356","231361","0.0-356.0","3YGXWBAF713C77USTWK4WWHNJUQ4C0","A2PSR3CMNR1R9X","3G9UA71JVVGUCOKNEKUVXTI6SA17JG","","<img src=""img/set1/S4.jpg"" width=""540"" height = ""360"" style=""border:16px solid orange"">","null","","","","","","","","","",""
"null","","html-keyboard-response","357","231564","0.0-357.0","3YGXWBAF713C77USTWK4WWHNJUQ4C0","A2PSR3CMNR1R9X","3G9UA71JVVGUCOKNEKUVXTI6SA17JG","","","null","","","","","","","","","",""
"474.19999998807907","","image-keyboard-response","358","232040","0.0-358.0","3YGXWBAF713C77USTWK4WWHNJUQ4C0","A2PSR3CMNR1R9X","3G9UA71JVVGUCOKNEKUVXTI6SA17JG","","img/set1/S2.jpg","83","2","structured_load","68","structured_load,random,structured_normal,structured_incentive","4,2,1,2,2,3","2,1,3,4","false","","",""
"null","","html-keyboard-response","359","232393","0.0-359.0","3YGXWBAF713C77USTWK4WWHNJUQ4C0","A2PSR3CMNR1R9X","3G9UA71JVVGUCOKNEKUVXTI6SA17JG","","<img src=""img/set1/S2.jpg"" width=""540"" height = ""360"">","null","","","","","","","","","",""
"null","","html-keyboard-response","360","232596","0.0-360.0","3YGXWBAF713C77USTWK4WWHNJUQ4C0","A2PSR3CMNR1R9X","3G9UA71JVVGUCOKNEKUVXTI6SA17JG","","","null","","","","","","","","","",""
"450.4000000357628","","image-keyboard-response","361","233048","0.0-361.0","3YGXWBAF713C77USTWK4WWHNJUQ4C0","A2PSR3CMNR1R9X","3G9UA71JVVGUCOKNEKUVXTI6SA17JG","","img/set1/S2.jpg","68","2","structured_load","68","structured_load,random,structured_normal,structured_incentive","4,2,1,2,2,3","2,1,3,4","true","","",""
"null","","html-keyboard-response","362","233402","0.0-362.0","3YGXWBAF713C77USTWK4WWHNJUQ4C0","A2PSR3CMNR1R9X","3G9UA71JVVGUCOKNEKUVXTI6SA17JG","","<img src=""img/set1/S2.jpg"" width=""540"" height = ""360"" style=""border:16px solid orange"">","null","","","","","","","","","",""
"null","","html-keyboard-response","363","233605","0.0-363.0","3YGXWBAF713C77USTWK4WWHNJUQ4C0","A2PSR3CMNR1R9X","3G9UA71JVVGUCOKNEKUVXTI6SA17JG","","","null","","","","","","","","","",""
"344.19999998807907","","image-keyboard-response","364","233951","0.0-364.0","3YGXWBAF713C77USTWK4WWHNJUQ4C0","A2PSR3CMNR1R9X","3G9UA71JVVGUCOKNEKUVXTI6SA17JG","","img/set1/S2.jpg","68","2","structured_load","68","structured_load,random,structured_normal,structured_incentive","4,2,1,2,2,3","2,1,3,4","true","","",""
"null","","html-keyboard-response","365","234302","0.0-365.0","3YGXWBAF713C77USTWK4WWHNJUQ4C0","A2PSR3CMNR1R9X","3G9UA71JVVGUCOKNEKUVXTI6SA17JG","","<img src=""img/set1/S2.jpg"" width=""540"" height = ""360"" style=""border:16px solid orange"">","null","","","","","","","","","",""
"null","","html-keyboard-response","366","234505","0.0-366.0","3YGXWBAF713C77USTWK4WWHNJUQ4C0","A2PSR3CMNR1R9X","3G9UA71JVVGUCOKNEKUVXTI6SA17JG","","","null","","","","","","","","","",""
"323.7999999523163","","image-keyboard-response","367","234830","0.0-367.0","3YGXWBAF713C77USTWK4WWHNJUQ4C0","A2PSR3CMNR1R9X","3G9UA71JVVGUCOKNEKUVXTI6SA17JG","","img/set1/S2.jpg","68","2","structured_load","68","structured_load,random,structured_normal,structured_incentive","4,2,1,2,2,3","2,1,3,4","true","","",""
"null","","html-keyboard-response","368","235182","0.0-368.0","3YGXWBAF713C77USTWK4WWHNJUQ4C0","A2PSR3CMNR1R9X","3G9UA71JVVGUCOKNEKUVXTI6SA17JG","","<img src=""img/set1/S2.jpg"" width=""540"" height = ""360"" style=""border:16px solid orange"">","null","","","","","","","","","",""
"null","","html-keyboard-response","369","235385","0.0-369.0","3YGXWBAF713C77USTWK4WWHNJUQ4C0","A2PSR3CMNR1R9X","3G9UA71JVVGUCOKNEKUVXTI6SA17JG","","","null","","","","","","","","","",""
"324.69999998807907","","image-keyboard-response","370","235712","0.0-370.0","3YGXWBAF713C77USTWK4WWHNJUQ4C0","A2PSR3CMNR1R9X","3G9UA71JVVGUCOKNEKUVXTI6SA17JG","","img/set1/S1.jpg","68","1","structured_load","83","structured_load,random,structured_normal,structured_incentive","4,2,1,2,2,3","2,1,3,4","false","","",""
"null","","html-keyboard-response","371","236065","0.0-371.0","3YGXWBAF713C77USTWK4WWHNJUQ4C0","A2PSR3CMNR1R9X","3G9UA71JVVGUCOKNEKUVXTI6SA17JG","","<img src=""img/set1/S1.jpg"" width=""540"" height = ""360"">","null","","","","","","","","","",""
"null","","html-keyboard-response","372","236268","0.0-372.0","3YGXWBAF713C77USTWK4WWHNJUQ4C0","A2PSR3CMNR1R9X","3G9UA71JVVGUCOKNEKUVXTI6SA17JG","","","null","","","","","","","","","",""
"730.6000000238419","","image-keyboard-response","373","237000","0.0-373.0","3YGXWBAF713C77USTWK4WWHNJUQ4C0","A2PSR3CMNR1R9X","3G9UA71JVVGUCOKNEKUVXTI6SA17JG","","img/set1/S3.jpg","72","3","structured_load","72","structured_load,random,structured_normal,structured_incentive","4,2,1,2,2,3","2,1,3,4","true","","",""
"null","","html-keyboard-response","374","237354","0.0-374.0","3YGXWBAF713C77USTWK4WWHNJUQ4C0","A2PSR3CMNR1R9X","3G9UA71JVVGUCOKNEKUVXTI6SA17JG","","<img src=""img/set1/S3.jpg"" width=""540"" height = ""360"" style=""border:16px solid orange"">","null","","","","","","","","","",""
"null","","html-keyboard-response","375","237556","0.0-375.0","3YGXWBAF713C77USTWK4WWHNJUQ4C0","A2PSR3CMNR1R9X","3G9UA71JVVGUCOKNEKUVXTI6SA17JG","","","null","","","","","","","","","",""
"391.4000000357628","","image-keyboard-response","376","237950","0.0-376.0","3YGXWBAF713C77USTWK4WWHNJUQ4C0","A2PSR3CMNR1R9X","3G9UA71JVVGUCOKNEKUVXTI6SA17JG","","img/set1/S3.jpg","72","3","structured_load","72","structured_load,random,structured_normal,structured_incentive","4,2,1,2,2,3","2,1,3,4","true","","",""
"null","","html-keyboard-response","377","238302","0.0-377.0","3YGXWBAF713C77USTWK4WWHNJUQ4C0","A2PSR3CMNR1R9X","3G9UA71JVVGUCOKNEKUVXTI6SA17JG","","<img src=""img/set1/S3.jpg"" width=""540"" height = ""360"" style=""border:16px solid orange"">","null","","","","","","","","","",""
"null","","html-keyboard-response","378","238503","0.0-378.0","3YGXWBAF713C77USTWK4WWHNJUQ4C0","A2PSR3CMNR1R9X","3G9UA71JVVGUCOKNEKUVXTI6SA17JG","","","null","","","","","","","","","",""
"441.10000002384186","","image-keyboard-response","379","238946","0.0-379.0","3YGXWBAF713C77USTWK4WWHNJUQ4C0","A2PSR3CMNR1R9X","3G9UA71JVVGUCOKNEKUVXTI6SA17JG","","img/set1/S3.jpg","72","3","structured_load","72","structured_load,random,structured_normal,structured_incentive","4,2,1,2,2,3","2,1,3,4","true","","",""
"null","","html-keyboard-response","380","239297","0.0-380.0","3YGXWBAF713C77USTWK4WWHNJUQ4C0","A2PSR3CMNR1R9X","3G9UA71JVVGUCOKNEKUVXTI6SA17JG","","<img src=""img/set1/S3.jpg"" width=""540"" height = ""360"" style=""border:16px solid orange"">","null","","","","","","","","","",""
"null","","html-keyboard-response","381","239499","0.0-381.0","3YGXWBAF713C77USTWK4WWHNJUQ4C0","A2PSR3CMNR1R9X","3G9UA71JVVGUCOKNEKUVXTI6SA17JG","","","null","","","","","","","","","",""
"874.8000000119209","","image-keyboard-response","382","240376","0.0-382.0","3YGXWBAF713C77USTWK4WWHNJUQ4C0","A2PSR3CMNR1R9X","3G9UA71JVVGUCOKNEKUVXTI6SA17JG","","img/set1/S1.jpg","83","1","structured_load","83","structured_load,random,structured_normal,structured_incentive","4,2,1,2,2,3","2,1,3,4","true","","",""
"null","","html-keyboard-response","383","240729","0.0-383.0","3YGXWBAF713C77USTWK4WWHNJUQ4C0","A2PSR3CMNR1R9X","3G9UA71JVVGUCOKNEKUVXTI6SA17JG","","<img src=""img/set1/S1.jpg"" width=""540"" height = ""360"" style=""border:16px solid orange"">","null","","","","","","","","","",""
