"rt","url","trial_type","trial_index","time_elapsed","internal_node_id","assignmentID","mturkID","hitID","view_history","stimulus","key_press","state","test_part","correct_response","order_block","order_chunk","order_freq","correct","responses","question_order","bonus"
"7769.199999988079","consent.html","external-html","0","7855","0.0-0.0","3EJPLAJKEN23UN9G4YXR4S2MO3HZ6E","A2T1LNI80EPOQR","3URJ6VVYUP9BUCT1SZOT2DFI02L4OC","","","","","","","","","","","","",""
"75458.79999999702","","instructions","1","83319","0.0-1.0","3EJPLAJKEN23UN9G4YXR4S2MO3HZ6E","A2T1LNI80EPOQR","3URJ6VVYUP9BUCT1SZOT2DFI02L4OC","[{""page_index"":0,""viewing_time"":11476.79999999702},{""page_index"":1,""viewing_time"":8273.60000000894},{""page_index"":2,""viewing_time"":13531},{""page_index"":3,""viewing_time"":13853.09999999404},{""page_index"":4,""viewing_time"":5733.70000000298},{""page_index"":5,""viewing_time"":11727.59999999404},{""page_index"":6,""viewing_time"":10862.29999999702}]","","","","","","","","","","","",""
"9087.70000000298","","instructions","2","92407","0.0-2.0","3EJPLAJKEN23UN9G4YXR4S2MO3HZ6E","A2T1LNI80EPOQR","3URJ6VVYUP9BUCT1SZOT2DFI02L4OC","[{""page_index"":0,""viewing_time"":9087.5}]","","","","","","","","","","","",""
"19143.79999999702","","instructions","3","111556","0.0-3.0","3EJPLAJKEN23UN9G4YXR4S2MO3HZ6E","A2T1LNI80EPOQR","3URJ6VVYUP9BUCT1SZOT2DFI02L4OC","[{""page_index"":0,""viewing_time"":13887},{""page_index"":1,""viewing_time"":5256.5999999940395}]","","","","","","","","","","","",""
"2316","","image-keyboard-response","4","113873","0.0-4.0","3EJPLAJKEN23UN9G4YXR4S2MO3HZ6E","A2T1LNI80EPOQR","3URJ6VVYUP9BUCT1SZOT2DFI02L4OC","","img/set1/S3.jpg","68","3","structured_load","72","structured_load,structured_normal,structured_incentive,random","1,2,2,3,4,2","3,1,2,4","false","","",""
"null","","html-keyboard-response","5","114226","0.0-5.0","3EJPLAJKEN23UN9G4YXR4S2MO3HZ6E","A2T1LNI80EPOQR","3URJ6VVYUP9BUCT1SZOT2DFI02L4OC","","<img src=""img/set1/S3.jpg"" width=""540"" height = ""360"">","null","","","","","","","","","",""
"null","","html-keyboard-response","6","114445","0.0-6.0","3EJPLAJKEN23UN9G4YXR4S2MO3HZ6E","A2T1LNI80EPOQR","3URJ6VVYUP9BUCT1SZOT2DFI02L4OC","","","null","","","","","","","","","",""
"1481.3999999910593","","image-keyboard-response","7","115927","0.0-7.0","3EJPLAJKEN23UN9G4YXR4S2MO3HZ6E","A2T1LNI80EPOQR","3URJ6VVYUP9BUCT1SZOT2DFI02L4OC","","img/set1/S1.jpg","72","1","structured_load","83","structured_load,structured_normal,structured_incentive,random","1,2,2,3,4,2","3,1,2,4","false","","",""
"null","","html-keyboard-response","8","116282","0.0-8.0","3EJPLAJKEN23UN9G4YXR4S2MO3HZ6E","A2T1LNI80EPOQR","3URJ6VVYUP9BUCT1SZOT2DFI02L4OC","","<img src=""img/set1/S1.jpg"" width=""540"" height = ""360"">","null","","","","","","","","","",""
"null","","html-keyboard-response","9","116485","0.0-9.0","3EJPLAJKEN23UN9G4YXR4S2MO3HZ6E","A2T1LNI80EPOQR","3URJ6VVYUP9BUCT1SZOT2DFI02L4OC","","","null","","","","","","","","","",""
"1220.7000000029802","","image-keyboard-response","10","117706","0.0-10.0","3EJPLAJKEN23UN9G4YXR4S2MO3HZ6E","A2T1LNI80EPOQR","3URJ6VVYUP9BUCT1SZOT2DFI02L4OC","","img/set1/S2.jpg","83","2","structured_load","68","structured_load,structured_normal,structured_incentive,random","1,2,2,3,4,2","3,1,2,4","false","","",""
"null","","html-keyboard-response","11","118062","0.0-11.0","3EJPLAJKEN23UN9G4YXR4S2MO3HZ6E","A2T1LNI80EPOQR","3URJ6VVYUP9BUCT1SZOT2DFI02L4OC","","<img src=""img/set1/S2.jpg"" width=""540"" height = ""360"">","null","","","","","","","","","",""
"null","","html-keyboard-response","12","118263","0.0-12.0","3EJPLAJKEN23UN9G4YXR4S2MO3HZ6E","A2T1LNI80EPOQR","3URJ6VVYUP9BUCT1SZOT2DFI02L4OC","","","null","","","","","","","","","",""
"1577.5999999940395","","image-keyboard-response","13","119841","0.0-13.0","3EJPLAJKEN23UN9G4YXR4S2MO3HZ6E","A2T1LNI80EPOQR","3URJ6VVYUP9BUCT1SZOT2DFI02L4OC","","img/set1/S3.jpg","74","3","structured_load","72","structured_load,structured_normal,structured_incentive,random","1,2,2,3,4,2","3,1,2,4","false","","",""
"null","","html-keyboard-response","14","120202","0.0-14.0","3EJPLAJKEN23UN9G4YXR4S2MO3HZ6E","A2T1LNI80EPOQR","3URJ6VVYUP9BUCT1SZOT2DFI02L4OC","","<img src=""img/set1/S3.jpg"" width=""540"" height = ""360"">","null","","","","","","","","","",""
"null","","html-keyboard-response","15","120405","0.0-15.0","3EJPLAJKEN23UN9G4YXR4S2MO3HZ6E","A2T1LNI80EPOQR","3URJ6VVYUP9BUCT1SZOT2DFI02L4OC","","","null","","","","","","","","","",""
"1319.3999999910593","","image-keyboard-response","16","121725","0.0-16.0","3EJPLAJKEN23UN9G4YXR4S2MO3HZ6E","A2T1LNI80EPOQR","3URJ6VVYUP9BUCT1SZOT2DFI02L4OC","","img/set1/S1.jpg","74","1","structured_load","83","structured_load,structured_normal,structured_incentive,random","1,2,2,3,4,2","3,1,2,4","false","","",""
"null","","html-keyboard-response","17","122083","0.0-17.0","3EJPLAJKEN23UN9G4YXR4S2MO3HZ6E","A2T1LNI80EPOQR","3URJ6VVYUP9BUCT1SZOT2DFI02L4OC","","<img src=""img/set1/S1.jpg"" width=""540"" height = ""360"">","null","","","","","","","","","",""
"null","","html-keyboard-response","18","122286","0.0-18.0","3EJPLAJKEN23UN9G4YXR4S2MO3HZ6E","A2T1LNI80EPOQR","3URJ6VVYUP9BUCT1SZOT2DFI02L4OC","","","null","","","","","","","","","",""
"1285.2000000029802","","image-keyboard-response","19","123572","0.0-19.0","3EJPLAJKEN23UN9G4YXR4S2MO3HZ6E","A2T1LNI80EPOQR","3URJ6VVYUP9BUCT1SZOT2DFI02L4OC","","img/set1/S2.jpg","68","2","structured_load","68","structured_load,structured_normal,structured_incentive,random","1,2,2,3,4,2","3,1,2,4","true","","",""
"null","","html-keyboard-response","20","123937","0.0-20.0","3EJPLAJKEN23UN9G4YXR4S2MO3HZ6E","A2T1LNI80EPOQR","3URJ6VVYUP9BUCT1SZOT2DFI02L4OC","","<img src=""img/set1/S2.jpg"" width=""540"" height = ""360"" style=""border:16px solid orange"">","null","","","","","","","","","",""
"null","","html-keyboard-response","21","124140","0.0-21.0","3EJPLAJKEN23UN9G4YXR4S2MO3HZ6E","A2T1LNI80EPOQR","3URJ6VVYUP9BUCT1SZOT2DFI02L4OC","","","null","","","","","","","","","",""
"1574.5999999940395","","image-keyboard-response","22","125715","0.0-22.0","3EJPLAJKEN23UN9G4YXR4S2MO3HZ6E","A2T1LNI80EPOQR","3URJ6VVYUP9BUCT1SZOT2DFI02L4OC","","img/set1/S4.jpg","72","4","structured_load","74","structured_load,structured_normal,structured_incentive,random","1,2,2,3,4,2","3,1,2,4","false","","",""
"null","","html-keyboard-response","23","126080","0.0-23.0","3EJPLAJKEN23UN9G4YXR4S2MO3HZ6E","A2T1LNI80EPOQR","3URJ6VVYUP9BUCT1SZOT2DFI02L4OC","","<img src=""img/set1/S4.jpg"" width=""540"" height = ""360"">","null","","","","","","","","","",""
"null","","html-keyboard-response","24","126295","0.0-24.0","3EJPLAJKEN23UN9G4YXR4S2MO3HZ6E","A2T1LNI80EPOQR","3URJ6VVYUP9BUCT1SZOT2DFI02L4OC","","","null","","","","","","","","","",""
"1028.3999999910593","","image-keyboard-response","25","127324","0.0-25.0","3EJPLAJKEN23UN9G4YXR4S2MO3HZ6E","A2T1LNI80EPOQR","3URJ6VVYUP9BUCT1SZOT2DFI02L4OC","","img/set1/S4.jpg","74","4","structured_load","74","structured_load,structured_normal,structured_incentive,random","1,2,2,3,4,2","3,1,2,4","true","","",""
"null","","html-keyboard-response","26","127681","0.0-26.0","3EJPLAJKEN23UN9G4YXR4S2MO3HZ6E","A2T1LNI80EPOQR","3URJ6VVYUP9BUCT1SZOT2DFI02L4OC","","<img src=""img/set1/S4.jpg"" width=""540"" height = ""360"" style=""border:16px solid orange"">","null","","","","","","","","","",""
"null","","html-keyboard-response","27","127883","0.0-27.0","3EJPLAJKEN23UN9G4YXR4S2MO3HZ6E","A2T1LNI80EPOQR","3URJ6VVYUP9BUCT1SZOT2DFI02L4OC","","","null","","","","","","","","","",""
"836.9000000059605","","image-keyboard-response","28","128721","0.0-28.0","3EJPLAJKEN23UN9G4YXR4S2MO3HZ6E","A2T1LNI80EPOQR","3URJ6VVYUP9BUCT1SZOT2DFI02L4OC","","img/set1/S4.jpg","74","4","structured_load","74","structured_load,structured_normal,structured_incentive,random","1,2,2,3,4,2","3,1,2,4","true","","",""
"null","","html-keyboard-response","29","129086","0.0-29.0","3EJPLAJKEN23UN9G4YXR4S2MO3HZ6E","A2T1LNI80EPOQR","3URJ6VVYUP9BUCT1SZOT2DFI02L4OC","","<img src=""img/set1/S4.jpg"" width=""540"" height = ""360"" style=""border:16px solid orange"">","null","","","","","","","","","",""
"null","","html-keyboard-response","30","129288","0.0-30.0","3EJPLAJKEN23UN9G4YXR4S2MO3HZ6E","A2T1LNI80EPOQR","3URJ6VVYUP9BUCT1SZOT2DFI02L4OC","","","null","","","","","","","","","",""
"1088","","image-keyboard-response","31","130377","0.0-31.0","3EJPLAJKEN23UN9G4YXR4S2MO3HZ6E","A2T1LNI80EPOQR","3URJ6VVYUP9BUCT1SZOT2DFI02L4OC","","img/set1/S2.jpg","83","2","structured_load","68","structured_load,structured_normal,structured_incentive,random","1,2,2,3,4,2","3,1,2,4","false","","",""
"null","","html-keyboard-response","32","130738","0.0-32.0","3EJPLAJKEN23UN9G4YXR4S2MO3HZ6E","A2T1LNI80EPOQR","3URJ6VVYUP9BUCT1SZOT2DFI02L4OC","","<img src=""img/set1/S2.jpg"" width=""540"" height = ""360"">","null","","","","","","","","","",""
"null","","html-keyboard-response","33","130954","0.0-33.0","3EJPLAJKEN23UN9G4YXR4S2MO3HZ6E","A2T1LNI80EPOQR","3URJ6VVYUP9BUCT1SZOT2DFI02L4OC","","","null","","","","","","","","","",""
"878","","image-keyboard-response","34","131833","0.0-34.0","3EJPLAJKEN23UN9G4YXR4S2MO3HZ6E","A2T1LNI80EPOQR","3URJ6VVYUP9BUCT1SZOT2DFI02L4OC","","img/set1/S2.jpg","68","2","structured_load","68","structured_load,structured_normal,structured_incentive,random","1,2,2,3,4,2","3,1,2,4","true","","",""
"null","","html-keyboard-response","35","132198","0.0-35.0","3EJPLAJKEN23UN9G4YXR4S2MO3HZ6E","A2T1LNI80EPOQR","3URJ6VVYUP9BUCT1SZOT2DFI02L4OC","","<img src=""img/set1/S2.jpg"" width=""540"" height = ""360"" style=""border:16px solid orange"">","null","","","","","","","","","",""
"null","","html-keyboard-response","36","132400","0.0-36.0","3EJPLAJKEN23UN9G4YXR4S2MO3HZ6E","A2T1LNI80EPOQR","3URJ6VVYUP9BUCT1SZOT2DFI02L4OC","","","null","","","","","","","","","",""
"1116.8999999910593","","image-keyboard-response","37","133517","0.0-37.0","3EJPLAJKEN23UN9G4YXR4S2MO3HZ6E","A2T1LNI80EPOQR","3URJ6VVYUP9BUCT1SZOT2DFI02L4OC","","img/set1/S3.jpg","74","3","structured_load","72","structured_load,structured_normal,structured_incentive,random","1,2,2,3,4,2","3,1,2,4","false","","",""
"null","","html-keyboard-response","38","133869","0.0-38.0","3EJPLAJKEN23UN9G4YXR4S2MO3HZ6E","A2T1LNI80EPOQR","3URJ6VVYUP9BUCT1SZOT2DFI02L4OC","","<img src=""img/set1/S3.jpg"" width=""540"" height = ""360"">","null","","","","","","","","","",""
"null","","html-keyboard-response","39","134071","0.0-39.0","3EJPLAJKEN23UN9G4YXR4S2MO3HZ6E","A2T1LNI80EPOQR","3URJ6VVYUP9BUCT1SZOT2DFI02L4OC","","","null","","","","","","","","","",""
"897.2999999970198","","image-keyboard-response","40","134969","0.0-40.0","3EJPLAJKEN23UN9G4YXR4S2MO3HZ6E","A2T1LNI80EPOQR","3URJ6VVYUP9BUCT1SZOT2DFI02L4OC","","img/set1/S1.jpg","74","1","structured_load","83","structured_load,structured_normal,structured_incentive,random","1,2,2,3,4,2","3,1,2,4","false","","",""
"null","","html-keyboard-response","41","135330","0.0-41.0","3EJPLAJKEN23UN9G4YXR4S2MO3HZ6E","A2T1LNI80EPOQR","3URJ6VVYUP9BUCT1SZOT2DFI02L4OC","","<img src=""img/set1/S1.jpg"" width=""540"" height = ""360"">","null","","","","","","","","","",""
"null","","html-keyboard-response","42","135532","0.0-42.0","3EJPLAJKEN23UN9G4YXR4S2MO3HZ6E","A2T1LNI80EPOQR","3URJ6VVYUP9BUCT1SZOT2DFI02L4OC","","","null","","","","","","","","","",""
"1331.7000000029802","","image-keyboard-response","43","136865","0.0-43.0","3EJPLAJKEN23UN9G4YXR4S2MO3HZ6E","A2T1LNI80EPOQR","3URJ6VVYUP9BUCT1SZOT2DFI02L4OC","","img/set1/S2.jpg","68","2","structured_load","68","structured_load,structured_normal,structured_incentive,random","1,2,2,3,4,2","3,1,2,4","true","","",""
"null","","html-keyboard-response","44","137225","0.0-44.0","3EJPLAJKEN23UN9G4YXR4S2MO3HZ6E","A2T1LNI80EPOQR","3URJ6VVYUP9BUCT1SZOT2DFI02L4OC","","<img src=""img/set1/S2.jpg"" width=""540"" height = ""360"" style=""border:16px solid orange"">","null","","","","","","","","","",""
"null","","html-keyboard-response","45","137429","0.0-45.0","3EJPLAJKEN23UN9G4YXR4S2MO3HZ6E","A2T1LNI80EPOQR","3URJ6VVYUP9BUCT1SZOT2DFI02L4OC","","","null","","","","","","","","","",""
"1556.7999999970198","","image-keyboard-response","46","138986","0.0-46.0","3EJPLAJKEN23UN9G4YXR4S2MO3HZ6E","A2T1LNI80EPOQR","3URJ6VVYUP9BUCT1SZOT2DFI02L4OC","","img/set1/S3.jpg","83","3","structured_load","72","structured_load,structured_normal,structured_incentive,random","1,2,2,3,4,2","3,1,2,4","false","","",""
"null","","html-keyboard-response","47","139339","0.0-47.0","3EJPLAJKEN23UN9G4YXR4S2MO3HZ6E","A2T1LNI80EPOQR","3URJ6VVYUP9BUCT1SZOT2DFI02L4OC","","<img src=""img/set1/S3.jpg"" width=""540"" height = ""360"">","null","","","","","","","","","",""
"null","","html-keyboard-response","48","139555","0.0-48.0","3EJPLAJKEN23UN9G4YXR4S2MO3HZ6E","A2T1LNI80EPOQR","3URJ6VVYUP9BUCT1SZOT2DFI02L4OC","","","null","","","","","","","","","",""
"1035.699999988079","","image-keyboard-response","49","140599","0.0-49.0","3EJPLAJKEN23UN9G4YXR4S2MO3HZ6E","A2T1LNI80EPOQR","3URJ6VVYUP9BUCT1SZOT2DFI02L4OC","","img/set1/S4.jpg","74","4","structured_load","74","structured_load,structured_normal,structured_incentive,random","1,2,2,3,4,2","3,1,2,4","true","","",""
"null","","html-keyboard-response","50","140960","0.0-50.0","3EJPLAJKEN23UN9G4YXR4S2MO3HZ6E","A2T1LNI80EPOQR","3URJ6VVYUP9BUCT1SZOT2DFI02L4OC","","<img src=""img/set1/S4.jpg"" width=""540"" height = ""360"" style=""border:16px solid orange"">","null","","","","","","","","","",""
"null","","html-keyboard-response","51","141161","0.0-51.0","3EJPLAJKEN23UN9G4YXR4S2MO3HZ6E","A2T1LNI80EPOQR","3URJ6VVYUP9BUCT1SZOT2DFI02L4OC","","","null","","","","","","","","","",""
"1189.6000000089407","","image-keyboard-response","52","142352","0.0-52.0","3EJPLAJKEN23UN9G4YXR4S2MO3HZ6E","A2T1LNI80EPOQR","3URJ6VVYUP9BUCT1SZOT2DFI02L4OC","","img/set1/S1.jpg","68","1","structured_load","83","structured_load,structured_normal,structured_incentive,random","1,2,2,3,4,2","3,1,2,4","false","","",""
"null","","html-keyboard-response","53","142714","0.0-53.0","3EJPLAJKEN23UN9G4YXR4S2MO3HZ6E","A2T1LNI80EPOQR","3URJ6VVYUP9BUCT1SZOT2DFI02L4OC","","<img src=""img/set1/S1.jpg"" width=""540"" height = ""360"">","null","","","","","","","","","",""
"null","","html-keyboard-response","54","142931","0.0-54.0","3EJPLAJKEN23UN9G4YXR4S2MO3HZ6E","A2T1LNI80EPOQR","3URJ6VVYUP9BUCT1SZOT2DFI02L4OC","","","null","","","","","","","","","",""
"1064.2000000029802","","image-keyboard-response","55","143996","0.0-55.0","3EJPLAJKEN23UN9G4YXR4S2MO3HZ6E","A2T1LNI80EPOQR","3URJ6VVYUP9BUCT1SZOT2DFI02L4OC","","img/set1/S4.jpg","74","4","structured_load","74","structured_load,structured_normal,structured_incentive,random","1,2,2,3,4,2","3,1,2,4","true","","",""
"null","","html-keyboard-response","56","144350","0.0-56.0","3EJPLAJKEN23UN9G4YXR4S2MO3HZ6E","A2T1LNI80EPOQR","3URJ6VVYUP9BUCT1SZOT2DFI02L4OC","","<img src=""img/set1/S4.jpg"" width=""540"" height = ""360"" style=""border:16px solid orange"">","null","","","","","","","","","",""
"null","","html-keyboard-response","57","144555","0.0-57.0","3EJPLAJKEN23UN9G4YXR4S2MO3HZ6E","A2T1LNI80EPOQR","3URJ6VVYUP9BUCT1SZOT2DFI02L4OC","","","null","","","","","","","","","",""
"1087.9000000059605","","image-keyboard-response","58","145643","0.0-58.0","3EJPLAJKEN23UN9G4YXR4S2MO3HZ6E","A2T1LNI80EPOQR","3URJ6VVYUP9BUCT1SZOT2DFI02L4OC","","img/set1/S3.jpg","83","3","structured_load","72","structured_load,structured_normal,structured_incentive,random","1,2,2,3,4,2","3,1,2,4","false","","",""
"null","","html-keyboard-response","59","145999","0.0-59.0","3EJPLAJKEN23UN9G4YXR4S2MO3HZ6E","A2T1LNI80EPOQR","3URJ6VVYUP9BUCT1SZOT2DFI02L4OC","","<img src=""img/set1/S3.jpg"" width=""540"" height = ""360"">","null","","","","","","","","","",""
"null","","html-keyboard-response","60","146202","0.0-60.0","3EJPLAJKEN23UN9G4YXR4S2MO3HZ6E","A2T1LNI80EPOQR","3URJ6VVYUP9BUCT1SZOT2DFI02L4OC","","","null","","","","","","","","","",""
"770.7000000029802","","image-keyboard-response","61","146974","0.0-61.0","3EJPLAJKEN23UN9G4YXR4S2MO3HZ6E","A2T1LNI80EPOQR","3URJ6VVYUP9BUCT1SZOT2DFI02L4OC","","img/set1/S3.jpg","68","3","structured_load","72","structured_load,structured_normal,structured_incentive,random","1,2,2,3,4,2","3,1,2,4","false","","",""
"null","","html-keyboard-response","62","147336","0.0-62.0","3EJPLAJKEN23UN9G4YXR4S2MO3HZ6E","A2T1LNI80EPOQR","3URJ6VVYUP9BUCT1SZOT2DFI02L4OC","","<img src=""img/set1/S3.jpg"" width=""540"" height = ""360"">","null","","","","","","","","","",""
"null","","html-keyboard-response","63","147538","0.0-63.0","3EJPLAJKEN23UN9G4YXR4S2MO3HZ6E","A2T1LNI80EPOQR","3URJ6VVYUP9BUCT1SZOT2DFI02L4OC","","","null","","","","","","","","","",""
"712.5","","image-keyboard-response","64","148252","0.0-64.0","3EJPLAJKEN23UN9G4YXR4S2MO3HZ6E","A2T1LNI80EPOQR","3URJ6VVYUP9BUCT1SZOT2DFI02L4OC","","img/set1/S3.jpg","72","3","structured_load","72","structured_load,structured_normal,structured_incentive,random","1,2,2,3,4,2","3,1,2,4","true","","",""
"null","","html-keyboard-response","65","148616","0.0-65.0","3EJPLAJKEN23UN9G4YXR4S2MO3HZ6E","A2T1LNI80EPOQR","3URJ6VVYUP9BUCT1SZOT2DFI02L4OC","","<img src=""img/set1/S3.jpg"" width=""540"" height = ""360"" style=""border:16px solid orange"">","null","","","","","","","","","",""
"null","","html-keyboard-response","66","148819","0.0-66.0","3EJPLAJKEN23UN9G4YXR4S2MO3HZ6E","A2T1LNI80EPOQR","3URJ6VVYUP9BUCT1SZOT2DFI02L4OC","","","null","","","","","","","","","",""
"1444.699999988079","","image-keyboard-response","67","150264","0.0-67.0","3EJPLAJKEN23UN9G4YXR4S2MO3HZ6E","A2T1LNI80EPOQR","3URJ6VVYUP9BUCT1SZOT2DFI02L4OC","","img/set1/S1.jpg","72","1","structured_load","83","structured_load,structured_normal,structured_incentive,random","1,2,2,3,4,2","3,1,2,4","false","","",""
"null","","html-keyboard-response","68","150622","0.0-68.0","3EJPLAJKEN23UN9G4YXR4S2MO3HZ6E","A2T1LNI80EPOQR","3URJ6VVYUP9BUCT1SZOT2DFI02L4OC","","<img src=""img/set1/S1.jpg"" width=""540"" height = ""360"">","null","","","","","","","","","",""
"null","","html-keyboard-response","69","150839","0.0-69.0","3EJPLAJKEN23UN9G4YXR4S2MO3HZ6E","A2T1LNI80EPOQR","3URJ6VVYUP9BUCT1SZOT2DFI02L4OC","","","null","","","","","","","","","",""
"1228.3999999910593","","image-keyboard-response","70","152069","0.0-70.0","3EJPLAJKEN23UN9G4YXR4S2MO3HZ6E","A2T1LNI80EPOQR","3URJ6VVYUP9BUCT1SZOT2DFI02L4OC","","img/set1/S2.jpg","68","2","structured_load","68","structured_load,structured_normal,structured_incentive,random","1,2,2,3,4,2","3,1,2,4","true","","",""
"null","","html-keyboard-response","71","152428","0.0-71.0","3EJPLAJKEN23UN9G4YXR4S2MO3HZ6E","A2T1LNI80EPOQR","3URJ6VVYUP9BUCT1SZOT2DFI02L4OC","","<img src=""img/set1/S2.jpg"" width=""540"" height = ""360"" style=""border:16px solid orange"">","null","","","","","","","","","",""
"null","","html-keyboard-response","72","152630","0.0-72.0","3EJPLAJKEN23UN9G4YXR4S2MO3HZ6E","A2T1LNI80EPOQR","3URJ6VVYUP9BUCT1SZOT2DFI02L4OC","","","null","","","","","","","","","",""
"1520.4000000059605","","image-keyboard-response","73","154152","0.0-73.0","3EJPLAJKEN23UN9G4YXR4S2MO3HZ6E","A2T1LNI80EPOQR","3URJ6VVYUP9BUCT1SZOT2DFI02L4OC","","img/set1/S3.jpg","72","3","structured_load","72","structured_load,structured_normal,structured_incentive,random","1,2,2,3,4,2","3,1,2,4","true","","",""
"null","","html-keyboard-response","74","154516","0.0-74.0","3EJPLAJKEN23UN9G4YXR4S2MO3HZ6E","A2T1LNI80EPOQR","3URJ6VVYUP9BUCT1SZOT2DFI02L4OC","","<img src=""img/set1/S3.jpg"" width=""540"" height = ""360"" style=""border:16px solid orange"">","null","","","","","","","","","",""
"null","","html-keyboard-response","75","154720","0.0-75.0","3EJPLAJKEN23UN9G4YXR4S2MO3HZ6E","A2T1LNI80EPOQR","3URJ6VVYUP9BUCT1SZOT2DFI02L4OC","","","null","","","","","","","","","",""
"1400","","image-keyboard-response","76","156120","0.0-76.0","3EJPLAJKEN23UN9G4YXR4S2MO3HZ6E","A2T1LNI80EPOQR","3URJ6VVYUP9BUCT1SZOT2DFI02L4OC","","img/set1/S1.jpg","74","1","structured_load","83","structured_load,structured_normal,structured_incentive,random","1,2,2,3,4,2","3,1,2,4","false","","",""
"null","","html-keyboard-response","77","156483","0.0-77.0","3EJPLAJKEN23UN9G4YXR4S2MO3HZ6E","A2T1LNI80EPOQR","3URJ6VVYUP9BUCT1SZOT2DFI02L4OC","","<img src=""img/set1/S1.jpg"" width=""540"" height = ""360"">","null","","","","","","","","","",""
"null","","html-keyboard-response","78","156685","0.0-78.0","3EJPLAJKEN23UN9G4YXR4S2MO3HZ6E","A2T1LNI80EPOQR","3URJ6VVYUP9BUCT1SZOT2DFI02L4OC","","","null","","","","","","","","","",""
"1605.2999999970198","","image-keyboard-response","79","158292","0.0-79.0","3EJPLAJKEN23UN9G4YXR4S2MO3HZ6E","A2T1LNI80EPOQR","3URJ6VVYUP9BUCT1SZOT2DFI02L4OC","","img/set1/S2.jpg","83","2","structured_load","68","structured_load,structured_normal,structured_incentive,random","1,2,2,3,4,2","3,1,2,4","false","","",""
"null","","html-keyboard-response","80","158646","0.0-80.0","3EJPLAJKEN23UN9G4YXR4S2MO3HZ6E","A2T1LNI80EPOQR","3URJ6VVYUP9BUCT1SZOT2DFI02L4OC","","<img src=""img/set1/S2.jpg"" width=""540"" height = ""360"">","null","","","","","","","","","",""
"null","","html-keyboard-response","81","158850","0.0-81.0","3EJPLAJKEN23UN9G4YXR4S2MO3HZ6E","A2T1LNI80EPOQR","3URJ6VVYUP9BUCT1SZOT2DFI02L4OC","","","null","","","","","","","","","",""
"1342.2000000029802","","image-keyboard-response","82","160193","0.0-82.0","3EJPLAJKEN23UN9G4YXR4S2MO3HZ6E","A2T1LNI80EPOQR","3URJ6VVYUP9BUCT1SZOT2DFI02L4OC","","img/set1/S1.jpg","68","1","structured_load","83","structured_load,structured_normal,structured_incentive,random","1,2,2,3,4,2","3,1,2,4","false","","",""
"null","","html-keyboard-response","83","160563","0.0-83.0","3EJPLAJKEN23UN9G4YXR4S2MO3HZ6E","A2T1LNI80EPOQR","3URJ6VVYUP9BUCT1SZOT2DFI02L4OC","","<img src=""img/set1/S1.jpg"" width=""540"" height = ""360"">","null","","","","","","","","","",""
"null","","html-keyboard-response","84","160774","0.0-84.0","3EJPLAJKEN23UN9G4YXR4S2MO3HZ6E","A2T1LNI80EPOQR","3URJ6VVYUP9BUCT1SZOT2DFI02L4OC","","","null","","","","","","","","","",""
"2213.800000011921","","image-keyboard-response","85","162989","0.0-85.0","3EJPLAJKEN23UN9G4YXR4S2MO3HZ6E","A2T1LNI80EPOQR","3URJ6VVYUP9BUCT1SZOT2DFI02L4OC","","img/set1/S2.jpg","68","2","structured_load","68","structured_load,structured_normal,structured_incentive,random","1,2,2,3,4,2","3,1,2,4","true","","",""
"null","","html-keyboard-response","86","163354","0.0-86.0","3EJPLAJKEN23UN9G4YXR4S2MO3HZ6E","A2T1LNI80EPOQR","3URJ6VVYUP9BUCT1SZOT2DFI02L4OC","","<img src=""img/set1/S2.jpg"" width=""540"" height = ""360"" style=""border:16px solid orange"">","null","","","","","","","","","",""
"null","","html-keyboard-response","87","163561","0.0-87.0","3EJPLAJKEN23UN9G4YXR4S2MO3HZ6E","A2T1LNI80EPOQR","3URJ6VVYUP9BUCT1SZOT2DFI02L4OC","","","null","","","","","","","","","",""
"1162","","image-keyboard-response","88","164724","0.0-88.0","3EJPLAJKEN23UN9G4YXR4S2MO3HZ6E","A2T1LNI80EPOQR","3URJ6VVYUP9BUCT1SZOT2DFI02L4OC","","img/set1/S3.jpg","72","3","structured_load","72","structured_load,structured_normal,structured_incentive,random","1,2,2,3,4,2","3,1,2,4","true","","",""
"null","","html-keyboard-response","89","165081","0.0-89.0","3EJPLAJKEN23UN9G4YXR4S2MO3HZ6E","A2T1LNI80EPOQR","3URJ6VVYUP9BUCT1SZOT2DFI02L4OC","","<img src=""img/set1/S3.jpg"" width=""540"" height = ""360"" style=""border:16px solid orange"">","null","","","","","","","","","",""
"null","","html-keyboard-response","90","165296","0.0-90.0","3EJPLAJKEN23UN9G4YXR4S2MO3HZ6E","A2T1LNI80EPOQR","3URJ6VVYUP9BUCT1SZOT2DFI02L4OC","","","null","","","","","","","","","",""
"1535.5","","image-keyboard-response","91","166832","0.0-91.0","3EJPLAJKEN23UN9G4YXR4S2MO3HZ6E","A2T1LNI80EPOQR","3URJ6VVYUP9BUCT1SZOT2DFI02L4OC","","img/set1/S1.jpg","68","1","structured_load","83","structured_load,structured_normal,structured_incentive,random","1,2,2,3,4,2","3,1,2,4","false","","",""
"null","","html-keyboard-response","92","167197","0.0-92.0","3EJPLAJKEN23UN9G4YXR4S2MO3HZ6E","A2T1LNI80EPOQR","3URJ6VVYUP9BUCT1SZOT2DFI02L4OC","","<img src=""img/set1/S1.jpg"" width=""540"" height = ""360"">","null","","","","","","","","","",""
"null","","html-keyboard-response","93","167399","0.0-93.0","3EJPLAJKEN23UN9G4YXR4S2MO3HZ6E","A2T1LNI80EPOQR","3URJ6VVYUP9BUCT1SZOT2DFI02L4OC","","","null","","","","","","","","","",""
"1709.7999999970198","","image-keyboard-response","94","169109","0.0-94.0","3EJPLAJKEN23UN9G4YXR4S2MO3HZ6E","A2T1LNI80EPOQR","3URJ6VVYUP9BUCT1SZOT2DFI02L4OC","","img/set1/S2.jpg","83","2","structured_load","68","structured_load,structured_normal,structured_incentive,random","1,2,2,3,4,2","3,1,2,4","false","","",""
"null","","html-keyboard-response","95","169466","0.0-95.0","3EJPLAJKEN23UN9G4YXR4S2MO3HZ6E","A2T1LNI80EPOQR","3URJ6VVYUP9BUCT1SZOT2DFI02L4OC","","<img src=""img/set1/S2.jpg"" width=""540"" height = ""360"">","null","","","","","","","","","",""
"null","","html-keyboard-response","96","169669","0.0-96.0","3EJPLAJKEN23UN9G4YXR4S2MO3HZ6E","A2T1LNI80EPOQR","3URJ6VVYUP9BUCT1SZOT2DFI02L4OC","","","null","","","","","","","","","",""
"1899.1000000089407","","image-keyboard-response","97","171569","0.0-97.0","3EJPLAJKEN23UN9G4YXR4S2MO3HZ6E","A2T1LNI80EPOQR","3URJ6VVYUP9BUCT1SZOT2DFI02L4OC","","img/set1/S1.jpg","74","1","structured_load","83","structured_load,structured_normal,structured_incentive,random","1,2,2,3,4,2","3,1,2,4","false","","",""
"null","","html-keyboard-response","98","171929","0.0-98.0","3EJPLAJKEN23UN9G4YXR4S2MO3HZ6E","A2T1LNI80EPOQR","3URJ6VVYUP9BUCT1SZOT2DFI02L4OC","","<img src=""img/set1/S1.jpg"" width=""540"" height = ""360"">","null","","","","","","","","","",""
"null","","html-keyboard-response","99","172131","0.0-99.0","3EJPLAJKEN23UN9G4YXR4S2MO3HZ6E","A2T1LNI80EPOQR","3URJ6VVYUP9BUCT1SZOT2DFI02L4OC","","","null","","","","","","","","","",""
"2320.2999999970198","","image-keyboard-response","100","174452","0.0-100.0","3EJPLAJKEN23UN9G4YXR4S2MO3HZ6E","A2T1LNI80EPOQR","3URJ6VVYUP9BUCT1SZOT2DFI02L4OC","","img/set1/S2.jpg","68","2","structured_load","68","structured_load,structured_normal,structured_incentive,random","1,2,2,3,4,2","3,1,2,4","true","","",""
"null","","html-keyboard-response","101","174817","0.0-101.0","3EJPLAJKEN23UN9G4YXR4S2MO3HZ6E","A2T1LNI80EPOQR","3URJ6VVYUP9BUCT1SZOT2DFI02L4OC","","<img src=""img/set1/S2.jpg"" width=""540"" height = ""360"" style=""border:16px solid orange"">","null","","","","","","","","","",""
"null","","html-keyboard-response","102","175035","0.0-102.0","3EJPLAJKEN23UN9G4YXR4S2MO3HZ6E","A2T1LNI80EPOQR","3URJ6VVYUP9BUCT1SZOT2DFI02L4OC","","","null","","","","","","","","","",""
"859.5","","image-keyboard-response","103","175895","0.0-103.0","3EJPLAJKEN23UN9G4YXR4S2MO3HZ6E","A2T1LNI80EPOQR","3URJ6VVYUP9BUCT1SZOT2DFI02L4OC","","img/set1/S3.jpg","72","3","structured_load","72","structured_load,structured_normal,structured_incentive,random","1,2,2,3,4,2","3,1,2,4","true","","",""
"null","","html-keyboard-response","104","176260","0.0-104.0","3EJPLAJKEN23UN9G4YXR4S2MO3HZ6E","A2T1LNI80EPOQR","3URJ6VVYUP9BUCT1SZOT2DFI02L4OC","","<img src=""img/set1/S3.jpg"" width=""540"" height = ""360"" style=""border:16px solid orange"">","null","","","","","","","","","",""
"null","","html-keyboard-response","105","176461","0.0-105.0","3EJPLAJKEN23UN9G4YXR4S2MO3HZ6E","A2T1LNI80EPOQR","3URJ6VVYUP9BUCT1SZOT2DFI02L4OC","","","null","","","","","","","","","",""
"1116.2000000029802","","image-keyboard-response","106","177578","0.0-106.0","3EJPLAJKEN23UN9G4YXR4S2MO3HZ6E","A2T1LNI80EPOQR","3URJ6VVYUP9BUCT1SZOT2DFI02L4OC","","img/set1/S4.jpg","74","4","structured_load","74","structured_load,structured_normal,structured_incentive,random","1,2,2,3,4,2","3,1,2,4","true","","",""
"null","","html-keyboard-response","107","177934","0.0-107.0","3EJPLAJKEN23UN9G4YXR4S2MO3HZ6E","A2T1LNI80EPOQR","3URJ6VVYUP9BUCT1SZOT2DFI02L4OC","","<img src=""img/set1/S4.jpg"" width=""540"" height = ""360"" style=""border:16px solid orange"">","null","","","","","","","","","",""
"null","","html-keyboard-response","108","178152","0.0-108.0","3EJPLAJKEN23UN9G4YXR4S2MO3HZ6E","A2T1LNI80EPOQR","3URJ6VVYUP9BUCT1SZOT2DFI02L4OC","","","null","","","","","","","","","",""
"1267.0999999940395","","image-keyboard-response","109","179419","0.0-109.0","3EJPLAJKEN23UN9G4YXR4S2MO3HZ6E","A2T1LNI80EPOQR","3URJ6VVYUP9BUCT1SZOT2DFI02L4OC","","img/set1/S1.jpg","74","1","structured_load","83","structured_load,structured_normal,structured_incentive,random","1,2,2,3,4,2","3,1,2,4","false","","",""
"null","","html-keyboard-response","110","179773","0.0-110.0","3EJPLAJKEN23UN9G4YXR4S2MO3HZ6E","A2T1LNI80EPOQR","3URJ6VVYUP9BUCT1SZOT2DFI02L4OC","","<img src=""img/set1/S1.jpg"" width=""540"" height = ""360"">","null","","","","","","","","","",""
"null","","html-keyboard-response","111","179975","0.0-111.0","3EJPLAJKEN23UN9G4YXR4S2MO3HZ6E","A2T1LNI80EPOQR","3URJ6VVYUP9BUCT1SZOT2DFI02L4OC","","","null","","","","","","","","","",""
"1711.8999999910593","","image-keyboard-response","112","181688","0.0-112.0","3EJPLAJKEN23UN9G4YXR4S2MO3HZ6E","A2T1LNI80EPOQR","3URJ6VVYUP9BUCT1SZOT2DFI02L4OC","","img/set1/S4.jpg","74","4","structured_load","74","structured_load,structured_normal,structured_incentive,random","1,2,2,3,4,2","3,1,2,4","true","","",""
"null","","html-keyboard-response","113","182043","0.0-113.0","3EJPLAJKEN23UN9G4YXR4S2MO3HZ6E","A2T1LNI80EPOQR","3URJ6VVYUP9BUCT1SZOT2DFI02L4OC","","<img src=""img/set1/S4.jpg"" width=""540"" height = ""360"" style=""border:16px solid orange"">","null","","","","","","","","","",""
"null","","html-keyboard-response","114","182245","0.0-114.0","3EJPLAJKEN23UN9G4YXR4S2MO3HZ6E","A2T1LNI80EPOQR","3URJ6VVYUP9BUCT1SZOT2DFI02L4OC","","","null","","","","","","","","","",""
"960.5","","image-keyboard-response","115","183207","0.0-115.0","3EJPLAJKEN23UN9G4YXR4S2MO3HZ6E","A2T1LNI80EPOQR","3URJ6VVYUP9BUCT1SZOT2DFI02L4OC","","img/set1/S3.jpg","72","3","structured_load","72","structured_load,structured_normal,structured_incentive,random","1,2,2,3,4,2","3,1,2,4","true","","",""
"null","","html-keyboard-response","116","183566","0.0-116.0","3EJPLAJKEN23UN9G4YXR4S2MO3HZ6E","A2T1LNI80EPOQR","3URJ6VVYUP9BUCT1SZOT2DFI02L4OC","","<img src=""img/set1/S3.jpg"" width=""540"" height = ""360"" style=""border:16px solid orange"">","null","","","","","","","","","",""
"null","","html-keyboard-response","117","183769","0.0-117.0","3EJPLAJKEN23UN9G4YXR4S2MO3HZ6E","A2T1LNI80EPOQR","3URJ6VVYUP9BUCT1SZOT2DFI02L4OC","","","null","","","","","","","","","",""
"766.7000000029802","","image-keyboard-response","118","184536","0.0-118.0","3EJPLAJKEN23UN9G4YXR4S2MO3HZ6E","A2T1LNI80EPOQR","3URJ6VVYUP9BUCT1SZOT2DFI02L4OC","","img/set1/S4.jpg","74","4","structured_load","74","structured_load,structured_normal,structured_incentive,random","1,2,2,3,4,2","3,1,2,4","true","","",""
"null","","html-keyboard-response","119","184901","0.0-119.0","3EJPLAJKEN23UN9G4YXR4S2MO3HZ6E","A2T1LNI80EPOQR","3URJ6VVYUP9BUCT1SZOT2DFI02L4OC","","<img src=""img/set1/S4.jpg"" width=""540"" height = ""360"" style=""border:16px solid orange"">","null","","","","","","","","","",""
"null","","html-keyboard-response","120","185105","0.0-120.0","3EJPLAJKEN23UN9G4YXR4S2MO3HZ6E","A2T1LNI80EPOQR","3URJ6VVYUP9BUCT1SZOT2DFI02L4OC","","","null","","","","","","","","","",""
"678.7999999970198","","image-keyboard-response","121","185785","0.0-121.0","3EJPLAJKEN23UN9G4YXR4S2MO3HZ6E","A2T1LNI80EPOQR","3URJ6VVYUP9BUCT1SZOT2DFI02L4OC","","img/set1/S4.jpg","74","4","structured_load","74","structured_load,structured_normal,structured_incentive,random","1,2,2,3,4,2","3,1,2,4","true","","",""
"null","","html-keyboard-response","122","186150","0.0-122.0","3EJPLAJKEN23UN9G4YXR4S2MO3HZ6E","A2T1LNI80EPOQR","3URJ6VVYUP9BUCT1SZOT2DFI02L4OC","","<img src=""img/set1/S4.jpg"" width=""540"" height = ""360"" style=""border:16px solid orange"">","null","","","","","","","","","",""
"null","","html-keyboard-response","123","186353","0.0-123.0","3EJPLAJKEN23UN9G4YXR4S2MO3HZ6E","A2T1LNI80EPOQR","3URJ6VVYUP9BUCT1SZOT2DFI02L4OC","","","null","","","","","","","","","",""
"797.7999999970198","","image-keyboard-response","124","187151","0.0-124.0","3EJPLAJKEN23UN9G4YXR4S2MO3HZ6E","A2T1LNI80EPOQR","3URJ6VVYUP9BUCT1SZOT2DFI02L4OC","","img/set1/S3.jpg","72","3","structured_load","72","structured_load,structured_normal,structured_incentive,random","1,2,2,3,4,2","3,1,2,4","true","","",""
"null","","html-keyboard-response","125","187518","0.0-125.0","3EJPLAJKEN23UN9G4YXR4S2MO3HZ6E","A2T1LNI80EPOQR","3URJ6VVYUP9BUCT1SZOT2DFI02L4OC","","<img src=""img/set1/S3.jpg"" width=""540"" height = ""360"" style=""border:16px solid orange"">","null","","","","","","","","","",""
"null","","html-keyboard-response","126","187722","0.0-126.0","3EJPLAJKEN23UN9G4YXR4S2MO3HZ6E","A2T1LNI80EPOQR","3URJ6VVYUP9BUCT1SZOT2DFI02L4OC","","","null","","","","","","","","","",""
"632.0999999940395","","image-keyboard-response","127","188355","0.0-127.0","3EJPLAJKEN23UN9G4YXR4S2MO3HZ6E","A2T1LNI80EPOQR","3URJ6VVYUP9BUCT1SZOT2DFI02L4OC","","img/set1/S3.jpg","72","3","structured_load","72","structured_load,structured_normal,structured_incentive,random","1,2,2,3,4,2","3,1,2,4","true","","",""
"null","","html-keyboard-response","128","188721","0.0-128.0","3EJPLAJKEN23UN9G4YXR4S2MO3HZ6E","A2T1LNI80EPOQR","3URJ6VVYUP9BUCT1SZOT2DFI02L4OC","","<img src=""img/set1/S3.jpg"" width=""540"" height = ""360"" style=""border:16px solid orange"">","null","","","","","","","","","",""
"null","","html-keyboard-response","129","188925","0.0-129.0","3EJPLAJKEN23UN9G4YXR4S2MO3HZ6E","A2T1LNI80EPOQR","3URJ6VVYUP9BUCT1SZOT2DFI02L4OC","","","null","","","","","","","","","",""
"968.7000000029802","","image-keyboard-response","130","189894","0.0-130.0","3EJPLAJKEN23UN9G4YXR4S2MO3HZ6E","A2T1LNI80EPOQR","3URJ6VVYUP9BUCT1SZOT2DFI02L4OC","","img/set1/S4.jpg","74","4","structured_load","74","structured_load,structured_normal,structured_incentive,random","1,2,2,3,4,2","3,1,2,4","true","","",""
"null","","html-keyboard-response","131","190260","0.0-131.0","3EJPLAJKEN23UN9G4YXR4S2MO3HZ6E","A2T1LNI80EPOQR","3URJ6VVYUP9BUCT1SZOT2DFI02L4OC","","<img src=""img/set1/S4.jpg"" width=""540"" height = ""360"" style=""border:16px solid orange"">","null","","","","","","","","","",""
"null","","html-keyboard-response","132","190462","0.0-132.0","3EJPLAJKEN23UN9G4YXR4S2MO3HZ6E","A2T1LNI80EPOQR","3URJ6VVYUP9BUCT1SZOT2DFI02L4OC","","","null","","","","","","","","","",""
"1512.9000000059605","","image-keyboard-response","133","191976","0.0-133.0","3EJPLAJKEN23UN9G4YXR4S2MO3HZ6E","A2T1LNI80EPOQR","3URJ6VVYUP9BUCT1SZOT2DFI02L4OC","","img/set1/S1.jpg","72","1","structured_load","83","structured_load,structured_normal,structured_incentive,random","1,2,2,3,4,2","3,1,2,4","false","","",""
"null","","html-keyboard-response","134","192338","0.0-134.0","3EJPLAJKEN23UN9G4YXR4S2MO3HZ6E","A2T1LNI80EPOQR","3URJ6VVYUP9BUCT1SZOT2DFI02L4OC","","<img src=""img/set1/S1.jpg"" width=""540"" height = ""360"">","null","","","","","","","","","",""
"null","","html-keyboard-response","135","192540","0.0-135.0","3EJPLAJKEN23UN9G4YXR4S2MO3HZ6E","A2T1LNI80EPOQR","3URJ6VVYUP9BUCT1SZOT2DFI02L4OC","","","null","","","","","","","","","",""
"1171.9000000059605","","image-keyboard-response","136","193712","0.0-136.0","3EJPLAJKEN23UN9G4YXR4S2MO3HZ6E","A2T1LNI80EPOQR","3URJ6VVYUP9BUCT1SZOT2DFI02L4OC","","img/set1/S2.jpg","68","2","structured_load","68","structured_load,structured_normal,structured_incentive,random","1,2,2,3,4,2","3,1,2,4","true","","",""
"null","","html-keyboard-response","137","194066","0.0-137.0","3EJPLAJKEN23UN9G4YXR4S2MO3HZ6E","A2T1LNI80EPOQR","3URJ6VVYUP9BUCT1SZOT2DFI02L4OC","","<img src=""img/set1/S2.jpg"" width=""540"" height = ""360"" style=""border:16px solid orange"">","null","","","","","","","","","",""
"null","","html-keyboard-response","138","194268","0.0-138.0","3EJPLAJKEN23UN9G4YXR4S2MO3HZ6E","A2T1LNI80EPOQR","3URJ6VVYUP9BUCT1SZOT2DFI02L4OC","","","null","","","","","","","","","",""
"546.8999999910593","","image-keyboard-response","139","194816","0.0-139.0","3EJPLAJKEN23UN9G4YXR4S2MO3HZ6E","A2T1LNI80EPOQR","3URJ6VVYUP9BUCT1SZOT2DFI02L4OC","","img/set1/S2.jpg","68","2","structured_load","68","structured_load,structured_normal,structured_incentive,random","1,2,2,3,4,2","3,1,2,4","true","","",""
"null","","html-keyboard-response","140","195169","0.0-140.0","3EJPLAJKEN23UN9G4YXR4S2MO3HZ6E","A2T1LNI80EPOQR","3URJ6VVYUP9BUCT1SZOT2DFI02L4OC","","<img src=""img/set1/S2.jpg"" width=""540"" height = ""360"" style=""border:16px solid orange"">","null","","","","","","","","","",""
"null","","html-keyboard-response","141","195371","0.0-141.0","3EJPLAJKEN23UN9G4YXR4S2MO3HZ6E","A2T1LNI80EPOQR","3URJ6VVYUP9BUCT1SZOT2DFI02L4OC","","","null","","","","","","","","","",""
"1285.2999999970198","","image-keyboard-response","142","196657","0.0-142.0","3EJPLAJKEN23UN9G4YXR4S2MO3HZ6E","A2T1LNI80EPOQR","3URJ6VVYUP9BUCT1SZOT2DFI02L4OC","","img/set1/S1.jpg","68","1","structured_load","83","structured_load,structured_normal,structured_incentive,random","1,2,2,3,4,2","3,1,2,4","false","","",""
"null","","html-keyboard-response","143","197022","0.0-143.0","3EJPLAJKEN23UN9G4YXR4S2MO3HZ6E","A2T1LNI80EPOQR","3URJ6VVYUP9BUCT1SZOT2DFI02L4OC","","<img src=""img/set1/S1.jpg"" width=""540"" height = ""360"">","null","","","","","","","","","",""
"null","","html-keyboard-response","144","197224","0.0-144.0","3EJPLAJKEN23UN9G4YXR4S2MO3HZ6E","A2T1LNI80EPOQR","3URJ6VVYUP9BUCT1SZOT2DFI02L4OC","","","null","","","","","","","","","",""
"null","","image-keyboard-response","145","199737","0.0-145.0","3EJPLAJKEN23UN9G4YXR4S2MO3HZ6E","A2T1LNI80EPOQR","3URJ6VVYUP9BUCT1SZOT2DFI02L4OC","","img/set1/S2.jpg","null","2","structured_load","68","structured_load,structured_normal,structured_incentive,random","1,2,2,3,4,2","3,1,2,4","false","","",""
"null","","html-keyboard-response","146","200097","0.0-146.0","3EJPLAJKEN23UN9G4YXR4S2MO3HZ6E","A2T1LNI80EPOQR","3URJ6VVYUP9BUCT1SZOT2DFI02L4OC","","<img src=""img/set1/S2.jpg"" width=""540"" height = ""360"">","null","","","","","","","","","",""
"null","","html-keyboard-response","147","200299","0.0-147.0","3EJPLAJKEN23UN9G4YXR4S2MO3HZ6E","A2T1LNI80EPOQR","3URJ6VVYUP9BUCT1SZOT2DFI02L4OC","","","null","","","","","","","","","",""
"948","","image-keyboard-response","148","201247","0.0-148.0","3EJPLAJKEN23UN9G4YXR4S2MO3HZ6E","A2T1LNI80EPOQR","3URJ6VVYUP9BUCT1SZOT2DFI02L4OC","","img/set1/S3.jpg","72","3","structured_load","72","structured_load,structured_normal,structured_incentive,random","1,2,2,3,4,2","3,1,2,4","true","","",""
"null","","html-keyboard-response","149","201603","0.0-149.0","3EJPLAJKEN23UN9G4YXR4S2MO3HZ6E","A2T1LNI80EPOQR","3URJ6VVYUP9BUCT1SZOT2DFI02L4OC","","<img src=""img/set1/S3.jpg"" width=""540"" height = ""360"" style=""border:16px solid orange"">","null","","","","","","","","","",""
"null","","html-keyboard-response","150","201808","0.0-150.0","3EJPLAJKEN23UN9G4YXR4S2MO3HZ6E","A2T1LNI80EPOQR","3URJ6VVYUP9BUCT1SZOT2DFI02L4OC","","","null","","","","","","","","","",""
"478","","image-keyboard-response","151","202286","0.0-151.0","3EJPLAJKEN23UN9G4YXR4S2MO3HZ6E","A2T1LNI80EPOQR","3URJ6VVYUP9BUCT1SZOT2DFI02L4OC","","img/set1/S3.jpg","72","3","structured_load","72","structured_load,structured_normal,structured_incentive,random","1,2,2,3,4,2","3,1,2,4","true","","",""
"null","","html-keyboard-response","152","202646","0.0-152.0","3EJPLAJKEN23UN9G4YXR4S2MO3HZ6E","A2T1LNI80EPOQR","3URJ6VVYUP9BUCT1SZOT2DFI02L4OC","","<img src=""img/set1/S3.jpg"" width=""540"" height = ""360"" style=""border:16px solid orange"">","null","","","","","","","","","",""
"null","","html-keyboard-response","153","202851","0.0-153.0","3EJPLAJKEN23UN9G4YXR4S2MO3HZ6E","A2T1LNI80EPOQR","3URJ6VVYUP9BUCT1SZOT2DFI02L4OC","","","null","","","","","","","","","",""
"620.1000000089407","","image-keyboard-response","154","203472","0.0-154.0","3EJPLAJKEN23UN9G4YXR4S2MO3HZ6E","A2T1LNI80EPOQR","3URJ6VVYUP9BUCT1SZOT2DFI02L4OC","","img/set1/S4.jpg","74","4","structured_load","74","structured_load,structured_normal,structured_incentive,random","1,2,2,3,4,2","3,1,2,4","true","","",""
"null","","html-keyboard-response","155","203831","0.0-155.0","3EJPLAJKEN23UN9G4YXR4S2MO3HZ6E","A2T1LNI80EPOQR","3URJ6VVYUP9BUCT1SZOT2DFI02L4OC","","<img src=""img/set1/S4.jpg"" width=""540"" height = ""360"" style=""border:16px solid orange"">","null","","","","","","","","","",""
"null","","html-keyboard-response","156","204034","0.0-156.0","3EJPLAJKEN23UN9G4YXR4S2MO3HZ6E","A2T1LNI80EPOQR","3URJ6VVYUP9BUCT1SZOT2DFI02L4OC","","","null","","","","","","","","","",""
"489","","image-keyboard-response","157","204524","0.0-157.0","3EJPLAJKEN23UN9G4YXR4S2MO3HZ6E","A2T1LNI80EPOQR","3URJ6VVYUP9BUCT1SZOT2DFI02L4OC","","img/set1/S4.jpg","74","4","structured_load","74","structured_load,structured_normal,structured_incentive,random","1,2,2,3,4,2","3,1,2,4","true","","",""
"null","","html-keyboard-response","158","204877","0.0-158.0","3EJPLAJKEN23UN9G4YXR4S2MO3HZ6E","A2T1LNI80EPOQR","3URJ6VVYUP9BUCT1SZOT2DFI02L4OC","","<img src=""img/set1/S4.jpg"" width=""540"" height = ""360"" style=""border:16px solid orange"">","null","","","","","","","","","",""
"null","","html-keyboard-response","159","205079","0.0-159.0","3EJPLAJKEN23UN9G4YXR4S2MO3HZ6E","A2T1LNI80EPOQR","3URJ6VVYUP9BUCT1SZOT2DFI02L4OC","","","null","","","","","","","","","",""
"1381.7000000029802","","image-keyboard-response","160","206461","0.0-160.0","3EJPLAJKEN23UN9G4YXR4S2MO3HZ6E","A2T1LNI80EPOQR","3URJ6VVYUP9BUCT1SZOT2DFI02L4OC","","img/set1/S3.jpg","72","3","structured_load","72","structured_load,structured_normal,structured_incentive,random","1,2,2,3,4,2","3,1,2,4","true","","",""
"null","","html-keyboard-response","161","206820","0.0-161.0","3EJPLAJKEN23UN9G4YXR4S2MO3HZ6E","A2T1LNI80EPOQR","3URJ6VVYUP9BUCT1SZOT2DFI02L4OC","","<img src=""img/set1/S3.jpg"" width=""540"" height = ""360"" style=""border:16px solid orange"">","null","","","","","","","","","",""
"null","","html-keyboard-response","162","207023","0.0-162.0","3EJPLAJKEN23UN9G4YXR4S2MO3HZ6E","A2T1LNI80EPOQR","3URJ6VVYUP9BUCT1SZOT2DFI02L4OC","","","null","","","","","","","","","",""
"475.20000000298023","","image-keyboard-response","163","207498","0.0-163.0","3EJPLAJKEN23UN9G4YXR4S2MO3HZ6E","A2T1LNI80EPOQR","3URJ6VVYUP9BUCT1SZOT2DFI02L4OC","","img/set1/S3.jpg","72","3","structured_load","72","structured_load,structured_normal,structured_incentive,random","1,2,2,3,4,2","3,1,2,4","true","","",""
"null","","html-keyboard-response","164","207863","0.0-164.0","3EJPLAJKEN23UN9G4YXR4S2MO3HZ6E","A2T1LNI80EPOQR","3URJ6VVYUP9BUCT1SZOT2DFI02L4OC","","<img src=""img/set1/S3.jpg"" width=""540"" height = ""360"" style=""border:16px solid orange"">","null","","","","","","","","","",""
"null","","html-keyboard-response","165","208065","0.0-165.0","3EJPLAJKEN23UN9G4YXR4S2MO3HZ6E","A2T1LNI80EPOQR","3URJ6VVYUP9BUCT1SZOT2DFI02L4OC","","","null","","","","","","","","","",""
"763.1000000089407","","image-keyboard-response","166","208828","0.0-166.0","3EJPLAJKEN23UN9G4YXR4S2MO3HZ6E","A2T1LNI80EPOQR","3URJ6VVYUP9BUCT1SZOT2DFI02L4OC","","img/set1/S1.jpg","83","1","structured_load","83","structured_load,structured_normal,structured_incentive,random","1,2,2,3,4,2","3,1,2,4","true","","",""
"null","","html-keyboard-response","167","209184","0.0-167.0","3EJPLAJKEN23UN9G4YXR4S2MO3HZ6E","A2T1LNI80EPOQR","3URJ6VVYUP9BUCT1SZOT2DFI02L4OC","","<img src=""img/set1/S1.jpg"" width=""540"" height = ""360"" style=""border:16px solid orange"">","null","","","","","","","","","",""
"null","","html-keyboard-response","168","209386","0.0-168.0","3EJPLAJKEN23UN9G4YXR4S2MO3HZ6E","A2T1LNI80EPOQR","3URJ6VVYUP9BUCT1SZOT2DFI02L4OC","","","null","","","","","","","","","",""
"1582.7000000029802","","image-keyboard-response","169","210969","0.0-169.0","3EJPLAJKEN23UN9G4YXR4S2MO3HZ6E","A2T1LNI80EPOQR","3URJ6VVYUP9BUCT1SZOT2DFI02L4OC","","img/set1/S2.jpg","83","2","structured_load","68","structured_load,structured_normal,structured_incentive,random","1,2,2,3,4,2","3,1,2,4","false","","",""
"null","","html-keyboard-response","170","211323","0.0-170.0","3EJPLAJKEN23UN9G4YXR4S2MO3HZ6E","A2T1LNI80EPOQR","3URJ6VVYUP9BUCT1SZOT2DFI02L4OC","","<img src=""img/set1/S2.jpg"" width=""540"" height = ""360"">","null","","","","","","","","","",""
"null","","html-keyboard-response","171","211525","0.0-171.0","3EJPLAJKEN23UN9G4YXR4S2MO3HZ6E","A2T1LNI80EPOQR","3URJ6VVYUP9BUCT1SZOT2DFI02L4OC","","","null","","","","","","","","","",""
"705.6000000089407","","image-keyboard-response","172","212231","0.0-172.0","3EJPLAJKEN23UN9G4YXR4S2MO3HZ6E","A2T1LNI80EPOQR","3URJ6VVYUP9BUCT1SZOT2DFI02L4OC","","img/set1/S4.jpg","74","4","structured_load","74","structured_load,structured_normal,structured_incentive,random","1,2,2,3,4,2","3,1,2,4","true","","",""
"null","","html-keyboard-response","173","212596","0.0-173.0","3EJPLAJKEN23UN9G4YXR4S2MO3HZ6E","A2T1LNI80EPOQR","3URJ6VVYUP9BUCT1SZOT2DFI02L4OC","","<img src=""img/set1/S4.jpg"" width=""540"" height = ""360"" style=""border:16px solid orange"">","null","","","","","","","","","",""
"null","","html-keyboard-response","174","212801","0.0-174.0","3EJPLAJKEN23UN9G4YXR4S2MO3HZ6E","A2T1LNI80EPOQR","3URJ6VVYUP9BUCT1SZOT2DFI02L4OC","","","null","","","","","","","","","",""
"2142.4000000059605","","image-keyboard-response","175","214944","0.0-175.0","3EJPLAJKEN23UN9G4YXR4S2MO3HZ6E","A2T1LNI80EPOQR","3URJ6VVYUP9BUCT1SZOT2DFI02L4OC","","img/set1/S3.jpg","72","3","structured_load","72","structured_load,structured_normal,structured_incentive,random","1,2,2,3,4,2","3,1,2,4","true","","",""
"null","","html-keyboard-response","176","215300","0.0-176.0","3EJPLAJKEN23UN9G4YXR4S2MO3HZ6E","A2T1LNI80EPOQR","3URJ6VVYUP9BUCT1SZOT2DFI02L4OC","","<img src=""img/set1/S3.jpg"" width=""540"" height = ""360"" style=""border:16px solid orange"">","null","","","","","","","","","",""
"null","","html-keyboard-response","177","215516","0.0-177.0","3EJPLAJKEN23UN9G4YXR4S2MO3HZ6E","A2T1LNI80EPOQR","3URJ6VVYUP9BUCT1SZOT2DFI02L4OC","","","null","","","","","","","","","",""
"455.8999999910593","","image-keyboard-response","178","215973","0.0-178.0","3EJPLAJKEN23UN9G4YXR4S2MO3HZ6E","A2T1LNI80EPOQR","3URJ6VVYUP9BUCT1SZOT2DFI02L4OC","","img/set1/S3.jpg","72","3","structured_load","72","structured_load,structured_normal,structured_incentive,random","1,2,2,3,4,2","3,1,2,4","true","","",""
"null","","html-keyboard-response","179","216338","0.0-179.0","3EJPLAJKEN23UN9G4YXR4S2MO3HZ6E","A2T1LNI80EPOQR","3URJ6VVYUP9BUCT1SZOT2DFI02L4OC","","<img src=""img/set1/S3.jpg"" width=""540"" height = ""360"" style=""border:16px solid orange"">","null","","","","","","","","","",""
"null","","html-keyboard-response","180","216541","0.0-180.0","3EJPLAJKEN23UN9G4YXR4S2MO3HZ6E","A2T1LNI80EPOQR","3URJ6VVYUP9BUCT1SZOT2DFI02L4OC","","","null","","","","","","","","","",""
"1787.4000000059605","","image-keyboard-response","181","218329","0.0-181.0","3EJPLAJKEN23UN9G4YXR4S2MO3HZ6E","A2T1LNI80EPOQR","3URJ6VVYUP9BUCT1SZOT2DFI02L4OC","","img/set1/S1.jpg","83","1","structured_load","83","structured_load,structured_normal,structured_incentive,random","1,2,2,3,4,2","3,1,2,4","true","","",""
"null","","html-keyboard-response","182","218682","0.0-182.0","3EJPLAJKEN23UN9G4YXR4S2MO3HZ6E","A2T1LNI80EPOQR","3URJ6VVYUP9BUCT1SZOT2DFI02L4OC","","<img src=""img/set1/S1.jpg"" width=""540"" height = ""360"" style=""border:16px solid orange"">","null","","","","","","","","","",""
"null","","html-keyboard-response","183","218885","0.0-183.0","3EJPLAJKEN23UN9G4YXR4S2MO3HZ6E","A2T1LNI80EPOQR","3URJ6VVYUP9BUCT1SZOT2DFI02L4OC","","","null","","","","","","","","","",""
"1586.5","","image-keyboard-response","184","220472","0.0-184.0","3EJPLAJKEN23UN9G4YXR4S2MO3HZ6E","A2T1LNI80EPOQR","3URJ6VVYUP9BUCT1SZOT2DFI02L4OC","","img/set1/S2.jpg","83","2","structured_load","68","structured_load,structured_normal,structured_incentive,random","1,2,2,3,4,2","3,1,2,4","false","","",""
"null","","html-keyboard-response","185","220827","0.0-185.0","3EJPLAJKEN23UN9G4YXR4S2MO3HZ6E","A2T1LNI80EPOQR","3URJ6VVYUP9BUCT1SZOT2DFI02L4OC","","<img src=""img/set1/S2.jpg"" width=""540"" height = ""360"">","null","","","","","","","","","",""
"null","","html-keyboard-response","186","221028","0.0-186.0","3EJPLAJKEN23UN9G4YXR4S2MO3HZ6E","A2T1LNI80EPOQR","3URJ6VVYUP9BUCT1SZOT2DFI02L4OC","","","null","","","","","","","","","",""
"766.7999999970198","","image-keyboard-response","187","221796","0.0-187.0","3EJPLAJKEN23UN9G4YXR4S2MO3HZ6E","A2T1LNI80EPOQR","3URJ6VVYUP9BUCT1SZOT2DFI02L4OC","","img/set1/S2.jpg","68","2","structured_load","68","structured_load,structured_normal,structured_incentive,random","1,2,2,3,4,2","3,1,2,4","true","","",""
"null","","html-keyboard-response","188","222148","0.0-188.0","3EJPLAJKEN23UN9G4YXR4S2MO3HZ6E","A2T1LNI80EPOQR","3URJ6VVYUP9BUCT1SZOT2DFI02L4OC","","<img src=""img/set1/S2.jpg"" width=""540"" height = ""360"" style=""border:16px solid orange"">","null","","","","","","","","","",""
"null","","html-keyboard-response","189","222350","0.0-189.0","3EJPLAJKEN23UN9G4YXR4S2MO3HZ6E","A2T1LNI80EPOQR","3URJ6VVYUP9BUCT1SZOT2DFI02L4OC","","","null","","","","","","","","","",""
"1163.2000000029802","","image-keyboard-response","190","223514","0.0-190.0","3EJPLAJKEN23UN9G4YXR4S2MO3HZ6E","A2T1LNI80EPOQR","3URJ6VVYUP9BUCT1SZOT2DFI02L4OC","","img/set1/S3.jpg","72","3","structured_load","72","structured_load,structured_normal,structured_incentive,random","1,2,2,3,4,2","3,1,2,4","true","","",""
"null","","html-keyboard-response","191","223878","0.0-191.0","3EJPLAJKEN23UN9G4YXR4S2MO3HZ6E","A2T1LNI80EPOQR","3URJ6VVYUP9BUCT1SZOT2DFI02L4OC","","<img src=""img/set1/S3.jpg"" width=""540"" height = ""360"" style=""border:16px solid orange"">","null","","","","","","","","","",""
"null","","html-keyboard-response","192","224081","0.0-192.0","3EJPLAJKEN23UN9G4YXR4S2MO3HZ6E","A2T1LNI80EPOQR","3URJ6VVYUP9BUCT1SZOT2DFI02L4OC","","","null","","","","","","","","","",""
"1117.699999988079","","image-keyboard-response","193","225201","0.0-193.0","3EJPLAJKEN23UN9G4YXR4S2MO3HZ6E","A2T1LNI80EPOQR","3URJ6VVYUP9BUCT1SZOT2DFI02L4OC","","img/set1/S2.jpg","68","2","structured_load","68","structured_load,structured_normal,structured_incentive,random","1,2,2,3,4,2","3,1,2,4","true","","",""
"null","","html-keyboard-response","194","225556","0.0-194.0","3EJPLAJKEN23UN9G4YXR4S2MO3HZ6E","A2T1LNI80EPOQR","3URJ6VVYUP9BUCT1SZOT2DFI02L4OC","","<img src=""img/set1/S2.jpg"" width=""540"" height = ""360"" style=""border:16px solid orange"">","null","","","","","","","","","",""
"null","","html-keyboard-response","195","225776","0.0-195.0","3EJPLAJKEN23UN9G4YXR4S2MO3HZ6E","A2T1LNI80EPOQR","3URJ6VVYUP9BUCT1SZOT2DFI02L4OC","","","null","","","","","","","","","",""
"1166.6000000089407","","image-keyboard-response","196","226943","0.0-196.0","3EJPLAJKEN23UN9G4YXR4S2MO3HZ6E","A2T1LNI80EPOQR","3URJ6VVYUP9BUCT1SZOT2DFI02L4OC","","img/set1/S1.jpg","83","1","structured_load","83","structured_load,structured_normal,structured_incentive,random","1,2,2,3,4,2","3,1,2,4","true","","",""
"null","","html-keyboard-response","197","227307","0.0-197.0","3EJPLAJKEN23UN9G4YXR4S2MO3HZ6E","A2T1LNI80EPOQR","3URJ6VVYUP9BUCT1SZOT2DFI02L4OC","","<img src=""img/set1/S1.jpg"" width=""540"" height = ""360"" style=""border:16px solid orange"">","null","","","","","","","","","",""
"null","","html-keyboard-response","198","227509","0.0-198.0","3EJPLAJKEN23UN9G4YXR4S2MO3HZ6E","A2T1LNI80EPOQR","3URJ6VVYUP9BUCT1SZOT2DFI02L4OC","","","null","","","","","","","","","",""
"1289.5","","image-keyboard-response","199","228800","0.0-199.0","3EJPLAJKEN23UN9G4YXR4S2MO3HZ6E","A2T1LNI80EPOQR","3URJ6VVYUP9BUCT1SZOT2DFI02L4OC","","img/set1/S2.jpg","68","2","structured_load","68","structured_load,structured_normal,structured_incentive,random","1,2,2,3,4,2","3,1,2,4","true","","",""
"null","","html-keyboard-response","200","229161","0.0-200.0","3EJPLAJKEN23UN9G4YXR4S2MO3HZ6E","A2T1LNI80EPOQR","3URJ6VVYUP9BUCT1SZOT2DFI02L4OC","","<img src=""img/set1/S2.jpg"" width=""540"" height = ""360"" style=""border:16px solid orange"">","null","","","","","","","","","",""
"null","","html-keyboard-response","201","229377","0.0-201.0","3EJPLAJKEN23UN9G4YXR4S2MO3HZ6E","A2T1LNI80EPOQR","3URJ6VVYUP9BUCT1SZOT2DFI02L4OC","","","null","","","","","","","","","",""
"1034.5","","image-keyboard-response","202","230413","0.0-202.0","3EJPLAJKEN23UN9G4YXR4S2MO3HZ6E","A2T1LNI80EPOQR","3URJ6VVYUP9BUCT1SZOT2DFI02L4OC","","img/set1/S1.jpg","83","1","structured_load","83","structured_load,structured_normal,structured_incentive,random","1,2,2,3,4,2","3,1,2,4","true","","",""
"null","","html-keyboard-response","203","230775","0.0-203.0","3EJPLAJKEN23UN9G4YXR4S2MO3HZ6E","A2T1LNI80EPOQR","3URJ6VVYUP9BUCT1SZOT2DFI02L4OC","","<img src=""img/set1/S1.jpg"" width=""540"" height = ""360"" style=""border:16px solid orange"">","null","","","","","","","","","",""
"null","","html-keyboard-response","204","230992","0.0-204.0","3EJPLAJKEN23UN9G4YXR4S2MO3HZ6E","A2T1LNI80EPOQR","3URJ6VVYUP9BUCT1SZOT2DFI02L4OC","","","null","","","","","","","","","",""
"817.5","","image-keyboard-response","205","231810","0.0-205.0","3EJPLAJKEN23UN9G4YXR4S2MO3HZ6E","A2T1LNI80EPOQR","3URJ6VVYUP9BUCT1SZOT2DFI02L4OC","","img/set1/S2.jpg","68","2","structured_load","68","structured_load,structured_normal,structured_incentive,random","1,2,2,3,4,2","3,1,2,4","true","","",""
"null","","html-keyboard-response","206","232176","0.0-206.0","3EJPLAJKEN23UN9G4YXR4S2MO3HZ6E","A2T1LNI80EPOQR","3URJ6VVYUP9BUCT1SZOT2DFI02L4OC","","<img src=""img/set1/S2.jpg"" width=""540"" height = ""360"" style=""border:16px solid orange"">","null","","","","","","","","","",""
"null","","html-keyboard-response","207","232378","0.0-207.0","3EJPLAJKEN23UN9G4YXR4S2MO3HZ6E","A2T1LNI80EPOQR","3URJ6VVYUP9BUCT1SZOT2DFI02L4OC","","","null","","","","","","","","","",""
"2331","","image-keyboard-response","208","234709","0.0-208.0","3EJPLAJKEN23UN9G4YXR4S2MO3HZ6E","A2T1LNI80EPOQR","3URJ6VVYUP9BUCT1SZOT2DFI02L4OC","","img/set1/S1.jpg","83","1","structured_load","83","structured_load,structured_normal,structured_incentive,random","1,2,2,3,4,2","3,1,2,4","true","","",""
"null","","html-keyboard-response","209","235070","0.0-209.0","3EJPLAJKEN23UN9G4YXR4S2MO3HZ6E","A2T1LNI80EPOQR","3URJ6VVYUP9BUCT1SZOT2DFI02L4OC","","<img src=""img/set1/S1.jpg"" width=""540"" height = ""360"" style=""border:16px solid orange"">","null","","","","","","","","","",""
"null","","html-keyboard-response","210","235272","0.0-210.0","3EJPLAJKEN23UN9G4YXR4S2MO3HZ6E","A2T1LNI80EPOQR","3URJ6VVYUP9BUCT1SZOT2DFI02L4OC","","","null","","","","","","","","","",""
"735.7999999970198","","image-keyboard-response","211","236008","0.0-211.0","3EJPLAJKEN23UN9G4YXR4S2MO3HZ6E","A2T1LNI80EPOQR","3URJ6VVYUP9BUCT1SZOT2DFI02L4OC","","img/set1/S2.jpg","68","2","structured_load","68","structured_load,structured_normal,structured_incentive,random","1,2,2,3,4,2","3,1,2,4","true","","",""
"null","","html-keyboard-response","212","236373","0.0-212.0","3EJPLAJKEN23UN9G4YXR4S2MO3HZ6E","A2T1LNI80EPOQR","3URJ6VVYUP9BUCT1SZOT2DFI02L4OC","","<img src=""img/set1/S2.jpg"" width=""540"" height = ""360"" style=""border:16px solid orange"">","null","","","","","","","","","",""
"null","","html-keyboard-response","213","236575","0.0-213.0","3EJPLAJKEN23UN9G4YXR4S2MO3HZ6E","A2T1LNI80EPOQR","3URJ6VVYUP9BUCT1SZOT2DFI02L4OC","","","null","","","","","","","","","",""
"724.5","","image-keyboard-response","214","237300","0.0-214.0","3EJPLAJKEN23UN9G4YXR4S2MO3HZ6E","A2T1LNI80EPOQR","3URJ6VVYUP9BUCT1SZOT2DFI02L4OC","","img/set1/S4.jpg","74","4","structured_load","74","structured_load,structured_normal,structured_incentive,random","1,2,2,3,4,2","3,1,2,4","true","","",""
"null","","html-keyboard-response","215","237663","0.0-215.0","3EJPLAJKEN23UN9G4YXR4S2MO3HZ6E","A2T1LNI80EPOQR","3URJ6VVYUP9BUCT1SZOT2DFI02L4OC","","<img src=""img/set1/S4.jpg"" width=""540"" height = ""360"" style=""border:16px solid orange"">","null","","","","","","","","","",""
"null","","html-keyboard-response","216","237867","0.0-216.0","3EJPLAJKEN23UN9G4YXR4S2MO3HZ6E","A2T1LNI80EPOQR","3URJ6VVYUP9BUCT1SZOT2DFI02L4OC","","","null","","","","","","","","","",""
"393.29999999701977","","image-keyboard-response","217","238261","0.0-217.0","3EJPLAJKEN23UN9G4YXR4S2MO3HZ6E","A2T1LNI80EPOQR","3URJ6VVYUP9BUCT1SZOT2DFI02L4OC","","img/set1/S4.jpg","74","4","structured_load","74","structured_load,structured_normal,structured_incentive,random","1,2,2,3,4,2","3,1,2,4","true","","",""
"null","","html-keyboard-response","218","238612","0.0-218.0","3EJPLAJKEN23UN9G4YXR4S2MO3HZ6E","A2T1LNI80EPOQR","3URJ6VVYUP9BUCT1SZOT2DFI02L4OC","","<img src=""img/set1/S4.jpg"" width=""540"" height = ""360"" style=""border:16px solid orange"">","null","","","","","","","","","",""
"null","","html-keyboard-response","219","238815","0.0-219.0","3EJPLAJKEN23UN9G4YXR4S2MO3HZ6E","A2T1LNI80EPOQR","3URJ6VVYUP9BUCT1SZOT2DFI02L4OC","","","null","","","","","","","","","",""
"406.70000000298023","","image-keyboard-response","220","239222","0.0-220.0","3EJPLAJKEN23UN9G4YXR4S2MO3HZ6E","A2T1LNI80EPOQR","3URJ6VVYUP9BUCT1SZOT2DFI02L4OC","","img/set1/S4.jpg","74","4","structured_load","74","structured_load,structured_normal,structured_incentive,random","1,2,2,3,4,2","3,1,2,4","true","","",""
"null","","html-keyboard-response","221","239576","0.0-221.0","3EJPLAJKEN23UN9G4YXR4S2MO3HZ6E","A2T1LNI80EPOQR","3URJ6VVYUP9BUCT1SZOT2DFI02L4OC","","<img src=""img/set1/S4.jpg"" width=""540"" height = ""360"" style=""border:16px solid orange"">","null","","","","","","","","","",""
"null","","html-keyboard-response","222","239780","0.0-222.0","3EJPLAJKEN23UN9G4YXR4S2MO3HZ6E","A2T1LNI80EPOQR","3URJ6VVYUP9BUCT1SZOT2DFI02L4OC","","","null","","","","","","","","","",""
"1110","","image-keyboard-response","223","240891","0.0-223.0","3EJPLAJKEN23UN9G4YXR4S2MO3HZ6E","A2T1LNI80EPOQR","3URJ6VVYUP9BUCT1SZOT2DFI02L4OC","","img/set1/S1.jpg","83","1","structured_load","83","structured_load,structured_normal,structured_incentive,random","1,2,2,3,4,2","3,1,2,4","true","","",""
"null","","html-keyboard-response","224","241256","0.0-224.0","3EJPLAJKEN23UN9G4YXR4S2MO3HZ6E","A2T1LNI80EPOQR","3URJ6VVYUP9BUCT1SZOT2DFI02L4OC","","<img src=""img/set1/S1.jpg"" width=""540"" height = ""360"" style=""border:16px solid orange"">","null","","","","","","","","","",""
"null","","html-keyboard-response","225","241458","0.0-225.0","3EJPLAJKEN23UN9G4YXR4S2MO3HZ6E","A2T1LNI80EPOQR","3URJ6VVYUP9BUCT1SZOT2DFI02L4OC","","","null","","","","","","","","","",""
"2162.7999999970198","","image-keyboard-response","226","243621","0.0-226.0","3EJPLAJKEN23UN9G4YXR4S2MO3HZ6E","A2T1LNI80EPOQR","3URJ6VVYUP9BUCT1SZOT2DFI02L4OC","","img/set1/S2.jpg","68","2","structured_load","68","structured_load,structured_normal,structured_incentive,random","1,2,2,3,4,2","3,1,2,4","true","","",""
"null","","html-keyboard-response","227","243975","0.0-227.0","3EJPLAJKEN23UN9G4YXR4S2MO3HZ6E","A2T1LNI80EPOQR","3URJ6VVYUP9BUCT1SZOT2DFI02L4OC","","<img src=""img/set1/S2.jpg"" width=""540"" height = ""360"" style=""border:16px solid orange"">","null","","","","","","","","","",""
"null","","html-keyboard-response","228","244178","0.0-228.0","3EJPLAJKEN23UN9G4YXR4S2MO3HZ6E","A2T1LNI80EPOQR","3URJ6VVYUP9BUCT1SZOT2DFI02L4OC","","","null","","","","","","","","","",""
"704.7000000029802","","image-keyboard-response","229","244883","0.0-229.0","3EJPLAJKEN23UN9G4YXR4S2MO3HZ6E","A2T1LNI80EPOQR","3URJ6VVYUP9BUCT1SZOT2DFI02L4OC","","img/set1/S4.jpg","74","4","structured_load","74","structured_load,structured_normal,structured_incentive,random","1,2,2,3,4,2","3,1,2,4","true","","",""
"null","","html-keyboard-response","230","245238","0.0-230.0","3EJPLAJKEN23UN9G4YXR4S2MO3HZ6E","A2T1LNI80EPOQR","3URJ6VVYUP9BUCT1SZOT2DFI02L4OC","","<img src=""img/set1/S4.jpg"" width=""540"" height = ""360"" style=""border:16px solid orange"">","null","","","","","","","","","",""
"null","","html-keyboard-response","231","245441","0.0-231.0","3EJPLAJKEN23UN9G4YXR4S2MO3HZ6E","A2T1LNI80EPOQR","3URJ6VVYUP9BUCT1SZOT2DFI02L4OC","","","null","","","","","","","","","",""
"487.20000000298023","","image-keyboard-response","232","245929","0.0-232.0","3EJPLAJKEN23UN9G4YXR4S2MO3HZ6E","A2T1LNI80EPOQR","3URJ6VVYUP9BUCT1SZOT2DFI02L4OC","","img/set1/S4.jpg","74","4","structured_load","74","structured_load,structured_normal,structured_incentive,random","1,2,2,3,4,2","3,1,2,4","true","","",""
"null","","html-keyboard-response","233","246281","0.0-233.0","3EJPLAJKEN23UN9G4YXR4S2MO3HZ6E","A2T1LNI80EPOQR","3URJ6VVYUP9BUCT1SZOT2DFI02L4OC","","<img src=""img/set1/S4.jpg"" width=""540"" height = ""360"" style=""border:16px solid orange"">","null","","","","","","","","","",""
"null","","html-keyboard-response","234","246485","0.0-234.0","3EJPLAJKEN23UN9G4YXR4S2MO3HZ6E","A2T1LNI80EPOQR","3URJ6VVYUP9BUCT1SZOT2DFI02L4OC","","","null","","","","","","","","","",""
"1582.5999999940395","","image-keyboard-response","235","248069","0.0-235.0","3EJPLAJKEN23UN9G4YXR4S2MO3HZ6E","A2T1LNI80EPOQR","3URJ6VVYUP9BUCT1SZOT2DFI02L4OC","","img/set1/S3.jpg","72","3","structured_load","72","structured_load,structured_normal,structured_incentive,random","1,2,2,3,4,2","3,1,2,4","true","","",""
"null","","html-keyboard-response","236","248431","0.0-236.0","3EJPLAJKEN23UN9G4YXR4S2MO3HZ6E","A2T1LNI80EPOQR","3URJ6VVYUP9BUCT1SZOT2DFI02L4OC","","<img src=""img/set1/S3.jpg"" width=""540"" height = ""360"" style=""border:16px solid orange"">","null","","","","","","","","","",""
"null","","html-keyboard-response","237","248634","0.0-237.0","3EJPLAJKEN23UN9G4YXR4S2MO3HZ6E","A2T1LNI80EPOQR","3URJ6VVYUP9BUCT1SZOT2DFI02L4OC","","","null","","","","","","","","","",""
"1447.9000000059605","","image-keyboard-response","238","250083","0.0-238.0","3EJPLAJKEN23UN9G4YXR4S2MO3HZ6E","A2T1LNI80EPOQR","3URJ6VVYUP9BUCT1SZOT2DFI02L4OC","","img/set1/S1.jpg","83","1","structured_load","83","structured_load,structured_normal,structured_incentive,random","1,2,2,3,4,2","3,1,2,4","true","","",""
"null","","html-keyboard-response","239","250436","0.0-239.0","3EJPLAJKEN23UN9G4YXR4S2MO3HZ6E","A2T1LNI80EPOQR","3URJ6VVYUP9BUCT1SZOT2DFI02L4OC","","<img src=""img/set1/S1.jpg"" width=""540"" height = ""360"" style=""border:16px solid orange"">","null","","","","","","","","","",""
"null","","html-keyboard-response","240","250639","0.0-240.0","3EJPLAJKEN23UN9G4YXR4S2MO3HZ6E","A2T1LNI80EPOQR","3URJ6VVYUP9BUCT1SZOT2DFI02L4OC","","","null","","","","","","","","","",""
"659.5999999940395","","image-keyboard-response","241","251299","0.0-241.0","3EJPLAJKEN23UN9G4YXR4S2MO3HZ6E","A2T1LNI80EPOQR","3URJ6VVYUP9BUCT1SZOT2DFI02L4OC","","img/set1/S4.jpg","74","4","structured_load","74","structured_load,structured_normal,structured_incentive,random","1,2,2,3,4,2","3,1,2,4","true","","",""
"null","","html-keyboard-response","242","251651","0.0-242.0","3EJPLAJKEN23UN9G4YXR4S2MO3HZ6E","A2T1LNI80EPOQR","3URJ6VVYUP9BUCT1SZOT2DFI02L4OC","","<img src=""img/set1/S4.jpg"" width=""540"" height = ""360"" style=""border:16px solid orange"">","null","","","","","","","","","",""
"null","","html-keyboard-response","243","251854","0.0-243.0","3EJPLAJKEN23UN9G4YXR4S2MO3HZ6E","A2T1LNI80EPOQR","3URJ6VVYUP9BUCT1SZOT2DFI02L4OC","","","null","","","","","","","","","",""
"1319.5","","image-keyboard-response","244","253175","0.0-244.0","3EJPLAJKEN23UN9G4YXR4S2MO3HZ6E","A2T1LNI80EPOQR","3URJ6VVYUP9BUCT1SZOT2DFI02L4OC","","img/set1/S1.jpg","83","1","structured_load","83","structured_load,structured_normal,structured_incentive,random","1,2,2,3,4,2","3,1,2,4","true","","",""
"null","","html-keyboard-response","245","253538","0.0-245.0","3EJPLAJKEN23UN9G4YXR4S2MO3HZ6E","A2T1LNI80EPOQR","3URJ6VVYUP9BUCT1SZOT2DFI02L4OC","","<img src=""img/set1/S1.jpg"" width=""540"" height = ""360"" style=""border:16px solid orange"">","null","","","","","","","","","",""
"null","","html-keyboard-response","246","253744","0.0-246.0","3EJPLAJKEN23UN9G4YXR4S2MO3HZ6E","A2T1LNI80EPOQR","3URJ6VVYUP9BUCT1SZOT2DFI02L4OC","","","null","","","","","","","","","",""
"1869.0999999940395","","image-keyboard-response","247","255614","0.0-247.0","3EJPLAJKEN23UN9G4YXR4S2MO3HZ6E","A2T1LNI80EPOQR","3URJ6VVYUP9BUCT1SZOT2DFI02L4OC","","img/set1/S2.jpg","68","2","structured_load","68","structured_load,structured_normal,structured_incentive,random","1,2,2,3,4,2","3,1,2,4","true","","",""
"null","","html-keyboard-response","248","255965","0.0-248.0","3EJPLAJKEN23UN9G4YXR4S2MO3HZ6E","A2T1LNI80EPOQR","3URJ6VVYUP9BUCT1SZOT2DFI02L4OC","","<img src=""img/set1/S2.jpg"" width=""540"" height = ""360"" style=""border:16px solid orange"">","null","","","","","","","","","",""
"null","","html-keyboard-response","249","256170","0.0-249.0","3EJPLAJKEN23UN9G4YXR4S2MO3HZ6E","A2T1LNI80EPOQR","3URJ6VVYUP9BUCT1SZOT2DFI02L4OC","","","null","","","","","","","","","",""
"578.2000000029802","","image-keyboard-response","250","256748","0.0-250.0","3EJPLAJKEN23UN9G4YXR4S2MO3HZ6E","A2T1LNI80EPOQR","3URJ6VVYUP9BUCT1SZOT2DFI02L4OC","","img/set1/S4.jpg","74","4","structured_load","74","structured_load,structured_normal,structured_incentive,random","1,2,2,3,4,2","3,1,2,4","true","","",""
"null","","html-keyboard-response","251","257102","0.0-251.0","3EJPLAJKEN23UN9G4YXR4S2MO3HZ6E","A2T1LNI80EPOQR","3URJ6VVYUP9BUCT1SZOT2DFI02L4OC","","<img src=""img/set1/S4.jpg"" width=""540"" height = ""360"" style=""border:16px solid orange"">","null","","","","","","","","","",""
"null","","html-keyboard-response","252","257304","0.0-252.0","3EJPLAJKEN23UN9G4YXR4S2MO3HZ6E","A2T1LNI80EPOQR","3URJ6VVYUP9BUCT1SZOT2DFI02L4OC","","","null","","","","","","","","","",""
"465.29999999701977","","image-keyboard-response","253","257770","0.0-253.0","3EJPLAJKEN23UN9G4YXR4S2MO3HZ6E","A2T1LNI80EPOQR","3URJ6VVYUP9BUCT1SZOT2DFI02L4OC","","img/set1/S3.jpg","72","3","structured_load","72","structured_load,structured_normal,structured_incentive,random","1,2,2,3,4,2","3,1,2,4","true","","",""
"null","","html-keyboard-response","254","258130","0.0-254.0","3EJPLAJKEN23UN9G4YXR4S2MO3HZ6E","A2T1LNI80EPOQR","3URJ6VVYUP9BUCT1SZOT2DFI02L4OC","","<img src=""img/set1/S3.jpg"" width=""540"" height = ""360"" style=""border:16px solid orange"">","null","","","","","","","","","",""
"null","","html-keyboard-response","255","258332","0.0-255.0","3EJPLAJKEN23UN9G4YXR4S2MO3HZ6E","A2T1LNI80EPOQR","3URJ6VVYUP9BUCT1SZOT2DFI02L4OC","","","null","","","","","","","","","",""
"null","","image-keyboard-response","256","260838","0.0-256.0","3EJPLAJKEN23UN9G4YXR4S2MO3HZ6E","A2T1LNI80EPOQR","3URJ6VVYUP9BUCT1SZOT2DFI02L4OC","","img/set1/S1.jpg","null","1","structured_load","83","structured_load,structured_normal,structured_incentive,random","1,2,2,3,4,2","3,1,2,4","false","","",""
"null","","html-keyboard-response","257","261194","0.0-257.0","3EJPLAJKEN23UN9G4YXR4S2MO3HZ6E","A2T1LNI80EPOQR","3URJ6VVYUP9BUCT1SZOT2DFI02L4OC","","<img src=""img/set1/S1.jpg"" width=""540"" height = ""360"">","null","","","","","","","","","",""
"null","","html-keyboard-response","258","261397","0.0-258.0","3EJPLAJKEN23UN9G4YXR4S2MO3HZ6E","A2T1LNI80EPOQR","3URJ6VVYUP9BUCT1SZOT2DFI02L4OC","","","null","","","","","","","","","",""
"1058.7000000029802","","image-keyboard-response","259","262457","0.0-259.0","3EJPLAJKEN23UN9G4YXR4S2MO3HZ6E","A2T1LNI80EPOQR","3URJ6VVYUP9BUCT1SZOT2DFI02L4OC","","img/set1/S2.jpg","83","2","structured_load","68","structured_load,structured_normal,structured_incentive,random","1,2,2,3,4,2","3,1,2,4","false","","",""
"null","","html-keyboard-response","260","262812","0.0-260.0","3EJPLAJKEN23UN9G4YXR4S2MO3HZ6E","A2T1LNI80EPOQR","3URJ6VVYUP9BUCT1SZOT2DFI02L4OC","","<img src=""img/set1/S2.jpg"" width=""540"" height = ""360"">","null","","","","","","","","","",""
"null","","html-keyboard-response","261","263014","0.0-261.0","3EJPLAJKEN23UN9G4YXR4S2MO3HZ6E","A2T1LNI80EPOQR","3URJ6VVYUP9BUCT1SZOT2DFI02L4OC","","","null","","","","","","","","","",""
"1213.2000000029802","","image-keyboard-response","262","264228","0.0-262.0","3EJPLAJKEN23UN9G4YXR4S2MO3HZ6E","A2T1LNI80EPOQR","3URJ6VVYUP9BUCT1SZOT2DFI02L4OC","","img/set1/S1.jpg","83","1","structured_load","83","structured_load,structured_normal,structured_incentive,random","1,2,2,3,4,2","3,1,2,4","true","","",""
"null","","html-keyboard-response","263","264590","0.0-263.0","3EJPLAJKEN23UN9G4YXR4S2MO3HZ6E","A2T1LNI80EPOQR","3URJ6VVYUP9BUCT1SZOT2DFI02L4OC","","<img src=""img/set1/S1.jpg"" width=""540"" height = ""360"" style=""border:16px solid orange"">","null","","","","","","","","","",""
"null","","html-keyboard-response","264","264806","0.0-264.0","3EJPLAJKEN23UN9G4YXR4S2MO3HZ6E","A2T1LNI80EPOQR","3URJ6VVYUP9BUCT1SZOT2DFI02L4OC","","","null","","","","","","","","","",""
"583","","image-keyboard-response","265","265390","0.0-265.0","3EJPLAJKEN23UN9G4YXR4S2MO3HZ6E","A2T1LNI80EPOQR","3URJ6VVYUP9BUCT1SZOT2DFI02L4OC","","img/set1/S2.jpg","68","2","structured_load","68","structured_load,structured_normal,structured_incentive,random","1,2,2,3,4,2","3,1,2,4","true","","",""
"null","","html-keyboard-response","266","265755","0.0-266.0","3EJPLAJKEN23UN9G4YXR4S2MO3HZ6E","A2T1LNI80EPOQR","3URJ6VVYUP9BUCT1SZOT2DFI02L4OC","","<img src=""img/set1/S2.jpg"" width=""540"" height = ""360"" style=""border:16px solid orange"">","null","","","","","","","","","",""
"null","","html-keyboard-response","267","265958","0.0-267.0","3EJPLAJKEN23UN9G4YXR4S2MO3HZ6E","A2T1LNI80EPOQR","3URJ6VVYUP9BUCT1SZOT2DFI02L4OC","","","null","","","","","","","","","",""
"564.9000000059605","","image-keyboard-response","268","266523","0.0-268.0","3EJPLAJKEN23UN9G4YXR4S2MO3HZ6E","A2T1LNI80EPOQR","3URJ6VVYUP9BUCT1SZOT2DFI02L4OC","","img/set1/S4.jpg","74","4","structured_load","74","structured_load,structured_normal,structured_incentive,random","1,2,2,3,4,2","3,1,2,4","true","","",""
"null","","html-keyboard-response","269","266877","0.0-269.0","3EJPLAJKEN23UN9G4YXR4S2MO3HZ6E","A2T1LNI80EPOQR","3URJ6VVYUP9BUCT1SZOT2DFI02L4OC","","<img src=""img/set1/S4.jpg"" width=""540"" height = ""360"" style=""border:16px solid orange"">","null","","","","","","","","","",""
"null","","html-keyboard-response","270","267080","0.0-270.0","3EJPLAJKEN23UN9G4YXR4S2MO3HZ6E","A2T1LNI80EPOQR","3URJ6VVYUP9BUCT1SZOT2DFI02L4OC","","","null","","","","","","","","","",""
"1027.8999999910593","","image-keyboard-response","271","268108","0.0-271.0","3EJPLAJKEN23UN9G4YXR4S2MO3HZ6E","A2T1LNI80EPOQR","3URJ6VVYUP9BUCT1SZOT2DFI02L4OC","","img/set1/S1.jpg","83","1","structured_load","83","structured_load,structured_normal,structured_incentive,random","1,2,2,3,4,2","3,1,2,4","true","","",""
"null","","html-keyboard-response","272","268465","0.0-272.0","3EJPLAJKEN23UN9G4YXR4S2MO3HZ6E","A2T1LNI80EPOQR","3URJ6VVYUP9BUCT1SZOT2DFI02L4OC","","<img src=""img/set1/S1.jpg"" width=""540"" height = ""360"" style=""border:16px solid orange"">","null","","","","","","","","","",""
"null","","html-keyboard-response","273","268669","0.0-273.0","3EJPLAJKEN23UN9G4YXR4S2MO3HZ6E","A2T1LNI80EPOQR","3URJ6VVYUP9BUCT1SZOT2DFI02L4OC","","","null","","","","","","","","","",""
"2050.699999988079","","image-keyboard-response","274","270720","0.0-274.0","3EJPLAJKEN23UN9G4YXR4S2MO3HZ6E","A2T1LNI80EPOQR","3URJ6VVYUP9BUCT1SZOT2DFI02L4OC","","img/set1/S2.jpg","68","2","structured_load","68","structured_load,structured_normal,structured_incentive,random","1,2,2,3,4,2","3,1,2,4","true","","",""
"null","","html-keyboard-response","275","271087","0.0-275.0","3EJPLAJKEN23UN9G4YXR4S2MO3HZ6E","A2T1LNI80EPOQR","3URJ6VVYUP9BUCT1SZOT2DFI02L4OC","","<img src=""img/set1/S2.jpg"" width=""540"" height = ""360"" style=""border:16px solid orange"">","null","","","","","","","","","",""
"null","","html-keyboard-response","276","271292","0.0-276.0","3EJPLAJKEN23UN9G4YXR4S2MO3HZ6E","A2T1LNI80EPOQR","3URJ6VVYUP9BUCT1SZOT2DFI02L4OC","","","null","","","","","","","","","",""
"674.5999999940395","","image-keyboard-response","277","271968","0.0-277.0","3EJPLAJKEN23UN9G4YXR4S2MO3HZ6E","A2T1LNI80EPOQR","3URJ6VVYUP9BUCT1SZOT2DFI02L4OC","","img/set1/S4.jpg","74","4","structured_load","74","structured_load,structured_normal,structured_incentive,random","1,2,2,3,4,2","3,1,2,4","true","","",""
"null","","html-keyboard-response","278","272319","0.0-278.0","3EJPLAJKEN23UN9G4YXR4S2MO3HZ6E","A2T1LNI80EPOQR","3URJ6VVYUP9BUCT1SZOT2DFI02L4OC","","<img src=""img/set1/S4.jpg"" width=""540"" height = ""360"" style=""border:16px solid orange"">","null","","","","","","","","","",""
"null","","html-keyboard-response","279","272521","0.0-279.0","3EJPLAJKEN23UN9G4YXR4S2MO3HZ6E","A2T1LNI80EPOQR","3URJ6VVYUP9BUCT1SZOT2DFI02L4OC","","","null","","","","","","","","","",""
"393.1000000089407","","image-keyboard-response","280","272914","0.0-280.0","3EJPLAJKEN23UN9G4YXR4S2MO3HZ6E","A2T1LNI80EPOQR","3URJ6VVYUP9BUCT1SZOT2DFI02L4OC","","img/set1/S4.jpg","74","4","structured_load","74","structured_load,structured_normal,structured_incentive,random","1,2,2,3,4,2","3,1,2,4","true","","",""
"null","","html-keyboard-response","281","273271","0.0-281.0","3EJPLAJKEN23UN9G4YXR4S2MO3HZ6E","A2T1LNI80EPOQR","3URJ6VVYUP9BUCT1SZOT2DFI02L4OC","","<img src=""img/set1/S4.jpg"" width=""540"" height = ""360"" style=""border:16px solid orange"">","null","","","","","","","","","",""
"null","","html-keyboard-response","282","273474","0.0-282.0","3EJPLAJKEN23UN9G4YXR4S2MO3HZ6E","A2T1LNI80EPOQR","3URJ6VVYUP9BUCT1SZOT2DFI02L4OC","","","null","","","","","","","","","",""
"2494.5","","image-keyboard-response","283","275969","0.0-283.0","3EJPLAJKEN23UN9G4YXR4S2MO3HZ6E","A2T1LNI80EPOQR","3URJ6VVYUP9BUCT1SZOT2DFI02L4OC","","img/set1/S3.jpg","72","3","structured_load","72","structured_load,structured_normal,structured_incentive,random","1,2,2,3,4,2","3,1,2,4","true","","",""
"null","","html-keyboard-response","284","276330","0.0-284.0","3EJPLAJKEN23UN9G4YXR4S2MO3HZ6E","A2T1LNI80EPOQR","3URJ6VVYUP9BUCT1SZOT2DFI02L4OC","","<img src=""img/set1/S3.jpg"" width=""540"" height = ""360"" style=""border:16px solid orange"">","null","","","","","","","","","",""
"null","","html-keyboard-response","285","276531","0.0-285.0","3EJPLAJKEN23UN9G4YXR4S2MO3HZ6E","A2T1LNI80EPOQR","3URJ6VVYUP9BUCT1SZOT2DFI02L4OC","","","null","","","","","","","","","",""
"359.80000001192093","","image-keyboard-response","286","276892","0.0-286.0","3EJPLAJKEN23UN9G4YXR4S2MO3HZ6E","A2T1LNI80EPOQR","3URJ6VVYUP9BUCT1SZOT2DFI02L4OC","","img/set1/S3.jpg","72","3","structured_load","72","structured_load,structured_normal,structured_incentive,random","1,2,2,3,4,2","3,1,2,4","true","","",""
"null","","html-keyboard-response","287","277246","0.0-287.0","3EJPLAJKEN23UN9G4YXR4S2MO3HZ6E","A2T1LNI80EPOQR","3URJ6VVYUP9BUCT1SZOT2DFI02L4OC","","<img src=""img/set1/S3.jpg"" width=""540"" height = ""360"" style=""border:16px solid orange"">","null","","","","","","","","","",""
"null","","html-keyboard-response","288","277450","0.0-288.0","3EJPLAJKEN23UN9G4YXR4S2MO3HZ6E","A2T1LNI80EPOQR","3URJ6VVYUP9BUCT1SZOT2DFI02L4OC","","","null","","","","","","","","","",""
"619.5","","image-keyboard-response","289","278070","0.0-289.0","3EJPLAJKEN23UN9G4YXR4S2MO3HZ6E","A2T1LNI80EPOQR","3URJ6VVYUP9BUCT1SZOT2DFI02L4OC","","img/set1/S4.jpg","74","4","structured_load","74","structured_load,structured_normal,structured_incentive,random","1,2,2,3,4,2","3,1,2,4","true","","",""
"null","","html-keyboard-response","290","278428","0.0-290.0","3EJPLAJKEN23UN9G4YXR4S2MO3HZ6E","A2T1LNI80EPOQR","3URJ6VVYUP9BUCT1SZOT2DFI02L4OC","","<img src=""img/set1/S4.jpg"" width=""540"" height = ""360"" style=""border:16px solid orange"">","null","","","","","","","","","",""
"null","","html-keyboard-response","291","278633","0.0-291.0","3EJPLAJKEN23UN9G4YXR4S2MO3HZ6E","A2T1LNI80EPOQR","3URJ6VVYUP9BUCT1SZOT2DFI02L4OC","","","null","","","","","","","","","",""
"1517.2000000029802","","image-keyboard-response","292","280151","0.0-292.0","3EJPLAJKEN23UN9G4YXR4S2MO3HZ6E","A2T1LNI80EPOQR","3URJ6VVYUP9BUCT1SZOT2DFI02L4OC","","img/set1/S1.jpg","83","1","structured_load","83","structured_load,structured_normal,structured_incentive,random","1,2,2,3,4,2","3,1,2,4","true","","",""
"null","","html-keyboard-response","293","280517","0.0-293.0","3EJPLAJKEN23UN9G4YXR4S2MO3HZ6E","A2T1LNI80EPOQR","3URJ6VVYUP9BUCT1SZOT2DFI02L4OC","","<img src=""img/set1/S1.jpg"" width=""540"" height = ""360"" style=""border:16px solid orange"">","null","","","","","","","","","",""
"null","","html-keyboard-response","294","280732","0.0-294.0","3EJPLAJKEN23UN9G4YXR4S2MO3HZ6E","A2T1LNI80EPOQR","3URJ6VVYUP9BUCT1SZOT2DFI02L4OC","","","null","","","","","","","","","",""
"828","","image-keyboard-response","295","281561","0.0-295.0","3EJPLAJKEN23UN9G4YXR4S2MO3HZ6E","A2T1LNI80EPOQR","3URJ6VVYUP9BUCT1SZOT2DFI02L4OC","","img/set1/S2.jpg","68","2","structured_load","68","structured_load,structured_normal,structured_incentive,random","1,2,2,3,4,2","3,1,2,4","true","","",""
"null","","html-keyboard-response","296","281914","0.0-296.0","3EJPLAJKEN23UN9G4YXR4S2MO3HZ6E","A2T1LNI80EPOQR","3URJ6VVYUP9BUCT1SZOT2DFI02L4OC","","<img src=""img/set1/S2.jpg"" width=""540"" height = ""360"" style=""border:16px solid orange"">","null","","","","","","","","","",""
"null","","html-keyboard-response","297","282116","0.0-297.0","3EJPLAJKEN23UN9G4YXR4S2MO3HZ6E","A2T1LNI80EPOQR","3URJ6VVYUP9BUCT1SZOT2DFI02L4OC","","","null","","","","","","","","","",""
"651.7000000029802","","image-keyboard-response","298","282769","0.0-298.0","3EJPLAJKEN23UN9G4YXR4S2MO3HZ6E","A2T1LNI80EPOQR","3URJ6VVYUP9BUCT1SZOT2DFI02L4OC","","img/set1/S4.jpg","74","4","structured_load","74","structured_load,structured_normal,structured_incentive,random","1,2,2,3,4,2","3,1,2,4","true","","",""
"null","","html-keyboard-response","299","283132","0.0-299.0","3EJPLAJKEN23UN9G4YXR4S2MO3HZ6E","A2T1LNI80EPOQR","3URJ6VVYUP9BUCT1SZOT2DFI02L4OC","","<img src=""img/set1/S4.jpg"" width=""540"" height = ""360"" style=""border:16px solid orange"">","null","","","","","","","","","",""
"null","","html-keyboard-response","300","283334","0.0-300.0","3EJPLAJKEN23UN9G4YXR4S2MO3HZ6E","A2T1LNI80EPOQR","3URJ6VVYUP9BUCT1SZOT2DFI02L4OC","","","null","","","","","","","","","",""
"1851.699999988079","","image-keyboard-response","301","285187","0.0-301.0","3EJPLAJKEN23UN9G4YXR4S2MO3HZ6E","A2T1LNI80EPOQR","3URJ6VVYUP9BUCT1SZOT2DFI02L4OC","","img/set1/S3.jpg","72","3","structured_load","72","structured_load,structured_normal,structured_incentive,random","1,2,2,3,4,2","3,1,2,4","true","","",""
"null","","html-keyboard-response","302","285548","0.0-302.0","3EJPLAJKEN23UN9G4YXR4S2MO3HZ6E","A2T1LNI80EPOQR","3URJ6VVYUP9BUCT1SZOT2DFI02L4OC","","<img src=""img/set1/S3.jpg"" width=""540"" height = ""360"" style=""border:16px solid orange"">","null","","","","","","","","","",""
"null","","html-keyboard-response","303","285750","0.0-303.0","3EJPLAJKEN23UN9G4YXR4S2MO3HZ6E","A2T1LNI80EPOQR","3URJ6VVYUP9BUCT1SZOT2DFI02L4OC","","","null","","","","","","","","","",""
"453.29999999701977","","image-keyboard-response","304","286204","0.0-304.0","3EJPLAJKEN23UN9G4YXR4S2MO3HZ6E","A2T1LNI80EPOQR","3URJ6VVYUP9BUCT1SZOT2DFI02L4OC","","img/set1/S3.jpg","72","3","structured_load","72","structured_load,structured_normal,structured_incentive,random","1,2,2,3,4,2","3,1,2,4","true","","",""
"null","","html-keyboard-response","305","286562","0.0-305.0","3EJPLAJKEN23UN9G4YXR4S2MO3HZ6E","A2T1LNI80EPOQR","3URJ6VVYUP9BUCT1SZOT2DFI02L4OC","","<img src=""img/set1/S3.jpg"" width=""540"" height = ""360"" style=""border:16px solid orange"">","null","","","","","","","","","",""
"null","","html-keyboard-response","306","286767","0.0-306.0","3EJPLAJKEN23UN9G4YXR4S2MO3HZ6E","A2T1LNI80EPOQR","3URJ6VVYUP9BUCT1SZOT2DFI02L4OC","","","null","","","","","","","","","",""
"816.1000000089407","","image-keyboard-response","307","287584","0.0-307.0","3EJPLAJKEN23UN9G4YXR4S2MO3HZ6E","A2T1LNI80EPOQR","3URJ6VVYUP9BUCT1SZOT2DFI02L4OC","","img/set1/S1.jpg","83","1","structured_load","83","structured_load,structured_normal,structured_incentive,random","1,2,2,3,4,2","3,1,2,4","true","","",""
"null","","html-keyboard-response","308","287947","0.0-308.0","3EJPLAJKEN23UN9G4YXR4S2MO3HZ6E","A2T1LNI80EPOQR","3URJ6VVYUP9BUCT1SZOT2DFI02L4OC","","<img src=""img/set1/S1.jpg"" width=""540"" height = ""360"" style=""border:16px solid orange"">","null","","","","","","","","","",""
"null","","html-keyboard-response","309","288163","0.0-309.0","3EJPLAJKEN23UN9G4YXR4S2MO3HZ6E","A2T1LNI80EPOQR","3URJ6VVYUP9BUCT1SZOT2DFI02L4OC","","","null","","","","","","","","","",""
"629.5","","image-keyboard-response","310","288793","0.0-310.0","3EJPLAJKEN23UN9G4YXR4S2MO3HZ6E","A2T1LNI80EPOQR","3URJ6VVYUP9BUCT1SZOT2DFI02L4OC","","img/set1/S4.jpg","74","4","structured_load","74","structured_load,structured_normal,structured_incentive,random","1,2,2,3,4,2","3,1,2,4","true","","",""
"null","","html-keyboard-response","311","289159","0.0-311.0","3EJPLAJKEN23UN9G4YXR4S2MO3HZ6E","A2T1LNI80EPOQR","3URJ6VVYUP9BUCT1SZOT2DFI02L4OC","","<img src=""img/set1/S4.jpg"" width=""540"" height = ""360"" style=""border:16px solid orange"">","null","","","","","","","","","",""
"null","","html-keyboard-response","312","289360","0.0-312.0","3EJPLAJKEN23UN9G4YXR4S2MO3HZ6E","A2T1LNI80EPOQR","3URJ6VVYUP9BUCT1SZOT2DFI02L4OC","","","null","","","","","","","","","",""
"1789.7999999970198","","image-keyboard-response","313","291150","0.0-313.0","3EJPLAJKEN23UN9G4YXR4S2MO3HZ6E","A2T1LNI80EPOQR","3URJ6VVYUP9BUCT1SZOT2DFI02L4OC","","img/set1/S1.jpg","83","1","structured_load","83","structured_load,structured_normal,structured_incentive,random","1,2,2,3,4,2","3,1,2,4","true","","",""
"null","","html-keyboard-response","314","291511","0.0-314.0","3EJPLAJKEN23UN9G4YXR4S2MO3HZ6E","A2T1LNI80EPOQR","3URJ6VVYUP9BUCT1SZOT2DFI02L4OC","","<img src=""img/set1/S1.jpg"" width=""540"" height = ""360"" style=""border:16px solid orange"">","null","","","","","","","","","",""
"null","","html-keyboard-response","315","291714","0.0-315.0","3EJPLAJKEN23UN9G4YXR4S2MO3HZ6E","A2T1LNI80EPOQR","3URJ6VVYUP9BUCT1SZOT2DFI02L4OC","","","null","","","","","","","","","",""
"1688.2999999970198","","image-keyboard-response","316","293403","0.0-316.0","3EJPLAJKEN23UN9G4YXR4S2MO3HZ6E","A2T1LNI80EPOQR","3URJ6VVYUP9BUCT1SZOT2DFI02L4OC","","img/set1/S2.jpg","74","2","structured_load","68","structured_load,structured_normal,structured_incentive,random","1,2,2,3,4,2","3,1,2,4","false","","",""
"null","","html-keyboard-response","317","293767","0.0-317.0","3EJPLAJKEN23UN9G4YXR4S2MO3HZ6E","A2T1LNI80EPOQR","3URJ6VVYUP9BUCT1SZOT2DFI02L4OC","","<img src=""img/set1/S2.jpg"" width=""540"" height = ""360"">","null","","","","","","","","","",""
"null","","html-keyboard-response","318","293969","0.0-318.0","3EJPLAJKEN23UN9G4YXR4S2MO3HZ6E","A2T1LNI80EPOQR","3URJ6VVYUP9BUCT1SZOT2DFI02L4OC","","","null","","","","","","","","","",""
"1218","","image-keyboard-response","319","295188","0.0-319.0","3EJPLAJKEN23UN9G4YXR4S2MO3HZ6E","A2T1LNI80EPOQR","3URJ6VVYUP9BUCT1SZOT2DFI02L4OC","","img/set1/S1.jpg","83","1","structured_load","83","structured_load,structured_normal,structured_incentive,random","1,2,2,3,4,2","3,1,2,4","true","","",""
"null","","html-keyboard-response","320","295543","0.0-320.0","3EJPLAJKEN23UN9G4YXR4S2MO3HZ6E","A2T1LNI80EPOQR","3URJ6VVYUP9BUCT1SZOT2DFI02L4OC","","<img src=""img/set1/S1.jpg"" width=""540"" height = ""360"" style=""border:16px solid orange"">","null","","","","","","","","","",""
"null","","html-keyboard-response","321","295748","0.0-321.0","3EJPLAJKEN23UN9G4YXR4S2MO3HZ6E","A2T1LNI80EPOQR","3URJ6VVYUP9BUCT1SZOT2DFI02L4OC","","","null","","","","","","","","","",""
"873.8999999910593","","image-keyboard-response","322","296623","0.0-322.0","3EJPLAJKEN23UN9G4YXR4S2MO3HZ6E","A2T1LNI80EPOQR","3URJ6VVYUP9BUCT1SZOT2DFI02L4OC","","img/set1/S2.jpg","68","2","structured_load","68","structured_load,structured_normal,structured_incentive,random","1,2,2,3,4,2","3,1,2,4","true","","",""
"null","","html-keyboard-response","323","296980","0.0-323.0","3EJPLAJKEN23UN9G4YXR4S2MO3HZ6E","A2T1LNI80EPOQR","3URJ6VVYUP9BUCT1SZOT2DFI02L4OC","","<img src=""img/set1/S2.jpg"" width=""540"" height = ""360"" style=""border:16px solid orange"">","null","","","","","","","","","",""
"null","","html-keyboard-response","324","297195","0.0-324.0","3EJPLAJKEN23UN9G4YXR4S2MO3HZ6E","A2T1LNI80EPOQR","3URJ6VVYUP9BUCT1SZOT2DFI02L4OC","","","null","","","","","","","","","",""
"1671.1000000089407","","image-keyboard-response","325","298867","0.0-325.0","3EJPLAJKEN23UN9G4YXR4S2MO3HZ6E","A2T1LNI80EPOQR","3URJ6VVYUP9BUCT1SZOT2DFI02L4OC","","img/set1/S3.jpg","72","3","structured_load","72","structured_load,structured_normal,structured_incentive,random","1,2,2,3,4,2","3,1,2,4","true","","",""
"null","","html-keyboard-response","326","299233","0.0-326.0","3EJPLAJKEN23UN9G4YXR4S2MO3HZ6E","A2T1LNI80EPOQR","3URJ6VVYUP9BUCT1SZOT2DFI02L4OC","","<img src=""img/set1/S3.jpg"" width=""540"" height = ""360"" style=""border:16px solid orange"">","null","","","","","","","","","",""
"null","","html-keyboard-response","327","299435","0.0-327.0","3EJPLAJKEN23UN9G4YXR4S2MO3HZ6E","A2T1LNI80EPOQR","3URJ6VVYUP9BUCT1SZOT2DFI02L4OC","","","null","","","","","","","","","",""
"586.5","","image-keyboard-response","328","300023","0.0-328.0","3EJPLAJKEN23UN9G4YXR4S2MO3HZ6E","A2T1LNI80EPOQR","3URJ6VVYUP9BUCT1SZOT2DFI02L4OC","","img/set1/S3.jpg","72","3","structured_load","72","structured_load,structured_normal,structured_incentive,random","1,2,2,3,4,2","3,1,2,4","true","","",""
"null","","html-keyboard-response","329","300388","0.0-329.0","3EJPLAJKEN23UN9G4YXR4S2MO3HZ6E","A2T1LNI80EPOQR","3URJ6VVYUP9BUCT1SZOT2DFI02L4OC","","<img src=""img/set1/S3.jpg"" width=""540"" height = ""360"" style=""border:16px solid orange"">","null","","","","","","","","","",""
"null","","html-keyboard-response","330","300589","0.0-330.0","3EJPLAJKEN23UN9G4YXR4S2MO3HZ6E","A2T1LNI80EPOQR","3URJ6VVYUP9BUCT1SZOT2DFI02L4OC","","","null","","","","","","","","","",""
"927.9000000059605","","image-keyboard-response","331","301517","0.0-331.0","3EJPLAJKEN23UN9G4YXR4S2MO3HZ6E","A2T1LNI80EPOQR","3URJ6VVYUP9BUCT1SZOT2DFI02L4OC","","img/set1/S1.jpg","83","1","structured_load","83","structured_load,structured_normal,structured_incentive,random","1,2,2,3,4,2","3,1,2,4","true","","",""
"null","","html-keyboard-response","332","301883","0.0-332.0","3EJPLAJKEN23UN9G4YXR4S2MO3HZ6E","A2T1LNI80EPOQR","3URJ6VVYUP9BUCT1SZOT2DFI02L4OC","","<img src=""img/set1/S1.jpg"" width=""540"" height = ""360"" style=""border:16px solid orange"">","null","","","","","","","","","",""
"null","","html-keyboard-response","333","302084","0.0-333.0","3EJPLAJKEN23UN9G4YXR4S2MO3HZ6E","A2T1LNI80EPOQR","3URJ6VVYUP9BUCT1SZOT2DFI02L4OC","","","null","","","","","","","","","",""
"640.2000000029802","","image-keyboard-response","334","302725","0.0-334.0","3EJPLAJKEN23UN9G4YXR4S2MO3HZ6E","A2T1LNI80EPOQR","3URJ6VVYUP9BUCT1SZOT2DFI02L4OC","","img/set1/S4.jpg","74","4","structured_load","74","structured_load,structured_normal,structured_incentive,random","1,2,2,3,4,2","3,1,2,4","true","","",""
"null","","html-keyboard-response","335","303078","0.0-335.0","3EJPLAJKEN23UN9G4YXR4S2MO3HZ6E","A2T1LNI80EPOQR","3URJ6VVYUP9BUCT1SZOT2DFI02L4OC","","<img src=""img/set1/S4.jpg"" width=""540"" height = ""360"" style=""border:16px solid orange"">","null","","","","","","","","","",""
"null","","html-keyboard-response","336","303281","0.0-336.0","3EJPLAJKEN23UN9G4YXR4S2MO3HZ6E","A2T1LNI80EPOQR","3URJ6VVYUP9BUCT1SZOT2DFI02L4OC","","","null","","","","","","","","","",""
"1419.5","","image-keyboard-response","337","304701","0.0-337.0","3EJPLAJKEN23UN9G4YXR4S2MO3HZ6E","A2T1LNI80EPOQR","3URJ6VVYUP9BUCT1SZOT2DFI02L4OC","","img/set1/S3.jpg","72","3","structured_load","72","structured_load,structured_normal,structured_incentive,random","1,2,2,3,4,2","3,1,2,4","true","","",""
"null","","html-keyboard-response","338","305056","0.0-338.0","3EJPLAJKEN23UN9G4YXR4S2MO3HZ6E","A2T1LNI80EPOQR","3URJ6VVYUP9BUCT1SZOT2DFI02L4OC","","<img src=""img/set1/S3.jpg"" width=""540"" height = ""360"" style=""border:16px solid orange"">","null","","","","","","","","","",""
"null","","html-keyboard-response","339","305273","0.0-339.0","3EJPLAJKEN23UN9G4YXR4S2MO3HZ6E","A2T1LNI80EPOQR","3URJ6VVYUP9BUCT1SZOT2DFI02L4OC","","","null","","","","","","","","","",""
"959.5","","image-keyboard-response","340","306233","0.0-340.0","3EJPLAJKEN23UN9G4YXR4S2MO3HZ6E","A2T1LNI80EPOQR","3URJ6VVYUP9BUCT1SZOT2DFI02L4OC","","img/set1/S1.jpg","83","1","structured_load","83","structured_load,structured_normal,structured_incentive,random","1,2,2,3,4,2","3,1,2,4","true","","",""
"null","","html-keyboard-response","341","306592","0.0-341.0","3EJPLAJKEN23UN9G4YXR4S2MO3HZ6E","A2T1LNI80EPOQR","3URJ6VVYUP9BUCT1SZOT2DFI02L4OC","","<img src=""img/set1/S1.jpg"" width=""540"" height = ""360"" style=""border:16px solid orange"">","null","","","","","","","","","",""
"null","","html-keyboard-response","342","306796","0.0-342.0","3EJPLAJKEN23UN9G4YXR4S2MO3HZ6E","A2T1LNI80EPOQR","3URJ6VVYUP9BUCT1SZOT2DFI02L4OC","","","null","","","","","","","","","",""
"821.7999999970198","","image-keyboard-response","343","307618","0.0-343.0","3EJPLAJKEN23UN9G4YXR4S2MO3HZ6E","A2T1LNI80EPOQR","3URJ6VVYUP9BUCT1SZOT2DFI02L4OC","","img/set1/S2.jpg","68","2","structured_load","68","structured_load,structured_normal,structured_incentive,random","1,2,2,3,4,2","3,1,2,4","true","","",""
"null","","html-keyboard-response","344","307980","0.0-344.0","3EJPLAJKEN23UN9G4YXR4S2MO3HZ6E","A2T1LNI80EPOQR","3URJ6VVYUP9BUCT1SZOT2DFI02L4OC","","<img src=""img/set1/S2.jpg"" width=""540"" height = ""360"" style=""border:16px solid orange"">","null","","","","","","","","","",""
"null","","html-keyboard-response","345","308181","0.0-345.0","3EJPLAJKEN23UN9G4YXR4S2MO3HZ6E","A2T1LNI80EPOQR","3URJ6VVYUP9BUCT1SZOT2DFI02L4OC","","","null","","","","","","","","","",""
"1200.5","","image-keyboard-response","346","309383","0.0-346.0","3EJPLAJKEN23UN9G4YXR4S2MO3HZ6E","A2T1LNI80EPOQR","3URJ6VVYUP9BUCT1SZOT2DFI02L4OC","","img/set1/S1.jpg","83","1","structured_load","83","structured_load,structured_normal,structured_incentive,random","1,2,2,3,4,2","3,1,2,4","true","","",""
"null","","html-keyboard-response","347","309736","0.0-347.0","3EJPLAJKEN23UN9G4YXR4S2MO3HZ6E","A2T1LNI80EPOQR","3URJ6VVYUP9BUCT1SZOT2DFI02L4OC","","<img src=""img/set1/S1.jpg"" width=""540"" height = ""360"" style=""border:16px solid orange"">","null","","","","","","","","","",""
"null","","html-keyboard-response","348","309938","0.0-348.0","3EJPLAJKEN23UN9G4YXR4S2MO3HZ6E","A2T1LNI80EPOQR","3URJ6VVYUP9BUCT1SZOT2DFI02L4OC","","","null","","","","","","","","","",""
"675.3999999910593","","image-keyboard-response","349","310614","0.0-349.0","3EJPLAJKEN23UN9G4YXR4S2MO3HZ6E","A2T1LNI80EPOQR","3URJ6VVYUP9BUCT1SZOT2DFI02L4OC","","img/set1/S2.jpg","68","2","structured_load","68","structured_load,structured_normal,structured_incentive,random","1,2,2,3,4,2","3,1,2,4","true","","",""
"null","","html-keyboard-response","350","310967","0.0-350.0","3EJPLAJKEN23UN9G4YXR4S2MO3HZ6E","A2T1LNI80EPOQR","3URJ6VVYUP9BUCT1SZOT2DFI02L4OC","","<img src=""img/set1/S2.jpg"" width=""540"" height = ""360"" style=""border:16px solid orange"">","null","","","","","","","","","",""
"null","","html-keyboard-response","351","311170","0.0-351.0","3EJPLAJKEN23UN9G4YXR4S2MO3HZ6E","A2T1LNI80EPOQR","3URJ6VVYUP9BUCT1SZOT2DFI02L4OC","","","null","","","","","","","","","",""
"1315.2000000029802","","image-keyboard-response","352","312486","0.0-352.0","3EJPLAJKEN23UN9G4YXR4S2MO3HZ6E","A2T1LNI80EPOQR","3URJ6VVYUP9BUCT1SZOT2DFI02L4OC","","img/set1/S2.jpg","68","2","structured_load","68","structured_load,structured_normal,structured_incentive,random","1,2,2,3,4,2","3,1,2,4","true","","",""
"null","","html-keyboard-response","353","312850","0.0-353.0","3EJPLAJKEN23UN9G4YXR4S2MO3HZ6E","A2T1LNI80EPOQR","3URJ6VVYUP9BUCT1SZOT2DFI02L4OC","","<img src=""img/set1/S2.jpg"" width=""540"" height = ""360"" style=""border:16px solid orange"">","null","","","","","","","","","",""
"null","","html-keyboard-response","354","313066","0.0-354.0","3EJPLAJKEN23UN9G4YXR4S2MO3HZ6E","A2T1LNI80EPOQR","3URJ6VVYUP9BUCT1SZOT2DFI02L4OC","","","null","","","","","","","","","",""
"681.1000000089407","","image-keyboard-response","355","313748","0.0-355.0","3EJPLAJKEN23UN9G4YXR4S2MO3HZ6E","A2T1LNI80EPOQR","3URJ6VVYUP9BUCT1SZOT2DFI02L4OC","","img/set1/S4.jpg","74","4","structured_load","74","structured_load,structured_normal,structured_incentive,random","1,2,2,3,4,2","3,1,2,4","true","","",""
"null","","html-keyboard-response","356","314105","0.0-356.0","3EJPLAJKEN23UN9G4YXR4S2MO3HZ6E","A2T1LNI80EPOQR","3URJ6VVYUP9BUCT1SZOT2DFI02L4OC","","<img src=""img/set1/S4.jpg"" width=""540"" height = ""360"" style=""border:16px solid orange"">","null","","","","","","","","","",""
"null","","html-keyboard-response","357","314307","0.0-357.0","3EJPLAJKEN23UN9G4YXR4S2MO3HZ6E","A2T1LNI80EPOQR","3URJ6VVYUP9BUCT1SZOT2DFI02L4OC","","","null","","","","","","","","","",""
"1224.9000000059605","","image-keyboard-response","358","315533","0.0-358.0","3EJPLAJKEN23UN9G4YXR4S2MO3HZ6E","A2T1LNI80EPOQR","3URJ6VVYUP9BUCT1SZOT2DFI02L4OC","","img/set1/S1.jpg","83","1","structured_load","83","structured_load,structured_normal,structured_incentive,random","1,2,2,3,4,2","3,1,2,4","true","","",""
"null","","html-keyboard-response","359","315892","0.0-359.0","3EJPLAJKEN23UN9G4YXR4S2MO3HZ6E","A2T1LNI80EPOQR","3URJ6VVYUP9BUCT1SZOT2DFI02L4OC","","<img src=""img/set1/S1.jpg"" width=""540"" height = ""360"" style=""border:16px solid orange"">","null","","","","","","","","","",""
"null","","html-keyboard-response","360","316095","0.0-360.0","3EJPLAJKEN23UN9G4YXR4S2MO3HZ6E","A2T1LNI80EPOQR","3URJ6VVYUP9BUCT1SZOT2DFI02L4OC","","","null","","","","","","","","","",""
"1307.2000000029802","","image-keyboard-response","361","317403","0.0-361.0","3EJPLAJKEN23UN9G4YXR4S2MO3HZ6E","A2T1LNI80EPOQR","3URJ6VVYUP9BUCT1SZOT2DFI02L4OC","","img/set1/S2.jpg","68","2","structured_load","68","structured_load,structured_normal,structured_incentive,random","1,2,2,3,4,2","3,1,2,4","true","","",""
"null","","html-keyboard-response","362","317761","0.0-362.0","3EJPLAJKEN23UN9G4YXR4S2MO3HZ6E","A2T1LNI80EPOQR","3URJ6VVYUP9BUCT1SZOT2DFI02L4OC","","<img src=""img/set1/S2.jpg"" width=""540"" height = ""360"" style=""border:16px solid orange"">","null","","","","","","","","","",""
"null","","html-keyboard-response","363","317963","0.0-363.0","3EJPLAJKEN23UN9G4YXR4S2MO3HZ6E","A2T1LNI80EPOQR","3URJ6VVYUP9BUCT1SZOT2DFI02L4OC","","","null","","","","","","","","","",""
"622.2999999970198","","image-keyboard-response","364","318586","0.0-364.0","3EJPLAJKEN23UN9G4YXR4S2MO3HZ6E","A2T1LNI80EPOQR","3URJ6VVYUP9BUCT1SZOT2DFI02L4OC","","img/set1/S3.jpg","72","3","structured_load","72","structured_load,structured_normal,structured_incentive,random","1,2,2,3,4,2","3,1,2,4","true","","",""
"null","","html-keyboard-response","365","318946","0.0-365.0","3EJPLAJKEN23UN9G4YXR4S2MO3HZ6E","A2T1LNI80EPOQR","3URJ6VVYUP9BUCT1SZOT2DFI02L4OC","","<img src=""img/set1/S3.jpg"" width=""540"" height = ""360"" style=""border:16px solid orange"">","null","","","","","","","","","",""
"null","","html-keyboard-response","366","319148","0.0-366.0","3EJPLAJKEN23UN9G4YXR4S2MO3HZ6E","A2T1LNI80EPOQR","3URJ6VVYUP9BUCT1SZOT2DFI02L4OC","","","null","","","","","","","","","",""
"429.20000000298023","","image-keyboard-response","367","319578","0.0-367.0","3EJPLAJKEN23UN9G4YXR4S2MO3HZ6E","A2T1LNI80EPOQR","3URJ6VVYUP9BUCT1SZOT2DFI02L4OC","","img/set1/S4.jpg","74","4","structured_load","74","structured_load,structured_normal,structured_incentive,random","1,2,2,3,4,2","3,1,2,4","true","","",""
"null","","html-keyboard-response","368","319938","0.0-368.0","3EJPLAJKEN23UN9G4YXR4S2MO3HZ6E","A2T1LNI80EPOQR","3URJ6VVYUP9BUCT1SZOT2DFI02L4OC","","<img src=""img/set1/S4.jpg"" width=""540"" height = ""360"" style=""border:16px solid orange"">","null","","","","","","","","","",""
"null","","html-keyboard-response","369","320140","0.0-369.0","3EJPLAJKEN23UN9G4YXR4S2MO3HZ6E","A2T1LNI80EPOQR","3URJ6VVYUP9BUCT1SZOT2DFI02L4OC","","","null","","","","","","","","","",""
"354.59999999403954","","image-keyboard-response","370","320495","0.0-370.0","3EJPLAJKEN23UN9G4YXR4S2MO3HZ6E","A2T1LNI80EPOQR","3URJ6VVYUP9BUCT1SZOT2DFI02L4OC","","img/set1/S4.jpg","74","4","structured_load","74","structured_load,structured_normal,structured_incentive,random","1,2,2,3,4,2","3,1,2,4","true","","",""
"null","","html-keyboard-response","371","320856","0.0-371.0","3EJPLAJKEN23UN9G4YXR4S2MO3HZ6E","A2T1LNI80EPOQR","3URJ6VVYUP9BUCT1SZOT2DFI02L4OC","","<img src=""img/set1/S4.jpg"" width=""540"" height = ""360"" style=""border:16px solid orange"">","null","","","","","","","","","",""
"null","","html-keyboard-response","372","321059","0.0-372.0","3EJPLAJKEN23UN9G4YXR4S2MO3HZ6E","A2T1LNI80EPOQR","3URJ6VVYUP9BUCT1SZOT2DFI02L4OC","","","null","","","","","","","","","",""
"1048.5999999940395","","image-keyboard-response","373","322108","0.0-373.0","3EJPLAJKEN23UN9G4YXR4S2MO3HZ6E","A2T1LNI80EPOQR","3URJ6VVYUP9BUCT1SZOT2DFI02L4OC","","img/set1/S3.jpg","72","3","structured_load","72","structured_load,structured_normal,structured_incentive,random","1,2,2,3,4,2","3,1,2,4","true","","",""
"null","","html-keyboard-response","374","322462","0.0-374.0","3EJPLAJKEN23UN9G4YXR4S2MO3HZ6E","A2T1LNI80EPOQR","3URJ6VVYUP9BUCT1SZOT2DFI02L4OC","","<img src=""img/set1/S3.jpg"" width=""540"" height = ""360"" style=""border:16px solid orange"">","null","","","","","","","","","",""
"null","","html-keyboard-response","375","322664","0.0-375.0","3EJPLAJKEN23UN9G4YXR4S2MO3HZ6E","A2T1LNI80EPOQR","3URJ6VVYUP9BUCT1SZOT2DFI02L4OC","","","null","","","","","","","","","",""
"480.1000000089407","","image-keyboard-response","376","323145","0.0-376.0","3EJPLAJKEN23UN9G4YXR4S2MO3HZ6E","A2T1LNI80EPOQR","3URJ6VVYUP9BUCT1SZOT2DFI02L4OC","","img/set1/S3.jpg","72","3","structured_load","72","structured_load,structured_normal,structured_incentive,random","1,2,2,3,4,2","3,1,2,4","true","","",""
"null","","html-keyboard-response","377","323499","0.0-377.0","3EJPLAJKEN23UN9G4YXR4S2MO3HZ6E","A2T1LNI80EPOQR","3URJ6VVYUP9BUCT1SZOT2DFI02L4OC","","<img src=""img/set1/S3.jpg"" width=""540"" height = ""360"" style=""border:16px solid orange"">","null","","","","","","","","","",""
"null","","html-keyboard-response","378","323701","0.0-378.0","3EJPLAJKEN23UN9G4YXR4S2MO3HZ6E","A2T1LNI80EPOQR","3URJ6VVYUP9BUCT1SZOT2DFI02L4OC","","","null","","","","","","","","","",""
"918.7000000029802","","image-keyboard-response","379","324621","0.0-379.0","3EJPLAJKEN23UN9G4YXR4S2MO3HZ6E","A2T1LNI80EPOQR","3URJ6VVYUP9BUCT1SZOT2DFI02L4OC","","img/set1/S1.jpg","83","1","structured_load","83","structured_load,structured_normal,structured_incentive,random","1,2,2,3,4,2","3,1,2,4","true","","",""
"null","","html-keyboard-response","380","324986","0.0-380.0","3EJPLAJKEN23UN9G4YXR4S2MO3HZ6E","A2T1LNI80EPOQR","3URJ6VVYUP9BUCT1SZOT2DFI02L4OC","","<img src=""img/set1/S1.jpg"" width=""540"" height = ""360"" style=""border:16px solid orange"">","null","","","","","","","","","",""
"null","","html-keyboard-response","381","325202","0.0-381.0","3EJPLAJKEN23UN9G4YXR4S2MO3HZ6E","A2T1LNI80EPOQR","3URJ6VVYUP9BUCT1SZOT2DFI02L4OC","","","null","","","","","","","","","",""
"635.8000000119209","","image-keyboard-response","382","325839","0.0-382.0","3EJPLAJKEN23UN9G4YXR4S2MO3HZ6E","A2T1LNI80EPOQR","3URJ6VVYUP9BUCT1SZOT2DFI02L4OC","","img/set1/S4.jpg","74","4","structured_load","74","structured_load,structured_normal,structured_incentive,random","1,2,2,3,4,2","3,1,2,4","true","","",""
