"rt","url","trial_type","trial_index","time_elapsed","internal_node_id","view_history","stimulus","key_press","state","test_part","correct_response","order_block","order_chunk","correct","responses","question_order","bonus"
"2491","consent.html","external-html","0","2534","0.0-0.0","","","","","","","","","","","",""
"2551469.299999982","","instructions","1","2554005","0.0-1.0","[{""page_index"":0,""viewing_time"":3641.2999999821186},{""page_index"":1,""viewing_time"":15573.09999999404},{""page_index"":2,""viewing_time"":4936.800000011921},{""page_index"":1,""viewing_time"":19366.19999998808},{""page_index"":2,""viewing_time"":19703.600000023842},{""page_index"":3,""viewing_time"":2443350.299999982},{""page_index"":4,""viewing_time"":8897.59999999404},{""page_index"":5,""viewing_time"":20815.40000000596},{""page_index"":6,""viewing_time"":15184.40000000596}]","","","","","","","","","","",""
"30104.19999998808","","instructions","2","2584109","0.0-2.0","[{""page_index"":0,""viewing_time"":30104}]","","","","","","","","","","",""
"29334.59999999404","","instructions","3","2613444","0.0-3.0","[{""page_index"":0,""viewing_time"":21511.59999999404},{""page_index"":1,""viewing_time"":7822.800000011921}]","","","","","","","","","","",""
"1301.300000011921","","image-keyboard-response","4","2614746","0.0-4.0","","img/set1/S1.jpg","83","1","structured_load","83","structured_load,structured_normal,random,structured_incentive","3,4,2,1,2,3","true","","",""
"null","","html-keyboard-response","5","2615100","0.0-5.0","","<img src=""img/set1/S1.jpg"" width=""540"" height = ""360"" style=""border:16px solid orange"">","null","","","","","","","","",""
"null","","html-keyboard-response","6","2615308","0.0-6.0","","","null","","","","","","","","",""
"1526.4000000059605","","image-keyboard-response","7","2616835","0.0-7.0","","img/set1/S2.jpg","74","2","structured_load","68","structured_load,structured_normal,random,structured_incentive","3,4,2,1,2,3","false","","",""
"null","","html-keyboard-response","8","2617187","0.0-8.0","","<img src=""img/set1/S2.jpg"" width=""540"" height = ""360"">","null","","","","","","","","",""
"null","","html-keyboard-response","9","2617393","0.0-9.0","","","null","","","","","","","","",""
"492.59999999403954","","image-keyboard-response","10","2617886","0.0-10.0","","img/set1/S3.jpg","83","3","structured_load","72","structured_load,structured_normal,random,structured_incentive","3,4,2,1,2,3","false","","",""
"null","","html-keyboard-response","11","2618252","0.0-11.0","","<img src=""img/set1/S3.jpg"" width=""540"" height = ""360"">","null","","","","","","","","",""
"null","","html-keyboard-response","12","2618460","0.0-12.0","","","null","","","","","","","","",""
"671.8000000119209","","image-keyboard-response","13","2619133","0.0-13.0","","img/set1/S4.jpg","68","4","structured_load","74","structured_load,structured_normal,random,structured_incentive","3,4,2,1,2,3","false","","",""
"null","","html-keyboard-response","14","2619493","0.0-14.0","","<img src=""img/set1/S4.jpg"" width=""540"" height = ""360"">","null","","","","","","","","",""
"null","","html-keyboard-response","15","2619702","0.0-15.0","","","null","","","","","","","","",""
"2224.699999988079","","image-keyboard-response","16","2621927","0.0-16.0","","img/set1/S1.jpg","83","1","structured_load","83","structured_load,structured_normal,random,structured_incentive","3,4,2,1,2,3","true","","",""
"null","","html-keyboard-response","17","2622285","0.0-17.0","","<img src=""img/set1/S1.jpg"" width=""540"" height = ""360"" style=""border:16px solid orange"">","null","","","","","","","","",""
"null","","html-keyboard-response","18","2622491","0.0-18.0","","","null","","","","","","","","",""
"822.9000000059605","","image-keyboard-response","19","2623315","0.0-19.0","","img/set1/S3.jpg","68","3","structured_load","72","structured_load,structured_normal,random,structured_incentive","3,4,2,1,2,3","false","","",""
"null","","html-keyboard-response","20","2623672","0.0-20.0","","<img src=""img/set1/S3.jpg"" width=""540"" height = ""360"">","null","","","","","","","","",""
"null","","html-keyboard-response","21","2623880","0.0-21.0","","","null","","","","","","","","",""
"703.5999999940395","","image-keyboard-response","22","2624584","0.0-22.0","","img/set1/S4.jpg","74","4","structured_load","74","structured_load,structured_normal,random,structured_incentive","3,4,2,1,2,3","true","","",""
"null","","html-keyboard-response","23","2624948","0.0-23.0","","<img src=""img/set1/S4.jpg"" width=""540"" height = ""360"" style=""border:16px solid orange"">","null","","","","","","","","",""
"null","","html-keyboard-response","24","2625156","0.0-24.0","","","null","","","","","","","","",""
"581.2000000178814","","image-keyboard-response","25","2625738","0.0-25.0","","img/set1/S1.jpg","83","1","structured_load","83","structured_load,structured_normal,random,structured_incentive","3,4,2,1,2,3","true","","",""
"null","","html-keyboard-response","26","2626101","0.0-26.0","","<img src=""img/set1/S1.jpg"" width=""540"" height = ""360"" style=""border:16px solid orange"">","null","","","","","","","","",""
"null","","html-keyboard-response","27","2626309","0.0-27.0","","","null","","","","","","","","",""
"1991","","image-keyboard-response","28","2628301","0.0-28.0","","img/set1/S3.jpg","68","3","structured_load","72","structured_load,structured_normal,random,structured_incentive","3,4,2,1,2,3","false","","",""
"null","","html-keyboard-response","29","2628662","0.0-29.0","","<img src=""img/set1/S3.jpg"" width=""540"" height = ""360"">","null","","","","","","","","",""
"null","","html-keyboard-response","30","2628870","0.0-30.0","","","null","","","","","","","","",""
"709.8999999761581","","image-keyboard-response","31","2629581","0.0-31.0","","img/set1/S4.jpg","74","4","structured_load","74","structured_load,structured_normal,random,structured_incentive","3,4,2,1,2,3","true","","",""
"null","","html-keyboard-response","32","2629943","0.0-32.0","","<img src=""img/set1/S4.jpg"" width=""540"" height = ""360"" style=""border:16px solid orange"">","null","","","","","","","","",""
"null","","html-keyboard-response","33","2630151","0.0-33.0","","","null","","","","","","","","",""
"1194.7999999821186","","image-keyboard-response","34","2631347","0.0-34.0","","img/set1/S3.jpg","74","3","structured_load","72","structured_load,structured_normal,random,structured_incentive","3,4,2,1,2,3","false","","",""
"null","","html-keyboard-response","35","2631703","0.0-35.0","","<img src=""img/set1/S3.jpg"" width=""540"" height = ""360"">","null","","","","","","","","",""
"null","","html-keyboard-response","36","2631911","0.0-36.0","","","null","","","","","","","","",""
"766.5","","image-keyboard-response","37","2632679","0.0-37.0","","img/set1/S4.jpg","74","4","structured_load","74","structured_load,structured_normal,random,structured_incentive","3,4,2,1,2,3","true","","",""
"null","","html-keyboard-response","38","2633031","0.0-38.0","","<img src=""img/set1/S4.jpg"" width=""540"" height = ""360"" style=""border:16px solid orange"">","null","","","","","","","","",""
"null","","html-keyboard-response","39","2633239","0.0-39.0","","","null","","","","","","","","",""
"458.59999999403954","","image-keyboard-response","40","2633698","0.0-40.0","","img/set1/S1.jpg","68","1","structured_load","83","structured_load,structured_normal,random,structured_incentive","3,4,2,1,2,3","false","","",""
"null","","html-keyboard-response","41","2634056","0.0-41.0","","<img src=""img/set1/S1.jpg"" width=""540"" height = ""360"">","null","","","","","","","","",""
"null","","html-keyboard-response","42","2634264","0.0-42.0","","","null","","","","","","","","",""
"639.0999999940395","","image-keyboard-response","43","2634904","0.0-43.0","","img/set1/S1.jpg","83","1","structured_load","83","structured_load,structured_normal,random,structured_incentive","3,4,2,1,2,3","true","","",""
"null","","html-keyboard-response","44","2635269","0.0-44.0","","<img src=""img/set1/S1.jpg"" width=""540"" height = ""360"" style=""border:16px solid orange"">","null","","","","","","","","",""
"null","","html-keyboard-response","45","2635476","0.0-45.0","","","null","","","","","","","","",""
"603.3000000119209","","image-keyboard-response","46","2636080","0.0-46.0","","img/set1/S1.jpg","83","1","structured_load","83","structured_load,structured_normal,random,structured_incentive","3,4,2,1,2,3","true","","",""
"null","","html-keyboard-response","47","2636435","0.0-47.0","","<img src=""img/set1/S1.jpg"" width=""540"" height = ""360"" style=""border:16px solid orange"">","null","","","","","","","","",""
"null","","html-keyboard-response","48","2636643","0.0-48.0","","","null","","","","","","","","",""
"516.1000000238419","","image-keyboard-response","49","2637160","0.0-49.0","","img/set1/S3.jpg","74","3","structured_load","72","structured_load,structured_normal,random,structured_incentive","3,4,2,1,2,3","false","","",""
"null","","html-keyboard-response","50","2637523","0.0-50.0","","<img src=""img/set1/S3.jpg"" width=""540"" height = ""360"">","null","","","","","","","","",""
"null","","html-keyboard-response","51","2637731","0.0-51.0","","","null","","","","","","","","",""
"499.80000001192093","","image-keyboard-response","52","2638231","0.0-52.0","","img/set1/S4.jpg","74","4","structured_load","74","structured_load,structured_normal,random,structured_incentive","3,4,2,1,2,3","true","","",""
"null","","html-keyboard-response","53","2638595","0.0-53.0","","<img src=""img/set1/S4.jpg"" width=""540"" height = ""360"" style=""border:16px solid orange"">","null","","","","","","","","",""
"null","","html-keyboard-response","54","2638802","0.0-54.0","","","null","","","","","","","","",""
"1690.4000000059605","","image-keyboard-response","55","2640493","0.0-55.0","","img/set1/S2.jpg","68","2","structured_load","68","structured_load,structured_normal,random,structured_incentive","3,4,2,1,2,3","true","","",""
"null","","html-keyboard-response","56","2640848","0.0-56.0","","<img src=""img/set1/S2.jpg"" width=""540"" height = ""360"" style=""border:16px solid orange"">","null","","","","","","","","",""
"null","","html-keyboard-response","57","2641055","0.0-57.0","","","null","","","","","","","","",""
"574","","image-keyboard-response","58","2641629","0.0-58.0","","img/set1/S2.jpg","68","2","structured_load","68","structured_load,structured_normal,random,structured_incentive","3,4,2,1,2,3","true","","",""
"null","","html-keyboard-response","59","2641982","0.0-59.0","","<img src=""img/set1/S2.jpg"" width=""540"" height = ""360"" style=""border:16px solid orange"">","null","","","","","","","","",""
"null","","html-keyboard-response","60","2642189","0.0-60.0","","","null","","","","","","","","",""
"1323.699999988079","","image-keyboard-response","61","2643513","0.0-61.0","","img/set1/S3.jpg","74","3","structured_load","72","structured_load,structured_normal,random,structured_incentive","3,4,2,1,2,3","false","","",""
"null","","html-keyboard-response","62","2643869","0.0-62.0","","<img src=""img/set1/S3.jpg"" width=""540"" height = ""360"">","null","","","","","","","","",""
"null","","html-keyboard-response","63","2644077","0.0-63.0","","","null","","","","","","","","",""
"1043.199999988079","","image-keyboard-response","64","2645121","0.0-64.0","","img/set1/S4.jpg","68","4","structured_load","74","structured_load,structured_normal,random,structured_incentive","3,4,2,1,2,3","false","","",""
"null","","html-keyboard-response","65","2645485","0.0-65.0","","<img src=""img/set1/S4.jpg"" width=""540"" height = ""360"">","null","","","","","","","","",""
"null","","html-keyboard-response","66","2645694","0.0-66.0","","","null","","","","","","","","",""
"1557.699999988079","","image-keyboard-response","67","2647252","0.0-67.0","","img/set1/S2.jpg","83","2","structured_load","68","structured_load,structured_normal,random,structured_incentive","3,4,2,1,2,3","false","","",""
"null","","html-keyboard-response","68","2647611","0.0-68.0","","<img src=""img/set1/S2.jpg"" width=""540"" height = ""360"">","null","","","","","","","","",""
"null","","html-keyboard-response","69","2647819","0.0-69.0","","","null","","","","","","","","",""
"732.8000000119209","","image-keyboard-response","70","2648553","0.0-70.0","","img/set1/S2.jpg","68","2","structured_load","68","structured_load,structured_normal,random,structured_incentive","3,4,2,1,2,3","true","","",""
"null","","html-keyboard-response","71","2648906","0.0-71.0","","<img src=""img/set1/S2.jpg"" width=""540"" height = ""360"" style=""border:16px solid orange"">","null","","","","","","","","",""
"null","","html-keyboard-response","72","2649113","0.0-72.0","","","null","","","","","","","","",""
"425","","image-keyboard-response","73","2649539","0.0-73.0","","img/set1/S2.jpg","68","2","structured_load","68","structured_load,structured_normal,random,structured_incentive","3,4,2,1,2,3","true","","",""
"null","","html-keyboard-response","74","2649898","0.0-74.0","","<img src=""img/set1/S2.jpg"" width=""540"" height = ""360"" style=""border:16px solid orange"">","null","","","","","","","","",""
"null","","html-keyboard-response","75","2650105","0.0-75.0","","","null","","","","","","","","",""
"931","","image-keyboard-response","76","2651037","0.0-76.0","","img/set1/S1.jpg","83","1","structured_load","83","structured_load,structured_normal,random,structured_incentive","3,4,2,1,2,3","true","","",""
"null","","html-keyboard-response","77","2651400","0.0-77.0","","<img src=""img/set1/S1.jpg"" width=""540"" height = ""360"" style=""border:16px solid orange"">","null","","","","","","","","",""
"null","","html-keyboard-response","78","2651608","0.0-78.0","","","null","","","","","","","","",""
"398","","image-keyboard-response","79","2652007","0.0-79.0","","img/set1/S1.jpg","83","1","structured_load","83","structured_load,structured_normal,random,structured_incentive","3,4,2,1,2,3","true","","",""
"null","","html-keyboard-response","80","2652361","0.0-80.0","","<img src=""img/set1/S1.jpg"" width=""540"" height = ""360"" style=""border:16px solid orange"">","null","","","","","","","","",""
"null","","html-keyboard-response","81","2652569","0.0-81.0","","","null","","","","","","","","",""
"468.40000000596046","","image-keyboard-response","82","2653038","0.0-82.0","","img/set1/S1.jpg","83","1","structured_load","83","structured_load,structured_normal,random,structured_incentive","3,4,2,1,2,3","true","","",""
"null","","html-keyboard-response","83","2653402","0.0-83.0","","<img src=""img/set1/S1.jpg"" width=""540"" height = ""360"" style=""border:16px solid orange"">","null","","","","","","","","",""
"null","","html-keyboard-response","84","2653610","0.0-84.0","","","null","","","","","","","","",""
"430.2999999821186","","image-keyboard-response","85","2654041","0.0-85.0","","img/set1/S1.jpg","83","1","structured_load","83","structured_load,structured_normal,random,structured_incentive","3,4,2,1,2,3","true","","",""
"null","","html-keyboard-response","86","2654394","0.0-86.0","","<img src=""img/set1/S1.jpg"" width=""540"" height = ""360"" style=""border:16px solid orange"">","null","","","","","","","","",""
"null","","html-keyboard-response","87","2654601","0.0-87.0","","","null","","","","","","","","",""
"776","","image-keyboard-response","88","2655378","0.0-88.0","","img/set1/S2.jpg","68","2","structured_load","68","structured_load,structured_normal,random,structured_incentive","3,4,2,1,2,3","true","","",""
"null","","html-keyboard-response","89","2655736","0.0-89.0","","<img src=""img/set1/S2.jpg"" width=""540"" height = ""360"" style=""border:16px solid orange"">","null","","","","","","","","",""
"null","","html-keyboard-response","90","2655944","0.0-90.0","","","null","","","","","","","","",""
"1104.0999999940395","","image-keyboard-response","91","2657049","0.0-91.0","","img/set1/S3.jpg","68","3","structured_load","72","structured_load,structured_normal,random,structured_incentive","3,4,2,1,2,3","false","","",""
"null","","html-keyboard-response","92","2657414","0.0-92.0","","<img src=""img/set1/S3.jpg"" width=""540"" height = ""360"">","null","","","","","","","","",""
"null","","html-keyboard-response","93","2657622","0.0-93.0","","","null","","","","","","","","",""
"600.8000000119209","","image-keyboard-response","94","2658224","0.0-94.0","","img/set1/S4.jpg","68","4","structured_load","74","structured_load,structured_normal,random,structured_incentive","3,4,2,1,2,3","false","","",""
"null","","html-keyboard-response","95","2658582","0.0-95.0","","<img src=""img/set1/S4.jpg"" width=""540"" height = ""360"">","null","","","","","","","","",""
"null","","html-keyboard-response","96","2658790","0.0-96.0","","","null","","","","","","","","",""
"610.2000000178814","","image-keyboard-response","97","2659401","0.0-97.0","","img/set1/S1.jpg","83","1","structured_load","83","structured_load,structured_normal,random,structured_incentive","3,4,2,1,2,3","true","","",""
"null","","html-keyboard-response","98","2659765","0.0-98.0","","<img src=""img/set1/S1.jpg"" width=""540"" height = ""360"" style=""border:16px solid orange"">","null","","","","","","","","",""
"null","","html-keyboard-response","99","2659972","0.0-99.0","","","null","","","","","","","","",""
"887.3000000119209","","image-keyboard-response","100","2660860","0.0-100.0","","img/set1/S2.jpg","68","2","structured_load","68","structured_load,structured_normal,random,structured_incentive","3,4,2,1,2,3","true","","",""
"null","","html-keyboard-response","101","2661220","0.0-101.0","","<img src=""img/set1/S2.jpg"" width=""540"" height = ""360"" style=""border:16px solid orange"">","null","","","","","","","","",""
"null","","html-keyboard-response","102","2661428","0.0-102.0","","","null","","","","","","","","",""
"1142.5","","image-keyboard-response","103","2662571","0.0-103.0","","img/set1/S3.jpg","74","3","structured_load","72","structured_load,structured_normal,random,structured_incentive","3,4,2,1,2,3","false","","",""
"null","","html-keyboard-response","104","2662933","0.0-104.0","","<img src=""img/set1/S3.jpg"" width=""540"" height = ""360"">","null","","","","","","","","",""
"null","","html-keyboard-response","105","2663141","0.0-105.0","","","null","","","","","","","","",""
"763.2999999821186","","image-keyboard-response","106","2663905","0.0-106.0","","img/set1/S4.jpg","68","4","structured_load","74","structured_load,structured_normal,random,structured_incentive","3,4,2,1,2,3","false","","",""
"null","","html-keyboard-response","107","2664262","0.0-107.0","","<img src=""img/set1/S4.jpg"" width=""540"" height = ""360"">","null","","","","","","","","",""
"null","","html-keyboard-response","108","2664470","0.0-108.0","","","null","","","","","","","","",""
"1234.9000000059605","","image-keyboard-response","109","2665705","0.0-109.0","","img/set1/S3.jpg","74","3","structured_load","72","structured_load,structured_normal,random,structured_incentive","3,4,2,1,2,3","false","","",""
"null","","html-keyboard-response","110","2666070","0.0-110.0","","<img src=""img/set1/S3.jpg"" width=""540"" height = ""360"">","null","","","","","","","","",""
"null","","html-keyboard-response","111","2666278","0.0-111.0","","","null","","","","","","","","",""
"2078","","image-keyboard-response","112","2668357","0.0-112.0","","img/set1/S4.jpg","68","4","structured_load","74","structured_load,structured_normal,random,structured_incentive","3,4,2,1,2,3","false","","",""
"null","","html-keyboard-response","113","2668709","0.0-113.0","","<img src=""img/set1/S4.jpg"" width=""540"" height = ""360"">","null","","","","","","","","",""
"null","","html-keyboard-response","114","2668918","0.0-114.0","","","null","","","","","","","","",""
"871.9000000059605","","image-keyboard-response","115","2669790","0.0-115.0","","img/set1/S1.jpg","83","1","structured_load","83","structured_load,structured_normal,random,structured_incentive","3,4,2,1,2,3","true","","",""
"null","","html-keyboard-response","116","2670150","0.0-116.0","","<img src=""img/set1/S1.jpg"" width=""540"" height = ""360"" style=""border:16px solid orange"">","null","","","","","","","","",""
"null","","html-keyboard-response","117","2670358","0.0-117.0","","","null","","","","","","","","",""
"539.5","","image-keyboard-response","118","2670898","0.0-118.0","","img/set1/S1.jpg","83","1","structured_load","83","structured_load,structured_normal,random,structured_incentive","3,4,2,1,2,3","true","","",""
"null","","html-keyboard-response","119","2671253","0.0-119.0","","<img src=""img/set1/S1.jpg"" width=""540"" height = ""360"" style=""border:16px solid orange"">","null","","","","","","","","",""
"null","","html-keyboard-response","120","2671461","0.0-120.0","","","null","","","","","","","","",""
"454.69999998807907","","image-keyboard-response","121","2671917","0.0-121.0","","img/set1/S1.jpg","83","1","structured_load","83","structured_load,structured_normal,random,structured_incentive","3,4,2,1,2,3","true","","",""
"null","","html-keyboard-response","122","2672278","0.0-122.0","","<img src=""img/set1/S1.jpg"" width=""540"" height = ""360"" style=""border:16px solid orange"">","null","","","","","","","","",""
"null","","html-keyboard-response","123","2672486","0.0-123.0","","","null","","","","","","","","",""
"973","","image-keyboard-response","124","2673460","0.0-124.0","","img/set1/S3.jpg","83","3","structured_load","72","structured_load,structured_normal,random,structured_incentive","3,4,2,1,2,3","false","","",""
"null","","html-keyboard-response","125","2673812","0.0-125.0","","<img src=""img/set1/S3.jpg"" width=""540"" height = ""360"">","null","","","","","","","","",""
"null","","html-keyboard-response","126","2674020","0.0-126.0","","","null","","","","","","","","",""
"489","","image-keyboard-response","127","2674510","0.0-127.0","","img/set1/S4.jpg","83","4","structured_load","74","structured_load,structured_normal,random,structured_incentive","3,4,2,1,2,3","false","","",""
"null","","html-keyboard-response","128","2674869","0.0-128.0","","<img src=""img/set1/S4.jpg"" width=""540"" height = ""360"">","null","","","","","","","","",""
"null","","html-keyboard-response","129","2675077","0.0-129.0","","","null","","","","","","","","",""
"786.1999999880791","","image-keyboard-response","130","2675864","0.0-130.0","","img/set1/S2.jpg","68","2","structured_load","68","structured_load,structured_normal,random,structured_incentive","3,4,2,1,2,3","true","","",""
"null","","html-keyboard-response","131","2676229","0.0-131.0","","<img src=""img/set1/S2.jpg"" width=""540"" height = ""360"" style=""border:16px solid orange"">","null","","","","","","","","",""
"null","","html-keyboard-response","132","2676437","0.0-132.0","","","null","","","","","","","","",""
"1328","","image-keyboard-response","133","2677766","0.0-133.0","","img/set1/S2.jpg","68","2","structured_load","68","structured_load,structured_normal,random,structured_incentive","3,4,2,1,2,3","true","","",""
"null","","html-keyboard-response","134","2678131","0.0-134.0","","<img src=""img/set1/S2.jpg"" width=""540"" height = ""360"" style=""border:16px solid orange"">","null","","","","","","","","",""
"null","","html-keyboard-response","135","2678339","0.0-135.0","","","null","","","","","","","","",""
"497.10000002384186","","image-keyboard-response","136","2678836","0.0-136.0","","img/set1/S2.jpg","68","2","structured_load","68","structured_load,structured_normal,random,structured_incentive","3,4,2,1,2,3","true","","",""
"null","","html-keyboard-response","137","2679201","0.0-137.0","","<img src=""img/set1/S2.jpg"" width=""540"" height = ""360"" style=""border:16px solid orange"">","null","","","","","","","","",""
"null","","html-keyboard-response","138","2679409","0.0-138.0","","","null","","","","","","","","",""
"1255.1000000238419","","image-keyboard-response","139","2680664","0.0-139.0","","img/set1/S3.jpg","74","3","structured_load","72","structured_load,structured_normal,random,structured_incentive","3,4,2,1,2,3","false","","",""
"null","","html-keyboard-response","140","2681024","0.0-140.0","","<img src=""img/set1/S3.jpg"" width=""540"" height = ""360"">","null","","","","","","","","",""
"null","","html-keyboard-response","141","2681233","0.0-141.0","","","null","","","","","","","","",""
"847.0999999940395","","image-keyboard-response","142","2682080","0.0-142.0","","img/set1/S4.jpg","68","4","structured_load","74","structured_load,structured_normal,random,structured_incentive","3,4,2,1,2,3","false","","",""
"null","","html-keyboard-response","143","2682433","0.0-143.0","","<img src=""img/set1/S4.jpg"" width=""540"" height = ""360"">","null","","","","","","","","",""
"null","","html-keyboard-response","144","2682641","0.0-144.0","","","null","","","","","","","","",""
"743.9000000059605","","image-keyboard-response","145","2683385","0.0-145.0","","img/set1/S2.jpg","68","2","structured_load","68","structured_load,structured_normal,random,structured_incentive","3,4,2,1,2,3","true","","",""
"null","","html-keyboard-response","146","2683745","0.0-146.0","","<img src=""img/set1/S2.jpg"" width=""540"" height = ""360"" style=""border:16px solid orange"">","null","","","","","","","","",""
"null","","html-keyboard-response","147","2683953","0.0-147.0","","","null","","","","","","","","",""
"1080.300000011921","","image-keyboard-response","148","2685033","0.0-148.0","","img/set1/S3.jpg","83","3","structured_load","72","structured_load,structured_normal,random,structured_incentive","3,4,2,1,2,3","false","","",""
"null","","html-keyboard-response","149","2685391","0.0-149.0","","<img src=""img/set1/S3.jpg"" width=""540"" height = ""360"">","null","","","","","","","","",""
"null","","html-keyboard-response","150","2685600","0.0-150.0","","","null","","","","","","","","",""
"2309.199999988079","","image-keyboard-response","151","2687909","0.0-151.0","","img/set1/S4.jpg","74","4","structured_load","74","structured_load,structured_normal,random,structured_incentive","3,4,2,1,2,3","true","","",""
"null","","html-keyboard-response","152","2688271","0.0-152.0","","<img src=""img/set1/S4.jpg"" width=""540"" height = ""360"" style=""border:16px solid orange"">","null","","","","","","","","",""
"null","","html-keyboard-response","153","2688478","0.0-153.0","","","null","","","","","","","","",""
"1217.2999999821186","","image-keyboard-response","154","2689696","0.0-154.0","","img/set1/S2.jpg","68","2","structured_load","68","structured_load,structured_normal,random,structured_incentive","3,4,2,1,2,3","true","","",""
"null","","html-keyboard-response","155","2690062","0.0-155.0","","<img src=""img/set1/S2.jpg"" width=""540"" height = ""360"" style=""border:16px solid orange"">","null","","","","","","","","",""
"null","","html-keyboard-response","156","2690270","0.0-156.0","","","null","","","","","","","","",""
"1891.5999999940395","","image-keyboard-response","157","2692162","0.0-157.0","","img/set1/S3.jpg","83","3","structured_load","72","structured_load,structured_normal,random,structured_incentive","3,4,2,1,2,3","false","","",""
"null","","html-keyboard-response","158","2692523","0.0-158.0","","<img src=""img/set1/S3.jpg"" width=""540"" height = ""360"">","null","","","","","","","","",""
"null","","html-keyboard-response","159","2692732","0.0-159.0","","","null","","","","","","","","",""
"523.8000000119209","","image-keyboard-response","160","2693256","0.0-160.0","","img/set1/S4.jpg","74","4","structured_load","74","structured_load,structured_normal,random,structured_incentive","3,4,2,1,2,3","true","","",""
"null","","html-keyboard-response","161","2693610","0.0-161.0","","<img src=""img/set1/S4.jpg"" width=""540"" height = ""360"" style=""border:16px solid orange"">","null","","","","","","","","",""
"null","","html-keyboard-response","162","2693818","0.0-162.0","","","null","","","","","","","","",""
"null","","image-keyboard-response","163","2696332","0.0-163.0","","img/set1/S3.jpg","null","3","structured_load","72","structured_load,structured_normal,random,structured_incentive","3,4,2,1,2,3","false","","",""
"null","","html-keyboard-response","164","2696684","0.0-164.0","","<img src=""img/set1/S3.jpg"" width=""540"" height = ""360"">","null","","","","","","","","",""
"null","","html-keyboard-response","165","2696885","0.0-165.0","","","null","","","","","","","","",""
"570.3000000119209","","image-keyboard-response","166","2697456","0.0-166.0","","img/set1/S4.jpg","74","4","structured_load","74","structured_load,structured_normal,random,structured_incentive","3,4,2,1,2,3","true","","",""
"null","","html-keyboard-response","167","2697819","0.0-167.0","","<img src=""img/set1/S4.jpg"" width=""540"" height = ""360"" style=""border:16px solid orange"">","null","","","","","","","","",""
"null","","html-keyboard-response","168","2698026","0.0-168.0","","","null","","","","","","","","",""
"751.5999999940395","","image-keyboard-response","169","2698778","0.0-169.0","","img/set1/S3.jpg","68","3","structured_load","72","structured_load,structured_normal,random,structured_incentive","3,4,2,1,2,3","false","","",""
"null","","html-keyboard-response","170","2699130","0.0-170.0","","<img src=""img/set1/S3.jpg"" width=""540"" height = ""360"">","null","","","","","","","","",""
"null","","html-keyboard-response","171","2699338","0.0-171.0","","","null","","","","","","","","",""
"490","","image-keyboard-response","172","2699829","0.0-172.0","","img/set1/S4.jpg","74","4","structured_load","74","structured_load,structured_normal,random,structured_incentive","3,4,2,1,2,3","true","","",""
"null","","html-keyboard-response","173","2700184","0.0-173.0","","<img src=""img/set1/S4.jpg"" width=""540"" height = ""360"" style=""border:16px solid orange"">","null","","","","","","","","",""
"null","","html-keyboard-response","174","2700392","0.0-174.0","","","null","","","","","","","","",""
"550.2999999821186","","image-keyboard-response","175","2700943","0.0-175.0","","img/set1/S2.jpg","68","2","structured_load","68","structured_load,structured_normal,random,structured_incentive","3,4,2,1,2,3","true","","",""
"null","","html-keyboard-response","176","2701304","0.0-176.0","","<img src=""img/set1/S2.jpg"" width=""540"" height = ""360"" style=""border:16px solid orange"">","null","","","","","","","","",""
"null","","html-keyboard-response","177","2701510","0.0-177.0","","","null","","","","","","","","",""
"1385.300000011921","","image-keyboard-response","178","2702896","0.0-178.0","","img/set1/S3.jpg","83","3","structured_load","72","structured_load,structured_normal,random,structured_incentive","3,4,2,1,2,3","false","","",""
"null","","html-keyboard-response","179","2703252","0.0-179.0","","<img src=""img/set1/S3.jpg"" width=""540"" height = ""360"">","null","","","","","","","","",""
"null","","html-keyboard-response","180","2703460","0.0-180.0","","","null","","","","","","","","",""
"567.9000000059605","","image-keyboard-response","181","2704029","0.0-181.0","","img/set1/S4.jpg","74","4","structured_load","74","structured_load,structured_normal,random,structured_incentive","3,4,2,1,2,3","true","","",""
"null","","html-keyboard-response","182","2704389","0.0-182.0","","<img src=""img/set1/S4.jpg"" width=""540"" height = ""360"" style=""border:16px solid orange"">","null","","","","","","","","",""
"null","","html-keyboard-response","183","2704597","0.0-183.0","","","null","","","","","","","","",""
"744.9000000059605","","image-keyboard-response","184","2705343","0.0-184.0","","img/set1/S1.jpg","83","1","structured_load","83","structured_load,structured_normal,random,structured_incentive","3,4,2,1,2,3","true","","",""
"null","","html-keyboard-response","185","2705699","0.0-185.0","","<img src=""img/set1/S1.jpg"" width=""540"" height = ""360"" style=""border:16px solid orange"">","null","","","","","","","","",""
"null","","html-keyboard-response","186","2705906","0.0-186.0","","","null","","","","","","","","",""
"768.7000000178814","","image-keyboard-response","187","2706676","0.0-187.0","","img/set1/S2.jpg","68","2","structured_load","68","structured_load,structured_normal,random,structured_incentive","3,4,2,1,2,3","true","","",""
"null","","html-keyboard-response","188","2707042","0.0-188.0","","<img src=""img/set1/S2.jpg"" width=""540"" height = ""360"" style=""border:16px solid orange"">","null","","","","","","","","",""
"null","","html-keyboard-response","189","2707249","0.0-189.0","","","null","","","","","","","","",""
"443.7000000178814","","image-keyboard-response","190","2707693","0.0-190.0","","img/set1/S2.jpg","68","2","structured_load","68","structured_load,structured_normal,random,structured_incentive","3,4,2,1,2,3","true","","",""
"null","","html-keyboard-response","191","2708048","0.0-191.0","","<img src=""img/set1/S2.jpg"" width=""540"" height = ""360"" style=""border:16px solid orange"">","null","","","","","","","","",""
"null","","html-keyboard-response","192","2708256","0.0-192.0","","","null","","","","","","","","",""
"446.59999999403954","","image-keyboard-response","193","2708704","0.0-193.0","","img/set1/S2.jpg","68","2","structured_load","68","structured_load,structured_normal,random,structured_incentive","3,4,2,1,2,3","true","","",""
"null","","html-keyboard-response","194","2709057","0.0-194.0","","<img src=""img/set1/S2.jpg"" width=""540"" height = ""360"" style=""border:16px solid orange"">","null","","","","","","","","",""
"null","","html-keyboard-response","195","2709264","0.0-195.0","","","null","","","","","","","","",""
"696.5","","image-keyboard-response","196","2709961","0.0-196.0","","img/set1/S1.jpg","83","1","structured_load","83","structured_load,structured_normal,random,structured_incentive","3,4,2,1,2,3","true","","",""
"null","","html-keyboard-response","197","2710320","0.0-197.0","","<img src=""img/set1/S1.jpg"" width=""540"" height = ""360"" style=""border:16px solid orange"">","null","","","","","","","","",""
"null","","html-keyboard-response","198","2710527","0.0-198.0","","","null","","","","","","","","",""
"1608.9000000059605","","image-keyboard-response","199","2712136","0.0-199.0","","img/set1/S3.jpg","74","3","structured_load","72","structured_load,structured_normal,random,structured_incentive","3,4,2,1,2,3","false","","",""
"null","","html-keyboard-response","200","2712495","0.0-200.0","","<img src=""img/set1/S3.jpg"" width=""540"" height = ""360"">","null","","","","","","","","",""
"null","","html-keyboard-response","201","2712703","0.0-201.0","","","null","","","","","","","","",""
"556.3999999761581","","image-keyboard-response","202","2713260","0.0-202.0","","img/set1/S4.jpg","68","4","structured_load","74","structured_load,structured_normal,random,structured_incentive","3,4,2,1,2,3","false","","",""
"null","","html-keyboard-response","203","2713615","0.0-203.0","","<img src=""img/set1/S4.jpg"" width=""540"" height = ""360"">","null","","","","","","","","",""
"null","","html-keyboard-response","204","2713823","0.0-204.0","","","null","","","","","","","","",""
"844.2999999821186","","image-keyboard-response","205","2714668","0.0-205.0","","img/set1/S2.jpg","68","2","structured_load","68","structured_load,structured_normal,random,structured_incentive","3,4,2,1,2,3","true","","",""
"null","","html-keyboard-response","206","2715022","0.0-206.0","","<img src=""img/set1/S2.jpg"" width=""540"" height = ""360"" style=""border:16px solid orange"">","null","","","","","","","","",""
"null","","html-keyboard-response","207","2715230","0.0-207.0","","","null","","","","","","","","",""
"2151","","image-keyboard-response","208","2717381","0.0-208.0","","img/set1/S3.jpg","83","3","structured_load","72","structured_load,structured_normal,random,structured_incentive","3,4,2,1,2,3","false","","",""
"null","","html-keyboard-response","209","2717741","0.0-209.0","","<img src=""img/set1/S3.jpg"" width=""540"" height = ""360"">","null","","","","","","","","",""
"null","","html-keyboard-response","210","2717949","0.0-210.0","","","null","","","","","","","","",""
"687.3000000119209","","image-keyboard-response","211","2718637","0.0-211.0","","img/set1/S4.jpg","74","4","structured_load","74","structured_load,structured_normal,random,structured_incentive","3,4,2,1,2,3","true","","",""
"null","","html-keyboard-response","212","2719003","0.0-212.0","","<img src=""img/set1/S4.jpg"" width=""540"" height = ""360"" style=""border:16px solid orange"">","null","","","","","","","","",""
"null","","html-keyboard-response","213","2719209","0.0-213.0","","","null","","","","","","","","",""
"583.0999999940395","","image-keyboard-response","214","2719793","0.0-214.0","","img/set1/S2.jpg","68","2","structured_load","68","structured_load,structured_normal,random,structured_incentive","3,4,2,1,2,3","true","","",""
"null","","html-keyboard-response","215","2720154","0.0-215.0","","<img src=""img/set1/S2.jpg"" width=""540"" height = ""360"" style=""border:16px solid orange"">","null","","","","","","","","",""
"null","","html-keyboard-response","216","2720363","0.0-216.0","","","null","","","","","","","","",""
"2001.800000011921","","image-keyboard-response","217","2722365","0.0-217.0","","img/set1/S3.jpg","74","3","structured_load","72","structured_load,structured_normal,random,structured_incentive","3,4,2,1,2,3","false","","",""
"null","","html-keyboard-response","218","2722730","0.0-218.0","","<img src=""img/set1/S3.jpg"" width=""540"" height = ""360"">","null","","","","","","","","",""
"null","","html-keyboard-response","219","2722938","0.0-219.0","","","null","","","","","","","","",""
"518.7000000178814","","image-keyboard-response","220","2723457","0.0-220.0","","img/set1/S4.jpg","68","4","structured_load","74","structured_load,structured_normal,random,structured_incentive","3,4,2,1,2,3","false","","",""
"null","","html-keyboard-response","221","2723819","0.0-221.0","","<img src=""img/set1/S4.jpg"" width=""540"" height = ""360"">","null","","","","","","","","",""
"null","","html-keyboard-response","222","2724027","0.0-222.0","","","null","","","","","","","","",""
"1047.5","","image-keyboard-response","223","2725075","0.0-223.0","","img/set1/S2.jpg","68","2","structured_load","68","structured_load,structured_normal,random,structured_incentive","3,4,2,1,2,3","true","","",""
"null","","html-keyboard-response","224","2725435","0.0-224.0","","<img src=""img/set1/S2.jpg"" width=""540"" height = ""360"" style=""border:16px solid orange"">","null","","","","","","","","",""
"null","","html-keyboard-response","225","2725643","0.0-225.0","","","null","","","","","","","","",""
"556.0999999940395","","image-keyboard-response","226","2726200","0.0-226.0","","img/set1/S1.jpg","83","1","structured_load","83","structured_load,structured_normal,random,structured_incentive","3,4,2,1,2,3","true","","",""
"null","","html-keyboard-response","227","2726556","0.0-227.0","","<img src=""img/set1/S1.jpg"" width=""540"" height = ""360"" style=""border:16px solid orange"">","null","","","","","","","","",""
"null","","html-keyboard-response","228","2726764","0.0-228.0","","","null","","","","","","","","",""
"487.19999998807907","","image-keyboard-response","229","2727252","0.0-229.0","","img/set1/S1.jpg","68","1","structured_load","83","structured_load,structured_normal,random,structured_incentive","3,4,2,1,2,3","false","","",""
"null","","html-keyboard-response","230","2727613","0.0-230.0","","<img src=""img/set1/S1.jpg"" width=""540"" height = ""360"">","null","","","","","","","","",""
"null","","html-keyboard-response","231","2727821","0.0-231.0","","","null","","","","","","","","",""
"null","","image-keyboard-response","232","2730332","0.0-232.0","","img/set1/S3.jpg","null","3","structured_load","72","structured_load,structured_normal,random,structured_incentive","3,4,2,1,2,3","false","","",""
"null","","html-keyboard-response","233","2730685","0.0-233.0","","<img src=""img/set1/S3.jpg"" width=""540"" height = ""360"">","null","","","","","","","","",""
"null","","html-keyboard-response","234","2730891","0.0-234.0","","","null","","","","","","","","",""
"684.3999999761581","","image-keyboard-response","235","2731576","0.0-235.0","","img/set1/S4.jpg","68","4","structured_load","74","structured_load,structured_normal,random,structured_incentive","3,4,2,1,2,3","false","","",""
"null","","html-keyboard-response","236","2731932","0.0-236.0","","<img src=""img/set1/S4.jpg"" width=""540"" height = ""360"">","null","","","","","","","","",""
"null","","html-keyboard-response","237","2732140","0.0-237.0","","","null","","","","","","","","",""
"685.6999999880791","","image-keyboard-response","238","2732826","0.0-238.0","","img/set1/S2.jpg","68","2","structured_load","68","structured_load,structured_normal,random,structured_incentive","3,4,2,1,2,3","true","","",""
"null","","html-keyboard-response","239","2733179","0.0-239.0","","<img src=""img/set1/S2.jpg"" width=""540"" height = ""360"" style=""border:16px solid orange"">","null","","","","","","","","",""
"null","","html-keyboard-response","240","2733387","0.0-240.0","","","null","","","","","","","","",""
"437.90000000596046","","image-keyboard-response","241","2733826","0.0-241.0","","img/set1/S2.jpg","68","2","structured_load","68","structured_load,structured_normal,random,structured_incentive","3,4,2,1,2,3","true","","",""
"null","","html-keyboard-response","242","2734188","0.0-242.0","","<img src=""img/set1/S2.jpg"" width=""540"" height = ""360"" style=""border:16px solid orange"">","null","","","","","","","","",""
"null","","html-keyboard-response","243","2734396","0.0-243.0","","","null","","","","","","","","",""
"615.1999999880791","","image-keyboard-response","244","2735012","0.0-244.0","","img/set1/S1.jpg","83","1","structured_load","83","structured_load,structured_normal,random,structured_incentive","3,4,2,1,2,3","true","","",""
"null","","html-keyboard-response","245","2735373","0.0-245.0","","<img src=""img/set1/S1.jpg"" width=""540"" height = ""360"" style=""border:16px solid orange"">","null","","","","","","","","",""
"null","","html-keyboard-response","246","2735581","0.0-246.0","","","null","","","","","","","","",""
"1724.5","","image-keyboard-response","247","2737307","0.0-247.0","","img/set1/S3.jpg","68","3","structured_load","72","structured_load,structured_normal,random,structured_incentive","3,4,2,1,2,3","false","","",""
"null","","html-keyboard-response","248","2737662","0.0-248.0","","<img src=""img/set1/S3.jpg"" width=""540"" height = ""360"">","null","","","","","","","","",""
"null","","html-keyboard-response","249","2737870","0.0-249.0","","","null","","","","","","","","",""
"562.9000000059605","","image-keyboard-response","250","2738433","0.0-250.0","","img/set1/S4.jpg","68","4","structured_load","74","structured_load,structured_normal,random,structured_incentive","3,4,2,1,2,3","false","","",""
"null","","html-keyboard-response","251","2738799","0.0-251.0","","<img src=""img/set1/S4.jpg"" width=""540"" height = ""360"">","null","","","","","","","","",""
"null","","html-keyboard-response","252","2739007","0.0-252.0","","","null","","","","","","","","",""
"677","","image-keyboard-response","253","2739685","0.0-253.0","","img/set1/S1.jpg","83","1","structured_load","83","structured_load,structured_normal,random,structured_incentive","3,4,2,1,2,3","true","","",""
"null","","html-keyboard-response","254","2740047","0.0-254.0","","<img src=""img/set1/S1.jpg"" width=""540"" height = ""360"" style=""border:16px solid orange"">","null","","","","","","","","",""
"null","","html-keyboard-response","255","2740255","0.0-255.0","","","null","","","","","","","","",""
"637.6999999880791","","image-keyboard-response","256","2740893","0.0-256.0","","img/set1/S2.jpg","68","2","structured_load","68","structured_load,structured_normal,random,structured_incentive","3,4,2,1,2,3","true","","",""
"null","","html-keyboard-response","257","2741248","0.0-257.0","","<img src=""img/set1/S2.jpg"" width=""540"" height = ""360"" style=""border:16px solid orange"">","null","","","","","","","","",""
"null","","html-keyboard-response","258","2741456","0.0-258.0","","","null","","","","","","","","",""
"518.7999999821186","","image-keyboard-response","259","2741975","0.0-259.0","","img/set1/S1.jpg","68","1","structured_load","83","structured_load,structured_normal,random,structured_incentive","3,4,2,1,2,3","false","","",""
"null","","html-keyboard-response","260","2742334","0.0-260.0","","<img src=""img/set1/S1.jpg"" width=""540"" height = ""360"">","null","","","","","","","","",""
"null","","html-keyboard-response","261","2742541","0.0-261.0","","","null","","","","","","","","",""
"436.5","","image-keyboard-response","262","2742978","0.0-262.0","","img/set1/S1.jpg","83","1","structured_load","83","structured_load,structured_normal,random,structured_incentive","3,4,2,1,2,3","true","","",""
"null","","html-keyboard-response","263","2743342","0.0-263.0","","<img src=""img/set1/S1.jpg"" width=""540"" height = ""360"" style=""border:16px solid orange"">","null","","","","","","","","",""
"null","","html-keyboard-response","264","2743550","0.0-264.0","","","null","","","","","","","","",""
"2193.699999988079","","image-keyboard-response","265","2745744","0.0-265.0","","img/set1/S3.jpg","68","3","structured_load","72","structured_load,structured_normal,random,structured_incentive","3,4,2,1,2,3","false","","",""
"null","","html-keyboard-response","266","2746107","0.0-266.0","","<img src=""img/set1/S3.jpg"" width=""540"" height = ""360"">","null","","","","","","","","",""
"null","","html-keyboard-response","267","2746315","0.0-267.0","","","null","","","","","","","","",""
"1827","","image-keyboard-response","268","2748142","0.0-268.0","","img/set1/S4.jpg","74","4","structured_load","74","structured_load,structured_normal,random,structured_incentive","3,4,2,1,2,3","true","","",""
"null","","html-keyboard-response","269","2748508","0.0-269.0","","<img src=""img/set1/S4.jpg"" width=""540"" height = ""360"" style=""border:16px solid orange"">","null","","","","","","","","",""
"null","","html-keyboard-response","270","2748716","0.0-270.0","","","null","","","","","","","","",""
"662.9000000059605","","image-keyboard-response","271","2749379","0.0-271.0","","img/set1/S1.jpg","83","1","structured_load","83","structured_load,structured_normal,random,structured_incentive","3,4,2,1,2,3","true","","",""
"null","","html-keyboard-response","272","2749740","0.0-272.0","","<img src=""img/set1/S1.jpg"" width=""540"" height = ""360"" style=""border:16px solid orange"">","null","","","","","","","","",""
"null","","html-keyboard-response","273","2749948","0.0-273.0","","","null","","","","","","","","",""
"423.09999999403954","","image-keyboard-response","274","2750371","0.0-274.0","","img/set1/S1.jpg","83","1","structured_load","83","structured_load,structured_normal,random,structured_incentive","3,4,2,1,2,3","true","","",""
"null","","html-keyboard-response","275","2750732","0.0-275.0","","<img src=""img/set1/S1.jpg"" width=""540"" height = ""360"" style=""border:16px solid orange"">","null","","","","","","","","",""
"null","","html-keyboard-response","276","2750940","0.0-276.0","","","null","","","","","","","","",""
"370.59999999403954","","image-keyboard-response","277","2751311","0.0-277.0","","img/set1/S1.jpg","83","1","structured_load","83","structured_load,structured_normal,random,structured_incentive","3,4,2,1,2,3","true","","",""
"null","","html-keyboard-response","278","2751675","0.0-278.0","","<img src=""img/set1/S1.jpg"" width=""540"" height = ""360"" style=""border:16px solid orange"">","null","","","","","","","","",""
"null","","html-keyboard-response","279","2751883","0.0-279.0","","","null","","","","","","","","",""
"977.8000000119209","","image-keyboard-response","280","2752861","0.0-280.0","","img/set1/S3.jpg","74","3","structured_load","72","structured_load,structured_normal,random,structured_incentive","3,4,2,1,2,3","false","","",""
"null","","html-keyboard-response","281","2753227","0.0-281.0","","<img src=""img/set1/S3.jpg"" width=""540"" height = ""360"">","null","","","","","","","","",""
"null","","html-keyboard-response","282","2753435","0.0-282.0","","","null","","","","","","","","",""
"919.1999999880791","","image-keyboard-response","283","2754355","0.0-283.0","","img/set1/S4.jpg","74","4","structured_load","74","structured_load,structured_normal,random,structured_incentive","3,4,2,1,2,3","true","","",""
"null","","html-keyboard-response","284","2754716","0.0-284.0","","<img src=""img/set1/S4.jpg"" width=""540"" height = ""360"" style=""border:16px solid orange"">","null","","","","","","","","",""
"null","","html-keyboard-response","285","2754924","0.0-285.0","","","null","","","","","","","","",""
"624.0999999940395","","image-keyboard-response","286","2755549","0.0-286.0","","img/set1/S2.jpg","68","2","structured_load","68","structured_load,structured_normal,random,structured_incentive","3,4,2,1,2,3","true","","",""
"null","","html-keyboard-response","287","2755900","0.0-287.0","","<img src=""img/set1/S2.jpg"" width=""540"" height = ""360"" style=""border:16px solid orange"">","null","","","","","","","","",""
"null","","html-keyboard-response","288","2756108","0.0-288.0","","","null","","","","","","","","",""
"423.5","","image-keyboard-response","289","2756532","0.0-289.0","","img/set1/S2.jpg","68","2","structured_load","68","structured_load,structured_normal,random,structured_incentive","3,4,2,1,2,3","true","","",""
"null","","html-keyboard-response","290","2756893","0.0-290.0","","<img src=""img/set1/S2.jpg"" width=""540"" height = ""360"" style=""border:16px solid orange"">","null","","","","","","","","",""
"null","","html-keyboard-response","291","2757101","0.0-291.0","","","null","","","","","","","","",""
"742.4000000059605","","image-keyboard-response","292","2757844","0.0-292.0","","img/set1/S1.jpg","83","1","structured_load","83","structured_load,structured_normal,random,structured_incentive","3,4,2,1,2,3","true","","",""
"null","","html-keyboard-response","293","2758203","0.0-293.0","","<img src=""img/set1/S1.jpg"" width=""540"" height = ""360"" style=""border:16px solid orange"">","null","","","","","","","","",""
"null","","html-keyboard-response","294","2758411","0.0-294.0","","","null","","","","","","","","",""
"1783","","image-keyboard-response","295","2760195","0.0-295.0","","img/set1/S2.jpg","68","2","structured_load","68","structured_load,structured_normal,random,structured_incentive","3,4,2,1,2,3","true","","",""
"null","","html-keyboard-response","296","2760552","0.0-296.0","","<img src=""img/set1/S2.jpg"" width=""540"" height = ""360"" style=""border:16px solid orange"">","null","","","","","","","","",""
"null","","html-keyboard-response","297","2760760","0.0-297.0","","","null","","","","","","","","",""
"508","","image-keyboard-response","298","2761269","0.0-298.0","","img/set1/S1.jpg","83","1","structured_load","83","structured_load,structured_normal,random,structured_incentive","3,4,2,1,2,3","true","","",""
"null","","html-keyboard-response","299","2761624","0.0-299.0","","<img src=""img/set1/S1.jpg"" width=""540"" height = ""360"" style=""border:16px solid orange"">","null","","","","","","","","",""
"null","","html-keyboard-response","300","2761832","0.0-300.0","","","null","","","","","","","","",""
"518","","image-keyboard-response","301","2762351","0.0-301.0","","img/set1/S2.jpg","68","2","structured_load","68","structured_load,structured_normal,random,structured_incentive","3,4,2,1,2,3","true","","",""
"null","","html-keyboard-response","302","2762713","0.0-302.0","","<img src=""img/set1/S2.jpg"" width=""540"" height = ""360"" style=""border:16px solid orange"">","null","","","","","","","","",""
"null","","html-keyboard-response","303","2762921","0.0-303.0","","","null","","","","","","","","",""
"643.9000000059605","","image-keyboard-response","304","2763566","0.0-304.0","","img/set1/S2.jpg","68","2","structured_load","68","structured_load,structured_normal,random,structured_incentive","3,4,2,1,2,3","true","","",""
"null","","html-keyboard-response","305","2763930","0.0-305.0","","<img src=""img/set1/S2.jpg"" width=""540"" height = ""360"" style=""border:16px solid orange"">","null","","","","","","","","",""
"null","","html-keyboard-response","306","2764138","0.0-306.0","","","null","","","","","","","","",""
"406","","image-keyboard-response","307","2764545","0.0-307.0","","img/set1/S2.jpg","68","2","structured_load","68","structured_load,structured_normal,random,structured_incentive","3,4,2,1,2,3","true","","",""
"null","","html-keyboard-response","308","2764906","0.0-308.0","","<img src=""img/set1/S2.jpg"" width=""540"" height = ""360"" style=""border:16px solid orange"">","null","","","","","","","","",""
"null","","html-keyboard-response","309","2765114","0.0-309.0","","","null","","","","","","","","",""
"1655.0999999940395","","image-keyboard-response","310","2766770","0.0-310.0","","img/set1/S3.jpg","74","3","structured_load","72","structured_load,structured_normal,random,structured_incentive","3,4,2,1,2,3","false","","",""
"null","","html-keyboard-response","311","2767129","0.0-311.0","","<img src=""img/set1/S3.jpg"" width=""540"" height = ""360"">","null","","","","","","","","",""
"null","","html-keyboard-response","312","2767337","0.0-312.0","","","null","","","","","","","","",""
"1018.3999999761581","","image-keyboard-response","313","2768356","0.0-313.0","","img/set1/S4.jpg","74","4","structured_load","74","structured_load,structured_normal,random,structured_incentive","3,4,2,1,2,3","true","","",""
"null","","html-keyboard-response","314","2768713","0.0-314.0","","<img src=""img/set1/S4.jpg"" width=""540"" height = ""360"" style=""border:16px solid orange"">","null","","","","","","","","",""
"null","","html-keyboard-response","315","2768921","0.0-315.0","","","null","","","","","","","","",""
"1798.0999999940395","","image-keyboard-response","316","2770719","0.0-316.0","","img/set1/S3.jpg","83","3","structured_load","72","structured_load,structured_normal,random,structured_incentive","3,4,2,1,2,3","false","","",""
"null","","html-keyboard-response","317","2771079","0.0-317.0","","<img src=""img/set1/S3.jpg"" width=""540"" height = ""360"">","null","","","","","","","","",""
"null","","html-keyboard-response","318","2771287","0.0-318.0","","","null","","","","","","","","",""
"926","","image-keyboard-response","319","2772213","0.0-319.0","","img/set1/S4.jpg","68","4","structured_load","74","structured_load,structured_normal,random,structured_incentive","3,4,2,1,2,3","false","","",""
"null","","html-keyboard-response","320","2772580","0.0-320.0","","<img src=""img/set1/S4.jpg"" width=""540"" height = ""360"">","null","","","","","","","","",""
"null","","html-keyboard-response","321","2772788","0.0-321.0","","","null","","","","","","","","",""
"1104.0999999940395","","image-keyboard-response","322","2773892","0.0-322.0","","img/set1/S3.jpg","83","3","structured_load","72","structured_load,structured_normal,random,structured_incentive","3,4,2,1,2,3","false","","",""
"null","","html-keyboard-response","323","2774245","0.0-323.0","","<img src=""img/set1/S3.jpg"" width=""540"" height = ""360"">","null","","","","","","","","",""
"null","","html-keyboard-response","324","2774453","0.0-324.0","","","null","","","","","","","","",""
"824.5","","image-keyboard-response","325","2775278","0.0-325.0","","img/set1/S4.jpg","74","4","structured_load","74","structured_load,structured_normal,random,structured_incentive","3,4,2,1,2,3","true","","",""
"null","","html-keyboard-response","326","2775638","0.0-326.0","","<img src=""img/set1/S4.jpg"" width=""540"" height = ""360"" style=""border:16px solid orange"">","null","","","","","","","","",""
"null","","html-keyboard-response","327","2775844","0.0-327.0","","","null","","","","","","","","",""
"1912.7000000178814","","image-keyboard-response","328","2777758","0.0-328.0","","img/set1/S3.jpg","74","3","structured_load","72","structured_load,structured_normal,random,structured_incentive","3,4,2,1,2,3","false","","",""
"null","","html-keyboard-response","329","2778114","0.0-329.0","","<img src=""img/set1/S3.jpg"" width=""540"" height = ""360"">","null","","","","","","","","",""
"null","","html-keyboard-response","330","2778322","0.0-330.0","","","null","","","","","","","","",""
"728.3000000119209","","image-keyboard-response","331","2779051","0.0-331.0","","img/set1/S4.jpg","74","4","structured_load","74","structured_load,structured_normal,random,structured_incentive","3,4,2,1,2,3","true","","",""
"null","","html-keyboard-response","332","2779410","0.0-332.0","","<img src=""img/set1/S4.jpg"" width=""540"" height = ""360"" style=""border:16px solid orange"">","null","","","","","","","","",""
"null","","html-keyboard-response","333","2779618","0.0-333.0","","","null","","","","","","","","",""
"null","","image-keyboard-response","334","2782128","0.0-334.0","","img/set1/S3.jpg","null","3","structured_load","72","structured_load,structured_normal,random,structured_incentive","3,4,2,1,2,3","false","","",""
"null","","html-keyboard-response","335","2782495","0.0-335.0","","<img src=""img/set1/S3.jpg"" width=""540"" height = ""360"">","null","","","","","","","","",""
"null","","html-keyboard-response","336","2782703","0.0-336.0","","","null","","","","","","","","",""
"null","","image-keyboard-response","337","2785212","0.0-337.0","","img/set1/S4.jpg","null","4","structured_load","74","structured_load,structured_normal,random,structured_incentive","3,4,2,1,2,3","false","","",""
"null","","html-keyboard-response","338","2785564","0.0-338.0","","<img src=""img/set1/S4.jpg"" width=""540"" height = ""360"">","null","","","","","","","","",""
"null","","html-keyboard-response","339","2785772","0.0-339.0","","","null","","","","","","","","",""
"672.7000000178814","","image-keyboard-response","340","2786445","0.0-340.0","","img/set1/S1.jpg","83","1","structured_load","83","structured_load,structured_normal,random,structured_incentive","3,4,2,1,2,3","true","","",""
"null","","html-keyboard-response","341","2786796","0.0-341.0","","<img src=""img/set1/S1.jpg"" width=""540"" height = ""360"" style=""border:16px solid orange"">","null","","","","","","","","",""
"null","","html-keyboard-response","342","2787004","0.0-342.0","","","null","","","","","","","","",""
"423.40000000596046","","image-keyboard-response","343","2787428","0.0-343.0","","img/set1/S1.jpg","83","1","structured_load","83","structured_load,structured_normal,random,structured_incentive","3,4,2,1,2,3","true","","",""
"null","","html-keyboard-response","344","2787790","0.0-344.0","","<img src=""img/set1/S1.jpg"" width=""540"" height = ""360"" style=""border:16px solid orange"">","null","","","","","","","","",""
"null","","html-keyboard-response","345","2787997","0.0-345.0","","","null","","","","","","","","",""
"1027.3999999761581","","image-keyboard-response","346","2789025","0.0-346.0","","img/set1/S2.jpg","68","2","structured_load","68","structured_load,structured_normal,random,structured_incentive","3,4,2,1,2,3","true","","",""
"null","","html-keyboard-response","347","2789388","0.0-347.0","","<img src=""img/set1/S2.jpg"" width=""540"" height = ""360"" style=""border:16px solid orange"">","null","","","","","","","","",""
"null","","html-keyboard-response","348","2789596","0.0-348.0","","","null","","","","","","","","",""
"1099.4000000059605","","image-keyboard-response","349","2790696","0.0-349.0","","img/set1/S1.jpg","83","1","structured_load","83","structured_load,structured_normal,random,structured_incentive","3,4,2,1,2,3","true","","",""
"null","","html-keyboard-response","350","2791051","0.0-350.0","","<img src=""img/set1/S1.jpg"" width=""540"" height = ""360"" style=""border:16px solid orange"">","null","","","","","","","","",""
"null","","html-keyboard-response","351","2791259","0.0-351.0","","","null","","","","","","","","",""
"800.8000000119209","","image-keyboard-response","352","2792060","0.0-352.0","","img/set1/S3.jpg","72","3","structured_load","72","structured_load,structured_normal,random,structured_incentive","3,4,2,1,2,3","true","","",""
"null","","html-keyboard-response","353","2792412","0.0-353.0","","<img src=""img/set1/S3.jpg"" width=""540"" height = ""360"" style=""border:16px solid orange"">","null","","","","","","","","",""
"null","","html-keyboard-response","354","2792618","0.0-354.0","","","null","","","","","","","","",""
"819.6999999880791","","image-keyboard-response","355","2793438","0.0-355.0","","img/set1/S4.jpg","74","4","structured_load","74","structured_load,structured_normal,random,structured_incentive","3,4,2,1,2,3","true","","",""
"null","","html-keyboard-response","356","2793802","0.0-356.0","","<img src=""img/set1/S4.jpg"" width=""540"" height = ""360"" style=""border:16px solid orange"">","null","","","","","","","","",""
"null","","html-keyboard-response","357","2794010","0.0-357.0","","","null","","","","","","","","",""
"788.0999999940395","","image-keyboard-response","358","2794798","0.0-358.0","","img/set1/S3.jpg","72","3","structured_load","72","structured_load,structured_normal,random,structured_incentive","3,4,2,1,2,3","true","","",""
"null","","html-keyboard-response","359","2795161","0.0-359.0","","<img src=""img/set1/S3.jpg"" width=""540"" height = ""360"" style=""border:16px solid orange"">","null","","","","","","","","",""
"null","","html-keyboard-response","360","2795369","0.0-360.0","","","null","","","","","","","","",""
"525.9000000059605","","image-keyboard-response","361","2795895","0.0-361.0","","img/set1/S4.jpg","74","4","structured_load","74","structured_load,structured_normal,random,structured_incentive","3,4,2,1,2,3","true","","",""
"null","","html-keyboard-response","362","2796248","0.0-362.0","","<img src=""img/set1/S4.jpg"" width=""540"" height = ""360"" style=""border:16px solid orange"">","null","","","","","","","","",""
"null","","html-keyboard-response","363","2796456","0.0-363.0","","","null","","","","","","","","",""
"13556","","survey-multi-choice","364","2810013","0.0-364.0","","","","","","","","","","{""Q0"":""Picture A""}","[0]",""
"3526","","html-keyboard-response","365","2813540","0.0-365.0","","<p class=""center-content"">You have completed a block! </p><p class=""center-content"">Press any key on the keyboard to continue, </p><p class=""center-content"">or wait for the automatic progression to the next block after one minute.</p>","72","","","","","","","","",""
"3922.0999999940395","","instructions","366","2817462","0.0-366.0","[{""page_index"":0,""viewing_time"":3921.899999976158}]","","","","","","","","","","",""
"1397.699999988079","","instructions","367","2818860","0.0-367.0","[{""page_index"":0,""viewing_time"":1397.5}]","","","","","","","","","","",""
"1486.5","","image-keyboard-response","368","2820347","0.0-368.0","","img/set2/S4.jpg","83","4","structured_normal","74","structured_load,structured_normal,random,structured_incentive","3,4,2,1,2,3","false","","",""
"null","","html-keyboard-response","369","2820700","0.0-369.0","","<img src=""img/set2/S4.jpg"" width=""540"" height = ""360"">","null","","","","","","","","",""
"null","","html-keyboard-response","370","2820908","0.0-370.0","","","null","","","","","","","","",""
"877.4000000059605","","image-keyboard-response","371","2821786","0.0-371.0","","img/set2/S3.jpg","83","3","structured_normal","72","structured_load,structured_normal,random,structured_incentive","3,4,2,1,2,3","false","","",""
"null","","html-keyboard-response","372","2822142","0.0-372.0","","<img src=""img/set2/S3.jpg"" width=""540"" height = ""360"">","null","","","","","","","","",""
"null","","html-keyboard-response","373","2822350","0.0-373.0","","","null","","","","","","","","",""
"830.8000000119209","","image-keyboard-response","374","2823181","0.0-374.0","","img/set2/S4.jpg","68","4","structured_normal","74","structured_load,structured_normal,random,structured_incentive","3,4,2,1,2,3","false","","",""
"null","","html-keyboard-response","375","2823548","0.0-375.0","","<img src=""img/set2/S4.jpg"" width=""540"" height = ""360"">","null","","","","","","","","",""
"null","","html-keyboard-response","376","2823756","0.0-376.0","","","null","","","","","","","","",""
"839.3000000119209","","image-keyboard-response","377","2824596","0.0-377.0","","img/set2/S4.jpg","72","4","structured_normal","74","structured_load,structured_normal,random,structured_incentive","3,4,2,1,2,3","false","","",""
"null","","html-keyboard-response","378","2824956","0.0-378.0","","<img src=""img/set2/S4.jpg"" width=""540"" height = ""360"">","null","","","","","","","","",""
"null","","html-keyboard-response","379","2825164","0.0-379.0","","","null","","","","","","","","",""
"1355.6000000238419","","image-keyboard-response","380","2826520","0.0-380.0","","img/set2/S3.jpg","72","3","structured_normal","72","structured_load,structured_normal,random,structured_incentive","3,4,2,1,2,3","true","","",""
"null","","html-keyboard-response","381","2826876","0.0-381.0","","<img src=""img/set2/S3.jpg"" width=""540"" height = ""360"" style=""border:16px solid orange"">","null","","","","","","","","",""
"null","","html-keyboard-response","382","2827085","0.0-382.0","","","null","","","","","","","","",""
"600","","image-keyboard-response","383","2827685","0.0-383.0","","img/set2/S3.jpg","72","3","structured_normal","72","structured_load,structured_normal,random,structured_incentive","3,4,2,1,2,3","true","","",""
"null","","html-keyboard-response","384","2828045","0.0-384.0","","<img src=""img/set2/S3.jpg"" width=""540"" height = ""360"" style=""border:16px solid orange"">","null","","","","","","","","",""
"null","","html-keyboard-response","385","2828254","0.0-385.0","","","null","","","","","","","","",""
"795.8999999761581","","image-keyboard-response","386","2829050","0.0-386.0","","img/set2/S2.jpg","74","2","structured_normal","68","structured_load,structured_normal,random,structured_incentive","3,4,2,1,2,3","false","","",""
"null","","html-keyboard-response","387","2829406","0.0-387.0","","<img src=""img/set2/S2.jpg"" width=""540"" height = ""360"">","null","","","","","","","","",""
"null","","html-keyboard-response","388","2829614","0.0-388.0","","","null","","","","","","","","",""
"1004.2999999821186","","image-keyboard-response","389","2830619","0.0-389.0","","img/set2/S1.jpg","83","1","structured_normal","83","structured_load,structured_normal,random,structured_incentive","3,4,2,1,2,3","true","","",""
"null","","html-keyboard-response","390","2830974","0.0-390.0","","<img src=""img/set2/S1.jpg"" width=""540"" height = ""360"" style=""border:16px solid orange"">","null","","","","","","","","",""
"null","","html-keyboard-response","391","2831182","0.0-391.0","","","null","","","","","","","","",""
"894.4000000059605","","image-keyboard-response","392","2832077","0.0-392.0","","img/set2/S4.jpg","72","4","structured_normal","74","structured_load,structured_normal,random,structured_incentive","3,4,2,1,2,3","false","","",""
"null","","html-keyboard-response","393","2832431","0.0-393.0","","<img src=""img/set2/S4.jpg"" width=""540"" height = ""360"">","null","","","","","","","","",""
"null","","html-keyboard-response","394","2832639","0.0-394.0","","","null","","","","","","","","",""
"1263.5","","image-keyboard-response","395","2833903","0.0-395.0","","img/set2/S4.jpg","74","4","structured_normal","74","structured_load,structured_normal,random,structured_incentive","3,4,2,1,2,3","true","","",""
"null","","html-keyboard-response","396","2834269","0.0-396.0","","<img src=""img/set2/S4.jpg"" width=""540"" height = ""360"" style=""border:16px solid orange"">","null","","","","","","","","",""
"null","","html-keyboard-response","397","2834476","0.0-397.0","","","null","","","","","","","","",""
"422.90000000596046","","image-keyboard-response","398","2834900","0.0-398.0","","img/set2/S4.jpg","74","4","structured_normal","74","structured_load,structured_normal,random,structured_incentive","3,4,2,1,2,3","true","","",""
"null","","html-keyboard-response","399","2835261","0.0-399.0","","<img src=""img/set2/S4.jpg"" width=""540"" height = ""360"" style=""border:16px solid orange"">","null","","","","","","","","",""
"null","","html-keyboard-response","400","2835469","0.0-400.0","","","null","","","","","","","","",""
"1004.9000000059605","","image-keyboard-response","401","2836475","0.0-401.0","","img/set2/S3.jpg","72","3","structured_normal","72","structured_load,structured_normal,random,structured_incentive","3,4,2,1,2,3","true","","",""
"null","","html-keyboard-response","402","2836829","0.0-402.0","","<img src=""img/set2/S3.jpg"" width=""540"" height = ""360"" style=""border:16px solid orange"">","null","","","","","","","","",""
"null","","html-keyboard-response","403","2837038","0.0-403.0","","","null","","","","","","","","",""
"728.6999999880791","","image-keyboard-response","404","2837767","0.0-404.0","","img/set2/S4.jpg","74","4","structured_normal","74","structured_load,structured_normal,random,structured_incentive","3,4,2,1,2,3","true","","",""
"null","","html-keyboard-response","405","2838126","0.0-405.0","","<img src=""img/set2/S4.jpg"" width=""540"" height = ""360"" style=""border:16px solid orange"">","null","","","","","","","","",""
"null","","html-keyboard-response","406","2838334","0.0-406.0","","","null","","","","","","","","",""
"481.80000001192093","","image-keyboard-response","407","2838817","0.0-407.0","","img/set2/S4.jpg","74","4","structured_normal","74","structured_load,structured_normal,random,structured_incentive","3,4,2,1,2,3","true","","",""
"null","","html-keyboard-response","408","2839180","0.0-408.0","","<img src=""img/set2/S4.jpg"" width=""540"" height = ""360"" style=""border:16px solid orange"">","null","","","","","","","","",""
"null","","html-keyboard-response","409","2839388","0.0-409.0","","","null","","","","","","","","",""
"416.59999999403954","","image-keyboard-response","410","2839806","0.0-410.0","","img/set2/S4.jpg","74","4","structured_normal","74","structured_load,structured_normal,random,structured_incentive","3,4,2,1,2,3","true","","",""
"null","","html-keyboard-response","411","2840157","0.0-411.0","","<img src=""img/set2/S4.jpg"" width=""540"" height = ""360"" style=""border:16px solid orange"">","null","","","","","","","","",""
"null","","html-keyboard-response","412","2840365","0.0-412.0","","","null","","","","","","","","",""
"971.7999999821186","","image-keyboard-response","413","2841338","0.0-413.0","","img/set2/S2.jpg","83","2","structured_normal","68","structured_load,structured_normal,random,structured_incentive","3,4,2,1,2,3","false","","",""
"null","","html-keyboard-response","414","2841693","0.0-414.0","","<img src=""img/set2/S2.jpg"" width=""540"" height = ""360"">","null","","","","","","","","",""
"null","","html-keyboard-response","415","2841901","0.0-415.0","","","null","","","","","","","","",""
"715.3999999761581","","image-keyboard-response","416","2842618","0.0-416.0","","img/set2/S1.jpg","83","1","structured_normal","83","structured_load,structured_normal,random,structured_incentive","3,4,2,1,2,3","true","","",""
"null","","html-keyboard-response","417","2842974","0.0-417.0","","<img src=""img/set2/S1.jpg"" width=""540"" height = ""360"" style=""border:16px solid orange"">","null","","","","","","","","",""
"null","","html-keyboard-response","418","2843182","0.0-418.0","","","null","","","","","","","","",""
"960.1999999880791","","image-keyboard-response","419","2844143","0.0-419.0","","img/set2/S4.jpg","74","4","structured_normal","74","structured_load,structured_normal,random,structured_incentive","3,4,2,1,2,3","true","","",""
"null","","html-keyboard-response","420","2844509","0.0-420.0","","<img src=""img/set2/S4.jpg"" width=""540"" height = ""360"" style=""border:16px solid orange"">","null","","","","","","","","",""
"null","","html-keyboard-response","421","2844717","0.0-421.0","","","null","","","","","","","","",""
"1000","","image-keyboard-response","422","2845717","0.0-422.0","","img/set2/S2.jpg","68","2","structured_normal","68","structured_load,structured_normal,random,structured_incentive","3,4,2,1,2,3","true","","",""
"null","","html-keyboard-response","423","2846076","0.0-423.0","","<img src=""img/set2/S2.jpg"" width=""540"" height = ""360"" style=""border:16px solid orange"">","null","","","","","","","","",""
"null","","html-keyboard-response","424","2846284","0.0-424.0","","","null","","","","","","","","",""
"705.5","","image-keyboard-response","425","2846990","0.0-425.0","","img/set2/S1.jpg","83","1","structured_normal","83","structured_load,structured_normal,random,structured_incentive","3,4,2,1,2,3","true","","",""
"null","","html-keyboard-response","426","2847355","0.0-426.0","","<img src=""img/set2/S1.jpg"" width=""540"" height = ""360"" style=""border:16px solid orange"">","null","","","","","","","","",""
"null","","html-keyboard-response","427","2847563","0.0-427.0","","","null","","","","","","","","",""
"549.5","","image-keyboard-response","428","2848113","0.0-428.0","","img/set2/S2.jpg","68","2","structured_normal","68","structured_load,structured_normal,random,structured_incentive","3,4,2,1,2,3","true","","",""
"null","","html-keyboard-response","429","2848476","0.0-429.0","","<img src=""img/set2/S2.jpg"" width=""540"" height = ""360"" style=""border:16px solid orange"">","null","","","","","","","","",""
"null","","html-keyboard-response","430","2848684","0.0-430.0","","","null","","","","","","","","",""
"521.4000000059605","","image-keyboard-response","431","2849206","0.0-431.0","","img/set2/S1.jpg","83","1","structured_normal","83","structured_load,structured_normal,random,structured_incentive","3,4,2,1,2,3","true","","",""
"null","","html-keyboard-response","432","2849565","0.0-432.0","","<img src=""img/set2/S1.jpg"" width=""540"" height = ""360"" style=""border:16px solid orange"">","null","","","","","","","","",""
"null","","html-keyboard-response","433","2849773","0.0-433.0","","","null","","","","","","","","",""
"501.09999999403954","","image-keyboard-response","434","2850275","0.0-434.0","","img/set2/S2.jpg","68","2","structured_normal","68","structured_load,structured_normal,random,structured_incentive","3,4,2,1,2,3","true","","",""
"null","","html-keyboard-response","435","2850635","0.0-435.0","","<img src=""img/set2/S2.jpg"" width=""540"" height = ""360"" style=""border:16px solid orange"">","null","","","","","","","","",""
"null","","html-keyboard-response","436","2850842","0.0-436.0","","","null","","","","","","","","",""
"429.2000000178814","","image-keyboard-response","437","2851272","0.0-437.0","","img/set2/S1.jpg","83","1","structured_normal","83","structured_load,structured_normal,random,structured_incentive","3,4,2,1,2,3","true","","",""
"null","","html-keyboard-response","438","2851627","0.0-438.0","","<img src=""img/set2/S1.jpg"" width=""540"" height = ""360"" style=""border:16px solid orange"">","null","","","","","","","","",""
"null","","html-keyboard-response","439","2851835","0.0-439.0","","","null","","","","","","","","",""
"1486.4000000059605","","image-keyboard-response","440","2853322","0.0-440.0","","img/set2/S3.jpg","74","3","structured_normal","72","structured_load,structured_normal,random,structured_incentive","3,4,2,1,2,3","false","","",""
"null","","html-keyboard-response","441","2853677","0.0-441.0","","<img src=""img/set2/S3.jpg"" width=""540"" height = ""360"">","null","","","","","","","","",""
"null","","html-keyboard-response","442","2853884","0.0-442.0","","","null","","","","","","","","",""
"645.4000000059605","","image-keyboard-response","443","2854530","0.0-443.0","","img/set2/S4.jpg","74","4","structured_normal","74","structured_load,structured_normal,random,structured_incentive","3,4,2,1,2,3","true","","",""
"null","","html-keyboard-response","444","2854890","0.0-444.0","","<img src=""img/set2/S4.jpg"" width=""540"" height = ""360"" style=""border:16px solid orange"">","null","","","","","","","","",""
"null","","html-keyboard-response","445","2855098","0.0-445.0","","","null","","","","","","","","",""
"513.0999999940395","","image-keyboard-response","446","2855612","0.0-446.0","","img/set2/S3.jpg","72","3","structured_normal","72","structured_load,structured_normal,random,structured_incentive","3,4,2,1,2,3","true","","",""
"null","","html-keyboard-response","447","2855977","0.0-447.0","","<img src=""img/set2/S3.jpg"" width=""540"" height = ""360"" style=""border:16px solid orange"">","null","","","","","","","","",""
"null","","html-keyboard-response","448","2856185","0.0-448.0","","","null","","","","","","","","",""
"867.6999999880791","","image-keyboard-response","449","2857053","0.0-449.0","","img/set2/S2.jpg","68","2","structured_normal","68","structured_load,structured_normal,random,structured_incentive","3,4,2,1,2,3","true","","",""
"null","","html-keyboard-response","450","2857418","0.0-450.0","","<img src=""img/set2/S2.jpg"" width=""540"" height = ""360"" style=""border:16px solid orange"">","null","","","","","","","","",""
"null","","html-keyboard-response","451","2857626","0.0-451.0","","","null","","","","","","","","",""
"557.7999999821186","","image-keyboard-response","452","2858184","0.0-452.0","","img/set2/S1.jpg","83","1","structured_normal","83","structured_load,structured_normal,random,structured_incentive","3,4,2,1,2,3","true","","",""
"null","","html-keyboard-response","453","2858538","0.0-453.0","","<img src=""img/set2/S1.jpg"" width=""540"" height = ""360"" style=""border:16px solid orange"">","null","","","","","","","","",""
"null","","html-keyboard-response","454","2858746","0.0-454.0","","","null","","","","","","","","",""
"834.5999999940395","","image-keyboard-response","455","2859581","0.0-455.0","","img/set2/S4.jpg","74","4","structured_normal","74","structured_load,structured_normal,random,structured_incentive","3,4,2,1,2,3","true","","",""
"null","","html-keyboard-response","456","2859944","0.0-456.0","","<img src=""img/set2/S4.jpg"" width=""540"" height = ""360"" style=""border:16px solid orange"">","null","","","","","","","","",""
"null","","html-keyboard-response","457","2860152","0.0-457.0","","","null","","","","","","","","",""
"805.3000000119209","","image-keyboard-response","458","2860958","0.0-458.0","","img/set2/S2.jpg","68","2","structured_normal","68","structured_load,structured_normal,random,structured_incentive","3,4,2,1,2,3","true","","",""
"null","","html-keyboard-response","459","2861321","0.0-459.0","","<img src=""img/set2/S2.jpg"" width=""540"" height = ""360"" style=""border:16px solid orange"">","null","","","","","","","","",""
"null","","html-keyboard-response","460","2861529","0.0-460.0","","","null","","","","","","","","",""
"572.1999999880791","","image-keyboard-response","461","2862102","0.0-461.0","","img/set2/S1.jpg","83","1","structured_normal","83","structured_load,structured_normal,random,structured_incentive","3,4,2,1,2,3","true","","",""
"null","","html-keyboard-response","462","2862457","0.0-462.0","","<img src=""img/set2/S1.jpg"" width=""540"" height = ""360"" style=""border:16px solid orange"">","null","","","","","","","","",""
"null","","html-keyboard-response","463","2862665","0.0-463.0","","","null","","","","","","","","",""
"1379.2999999821186","","image-keyboard-response","464","2864045","0.0-464.0","","img/set2/S4.jpg","68","4","structured_normal","74","structured_load,structured_normal,random,structured_incentive","3,4,2,1,2,3","false","","",""
"null","","html-keyboard-response","465","2864408","0.0-465.0","","<img src=""img/set2/S4.jpg"" width=""540"" height = ""360"">","null","","","","","","","","",""
"null","","html-keyboard-response","466","2864615","0.0-466.0","","","null","","","","","","","","",""
"1111.4000000059605","","image-keyboard-response","467","2865727","0.0-467.0","","img/set2/S3.jpg","72","3","structured_normal","72","structured_load,structured_normal,random,structured_incentive","3,4,2,1,2,3","true","","",""
"null","","html-keyboard-response","468","2866087","0.0-468.0","","<img src=""img/set2/S3.jpg"" width=""540"" height = ""360"" style=""border:16px solid orange"">","null","","","","","","","","",""
"null","","html-keyboard-response","469","2866294","0.0-469.0","","","null","","","","","","","","",""
"722.3000000119209","","image-keyboard-response","470","2867017","0.0-470.0","","img/set2/S4.jpg","74","4","structured_normal","74","structured_load,structured_normal,random,structured_incentive","3,4,2,1,2,3","true","","",""
"null","","html-keyboard-response","471","2867381","0.0-471.0","","<img src=""img/set2/S4.jpg"" width=""540"" height = ""360"" style=""border:16px solid orange"">","null","","","","","","","","",""
"null","","html-keyboard-response","472","2867589","0.0-472.0","","","null","","","","","","","","",""
"845.5","","image-keyboard-response","473","2868435","0.0-473.0","","img/set2/S2.jpg","68","2","structured_normal","68","structured_load,structured_normal,random,structured_incentive","3,4,2,1,2,3","true","","",""
"null","","html-keyboard-response","474","2868787","0.0-474.0","","<img src=""img/set2/S2.jpg"" width=""540"" height = ""360"" style=""border:16px solid orange"">","null","","","","","","","","",""
"null","","html-keyboard-response","475","2868995","0.0-475.0","","","null","","","","","","","","",""
"563.3999999761581","","image-keyboard-response","476","2869559","0.0-476.0","","img/set2/S1.jpg","83","1","structured_normal","83","structured_load,structured_normal,random,structured_incentive","3,4,2,1,2,3","true","","",""
"null","","html-keyboard-response","477","2869923","0.0-477.0","","<img src=""img/set2/S1.jpg"" width=""540"" height = ""360"" style=""border:16px solid orange"">","null","","","","","","","","",""
"null","","html-keyboard-response","478","2870131","0.0-478.0","","","null","","","","","","","","",""
"1402.2999999821186","","image-keyboard-response","479","2871534","0.0-479.0","","img/set2/S3.jpg","72","3","structured_normal","72","structured_load,structured_normal,random,structured_incentive","3,4,2,1,2,3","true","","",""
"null","","html-keyboard-response","480","2871890","0.0-480.0","","<img src=""img/set2/S3.jpg"" width=""540"" height = ""360"" style=""border:16px solid orange"">","null","","","","","","","","",""
"null","","html-keyboard-response","481","2872097","0.0-481.0","","","null","","","","","","","","",""
"443.69999998807907","","image-keyboard-response","482","2872542","0.0-482.0","","img/set2/S3.jpg","72","3","structured_normal","72","structured_load,structured_normal,random,structured_incentive","3,4,2,1,2,3","true","","",""
"null","","html-keyboard-response","483","2872897","0.0-483.0","","<img src=""img/set2/S3.jpg"" width=""540"" height = ""360"" style=""border:16px solid orange"">","null","","","","","","","","",""
"null","","html-keyboard-response","484","2873105","0.0-484.0","","","null","","","","","","","","",""
"1605.699999988079","","image-keyboard-response","485","2874711","0.0-485.0","","img/set2/S2.jpg","68","2","structured_normal","68","structured_load,structured_normal,random,structured_incentive","3,4,2,1,2,3","true","","",""
"null","","html-keyboard-response","486","2875071","0.0-486.0","","<img src=""img/set2/S2.jpg"" width=""540"" height = ""360"" style=""border:16px solid orange"">","null","","","","","","","","",""
"null","","html-keyboard-response","487","2875279","0.0-487.0","","","null","","","","","","","","",""
"539.6999999880791","","image-keyboard-response","488","2875819","0.0-488.0","","img/set2/S1.jpg","83","1","structured_normal","83","structured_load,structured_normal,random,structured_incentive","3,4,2,1,2,3","true","","",""
"null","","html-keyboard-response","489","2876175","0.0-489.0","","<img src=""img/set2/S1.jpg"" width=""540"" height = ""360"" style=""border:16px solid orange"">","null","","","","","","","","",""
"null","","html-keyboard-response","490","2876383","0.0-490.0","","","null","","","","","","","","",""
"547.9000000059605","","image-keyboard-response","491","2876932","0.0-491.0","","img/set2/S2.jpg","68","2","structured_normal","68","structured_load,structured_normal,random,structured_incentive","3,4,2,1,2,3","true","","",""
"null","","html-keyboard-response","492","2877294","0.0-492.0","","<img src=""img/set2/S2.jpg"" width=""540"" height = ""360"" style=""border:16px solid orange"">","null","","","","","","","","",""
"null","","html-keyboard-response","493","2877502","0.0-493.0","","","null","","","","","","","","",""
"563.4000000059605","","image-keyboard-response","494","2878066","0.0-494.0","","img/set2/S1.jpg","83","1","structured_normal","83","structured_load,structured_normal,random,structured_incentive","3,4,2,1,2,3","true","","",""
"null","","html-keyboard-response","495","2878431","0.0-495.0","","<img src=""img/set2/S1.jpg"" width=""540"" height = ""360"" style=""border:16px solid orange"">","null","","","","","","","","",""
"null","","html-keyboard-response","496","2878639","0.0-496.0","","","null","","","","","","","","",""
"402.59999999403954","","image-keyboard-response","497","2879043","0.0-497.0","","img/set2/S2.jpg","68","2","structured_normal","68","structured_load,structured_normal,random,structured_incentive","3,4,2,1,2,3","true","","",""
"null","","html-keyboard-response","498","2879405","0.0-498.0","","<img src=""img/set2/S2.jpg"" width=""540"" height = ""360"" style=""border:16px solid orange"">","null","","","","","","","","",""
"null","","html-keyboard-response","499","2879613","0.0-499.0","","","null","","","","","","","","",""
"462.59999999403954","","image-keyboard-response","500","2880077","0.0-500.0","","img/set2/S1.jpg","83","1","structured_normal","83","structured_load,structured_normal,random,structured_incentive","3,4,2,1,2,3","true","","",""
"null","","html-keyboard-response","501","2880429","0.0-501.0","","<img src=""img/set2/S1.jpg"" width=""540"" height = ""360"" style=""border:16px solid orange"">","null","","","","","","","","",""
"null","","html-keyboard-response","502","2880637","0.0-502.0","","","null","","","","","","","","",""
"422.2000000178814","","image-keyboard-response","503","2881060","0.0-503.0","","img/set2/S3.jpg","68","3","structured_normal","72","structured_load,structured_normal,random,structured_incentive","3,4,2,1,2,3","false","","",""
"null","","html-keyboard-response","504","2881421","0.0-504.0","","<img src=""img/set2/S3.jpg"" width=""540"" height = ""360"">","null","","","","","","","","",""
"null","","html-keyboard-response","505","2881629","0.0-505.0","","","null","","","","","","","","",""
"691.3000000119209","","image-keyboard-response","506","2882321","0.0-506.0","","img/set2/S4.jpg","74","4","structured_normal","74","structured_load,structured_normal,random,structured_incentive","3,4,2,1,2,3","true","","",""
"null","","html-keyboard-response","507","2882685","0.0-507.0","","<img src=""img/set2/S4.jpg"" width=""540"" height = ""360"" style=""border:16px solid orange"">","null","","","","","","","","",""
"null","","html-keyboard-response","508","2882890","0.0-508.0","","","null","","","","","","","","",""
"453.90000000596046","","image-keyboard-response","509","2883345","0.0-509.0","","img/set2/S3.jpg","72","3","structured_normal","72","structured_load,structured_normal,random,structured_incentive","3,4,2,1,2,3","true","","",""
"null","","html-keyboard-response","510","2883706","0.0-510.0","","<img src=""img/set2/S3.jpg"" width=""540"" height = ""360"" style=""border:16px solid orange"">","null","","","","","","","","",""
"null","","html-keyboard-response","511","2883914","0.0-511.0","","","null","","","","","","","","",""
"359.2999999821186","","image-keyboard-response","512","2884274","0.0-512.0","","img/set2/S4.jpg","74","4","structured_normal","74","structured_load,structured_normal,random,structured_incentive","3,4,2,1,2,3","true","","",""
"null","","html-keyboard-response","513","2884633","0.0-513.0","","<img src=""img/set2/S4.jpg"" width=""540"" height = ""360"" style=""border:16px solid orange"">","null","","","","","","","","",""
"null","","html-keyboard-response","514","2884841","0.0-514.0","","","null","","","","","","","","",""
"776","","image-keyboard-response","515","2885618","0.0-515.0","","img/set2/S2.jpg","72","2","structured_normal","68","structured_load,structured_normal,random,structured_incentive","3,4,2,1,2,3","false","","",""
"null","","html-keyboard-response","516","2885976","0.0-516.0","","<img src=""img/set2/S2.jpg"" width=""540"" height = ""360"">","null","","","","","","","","",""
"null","","html-keyboard-response","517","2886184","0.0-517.0","","","null","","","","","","","","",""
"798.3999999761581","","image-keyboard-response","518","2886983","0.0-518.0","","img/set2/S1.jpg","83","1","structured_normal","83","structured_load,structured_normal,random,structured_incentive","3,4,2,1,2,3","true","","",""
"null","","html-keyboard-response","519","2887336","0.0-519.0","","<img src=""img/set2/S1.jpg"" width=""540"" height = ""360"" style=""border:16px solid orange"">","null","","","","","","","","",""
"null","","html-keyboard-response","520","2887544","0.0-520.0","","","null","","","","","","","","",""
"1035.5999999940395","","image-keyboard-response","521","2888580","0.0-521.0","","img/set2/S4.jpg","72","4","structured_normal","74","structured_load,structured_normal,random,structured_incentive","3,4,2,1,2,3","false","","",""
"null","","html-keyboard-response","522","2888935","0.0-522.0","","<img src=""img/set2/S4.jpg"" width=""540"" height = ""360"">","null","","","","","","","","",""
"null","","html-keyboard-response","523","2889143","0.0-523.0","","","null","","","","","","","","",""
"1319.2999999821186","","image-keyboard-response","524","2890463","0.0-524.0","","img/set2/S2.jpg","68","2","structured_normal","68","structured_load,structured_normal,random,structured_incentive","3,4,2,1,2,3","true","","",""
"null","","html-keyboard-response","525","2890823","0.0-525.0","","<img src=""img/set2/S2.jpg"" width=""540"" height = ""360"" style=""border:16px solid orange"">","null","","","","","","","","",""
"null","","html-keyboard-response","526","2891031","0.0-526.0","","","null","","","","","","","","",""
"700.7000000178814","","image-keyboard-response","527","2891733","0.0-527.0","","img/set2/S1.jpg","83","1","structured_normal","83","structured_load,structured_normal,random,structured_incentive","3,4,2,1,2,3","true","","",""
"null","","html-keyboard-response","528","2892085","0.0-528.0","","<img src=""img/set2/S1.jpg"" width=""540"" height = ""360"" style=""border:16px solid orange"">","null","","","","","","","","",""
"null","","html-keyboard-response","529","2892293","0.0-529.0","","","null","","","","","","","","",""
"1802.5999999940395","","image-keyboard-response","530","2894097","0.0-530.0","","img/set2/S3.jpg","72","3","structured_normal","72","structured_load,structured_normal,random,structured_incentive","3,4,2,1,2,3","true","","",""
"null","","html-keyboard-response","531","2894452","0.0-531.0","","<img src=""img/set2/S3.jpg"" width=""540"" height = ""360"" style=""border:16px solid orange"">","null","","","","","","","","",""
"null","","html-keyboard-response","532","2894659","0.0-532.0","","","null","","","","","","","","",""
"424.5","","image-keyboard-response","533","2895084","0.0-533.0","","img/set2/S3.jpg","72","3","structured_normal","72","structured_load,structured_normal,random,structured_incentive","3,4,2,1,2,3","true","","",""
"null","","html-keyboard-response","534","2895444","0.0-534.0","","<img src=""img/set2/S3.jpg"" width=""540"" height = ""360"" style=""border:16px solid orange"">","null","","","","","","","","",""
"null","","html-keyboard-response","535","2895652","0.0-535.0","","","null","","","","","","","","",""
"704.4000000059605","","image-keyboard-response","536","2896357","0.0-536.0","","img/set2/S2.jpg","68","2","structured_normal","68","structured_load,structured_normal,random,structured_incentive","3,4,2,1,2,3","true","","",""
"null","","html-keyboard-response","537","2896709","0.0-537.0","","<img src=""img/set2/S2.jpg"" width=""540"" height = ""360"" style=""border:16px solid orange"">","null","","","","","","","","",""
"null","","html-keyboard-response","538","2896917","0.0-538.0","","","null","","","","","","","","",""
"591.3000000119209","","image-keyboard-response","539","2897509","0.0-539.0","","img/set2/S1.jpg","83","1","structured_normal","83","structured_load,structured_normal,random,structured_incentive","3,4,2,1,2,3","true","","",""
"null","","html-keyboard-response","540","2897862","0.0-540.0","","<img src=""img/set2/S1.jpg"" width=""540"" height = ""360"" style=""border:16px solid orange"">","null","","","","","","","","",""
"null","","html-keyboard-response","541","2898070","0.0-541.0","","","null","","","","","","","","",""
"605.2999999821186","","image-keyboard-response","542","2898676","0.0-542.0","","img/set2/S3.jpg","68","3","structured_normal","72","structured_load,structured_normal,random,structured_incentive","3,4,2,1,2,3","false","","",""
"null","","html-keyboard-response","543","2899030","0.0-543.0","","<img src=""img/set2/S3.jpg"" width=""540"" height = ""360"">","null","","","","","","","","",""
"null","","html-keyboard-response","544","2899238","0.0-544.0","","","null","","","","","","","","",""
"853.1999999880791","","image-keyboard-response","545","2900092","0.0-545.0","","img/set2/S3.jpg","72","3","structured_normal","72","structured_load,structured_normal,random,structured_incentive","3,4,2,1,2,3","true","","",""
"null","","html-keyboard-response","546","2900451","0.0-546.0","","<img src=""img/set2/S3.jpg"" width=""540"" height = ""360"" style=""border:16px solid orange"">","null","","","","","","","","",""
"null","","html-keyboard-response","547","2900659","0.0-547.0","","","null","","","","","","","","",""
"471.90000000596046","","image-keyboard-response","548","2901132","0.0-548.0","","img/set2/S3.jpg","72","3","structured_normal","72","structured_load,structured_normal,random,structured_incentive","3,4,2,1,2,3","true","","",""
"null","","html-keyboard-response","549","2901492","0.0-549.0","","<img src=""img/set2/S3.jpg"" width=""540"" height = ""360"" style=""border:16px solid orange"">","null","","","","","","","","",""
"null","","html-keyboard-response","550","2901700","0.0-550.0","","","null","","","","","","","","",""
"629.6999999880791","","image-keyboard-response","551","2902331","0.0-551.0","","img/set2/S2.jpg","68","2","structured_normal","68","structured_load,structured_normal,random,structured_incentive","3,4,2,1,2,3","true","","",""
"null","","html-keyboard-response","552","2902690","0.0-552.0","","<img src=""img/set2/S2.jpg"" width=""540"" height = ""360"" style=""border:16px solid orange"">","null","","","","","","","","",""
"null","","html-keyboard-response","553","2902897","0.0-553.0","","","null","","","","","","","","",""
"608.1999999880791","","image-keyboard-response","554","2903506","0.0-554.0","","img/set2/S1.jpg","83","1","structured_normal","83","structured_load,structured_normal,random,structured_incentive","3,4,2,1,2,3","true","","",""
"null","","html-keyboard-response","555","2903871","0.0-555.0","","<img src=""img/set2/S1.jpg"" width=""540"" height = ""360"" style=""border:16px solid orange"">","null","","","","","","","","",""
"null","","html-keyboard-response","556","2904079","0.0-556.0","","","null","","","","","","","","",""
"1704.5999999940395","","image-keyboard-response","557","2905784","0.0-557.0","","img/set2/S3.jpg","72","3","structured_normal","72","structured_load,structured_normal,random,structured_incentive","3,4,2,1,2,3","true","","",""
"null","","html-keyboard-response","558","2906145","0.0-558.0","","<img src=""img/set2/S3.jpg"" width=""540"" height = ""360"" style=""border:16px solid orange"">","null","","","","","","","","",""
"null","","html-keyboard-response","559","2906353","0.0-559.0","","","null","","","","","","","","",""
"659.9000000059605","","image-keyboard-response","560","2907014","0.0-560.0","","img/set2/S2.jpg","68","2","structured_normal","68","structured_load,structured_normal,random,structured_incentive","3,4,2,1,2,3","true","","",""
"null","","html-keyboard-response","561","2907378","0.0-561.0","","<img src=""img/set2/S2.jpg"" width=""540"" height = ""360"" style=""border:16px solid orange"">","null","","","","","","","","",""
"null","","html-keyboard-response","562","2907586","0.0-562.0","","","null","","","","","","","","",""
"602.6000000238419","","image-keyboard-response","563","2908189","0.0-563.0","","img/set2/S1.jpg","83","1","structured_normal","83","structured_load,structured_normal,random,structured_incentive","3,4,2,1,2,3","true","","",""
"null","","html-keyboard-response","564","2908547","0.0-564.0","","<img src=""img/set2/S1.jpg"" width=""540"" height = ""360"" style=""border:16px solid orange"">","null","","","","","","","","",""
"null","","html-keyboard-response","565","2908755","0.0-565.0","","","null","","","","","","","","",""
"1137.7000000178814","","image-keyboard-response","566","2909893","0.0-566.0","","img/set2/S3.jpg","68","3","structured_normal","72","structured_load,structured_normal,random,structured_incentive","3,4,2,1,2,3","false","","",""
"null","","html-keyboard-response","567","2910257","0.0-567.0","","<img src=""img/set2/S3.jpg"" width=""540"" height = ""360"">","null","","","","","","","","",""
"null","","html-keyboard-response","568","2910465","0.0-568.0","","","null","","","","","","","","",""
"461","","image-keyboard-response","569","2910927","0.0-569.0","","img/set2/S3.jpg","72","3","structured_normal","72","structured_load,structured_normal,random,structured_incentive","3,4,2,1,2,3","true","","",""
"null","","html-keyboard-response","570","2911282","0.0-570.0","","<img src=""img/set2/S3.jpg"" width=""540"" height = ""360"" style=""border:16px solid orange"">","null","","","","","","","","",""
"null","","html-keyboard-response","571","2911490","0.0-571.0","","","null","","","","","","","","",""
"649.3000000119209","","image-keyboard-response","572","2912140","0.0-572.0","","img/set2/S2.jpg","68","2","structured_normal","68","structured_load,structured_normal,random,structured_incentive","3,4,2,1,2,3","true","","",""
"null","","html-keyboard-response","573","2912499","0.0-573.0","","<img src=""img/set2/S2.jpg"" width=""540"" height = ""360"" style=""border:16px solid orange"">","null","","","","","","","","",""
"null","","html-keyboard-response","574","2912707","0.0-574.0","","","null","","","","","","","","",""
"567","","image-keyboard-response","575","2913275","0.0-575.0","","img/set2/S1.jpg","83","1","structured_normal","83","structured_load,structured_normal,random,structured_incentive","3,4,2,1,2,3","true","","",""
"null","","html-keyboard-response","576","2913634","0.0-576.0","","<img src=""img/set2/S1.jpg"" width=""540"" height = ""360"" style=""border:16px solid orange"">","null","","","","","","","","",""
"null","","html-keyboard-response","577","2913841","0.0-577.0","","","null","","","","","","","","",""
"1091","","image-keyboard-response","578","2914933","0.0-578.0","","img/set2/S3.jpg","68","3","structured_normal","72","structured_load,structured_normal,random,structured_incentive","3,4,2,1,2,3","false","","",""
