"rt","url","trial_type","trial_index","time_elapsed","internal_node_id","view_history","stimulus","key_press","state","test_part","correct_response","order_block","order_chunk","correct","responses","bonus"
"77193.79999999702","consent.html","external-html","0","77269","0.0-0.0","","","","","","","","","","",""
"727079.1000000015","","instructions","1","1557144","0.0-1.0","[{""page_index"":0,""viewing_time"":638447.6000000015},{""page_index"":1,""viewing_time"":7582.79999999702},{""page_index"":2,""viewing_time"":12799.5},{""page_index"":3,""viewing_time"":18861},{""page_index"":4,""viewing_time"":11599.10000000149},{""page_index"":5,""viewing_time"":24123.70000000298},{""page_index"":6,""viewing_time"":13663.29999999702}]","","","","","","","","","",""
"8505.5","","instructions","2","1565651","0.0-2.0","[{""page_index"":0,""viewing_time"":8504.90000000596}]","","","","","","","","","",""
"5133.30000000447","","instructions","3","1570786","0.0-3.0","[{""page_index"":0,""viewing_time"":5132.5}]","","","","","","","","","",""
"1597.8000000044703","","image-keyboard-response","4","1572389","0.0-4.0","","img/set1/S4.jpg","83","4","random","74","random,structured_load,structured_normal,structured_incentive","3,4,2,3,2,1","false","",""
"null","","html-keyboard-response","5","1572743","0.0-5.0","","<img src=""img/set1/S4.jpg"" width=""540"" height = ""360"">","null","","","","","","","",""
"null","","html-keyboard-response","6","1572947","0.0-6.0","","","null","","","","","","","",""
"1004.1999999955297","","image-keyboard-response","7","1573954","0.0-7.0","","img/set1/S4.jpg","68","4","random","74","random,structured_load,structured_normal,structured_incentive","3,4,2,3,2,1","false","",""
"null","","html-keyboard-response","8","1574307","0.0-8.0","","<img src=""img/set1/S4.jpg"" width=""540"" height = ""360"">","null","","","","","","","",""
"null","","html-keyboard-response","9","1574509","0.0-9.0","","","null","","","","","","","",""
"845.7999999970198","","image-keyboard-response","10","1575358","0.0-10.0","","img/set1/S2.jpg","72","2","random","68","random,structured_load,structured_normal,structured_incentive","3,4,2,3,2,1","false","",""
"null","","html-keyboard-response","11","1575711","0.0-11.0","","<img src=""img/set1/S2.jpg"" width=""540"" height = ""360"">","null","","","","","","","",""
"null","","html-keyboard-response","12","1575913","0.0-12.0","","","null","","","","","","","",""
"870.7999999970198","","image-keyboard-response","13","1576786","0.0-13.0","","img/set1/S1.jpg","72","1","random","83","random,structured_load,structured_normal,structured_incentive","3,4,2,3,2,1","false","",""
"null","","html-keyboard-response","14","1577139","0.0-14.0","","<img src=""img/set1/S1.jpg"" width=""540"" height = ""360"">","null","","","","","","","",""
"null","","html-keyboard-response","15","1577341","0.0-15.0","","","null","","","","","","","",""
"1084.1000000014901","","image-keyboard-response","16","1578427","0.0-16.0","","img/set1/S2.jpg","74","2","random","68","random,structured_load,structured_normal,structured_incentive","3,4,2,3,2,1","false","",""
"null","","html-keyboard-response","17","1578780","0.0-17.0","","<img src=""img/set1/S2.jpg"" width=""540"" height = ""360"">","null","","","","","","","",""
"null","","html-keyboard-response","18","1578982","0.0-18.0","","","null","","","","","","","",""
"970.8999999985099","","image-keyboard-response","19","1579955","0.0-19.0","","img/set1/S4.jpg","68","4","random","74","random,structured_load,structured_normal,structured_incentive","3,4,2,3,2,1","false","",""
"null","","html-keyboard-response","20","1580308","0.0-20.0","","<img src=""img/set1/S4.jpg"" width=""540"" height = ""360"">","null","","","","","","","",""
"null","","html-keyboard-response","21","1580510","0.0-21.0","","","null","","","","","","","",""
"457.3999999985099","","image-keyboard-response","22","1580970","0.0-22.0","","img/set1/S2.jpg","83","2","random","68","random,structured_load,structured_normal,structured_incentive","3,4,2,3,2,1","false","",""
"null","","html-keyboard-response","23","1581323","0.0-23.0","","<img src=""img/set1/S2.jpg"" width=""540"" height = ""360"">","null","","","","","","","",""
"null","","html-keyboard-response","24","1581525","0.0-24.0","","","null","","","","","","","",""
"1001.8000000044703","","image-keyboard-response","25","1582528","0.0-25.0","","img/set1/S1.jpg","68","1","random","83","random,structured_load,structured_normal,structured_incentive","3,4,2,3,2,1","false","",""
"null","","html-keyboard-response","26","1582882","0.0-26.0","","<img src=""img/set1/S1.jpg"" width=""540"" height = ""360"">","null","","","","","","","",""
"null","","html-keyboard-response","27","1583083","0.0-27.0","","","null","","","","","","","",""
"1159.3999999985099","","image-keyboard-response","28","1584245","0.0-28.0","","img/set1/S4.jpg","74","4","random","74","random,structured_load,structured_normal,structured_incentive","3,4,2,3,2,1","true","",""
"null","","html-keyboard-response","29","1584599","0.0-29.0","","<img src=""img/set1/S4.jpg"" width=""540"" height = ""360"" style=""border:16px solid orange"">","null","","","","","","","",""
"null","","html-keyboard-response","30","1584800","0.0-30.0","","","null","","","","","","","",""
"1284.8000000044703","","image-keyboard-response","31","1586087","0.0-31.0","","img/set1/S3.jpg","72","3","random","72","random,structured_load,structured_normal,structured_incentive","3,4,2,3,2,1","true","",""
"null","","html-keyboard-response","32","1586441","0.0-32.0","","<img src=""img/set1/S3.jpg"" width=""540"" height = ""360"" style=""border:16px solid orange"">","null","","","","","","","",""
"null","","html-keyboard-response","33","1586642","0.0-33.0","","","null","","","","","","","",""
"838.2000000029802","","image-keyboard-response","34","1587483","0.0-34.0","","img/set1/S1.jpg","68","1","random","83","random,structured_load,structured_normal,structured_incentive","3,4,2,3,2,1","false","",""
"null","","html-keyboard-response","35","1587836","0.0-35.0","","<img src=""img/set1/S1.jpg"" width=""540"" height = ""360"">","null","","","","","","","",""
"null","","html-keyboard-response","36","1588037","0.0-36.0","","","null","","","","","","","",""
"575","","image-keyboard-response","37","1588615","0.0-37.0","","img/set1/S1.jpg","83","1","random","83","random,structured_load,structured_normal,structured_incentive","3,4,2,3,2,1","true","",""
"null","","html-keyboard-response","38","1588968","0.0-38.0","","<img src=""img/set1/S1.jpg"" width=""540"" height = ""360"" style=""border:16px solid orange"">","null","","","","","","","",""
"null","","html-keyboard-response","39","1589169","0.0-39.0","","","null","","","","","","","",""
"788.4000000059605","","image-keyboard-response","40","1589960","0.0-40.0","","img/set1/S2.jpg","68","2","random","68","random,structured_load,structured_normal,structured_incentive","3,4,2,3,2,1","true","",""
"null","","html-keyboard-response","41","1590313","0.0-41.0","","<img src=""img/set1/S2.jpg"" width=""540"" height = ""360"" style=""border:16px solid orange"">","null","","","","","","","",""
"null","","html-keyboard-response","42","1590515","0.0-42.0","","","null","","","","","","","",""
"761.6000000014901","","image-keyboard-response","43","1591280","0.0-43.0","","img/set1/S1.jpg","83","1","random","83","random,structured_load,structured_normal,structured_incentive","3,4,2,3,2,1","true","",""
"null","","html-keyboard-response","44","1591633","0.0-44.0","","<img src=""img/set1/S1.jpg"" width=""540"" height = ""360"" style=""border:16px solid orange"">","null","","","","","","","",""
"null","","html-keyboard-response","45","1591835","0.0-45.0","","","null","","","","","","","",""
"736","","image-keyboard-response","46","1592573","0.0-46.0","","img/set1/S3.jpg","72","3","random","72","random,structured_load,structured_normal,structured_incentive","3,4,2,3,2,1","true","",""
"null","","html-keyboard-response","47","1592926","0.0-47.0","","<img src=""img/set1/S3.jpg"" width=""540"" height = ""360"" style=""border:16px solid orange"">","null","","","","","","","",""
"null","","html-keyboard-response","48","1593128","0.0-48.0","","","null","","","","","","","",""
"350.5","","image-keyboard-response","49","1593481","0.0-49.0","","img/set1/S3.jpg","72","3","random","72","random,structured_load,structured_normal,structured_incentive","3,4,2,3,2,1","true","",""
"null","","html-keyboard-response","50","1593834","0.0-50.0","","<img src=""img/set1/S3.jpg"" width=""540"" height = ""360"" style=""border:16px solid orange"">","null","","","","","","","",""
"null","","html-keyboard-response","51","1594036","0.0-51.0","","","null","","","","","","","",""
"407.29999999701977","","image-keyboard-response","52","1594445","0.0-52.0","","img/set1/S3.jpg","72","3","random","72","random,structured_load,structured_normal,structured_incentive","3,4,2,3,2,1","true","",""
"null","","html-keyboard-response","53","1594798","0.0-53.0","","<img src=""img/set1/S3.jpg"" width=""540"" height = ""360"" style=""border:16px solid orange"">","null","","","","","","","",""
"null","","html-keyboard-response","54","1595000","0.0-54.0","","","null","","","","","","","",""
"655.5","","image-keyboard-response","55","1595657","0.0-55.0","","img/set1/S2.jpg","68","2","random","68","random,structured_load,structured_normal,structured_incentive","3,4,2,3,2,1","true","",""
"null","","html-keyboard-response","56","1596010","0.0-56.0","","<img src=""img/set1/S2.jpg"" width=""540"" height = ""360"" style=""border:16px solid orange"">","null","","","","","","","",""
"null","","html-keyboard-response","57","1596212","0.0-57.0","","","null","","","","","","","",""
"409.8999999985099","","image-keyboard-response","58","1596624","0.0-58.0","","img/set1/S2.jpg","68","2","random","68","random,structured_load,structured_normal,structured_incentive","3,4,2,3,2,1","true","",""
"null","","html-keyboard-response","59","1596977","0.0-59.0","","<img src=""img/set1/S2.jpg"" width=""540"" height = ""360"" style=""border:16px solid orange"">","null","","","","","","","",""
"null","","html-keyboard-response","60","1597179","0.0-60.0","","","null","","","","","","","",""
"323.20000000298023","","image-keyboard-response","61","1597504","0.0-61.0","","img/set1/S2.jpg","68","2","random","68","random,structured_load,structured_normal,structured_incentive","3,4,2,3,2,1","true","",""
"null","","html-keyboard-response","62","1597858","0.0-62.0","","<img src=""img/set1/S2.jpg"" width=""540"" height = ""360"" style=""border:16px solid orange"">","null","","","","","","","",""
"null","","html-keyboard-response","63","1598059","0.0-63.0","","","null","","","","","","","",""
"755.8999999985099","","image-keyboard-response","64","1598818","0.0-64.0","","img/set1/S4.jpg","74","4","random","74","random,structured_load,structured_normal,structured_incentive","3,4,2,3,2,1","true","",""
"null","","html-keyboard-response","65","1599172","0.0-65.0","","<img src=""img/set1/S4.jpg"" width=""540"" height = ""360"" style=""border:16px solid orange"">","null","","","","","","","",""
"null","","html-keyboard-response","66","1599374","0.0-66.0","","","null","","","","","","","",""
"520","","image-keyboard-response","67","1599896","0.0-67.0","","img/set1/S3.jpg","72","3","random","72","random,structured_load,structured_normal,structured_incentive","3,4,2,3,2,1","true","",""
"null","","html-keyboard-response","68","1600250","0.0-68.0","","<img src=""img/set1/S3.jpg"" width=""540"" height = ""360"" style=""border:16px solid orange"">","null","","","","","","","",""
"null","","html-keyboard-response","69","1600451","0.0-69.0","","","null","","","","","","","",""
"666.8000000044703","","image-keyboard-response","70","1601121","0.0-70.0","","img/set1/S4.jpg","74","4","random","74","random,structured_load,structured_normal,structured_incentive","3,4,2,3,2,1","true","",""
"null","","html-keyboard-response","71","1601474","0.0-71.0","","<img src=""img/set1/S4.jpg"" width=""540"" height = ""360"" style=""border:16px solid orange"">","null","","","","","","","",""
"null","","html-keyboard-response","72","1601676","0.0-72.0","","","null","","","","","","","",""
"90.19999999552965","","image-keyboard-response","73","1601768","0.0-73.0","","img/set1/S1.jpg","72","1","random","83","random,structured_load,structured_normal,structured_incentive","3,4,2,3,2,1","false","",""
"null","","html-keyboard-response","74","1602122","0.0-74.0","","<img src=""img/set1/S1.jpg"" width=""540"" height = ""360"">","null","","","","","","","",""
"null","","html-keyboard-response","75","1602324","0.0-75.0","","","null","","","","","","","",""
"807.2000000029802","","image-keyboard-response","76","1603134","0.0-76.0","","img/set1/S2.jpg","68","2","random","68","random,structured_load,structured_normal,structured_incentive","3,4,2,3,2,1","true","",""
"null","","html-keyboard-response","77","1603487","0.0-77.0","","<img src=""img/set1/S2.jpg"" width=""540"" height = ""360"" style=""border:16px solid orange"">","null","","","","","","","",""
"null","","html-keyboard-response","78","1603689","0.0-78.0","","","null","","","","","","","",""
"474.19999999552965","","image-keyboard-response","79","1604166","0.0-79.0","","img/set1/S2.jpg","68","2","random","68","random,structured_load,structured_normal,structured_incentive","3,4,2,3,2,1","true","",""
"null","","html-keyboard-response","80","1604519","0.0-80.0","","<img src=""img/set1/S2.jpg"" width=""540"" height = ""360"" style=""border:16px solid orange"">","null","","","","","","","",""
"null","","html-keyboard-response","81","1604720","0.0-81.0","","","null","","","","","","","",""
"867.6000000014901","","image-keyboard-response","82","1605590","0.0-82.0","","img/set1/S3.jpg","72","3","random","72","random,structured_load,structured_normal,structured_incentive","3,4,2,3,2,1","true","",""
"null","","html-keyboard-response","83","1605943","0.0-83.0","","<img src=""img/set1/S3.jpg"" width=""540"" height = ""360"" style=""border:16px solid orange"">","null","","","","","","","",""
"null","","html-keyboard-response","84","1606144","0.0-84.0","","","null","","","","","","","",""
"383.6000000014901","","image-keyboard-response","85","1606530","0.0-85.0","","img/set1/S1.jpg","83","1","random","83","random,structured_load,structured_normal,structured_incentive","3,4,2,3,2,1","true","",""
"null","","html-keyboard-response","86","1606882","0.0-86.0","","<img src=""img/set1/S1.jpg"" width=""540"" height = ""360"" style=""border:16px solid orange"">","null","","","","","","","",""
"null","","html-keyboard-response","87","1607083","0.0-87.0","","","null","","","","","","","",""
"443.40000000596046","","image-keyboard-response","88","1607529","0.0-88.0","","img/set1/S1.jpg","83","1","random","83","random,structured_load,structured_normal,structured_incentive","3,4,2,3,2,1","true","",""
"null","","html-keyboard-response","89","1607882","0.0-89.0","","<img src=""img/set1/S1.jpg"" width=""540"" height = ""360"" style=""border:16px solid orange"">","null","","","","","","","",""
"null","","html-keyboard-response","90","1608084","0.0-90.0","","","null","","","","","","","",""
"523.6000000014901","","image-keyboard-response","91","1608610","0.0-91.0","","img/set1/S3.jpg","72","3","random","72","random,structured_load,structured_normal,structured_incentive","3,4,2,3,2,1","true","",""
"null","","html-keyboard-response","92","1608963","0.0-92.0","","<img src=""img/set1/S3.jpg"" width=""540"" height = ""360"" style=""border:16px solid orange"">","null","","","","","","","",""
"null","","html-keyboard-response","93","1609165","0.0-93.0","","","null","","","","","","","",""
"474.29999999701977","","image-keyboard-response","94","1609642","0.0-94.0","","img/set1/S4.jpg","74","4","random","74","random,structured_load,structured_normal,structured_incentive","3,4,2,3,2,1","true","",""
"null","","html-keyboard-response","95","1609994","0.0-95.0","","<img src=""img/set1/S4.jpg"" width=""540"" height = ""360"" style=""border:16px solid orange"">","null","","","","","","","",""
"null","","html-keyboard-response","96","1610196","0.0-96.0","","","null","","","","","","","",""
"422.69999999552965","","image-keyboard-response","97","1610621","0.0-97.0","","img/set1/S4.jpg","74","4","random","74","random,structured_load,structured_normal,structured_incentive","3,4,2,3,2,1","true","",""
"null","","html-keyboard-response","98","1610974","0.0-98.0","","<img src=""img/set1/S4.jpg"" width=""540"" height = ""360"" style=""border:16px solid orange"">","null","","","","","","","",""
"null","","html-keyboard-response","99","1611176","0.0-99.0","","","null","","","","","","","",""
"387.79999999701977","","image-keyboard-response","100","1611566","0.0-100.0","","img/set1/S3.jpg","72","3","random","72","random,structured_load,structured_normal,structured_incentive","3,4,2,3,2,1","true","",""
"null","","html-keyboard-response","101","1611919","0.0-101.0","","<img src=""img/set1/S3.jpg"" width=""540"" height = ""360"" style=""border:16px solid orange"">","null","","","","","","","",""
"null","","html-keyboard-response","102","1612121","0.0-102.0","","","null","","","","","","","",""
"600.2999999970198","","image-keyboard-response","103","1612723","0.0-103.0","","img/set1/S1.jpg","68","1","random","83","random,structured_load,structured_normal,structured_incentive","3,4,2,3,2,1","false","",""
"null","","html-keyboard-response","104","1613074","0.0-104.0","","<img src=""img/set1/S1.jpg"" width=""540"" height = ""360"">","null","","","","","","","",""
"null","","html-keyboard-response","105","1613276","0.0-105.0","","","null","","","","","","","",""
"1033.7999999970198","","image-keyboard-response","106","1614312","0.0-106.0","","img/set1/S3.jpg","72","3","random","72","random,structured_load,structured_normal,structured_incentive","3,4,2,3,2,1","true","",""
"null","","html-keyboard-response","107","1614665","0.0-107.0","","<img src=""img/set1/S3.jpg"" width=""540"" height = ""360"" style=""border:16px solid orange"">","null","","","","","","","",""
"null","","html-keyboard-response","108","1614867","0.0-108.0","","","null","","","","","","","",""
"1369.5","","image-keyboard-response","109","1616238","0.0-109.0","","img/set1/S2.jpg","68","2","random","68","random,structured_load,structured_normal,structured_incentive","3,4,2,3,2,1","true","",""
"null","","html-keyboard-response","110","1616592","0.0-110.0","","<img src=""img/set1/S2.jpg"" width=""540"" height = ""360"" style=""border:16px solid orange"">","null","","","","","","","",""
"null","","html-keyboard-response","111","1616794","0.0-111.0","","","null","","","","","","","",""
"689.5","","image-keyboard-response","112","1617486","0.0-112.0","","img/set1/S1.jpg","83","1","random","83","random,structured_load,structured_normal,structured_incentive","3,4,2,3,2,1","true","",""
"null","","html-keyboard-response","113","1617839","0.0-113.0","","<img src=""img/set1/S1.jpg"" width=""540"" height = ""360"" style=""border:16px solid orange"">","null","","","","","","","",""
"null","","html-keyboard-response","114","1618040","0.0-114.0","","","null","","","","","","","",""
"602.7000000029802","","image-keyboard-response","115","1618646","0.0-115.0","","img/set1/S1.jpg","83","1","random","83","random,structured_load,structured_normal,structured_incentive","3,4,2,3,2,1","true","",""
"null","","html-keyboard-response","116","1618999","0.0-116.0","","<img src=""img/set1/S1.jpg"" width=""540"" height = ""360"" style=""border:16px solid orange"">","null","","","","","","","",""
"null","","html-keyboard-response","117","1619201","0.0-117.0","","","null","","","","","","","",""
"1041.7999999970198","","image-keyboard-response","118","1620245","0.0-118.0","","img/set1/S3.jpg","72","3","random","72","random,structured_load,structured_normal,structured_incentive","3,4,2,3,2,1","true","",""
"null","","html-keyboard-response","119","1620597","0.0-119.0","","<img src=""img/set1/S3.jpg"" width=""540"" height = ""360"" style=""border:16px solid orange"">","null","","","","","","","",""
"null","","html-keyboard-response","120","1620799","0.0-120.0","","","null","","","","","","","",""
"900.7000000029802","","image-keyboard-response","121","1621702","0.0-121.0","","img/set1/S1.jpg","68","1","random","83","random,structured_load,structured_normal,structured_incentive","3,4,2,3,2,1","false","",""
"null","","html-keyboard-response","122","1622055","0.0-122.0","","<img src=""img/set1/S1.jpg"" width=""540"" height = ""360"">","null","","","","","","","",""
"null","","html-keyboard-response","123","1622257","0.0-123.0","","","null","","","","","","","",""
"595.3999999985099","","image-keyboard-response","124","1622854","0.0-124.0","","img/set1/S4.jpg","74","4","random","74","random,structured_load,structured_normal,structured_incentive","3,4,2,3,2,1","true","",""
"null","","html-keyboard-response","125","1623207","0.0-125.0","","<img src=""img/set1/S4.jpg"" width=""540"" height = ""360"" style=""border:16px solid orange"">","null","","","","","","","",""
"null","","html-keyboard-response","126","1623409","0.0-126.0","","","null","","","","","","","",""
"358.59999999403954","","image-keyboard-response","127","1623770","0.0-127.0","","img/set1/S4.jpg","74","4","random","74","random,structured_load,structured_normal,structured_incentive","3,4,2,3,2,1","true","",""
"null","","html-keyboard-response","128","1624122","0.0-128.0","","<img src=""img/set1/S4.jpg"" width=""540"" height = ""360"" style=""border:16px solid orange"">","null","","","","","","","",""
"null","","html-keyboard-response","129","1624324","0.0-129.0","","","null","","","","","","","",""
"415.19999999552965","","image-keyboard-response","130","1624742","0.0-130.0","","img/set1/S2.jpg","68","2","random","68","random,structured_load,structured_normal,structured_incentive","3,4,2,3,2,1","true","",""
"null","","html-keyboard-response","131","1625095","0.0-131.0","","<img src=""img/set1/S2.jpg"" width=""540"" height = ""360"" style=""border:16px solid orange"">","null","","","","","","","",""
"null","","html-keyboard-response","132","1625297","0.0-132.0","","","null","","","","","","","",""
"468.30000000447035","","image-keyboard-response","133","1625767","0.0-133.0","","img/set1/S2.jpg","68","2","random","68","random,structured_load,structured_normal,structured_incentive","3,4,2,3,2,1","true","",""
"null","","html-keyboard-response","134","1626120","0.0-134.0","","<img src=""img/set1/S2.jpg"" width=""540"" height = ""360"" style=""border:16px solid orange"">","null","","","","","","","",""
"null","","html-keyboard-response","135","1626322","0.0-135.0","","","null","","","","","","","",""
"558.3000000044703","","image-keyboard-response","136","1626883","0.0-136.0","","img/set1/S3.jpg","72","3","random","72","random,structured_load,structured_normal,structured_incentive","3,4,2,3,2,1","true","",""
"null","","html-keyboard-response","137","1627236","0.0-137.0","","<img src=""img/set1/S3.jpg"" width=""540"" height = ""360"" style=""border:16px solid orange"">","null","","","","","","","",""
"null","","html-keyboard-response","138","1627438","0.0-138.0","","","null","","","","","","","",""
"291.5","","image-keyboard-response","139","1627731","0.0-139.0","","img/set1/S3.jpg","72","3","random","72","random,structured_load,structured_normal,structured_incentive","3,4,2,3,2,1","true","",""
"null","","html-keyboard-response","140","1628084","0.0-140.0","","<img src=""img/set1/S3.jpg"" width=""540"" height = ""360"" style=""border:16px solid orange"">","null","","","","","","","",""
"null","","html-keyboard-response","141","1628286","0.0-141.0","","","null","","","","","","","",""
"763.8999999985099","","image-keyboard-response","142","1629052","0.0-142.0","","img/set1/S2.jpg","68","2","random","68","random,structured_load,structured_normal,structured_incentive","3,4,2,3,2,1","true","",""
"null","","html-keyboard-response","143","1629405","0.0-143.0","","<img src=""img/set1/S2.jpg"" width=""540"" height = ""360"" style=""border:16px solid orange"">","null","","","","","","","",""
"null","","html-keyboard-response","144","1629606","0.0-144.0","","","null","","","","","","","",""
"285.8999999985099","","image-keyboard-response","145","1629894","0.0-145.0","","img/set1/S2.jpg","68","2","random","68","random,structured_load,structured_normal,structured_incentive","3,4,2,3,2,1","true","",""
"null","","html-keyboard-response","146","1630246","0.0-146.0","","<img src=""img/set1/S2.jpg"" width=""540"" height = ""360"" style=""border:16px solid orange"">","null","","","","","","","",""
"null","","html-keyboard-response","147","1630448","0.0-147.0","","","null","","","","","","","",""
"548.6000000014901","","image-keyboard-response","148","1630998","0.0-148.0","","img/set1/S1.jpg","83","1","random","83","random,structured_load,structured_normal,structured_incentive","3,4,2,3,2,1","true","",""
"null","","html-keyboard-response","149","1631351","0.0-149.0","","<img src=""img/set1/S1.jpg"" width=""540"" height = ""360"" style=""border:16px solid orange"">","null","","","","","","","",""
"null","","html-keyboard-response","150","1631553","0.0-150.0","","","null","","","","","","","",""
"667.5","","image-keyboard-response","151","1632223","0.0-151.0","","img/set1/S1.jpg","83","1","random","83","random,structured_load,structured_normal,structured_incentive","3,4,2,3,2,1","true","",""
"null","","html-keyboard-response","152","1632576","0.0-152.0","","<img src=""img/set1/S1.jpg"" width=""540"" height = ""360"" style=""border:16px solid orange"">","null","","","","","","","",""
"null","","html-keyboard-response","153","1632777","0.0-153.0","","","null","","","","","","","",""
"1100.3999999985099","","image-keyboard-response","154","1633879","0.0-154.0","","img/set1/S2.jpg","68","2","random","68","random,structured_load,structured_normal,structured_incentive","3,4,2,3,2,1","true","",""
"null","","html-keyboard-response","155","1634232","0.0-155.0","","<img src=""img/set1/S2.jpg"" width=""540"" height = ""360"" style=""border:16px solid orange"">","null","","","","","","","",""
"null","","html-keyboard-response","156","1634434","0.0-156.0","","","null","","","","","","","",""
"813.7000000029802","","image-keyboard-response","157","1635250","0.0-157.0","","img/set1/S1.jpg","83","1","random","83","random,structured_load,structured_normal,structured_incentive","3,4,2,3,2,1","true","",""
"null","","html-keyboard-response","158","1635603","0.0-158.0","","<img src=""img/set1/S1.jpg"" width=""540"" height = ""360"" style=""border:16px solid orange"">","null","","","","","","","",""
"null","","html-keyboard-response","159","1635806","0.0-159.0","","","null","","","","","","","",""
"794.5","","image-keyboard-response","160","1636602","0.0-160.0","","img/set1/S3.jpg","72","3","random","72","random,structured_load,structured_normal,structured_incentive","3,4,2,3,2,1","true","",""
"null","","html-keyboard-response","161","1636955","0.0-161.0","","<img src=""img/set1/S3.jpg"" width=""540"" height = ""360"" style=""border:16px solid orange"">","null","","","","","","","",""
"null","","html-keyboard-response","162","1637157","0.0-162.0","","","null","","","","","","","",""
"527.0999999940395","","image-keyboard-response","163","1637686","0.0-163.0","","img/set1/S4.jpg","74","4","random","74","random,structured_load,structured_normal,structured_incentive","3,4,2,3,2,1","true","",""
"null","","html-keyboard-response","164","1638039","0.0-164.0","","<img src=""img/set1/S4.jpg"" width=""540"" height = ""360"" style=""border:16px solid orange"">","null","","","","","","","",""
"null","","html-keyboard-response","165","1638240","0.0-165.0","","","null","","","","","","","",""
"449.5","","image-keyboard-response","166","1638692","0.0-166.0","","img/set1/S4.jpg","74","4","random","74","random,structured_load,structured_normal,structured_incentive","3,4,2,3,2,1","true","",""
"null","","html-keyboard-response","167","1639045","0.0-167.0","","<img src=""img/set1/S4.jpg"" width=""540"" height = ""360"" style=""border:16px solid orange"">","null","","","","","","","",""
"null","","html-keyboard-response","168","1639246","0.0-168.0","","","null","","","","","","","",""
"583.0999999940395","","image-keyboard-response","169","1639831","0.0-169.0","","img/set1/S1.jpg","83","1","random","83","random,structured_load,structured_normal,structured_incentive","3,4,2,3,2,1","true","",""
"null","","html-keyboard-response","170","1640184","0.0-170.0","","<img src=""img/set1/S1.jpg"" width=""540"" height = ""360"" style=""border:16px solid orange"">","null","","","","","","","",""
"null","","html-keyboard-response","171","1640386","0.0-171.0","","","null","","","","","","","",""
"920.2000000029802","","image-keyboard-response","172","1641308","0.0-172.0","","img/set1/S3.jpg","72","3","random","72","random,structured_load,structured_normal,structured_incentive","3,4,2,3,2,1","true","",""
"null","","html-keyboard-response","173","1641660","0.0-173.0","","<img src=""img/set1/S3.jpg"" width=""540"" height = ""360"" style=""border:16px solid orange"">","null","","","","","","","",""
"null","","html-keyboard-response","174","1641862","0.0-174.0","","","null","","","","","","","",""
"862.1999999955297","","image-keyboard-response","175","1642726","0.0-175.0","","img/set1/S1.jpg","83","1","random","83","random,structured_load,structured_normal,structured_incentive","3,4,2,3,2,1","true","",""
"null","","html-keyboard-response","176","1643078","0.0-176.0","","<img src=""img/set1/S1.jpg"" width=""540"" height = ""360"" style=""border:16px solid orange"">","null","","","","","","","",""
"null","","html-keyboard-response","177","1643280","0.0-177.0","","","null","","","","","","","",""
"660.8999999985099","","image-keyboard-response","178","1643943","0.0-178.0","","img/set1/S1.jpg","83","1","random","83","random,structured_load,structured_normal,structured_incentive","3,4,2,3,2,1","true","",""
"null","","html-keyboard-response","179","1644296","0.0-179.0","","<img src=""img/set1/S1.jpg"" width=""540"" height = ""360"" style=""border:16px solid orange"">","null","","","","","","","",""
"null","","html-keyboard-response","180","1644498","0.0-180.0","","","null","","","","","","","",""
"1050.8999999985099","","image-keyboard-response","181","1645551","0.0-181.0","","img/set1/S2.jpg","68","2","random","68","random,structured_load,structured_normal,structured_incentive","3,4,2,3,2,1","true","",""
"null","","html-keyboard-response","182","1645903","0.0-182.0","","<img src=""img/set1/S2.jpg"" width=""540"" height = ""360"" style=""border:16px solid orange"">","null","","","","","","","",""
"null","","html-keyboard-response","183","1646105","0.0-183.0","","","null","","","","","","","",""
"449.29999999701977","","image-keyboard-response","184","1646557","0.0-184.0","","img/set1/S1.jpg","68","1","random","83","random,structured_load,structured_normal,structured_incentive","3,4,2,3,2,1","false","",""
"null","","html-keyboard-response","185","1646909","0.0-185.0","","<img src=""img/set1/S1.jpg"" width=""540"" height = ""360"">","null","","","","","","","",""
"null","","html-keyboard-response","186","1647111","0.0-186.0","","","null","","","","","","","",""
"528.6000000014901","","image-keyboard-response","187","1647642","0.0-187.0","","img/set1/S4.jpg","74","4","random","74","random,structured_load,structured_normal,structured_incentive","3,4,2,3,2,1","true","",""
"null","","html-keyboard-response","188","1647995","0.0-188.0","","<img src=""img/set1/S4.jpg"" width=""540"" height = ""360"" style=""border:16px solid orange"">","null","","","","","","","",""
"null","","html-keyboard-response","189","1648197","0.0-189.0","","","null","","","","","","","",""
"696","","image-keyboard-response","190","1648895","0.0-190.0","","img/set1/S2.jpg","68","2","random","68","random,structured_load,structured_normal,structured_incentive","3,4,2,3,2,1","true","",""
"null","","html-keyboard-response","191","1649248","0.0-191.0","","<img src=""img/set1/S2.jpg"" width=""540"" height = ""360"" style=""border:16px solid orange"">","null","","","","","","","",""
"null","","html-keyboard-response","192","1649449","0.0-192.0","","","null","","","","","","","",""
"396","","image-keyboard-response","193","1649847","0.0-193.0","","img/set1/S2.jpg","68","2","random","68","random,structured_load,structured_normal,structured_incentive","3,4,2,3,2,1","true","",""
"null","","html-keyboard-response","194","1650201","0.0-194.0","","<img src=""img/set1/S2.jpg"" width=""540"" height = ""360"" style=""border:16px solid orange"">","null","","","","","","","",""
"null","","html-keyboard-response","195","1650404","0.0-195.0","","","null","","","","","","","",""
"1353.7999999970198","","image-keyboard-response","196","1651760","0.0-196.0","","img/set1/S4.jpg","72","4","random","74","random,structured_load,structured_normal,structured_incentive","3,4,2,3,2,1","false","",""
"null","","html-keyboard-response","197","1652113","0.0-197.0","","<img src=""img/set1/S4.jpg"" width=""540"" height = ""360"">","null","","","","","","","",""
"null","","html-keyboard-response","198","1652314","0.0-198.0","","","null","","","","","","","",""
"1405.6999999955297","","image-keyboard-response","199","1653722","0.0-199.0","","img/set1/S4.jpg","74","4","random","74","random,structured_load,structured_normal,structured_incentive","3,4,2,3,2,1","true","",""
"null","","html-keyboard-response","200","1654075","0.0-200.0","","<img src=""img/set1/S4.jpg"" width=""540"" height = ""360"" style=""border:16px solid orange"">","null","","","","","","","",""
"null","","html-keyboard-response","201","1654277","0.0-201.0","","","null","","","","","","","",""
"605.6000000014901","","image-keyboard-response","202","1654885","0.0-202.0","","img/set1/S4.jpg","74","4","random","74","random,structured_load,structured_normal,structured_incentive","3,4,2,3,2,1","true","",""
"null","","html-keyboard-response","203","1655238","0.0-203.0","","<img src=""img/set1/S4.jpg"" width=""540"" height = ""360"" style=""border:16px solid orange"">","null","","","","","","","",""
"null","","html-keyboard-response","204","1655440","0.0-204.0","","","null","","","","","","","",""
"418.20000000298023","","image-keyboard-response","205","1655860","0.0-205.0","","img/set1/S4.jpg","74","4","random","74","random,structured_load,structured_normal,structured_incentive","3,4,2,3,2,1","true","",""
"null","","html-keyboard-response","206","1656213","0.0-206.0","","<img src=""img/set1/S4.jpg"" width=""540"" height = ""360"" style=""border:16px solid orange"">","null","","","","","","","",""
"null","","html-keyboard-response","207","1656416","0.0-207.0","","","null","","","","","","","",""
"321.3999999985099","","image-keyboard-response","208","1656739","0.0-208.0","","img/set1/S4.jpg","74","4","random","74","random,structured_load,structured_normal,structured_incentive","3,4,2,3,2,1","true","",""
"null","","html-keyboard-response","209","1657092","0.0-209.0","","<img src=""img/set1/S4.jpg"" width=""540"" height = ""360"" style=""border:16px solid orange"">","null","","","","","","","",""
"null","","html-keyboard-response","210","1657294","0.0-210.0","","","null","","","","","","","",""
"1012.6000000014901","","image-keyboard-response","211","1658309","0.0-211.0","","img/set1/S2.jpg","68","2","random","68","random,structured_load,structured_normal,structured_incentive","3,4,2,3,2,1","true","",""
"null","","html-keyboard-response","212","1658662","0.0-212.0","","<img src=""img/set1/S2.jpg"" width=""540"" height = ""360"" style=""border:16px solid orange"">","null","","","","","","","",""
"null","","html-keyboard-response","213","1658863","0.0-213.0","","","null","","","","","","","",""
"787.8999999985099","","image-keyboard-response","214","1659654","0.0-214.0","","img/set1/S3.jpg","72","3","random","72","random,structured_load,structured_normal,structured_incentive","3,4,2,3,2,1","true","",""
"null","","html-keyboard-response","215","1660007","0.0-215.0","","<img src=""img/set1/S3.jpg"" width=""540"" height = ""360"" style=""border:16px solid orange"">","null","","","","","","","",""
"null","","html-keyboard-response","216","1660209","0.0-216.0","","","null","","","","","","","",""
"288.3999999985099","","image-keyboard-response","217","1660500","0.0-217.0","","img/set1/S4.jpg","72","4","random","74","random,structured_load,structured_normal,structured_incentive","3,4,2,3,2,1","false","",""
"null","","html-keyboard-response","218","1660851","0.0-218.0","","<img src=""img/set1/S4.jpg"" width=""540"" height = ""360"">","null","","","","","","","",""
"null","","html-keyboard-response","219","1661053","0.0-219.0","","","null","","","","","","","",""
"17.900000005960464","","image-keyboard-response","220","1661073","0.0-220.0","","img/set1/S2.jpg","74","2","random","68","random,structured_load,structured_normal,structured_incentive","3,4,2,3,2,1","false","",""
"null","","html-keyboard-response","221","1661425","0.0-221.0","","<img src=""img/set1/S2.jpg"" width=""540"" height = ""360"">","null","","","","","","","",""
"null","","html-keyboard-response","222","1661627","0.0-222.0","","","null","","","","","","","",""
"734.3999999985099","","image-keyboard-response","223","1662363","0.0-223.0","","img/set1/S4.jpg","74","4","random","74","random,structured_load,structured_normal,structured_incentive","3,4,2,3,2,1","true","",""
"null","","html-keyboard-response","224","1662716","0.0-224.0","","<img src=""img/set1/S4.jpg"" width=""540"" height = ""360"" style=""border:16px solid orange"">","null","","","","","","","",""
"null","","html-keyboard-response","225","1662919","0.0-225.0","","","null","","","","","","","",""
"777.7999999970198","","image-keyboard-response","226","1663699","0.0-226.0","","img/set1/S2.jpg","68","2","random","68","random,structured_load,structured_normal,structured_incentive","3,4,2,3,2,1","true","",""
"null","","html-keyboard-response","227","1664052","0.0-227.0","","<img src=""img/set1/S2.jpg"" width=""540"" height = ""360"" style=""border:16px solid orange"">","null","","","","","","","",""
"null","","html-keyboard-response","228","1664254","0.0-228.0","","","null","","","","","","","",""
"656.8999999985099","","image-keyboard-response","229","1664913","0.0-229.0","","img/set1/S4.jpg","74","4","random","74","random,structured_load,structured_normal,structured_incentive","3,4,2,3,2,1","true","",""
"null","","html-keyboard-response","230","1665266","0.0-230.0","","<img src=""img/set1/S4.jpg"" width=""540"" height = ""360"" style=""border:16px solid orange"">","null","","","","","","","",""
"null","","html-keyboard-response","231","1665468","0.0-231.0","","","null","","","","","","","",""
"436.1000000014901","","image-keyboard-response","232","1665906","0.0-232.0","","img/set1/S3.jpg","72","3","random","72","random,structured_load,structured_normal,structured_incentive","3,4,2,3,2,1","true","",""
"null","","html-keyboard-response","233","1666259","0.0-233.0","","<img src=""img/set1/S3.jpg"" width=""540"" height = ""360"" style=""border:16px solid orange"">","null","","","","","","","",""
"null","","html-keyboard-response","234","1666461","0.0-234.0","","","null","","","","","","","",""
"407.3999999985099","","image-keyboard-response","235","1666871","0.0-235.0","","img/set1/S3.jpg","72","3","random","72","random,structured_load,structured_normal,structured_incentive","3,4,2,3,2,1","true","",""
"null","","html-keyboard-response","236","1667223","0.0-236.0","","<img src=""img/set1/S3.jpg"" width=""540"" height = ""360"" style=""border:16px solid orange"">","null","","","","","","","",""
"null","","html-keyboard-response","237","1667424","0.0-237.0","","","null","","","","","","","",""
"560","","image-keyboard-response","238","1667986","0.0-238.0","","img/set1/S1.jpg","83","1","random","83","random,structured_load,structured_normal,structured_incentive","3,4,2,3,2,1","true","",""
"null","","html-keyboard-response","239","1668339","0.0-239.0","","<img src=""img/set1/S1.jpg"" width=""540"" height = ""360"" style=""border:16px solid orange"">","null","","","","","","","",""
"null","","html-keyboard-response","240","1668541","0.0-240.0","","","null","","","","","","","",""
"708.2999999970198","","image-keyboard-response","241","1669252","0.0-241.0","","img/set1/S4.jpg","74","4","random","74","random,structured_load,structured_normal,structured_incentive","3,4,2,3,2,1","true","",""
"null","","html-keyboard-response","242","1669605","0.0-242.0","","<img src=""img/set1/S4.jpg"" width=""540"" height = ""360"" style=""border:16px solid orange"">","null","","","","","","","",""
"null","","html-keyboard-response","243","1669807","0.0-243.0","","","null","","","","","","","",""
"703.6000000014901","","image-keyboard-response","244","1670513","0.0-244.0","","img/set1/S2.jpg","68","2","random","68","random,structured_load,structured_normal,structured_incentive","3,4,2,3,2,1","true","",""
"null","","html-keyboard-response","245","1670866","0.0-245.0","","<img src=""img/set1/S2.jpg"" width=""540"" height = ""360"" style=""border:16px solid orange"">","null","","","","","","","",""
"null","","html-keyboard-response","246","1671068","0.0-246.0","","","null","","","","","","","",""
"464.3999999985099","","image-keyboard-response","247","1671536","0.0-247.0","","img/set1/S2.jpg","68","2","random","68","random,structured_load,structured_normal,structured_incentive","3,4,2,3,2,1","true","",""
"null","","html-keyboard-response","248","1671889","0.0-248.0","","<img src=""img/set1/S2.jpg"" width=""540"" height = ""360"" style=""border:16px solid orange"">","null","","","","","","","",""
"null","","html-keyboard-response","249","1672091","0.0-249.0","","","null","","","","","","","",""
"797","","image-keyboard-response","250","1672891","0.0-250.0","","img/set1/S1.jpg","83","1","random","83","random,structured_load,structured_normal,structured_incentive","3,4,2,3,2,1","true","",""
"null","","html-keyboard-response","251","1673244","0.0-251.0","","<img src=""img/set1/S1.jpg"" width=""540"" height = ""360"" style=""border:16px solid orange"">","null","","","","","","","",""
"null","","html-keyboard-response","252","1673446","0.0-252.0","","","null","","","","","","","",""
"623","","image-keyboard-response","253","1674071","0.0-253.0","","img/set1/S2.jpg","68","2","random","68","random,structured_load,structured_normal,structured_incentive","3,4,2,3,2,1","true","",""
"null","","html-keyboard-response","254","1674424","0.0-254.0","","<img src=""img/set1/S2.jpg"" width=""540"" height = ""360"" style=""border:16px solid orange"">","null","","","","","","","",""
"null","","html-keyboard-response","255","1674626","0.0-255.0","","","null","","","","","","","",""
"660.8000000044703","","image-keyboard-response","256","1675289","0.0-256.0","","img/set1/S1.jpg","83","1","random","83","random,structured_load,structured_normal,structured_incentive","3,4,2,3,2,1","true","",""
"null","","html-keyboard-response","257","1675642","0.0-257.0","","<img src=""img/set1/S1.jpg"" width=""540"" height = ""360"" style=""border:16px solid orange"">","null","","","","","","","",""
"null","","html-keyboard-response","258","1675844","0.0-258.0","","","null","","","","","","","",""
"685.8999999985099","","image-keyboard-response","259","1676532","0.0-259.0","","img/set1/S3.jpg","68","3","random","72","random,structured_load,structured_normal,structured_incentive","3,4,2,3,2,1","false","",""
"null","","html-keyboard-response","260","1676883","0.0-260.0","","<img src=""img/set1/S3.jpg"" width=""540"" height = ""360"">","null","","","","","","","",""
"null","","html-keyboard-response","261","1677085","0.0-261.0","","","null","","","","","","","",""
"588.1000000014901","","image-keyboard-response","262","1677675","0.0-262.0","","img/set1/S3.jpg","72","3","random","72","random,structured_load,structured_normal,structured_incentive","3,4,2,3,2,1","true","",""
"null","","html-keyboard-response","263","1678029","0.0-263.0","","<img src=""img/set1/S3.jpg"" width=""540"" height = ""360"" style=""border:16px solid orange"">","null","","","","","","","",""
"null","","html-keyboard-response","264","1678231","0.0-264.0","","","null","","","","","","","",""
"664.2000000029802","","image-keyboard-response","265","1678898","0.0-265.0","","img/set1/S2.jpg","68","2","random","68","random,structured_load,structured_normal,structured_incentive","3,4,2,3,2,1","true","",""
"null","","html-keyboard-response","266","1679250","0.0-266.0","","<img src=""img/set1/S2.jpg"" width=""540"" height = ""360"" style=""border:16px solid orange"">","null","","","","","","","",""
"null","","html-keyboard-response","267","1679452","0.0-267.0","","","null","","","","","","","",""
"637.5","","image-keyboard-response","268","1680092","0.0-268.0","","img/set1/S1.jpg","83","1","random","83","random,structured_load,structured_normal,structured_incentive","3,4,2,3,2,1","true","",""
"null","","html-keyboard-response","269","1680445","0.0-269.0","","<img src=""img/set1/S1.jpg"" width=""540"" height = ""360"" style=""border:16px solid orange"">","null","","","","","","","",""
"null","","html-keyboard-response","270","1680647","0.0-270.0","","","null","","","","","","","",""
"582.0999999940395","","image-keyboard-response","271","1681231","0.0-271.0","","img/set1/S3.jpg","72","3","random","72","random,structured_load,structured_normal,structured_incentive","3,4,2,3,2,1","true","",""
"null","","html-keyboard-response","272","1681584","0.0-272.0","","<img src=""img/set1/S3.jpg"" width=""540"" height = ""360"" style=""border:16px solid orange"">","null","","","","","","","",""
"null","","html-keyboard-response","273","1681786","0.0-273.0","","","null","","","","","","","",""
"537.1999999955297","","image-keyboard-response","274","1682326","0.0-274.0","","img/set1/S3.jpg","72","3","random","72","random,structured_load,structured_normal,structured_incentive","3,4,2,3,2,1","true","",""
"null","","html-keyboard-response","275","1682679","0.0-275.0","","<img src=""img/set1/S3.jpg"" width=""540"" height = ""360"" style=""border:16px solid orange"">","null","","","","","","","",""
"null","","html-keyboard-response","276","1682881","0.0-276.0","","","null","","","","","","","",""
"646.2999999970198","","image-keyboard-response","277","1683529","0.0-277.0","","img/set1/S4.jpg","74","4","random","74","random,structured_load,structured_normal,structured_incentive","3,4,2,3,2,1","true","",""
"null","","html-keyboard-response","278","1683883","0.0-278.0","","<img src=""img/set1/S4.jpg"" width=""540"" height = ""360"" style=""border:16px solid orange"">","null","","","","","","","",""
"null","","html-keyboard-response","279","1684085","0.0-279.0","","","null","","","","","","","",""
"567.2999999970198","","image-keyboard-response","280","1684655","0.0-280.0","","img/set1/S2.jpg","68","2","random","68","random,structured_load,structured_normal,structured_incentive","3,4,2,3,2,1","true","",""
"null","","html-keyboard-response","281","1685008","0.0-281.0","","<img src=""img/set1/S2.jpg"" width=""540"" height = ""360"" style=""border:16px solid orange"">","null","","","","","","","",""
"null","","html-keyboard-response","282","1685209","0.0-282.0","","","null","","","","","","","",""
"538.3999999985099","","image-keyboard-response","283","1685750","0.0-283.0","","img/set1/S4.jpg","74","4","random","74","random,structured_load,structured_normal,structured_incentive","3,4,2,3,2,1","true","",""
"null","","html-keyboard-response","284","1686103","0.0-284.0","","<img src=""img/set1/S4.jpg"" width=""540"" height = ""360"" style=""border:16px solid orange"">","null","","","","","","","",""
"null","","html-keyboard-response","285","1686305","0.0-285.0","","","null","","","","","","","",""
"463.1000000014901","","image-keyboard-response","286","1686770","0.0-286.0","","img/set1/S3.jpg","72","3","random","72","random,structured_load,structured_normal,structured_incentive","3,4,2,3,2,1","true","",""
"null","","html-keyboard-response","287","1687124","0.0-287.0","","<img src=""img/set1/S3.jpg"" width=""540"" height = ""360"" style=""border:16px solid orange"">","null","","","","","","","",""
"null","","html-keyboard-response","288","1687326","0.0-288.0","","","null","","","","","","","",""
"731.2999999970198","","image-keyboard-response","289","1688059","0.0-289.0","","img/set1/S4.jpg","74","4","random","74","random,structured_load,structured_normal,structured_incentive","3,4,2,3,2,1","true","",""
"null","","html-keyboard-response","290","1688412","0.0-290.0","","<img src=""img/set1/S4.jpg"" width=""540"" height = ""360"" style=""border:16px solid orange"">","null","","","","","","","",""
"null","","html-keyboard-response","291","1688614","0.0-291.0","","","null","","","","","","","",""
"319.69999999552965","","image-keyboard-response","292","1688936","0.0-292.0","","img/set1/S2.jpg","72","2","random","68","random,structured_load,structured_normal,structured_incentive","3,4,2,3,2,1","false","",""
"null","","html-keyboard-response","293","1689290","0.0-293.0","","<img src=""img/set1/S2.jpg"" width=""540"" height = ""360"">","null","","","","","","","",""
"null","","html-keyboard-response","294","1689492","0.0-294.0","","","null","","","","","","","",""
"642.2000000029802","","image-keyboard-response","295","1690136","0.0-295.0","","img/set1/S4.jpg","74","4","random","74","random,structured_load,structured_normal,structured_incentive","3,4,2,3,2,1","true","",""
"null","","html-keyboard-response","296","1690489","0.0-296.0","","<img src=""img/set1/S4.jpg"" width=""540"" height = ""360"" style=""border:16px solid orange"">","null","","","","","","","",""
"null","","html-keyboard-response","297","1690691","0.0-297.0","","","null","","","","","","","",""
"576.2999999970198","","image-keyboard-response","298","1691270","0.0-298.0","","img/set1/S3.jpg","72","3","random","72","random,structured_load,structured_normal,structured_incentive","3,4,2,3,2,1","true","",""
"null","","html-keyboard-response","299","1691624","0.0-299.0","","<img src=""img/set1/S3.jpg"" width=""540"" height = ""360"" style=""border:16px solid orange"">","null","","","","","","","",""
"null","","html-keyboard-response","300","1691826","0.0-300.0","","","null","","","","","","","",""
"404.19999999552965","","image-keyboard-response","301","1692232","0.0-301.0","","img/set1/S3.jpg","72","3","random","72","random,structured_load,structured_normal,structured_incentive","3,4,2,3,2,1","true","",""
"null","","html-keyboard-response","302","1692586","0.0-302.0","","<img src=""img/set1/S3.jpg"" width=""540"" height = ""360"" style=""border:16px solid orange"">","null","","","","","","","",""
"null","","html-keyboard-response","303","1692788","0.0-303.0","","","null","","","","","","","",""
"786.7000000029802","","image-keyboard-response","304","1693577","0.0-304.0","","img/set1/S4.jpg","74","4","random","74","random,structured_load,structured_normal,structured_incentive","3,4,2,3,2,1","true","",""
"null","","html-keyboard-response","305","1693932","0.0-305.0","","<img src=""img/set1/S4.jpg"" width=""540"" height = ""360"" style=""border:16px solid orange"">","null","","","","","","","",""
"null","","html-keyboard-response","306","1694134","0.0-306.0","","","null","","","","","","","",""
"647.6000000014901","","image-keyboard-response","307","1694784","0.0-307.0","","img/set1/S3.jpg","72","3","random","72","random,structured_load,structured_normal,structured_incentive","3,4,2,3,2,1","true","",""
"null","","html-keyboard-response","308","1695138","0.0-308.0","","<img src=""img/set1/S3.jpg"" width=""540"" height = ""360"" style=""border:16px solid orange"">","null","","","","","","","",""
"null","","html-keyboard-response","309","1695340","0.0-309.0","","","null","","","","","","","",""
"664","","image-keyboard-response","310","1696006","0.0-310.0","","img/set1/S1.jpg","83","1","random","83","random,structured_load,structured_normal,structured_incentive","3,4,2,3,2,1","true","",""
"null","","html-keyboard-response","311","1696359","0.0-311.0","","<img src=""img/set1/S1.jpg"" width=""540"" height = ""360"" style=""border:16px solid orange"">","null","","","","","","","",""
"null","","html-keyboard-response","312","1696561","0.0-312.0","","","null","","","","","","","",""
"550.5","","image-keyboard-response","313","1697114","0.0-313.0","","img/set1/S1.jpg","83","1","random","83","random,structured_load,structured_normal,structured_incentive","3,4,2,3,2,1","true","",""
"null","","html-keyboard-response","314","1697469","0.0-314.0","","<img src=""img/set1/S1.jpg"" width=""540"" height = ""360"" style=""border:16px solid orange"">","null","","","","","","","",""
"null","","html-keyboard-response","315","1697671","0.0-315.0","","","null","","","","","","","",""
"634.1000000014901","","image-keyboard-response","316","1698307","0.0-316.0","","img/set1/S4.jpg","74","4","random","74","random,structured_load,structured_normal,structured_incentive","3,4,2,3,2,1","true","",""
"null","","html-keyboard-response","317","1698660","0.0-317.0","","<img src=""img/set1/S4.jpg"" width=""540"" height = ""360"" style=""border:16px solid orange"">","null","","","","","","","",""
"null","","html-keyboard-response","318","1698862","0.0-318.0","","","null","","","","","","","",""
"861.8000000044703","","image-keyboard-response","319","1699725","0.0-319.0","","img/set1/S3.jpg","72","3","random","72","random,structured_load,structured_normal,structured_incentive","3,4,2,3,2,1","true","",""
"null","","html-keyboard-response","320","1700079","0.0-320.0","","<img src=""img/set1/S3.jpg"" width=""540"" height = ""360"" style=""border:16px solid orange"">","null","","","","","","","",""
"null","","html-keyboard-response","321","1700281","0.0-321.0","","","null","","","","","","","",""
"686.8000000044703","","image-keyboard-response","322","1700970","0.0-322.0","","img/set1/S4.jpg","74","4","random","74","random,structured_load,structured_normal,structured_incentive","3,4,2,3,2,1","true","",""
"null","","html-keyboard-response","323","1701325","0.0-323.0","","<img src=""img/set1/S4.jpg"" width=""540"" height = ""360"" style=""border:16px solid orange"">","null","","","","","","","",""
"null","","html-keyboard-response","324","1701527","0.0-324.0","","","null","","","","","","","",""
"1144.8999999985099","","image-keyboard-response","325","1702674","0.0-325.0","","img/set1/S1.jpg","83","1","random","83","random,structured_load,structured_normal,structured_incentive","3,4,2,3,2,1","true","",""
"null","","html-keyboard-response","326","1703027","0.0-326.0","","<img src=""img/set1/S1.jpg"" width=""540"" height = ""360"" style=""border:16px solid orange"">","null","","","","","","","",""
"null","","html-keyboard-response","327","1703229","0.0-327.0","","","null","","","","","","","",""
"579","","image-keyboard-response","328","1703810","0.0-328.0","","img/set1/S3.jpg","72","3","random","72","random,structured_load,structured_normal,structured_incentive","3,4,2,3,2,1","true","",""
"null","","html-keyboard-response","329","1704163","0.0-329.0","","<img src=""img/set1/S3.jpg"" width=""540"" height = ""360"" style=""border:16px solid orange"">","null","","","","","","","",""
"null","","html-keyboard-response","330","1704365","0.0-330.0","","","null","","","","","","","",""
"475.1000000014901","","image-keyboard-response","331","1704843","0.0-331.0","","img/set1/S2.jpg","68","2","random","68","random,structured_load,structured_normal,structured_incentive","3,4,2,3,2,1","true","",""
"null","","html-keyboard-response","332","1705195","0.0-332.0","","<img src=""img/set1/S2.jpg"" width=""540"" height = ""360"" style=""border:16px solid orange"">","null","","","","","","","",""
"null","","html-keyboard-response","333","1705396","0.0-333.0","","","null","","","","","","","",""
"440.40000000596046","","image-keyboard-response","334","1705838","0.0-334.0","","img/set1/S2.jpg","68","2","random","68","random,structured_load,structured_normal,structured_incentive","3,4,2,3,2,1","true","",""
"null","","html-keyboard-response","335","1706192","0.0-335.0","","<img src=""img/set1/S2.jpg"" width=""540"" height = ""360"" style=""border:16px solid orange"">","null","","","","","","","",""
"null","","html-keyboard-response","336","1706394","0.0-336.0","","","null","","","","","","","",""
"1800.2999999970198","","image-keyboard-response","337","1708196","0.0-337.0","","img/set1/S2.jpg","68","2","random","68","random,structured_load,structured_normal,structured_incentive","3,4,2,3,2,1","true","",""
"null","","html-keyboard-response","338","1708550","0.0-338.0","","<img src=""img/set1/S2.jpg"" width=""540"" height = ""360"" style=""border:16px solid orange"">","null","","","","","","","",""
"null","","html-keyboard-response","339","1708752","0.0-339.0","","","null","","","","","","","",""
"515.8000000044703","","image-keyboard-response","340","1709270","0.0-340.0","","img/set1/S3.jpg","72","3","random","72","random,structured_load,structured_normal,structured_incentive","3,4,2,3,2,1","true","",""
"null","","html-keyboard-response","341","1709624","0.0-341.0","","<img src=""img/set1/S3.jpg"" width=""540"" height = ""360"" style=""border:16px solid orange"">","null","","","","","","","",""
"null","","html-keyboard-response","342","1709826","0.0-342.0","","","null","","","","","","","",""
"726.2999999970198","","image-keyboard-response","343","1710554","0.0-343.0","","img/set1/S1.jpg","83","1","random","83","random,structured_load,structured_normal,structured_incentive","3,4,2,3,2,1","true","",""
"null","","html-keyboard-response","344","1710907","0.0-344.0","","<img src=""img/set1/S1.jpg"" width=""540"" height = ""360"" style=""border:16px solid orange"">","null","","","","","","","",""
"null","","html-keyboard-response","345","1711109","0.0-345.0","","","null","","","","","","","",""
"684.5","","image-keyboard-response","346","1711795","0.0-346.0","","img/set1/S1.jpg","83","1","random","83","random,structured_load,structured_normal,structured_incentive","3,4,2,3,2,1","true","",""
"null","","html-keyboard-response","347","1712148","0.0-347.0","","<img src=""img/set1/S1.jpg"" width=""540"" height = ""360"" style=""border:16px solid orange"">","null","","","","","","","",""
"null","","html-keyboard-response","348","1712350","0.0-348.0","","","null","","","","","","","",""
"587.5999999940395","","image-keyboard-response","349","1712940","0.0-349.0","","img/set1/S1.jpg","83","1","random","83","random,structured_load,structured_normal,structured_incentive","3,4,2,3,2,1","true","",""
"null","","html-keyboard-response","350","1713293","0.0-350.0","","<img src=""img/set1/S1.jpg"" width=""540"" height = ""360"" style=""border:16px solid orange"">","null","","","","","","","",""
"null","","html-keyboard-response","351","1713495","0.0-351.0","","","null","","","","","","","",""
"661.5","","image-keyboard-response","352","1714159","0.0-352.0","","img/set1/S4.jpg","74","4","random","74","random,structured_load,structured_normal,structured_incentive","3,4,2,3,2,1","true","",""
"null","","html-keyboard-response","353","1714512","0.0-353.0","","<img src=""img/set1/S4.jpg"" width=""540"" height = ""360"" style=""border:16px solid orange"">","null","","","","","","","",""
"null","","html-keyboard-response","354","1714714","0.0-354.0","","","null","","","","","","","",""
"781.8999999985099","","image-keyboard-response","355","1715499","0.0-355.0","","img/set1/S1.jpg","83","1","random","83","random,structured_load,structured_normal,structured_incentive","3,4,2,3,2,1","true","",""
"null","","html-keyboard-response","356","1715852","0.0-356.0","","<img src=""img/set1/S1.jpg"" width=""540"" height = ""360"" style=""border:16px solid orange"">","null","","","","","","","",""
"null","","html-keyboard-response","357","1716054","0.0-357.0","","","null","","","","","","","",""
"932.8999999985099","","image-keyboard-response","358","1716989","0.0-358.0","","img/set1/S3.jpg","72","3","random","72","random,structured_load,structured_normal,structured_incentive","3,4,2,3,2,1","true","",""
"null","","html-keyboard-response","359","1717342","0.0-359.0","","<img src=""img/set1/S3.jpg"" width=""540"" height = ""360"" style=""border:16px solid orange"">","null","","","","","","","",""
"null","","html-keyboard-response","360","1717544","0.0-360.0","","","null","","","","","","","",""
"382.40000000596046","","image-keyboard-response","361","1717929","0.0-361.0","","img/set1/S3.jpg","72","3","random","72","random,structured_load,structured_normal,structured_incentive","3,4,2,3,2,1","true","",""
"null","","html-keyboard-response","362","1718282","0.0-362.0","","<img src=""img/set1/S3.jpg"" width=""540"" height = ""360"" style=""border:16px solid orange"">","null","","","","","","","",""
"null","","html-keyboard-response","363","1718484","0.0-363.0","","","null","","","","","","","",""
"null","","html-keyboard-response","364","1778486","0.0-364.0","","<p class=""center-content"">You have completed a block! </p><p class=""center-content"">Press any key on the keyboard to continue, </p><p class=""center-content"">or wait for the automatic progression to the next block after one minute.</p>","null","","","","","","","",""
"14007","","instructions","365","1792494","0.0-365.0","[{""page_index"":0,""viewing_time"":14006.29999999702}]","","","","","","","","","",""
"29239","","instructions","366","1821734","0.0-366.0","[{""page_index"":0,""viewing_time"":21170},{""page_index"":1,""viewing_time"":8068.5}]","","","","","","","","","",""
"1519.5","","image-keyboard-response","367","1823256","0.0-367.0","","img/set2/S3.jpg","83","3","structured_load","72","random,structured_load,structured_normal,structured_incentive","3,4,2,3,2,1","false","",""
"null","","html-keyboard-response","368","1823610","0.0-368.0","","<img src=""img/set2/S3.jpg"" width=""540"" height = ""360"">","null","","","","","","","",""
"null","","html-keyboard-response","369","1823811","0.0-369.0","","","null","","","","","","","",""
"728.7000000029802","","image-keyboard-response","370","1824542","0.0-370.0","","img/set2/S4.jpg","68","4","structured_load","74","random,structured_load,structured_normal,structured_incentive","3,4,2,3,2,1","false","",""
"null","","html-keyboard-response","371","1824896","0.0-371.0","","<img src=""img/set2/S4.jpg"" width=""540"" height = ""360"">","null","","","","","","","",""
"null","","html-keyboard-response","372","1825098","0.0-372.0","","","null","","","","","","","",""
"2004.9000000059605","","image-keyboard-response","373","1827105","0.0-373.0","","img/set2/S2.jpg","83","2","structured_load","68","random,structured_load,structured_normal,structured_incentive","3,4,2,3,2,1","false","",""
"null","","html-keyboard-response","374","1827459","0.0-374.0","","<img src=""img/set2/S2.jpg"" width=""540"" height = ""360"">","null","","","","","","","",""
"null","","html-keyboard-response","375","1827661","0.0-375.0","","","null","","","","","","","",""
"2169.2999999970198","","image-keyboard-response","376","1829832","0.0-376.0","","img/set2/S1.jpg","74","1","structured_load","83","random,structured_load,structured_normal,structured_incentive","3,4,2,3,2,1","false","",""
"null","","html-keyboard-response","377","1830186","0.0-377.0","","<img src=""img/set2/S1.jpg"" width=""540"" height = ""360"">","null","","","","","","","",""
"null","","html-keyboard-response","378","1830388","0.0-378.0","","","null","","","","","","","",""
"1087.5","","image-keyboard-response","379","1831478","0.0-379.0","","img/set2/S2.jpg","72","2","structured_load","68","random,structured_load,structured_normal,structured_incentive","3,4,2,3,2,1","false","",""
"null","","html-keyboard-response","380","1831831","0.0-380.0","","<img src=""img/set2/S2.jpg"" width=""540"" height = ""360"">","null","","","","","","","",""
"null","","html-keyboard-response","381","1832033","0.0-381.0","","","null","","","","","","","",""
"1825.7999999970198","","image-keyboard-response","382","1833861","0.0-382.0","","img/set2/S2.jpg","68","2","structured_load","68","random,structured_load,structured_normal,structured_incentive","3,4,2,3,2,1","true","",""
"null","","html-keyboard-response","383","1834214","0.0-383.0","","<img src=""img/set2/S2.jpg"" width=""540"" height = ""360"" style=""border:16px solid orange"">","null","","","","","","","",""
"null","","html-keyboard-response","384","1834416","0.0-384.0","","","null","","","","","","","",""
"1524.6999999955297","","image-keyboard-response","385","1835943","0.0-385.0","","img/set2/S2.jpg","68","2","structured_load","68","random,structured_load,structured_normal,structured_incentive","3,4,2,3,2,1","true","",""
"null","","html-keyboard-response","386","1836295","0.0-386.0","","<img src=""img/set2/S2.jpg"" width=""540"" height = ""360"" style=""border:16px solid orange"">","null","","","","","","","",""
"null","","html-keyboard-response","387","1836497","0.0-387.0","","","null","","","","","","","",""
"944.5","","image-keyboard-response","388","1837444","0.0-388.0","","img/set2/S1.jpg","83","1","structured_load","83","random,structured_load,structured_normal,structured_incentive","3,4,2,3,2,1","true","",""
"null","","html-keyboard-response","389","1837797","0.0-389.0","","<img src=""img/set2/S1.jpg"" width=""540"" height = ""360"" style=""border:16px solid orange"">","null","","","","","","","",""
"null","","html-keyboard-response","390","1837999","0.0-390.0","","","null","","","","","","","",""
"1540.5","","image-keyboard-response","391","1839542","0.0-391.0","","img/set2/S1.jpg","83","1","structured_load","83","random,structured_load,structured_normal,structured_incentive","3,4,2,3,2,1","true","",""
"null","","html-keyboard-response","392","1839896","0.0-392.0","","<img src=""img/set2/S1.jpg"" width=""540"" height = ""360"" style=""border:16px solid orange"">","null","","","","","","","",""
"null","","html-keyboard-response","393","1840098","0.0-393.0","","","null","","","","","","","",""
"470.1000000014901","","image-keyboard-response","394","1840571","0.0-394.0","","img/set2/S1.jpg","83","1","structured_load","83","random,structured_load,structured_normal,structured_incentive","3,4,2,3,2,1","true","",""
"null","","html-keyboard-response","395","1840924","0.0-395.0","","<img src=""img/set2/S1.jpg"" width=""540"" height = ""360"" style=""border:16px solid orange"">","null","","","","","","","",""
"null","","html-keyboard-response","396","1841126","0.0-396.0","","","null","","","","","","","",""
"1093.7999999970198","","image-keyboard-response","397","1842222","0.0-397.0","","img/set2/S2.jpg","68","2","structured_load","68","random,structured_load,structured_normal,structured_incentive","3,4,2,3,2,1","true","",""
"null","","html-keyboard-response","398","1842574","0.0-398.0","","<img src=""img/set2/S2.jpg"" width=""540"" height = ""360"" style=""border:16px solid orange"">","null","","","","","","","",""
"null","","html-keyboard-response","399","1842776","0.0-399.0","","","null","","","","","","","",""
"1918.8000000044703","","image-keyboard-response","400","1844697","0.0-400.0","","img/set2/S3.jpg","72","3","structured_load","72","random,structured_load,structured_normal,structured_incentive","3,4,2,3,2,1","true","",""
"null","","html-keyboard-response","401","1845050","0.0-401.0","","<img src=""img/set2/S3.jpg"" width=""540"" height = ""360"" style=""border:16px solid orange"">","null","","","","","","","",""
"null","","html-keyboard-response","402","1845252","0.0-402.0","","","null","","","","","","","",""
"646.6000000014901","","image-keyboard-response","403","1845901","0.0-403.0","","img/set2/S4.jpg","74","4","structured_load","74","random,structured_load,structured_normal,structured_incentive","3,4,2,3,2,1","true","",""
"null","","html-keyboard-response","404","1846256","0.0-404.0","","<img src=""img/set2/S4.jpg"" width=""540"" height = ""360"" style=""border:16px solid orange"">","null","","","","","","","",""
"null","","html-keyboard-response","405","1846458","0.0-405.0","","","null","","","","","","","",""
"2430.4000000059605","","image-keyboard-response","406","1848890","0.0-406.0","","img/set2/S1.jpg","83","1","structured_load","83","random,structured_load,structured_normal,structured_incentive","3,4,2,3,2,1","true","",""
"null","","html-keyboard-response","407","1849243","0.0-407.0","","<img src=""img/set2/S1.jpg"" width=""540"" height = ""360"" style=""border:16px solid orange"">","null","","","","","","","",""
"null","","html-keyboard-response","408","1849445","0.0-408.0","","","null","","","","","","","",""
"468.09999999403954","","image-keyboard-response","409","1849916","0.0-409.0","","img/set2/S1.jpg","83","1","structured_load","83","random,structured_load,structured_normal,structured_incentive","3,4,2,3,2,1","true","",""
"null","","html-keyboard-response","410","1850270","0.0-410.0","","<img src=""img/set2/S1.jpg"" width=""540"" height = ""360"" style=""border:16px solid orange"">","null","","","","","","","",""
"null","","html-keyboard-response","411","1850472","0.0-411.0","","","null","","","","","","","",""
"1816.7999999970198","","image-keyboard-response","412","1852291","0.0-412.0","","img/set2/S3.jpg","72","3","structured_load","72","random,structured_load,structured_normal,structured_incentive","3,4,2,3,2,1","true","",""
"null","","html-keyboard-response","413","1852645","0.0-413.0","","<img src=""img/set2/S3.jpg"" width=""540"" height = ""360"" style=""border:16px solid orange"">","null","","","","","","","",""
"null","","html-keyboard-response","414","1852846","0.0-414.0","","","null","","","","","","","",""
"840.8000000044703","","image-keyboard-response","415","1853689","0.0-415.0","","img/set2/S4.jpg","74","4","structured_load","74","random,structured_load,structured_normal,structured_incentive","3,4,2,3,2,1","true","",""
"null","","html-keyboard-response","416","1854042","0.0-416.0","","<img src=""img/set2/S4.jpg"" width=""540"" height = ""360"" style=""border:16px solid orange"">","null","","","","","","","",""
"null","","html-keyboard-response","417","1854244","0.0-417.0","","","null","","","","","","","",""
"747.6000000014901","","image-keyboard-response","418","1854994","0.0-418.0","","img/set2/S2.jpg","68","2","structured_load","68","random,structured_load,structured_normal,structured_incentive","3,4,2,3,2,1","true","",""
"null","","html-keyboard-response","419","1855347","0.0-419.0","","<img src=""img/set2/S2.jpg"" width=""540"" height = ""360"" style=""border:16px solid orange"">","null","","","","","","","",""
"null","","html-keyboard-response","420","1855549","0.0-420.0","","","null","","","","","","","",""
"663.3000000044703","","image-keyboard-response","421","1856214","0.0-421.0","","img/set2/S2.jpg","68","2","structured_load","68","random,structured_load,structured_normal,structured_incentive","3,4,2,3,2,1","true","",""
"null","","html-keyboard-response","422","1856567","0.0-422.0","","<img src=""img/set2/S2.jpg"" width=""540"" height = ""360"" style=""border:16px solid orange"">","null","","","","","","","",""
"null","","html-keyboard-response","423","1856769","0.0-423.0","","","null","","","","","","","",""
"825.5","","image-keyboard-response","424","1857597","0.0-424.0","","img/set2/S3.jpg","74","3","structured_load","72","random,structured_load,structured_normal,structured_incentive","3,4,2,3,2,1","false","",""
"null","","html-keyboard-response","425","1857951","0.0-425.0","","<img src=""img/set2/S3.jpg"" width=""540"" height = ""360"">","null","","","","","","","",""
"null","","html-keyboard-response","426","1858153","0.0-426.0","","","null","","","","","","","",""
"722","","image-keyboard-response","427","1858877","0.0-427.0","","img/set2/S4.jpg","74","4","structured_load","74","random,structured_load,structured_normal,structured_incentive","3,4,2,3,2,1","true","",""
"null","","html-keyboard-response","428","1859230","0.0-428.0","","<img src=""img/set2/S4.jpg"" width=""540"" height = ""360"" style=""border:16px solid orange"">","null","","","","","","","",""
"null","","html-keyboard-response","429","1859432","0.0-429.0","","","null","","","","","","","",""
"2067.1999999955297","","image-keyboard-response","430","1861502","0.0-430.0","","img/set2/S2.jpg","68","2","structured_load","68","random,structured_load,structured_normal,structured_incentive","3,4,2,3,2,1","true","",""
"null","","html-keyboard-response","431","1861855","0.0-431.0","","<img src=""img/set2/S2.jpg"" width=""540"" height = ""360"" style=""border:16px solid orange"">","null","","","","","","","",""
"null","","html-keyboard-response","432","1862057","0.0-432.0","","","null","","","","","","","",""
"575.5","","image-keyboard-response","433","1862635","0.0-433.0","","img/set2/S1.jpg","83","1","structured_load","83","random,structured_load,structured_normal,structured_incentive","3,4,2,3,2,1","true","",""
"null","","html-keyboard-response","434","1862988","0.0-434.0","","<img src=""img/set2/S1.jpg"" width=""540"" height = ""360"" style=""border:16px solid orange"">","null","","","","","","","",""
"null","","html-keyboard-response","435","1863190","0.0-435.0","","","null","","","","","","","",""
"499.8999999985099","","image-keyboard-response","436","1863692","0.0-436.0","","img/set2/S3.jpg","72","3","structured_load","72","random,structured_load,structured_normal,structured_incentive","3,4,2,3,2,1","true","",""
"null","","html-keyboard-response","437","1864046","0.0-437.0","","<img src=""img/set2/S3.jpg"" width=""540"" height = ""360"" style=""border:16px solid orange"">","null","","","","","","","",""
"null","","html-keyboard-response","438","1864248","0.0-438.0","","","null","","","","","","","",""
"649.6000000014901","","image-keyboard-response","439","1864900","0.0-439.0","","img/set2/S4.jpg","74","4","structured_load","74","random,structured_load,structured_normal,structured_incentive","3,4,2,3,2,1","true","",""
"null","","html-keyboard-response","440","1865253","0.0-440.0","","<img src=""img/set2/S4.jpg"" width=""540"" height = ""360"" style=""border:16px solid orange"">","null","","","","","","","",""
"null","","html-keyboard-response","441","1865455","0.0-441.0","","","null","","","","","","","",""
"427","","image-keyboard-response","442","1865885","0.0-442.0","","img/set2/S3.jpg","74","3","structured_load","72","random,structured_load,structured_normal,structured_incentive","3,4,2,3,2,1","false","",""
"null","","html-keyboard-response","443","1866239","0.0-443.0","","<img src=""img/set2/S3.jpg"" width=""540"" height = ""360"">","null","","","","","","","",""
"null","","html-keyboard-response","444","1866441","0.0-444.0","","","null","","","","","","","",""
"793.8999999985099","","image-keyboard-response","445","1867237","0.0-445.0","","img/set2/S4.jpg","74","4","structured_load","74","random,structured_load,structured_normal,structured_incentive","3,4,2,3,2,1","true","",""
"null","","html-keyboard-response","446","1867590","0.0-446.0","","<img src=""img/set2/S4.jpg"" width=""540"" height = ""360"" style=""border:16px solid orange"">","null","","","","","","","",""
"null","","html-keyboard-response","447","1867793","0.0-447.0","","","null","","","","","","","",""
"573.5","","image-keyboard-response","448","1868369","0.0-448.0","","img/set2/S1.jpg","83","1","structured_load","83","random,structured_load,structured_normal,structured_incentive","3,4,2,3,2,1","true","",""
"null","","html-keyboard-response","449","1868722","0.0-449.0","","<img src=""img/set2/S1.jpg"" width=""540"" height = ""360"" style=""border:16px solid orange"">","null","","","","","","","",""
"null","","html-keyboard-response","450","1868924","0.0-450.0","","","null","","","","","","","",""
"1602.1000000014901","","image-keyboard-response","451","1870529","0.0-451.0","","img/set2/S2.jpg","68","2","structured_load","68","random,structured_load,structured_normal,structured_incentive","3,4,2,3,2,1","true","",""
"null","","html-keyboard-response","452","1870883","0.0-452.0","","<img src=""img/set2/S2.jpg"" width=""540"" height = ""360"" style=""border:16px solid orange"">","null","","","","","","","",""
"null","","html-keyboard-response","453","1871085","0.0-453.0","","","null","","","","","","","",""
"1440.8999999985099","","image-keyboard-response","454","1872528","0.0-454.0","","img/set2/S3.jpg","72","3","structured_load","72","random,structured_load,structured_normal,structured_incentive","3,4,2,3,2,1","true","",""
"null","","html-keyboard-response","455","1872881","0.0-455.0","","<img src=""img/set2/S3.jpg"" width=""540"" height = ""360"" style=""border:16px solid orange"">","null","","","","","","","",""
"null","","html-keyboard-response","456","1873083","0.0-456.0","","","null","","","","","","","",""
"542.8000000044703","","image-keyboard-response","457","1873628","0.0-457.0","","img/set2/S4.jpg","74","4","structured_load","74","random,structured_load,structured_normal,structured_incentive","3,4,2,3,2,1","true","",""
"null","","html-keyboard-response","458","1873981","0.0-458.0","","<img src=""img/set2/S4.jpg"" width=""540"" height = ""360"" style=""border:16px solid orange"">","null","","","","","","","",""
"null","","html-keyboard-response","459","1874183","0.0-459.0","","","null","","","","","","","",""
"501.70000000298023","","image-keyboard-response","460","1874687","0.0-460.0","","img/set2/S1.jpg","83","1","structured_load","83","random,structured_load,structured_normal,structured_incentive","3,4,2,3,2,1","true","",""
"null","","html-keyboard-response","461","1875040","0.0-461.0","","<img src=""img/set2/S1.jpg"" width=""540"" height = ""360"" style=""border:16px solid orange"">","null","","","","","","","",""
"null","","html-keyboard-response","462","1875242","0.0-462.0","","","null","","","","","","","",""
"446.6000000014901","","image-keyboard-response","463","1875691","0.0-463.0","","img/set2/S3.jpg","83","3","structured_load","72","random,structured_load,structured_normal,structured_incentive","3,4,2,3,2,1","false","",""
"null","","html-keyboard-response","464","1876044","0.0-464.0","","<img src=""img/set2/S3.jpg"" width=""540"" height = ""360"">","null","","","","","","","",""
"null","","html-keyboard-response","465","1876246","0.0-465.0","","","null","","","","","","","",""
"679.8000000044703","","image-keyboard-response","466","1876928","0.0-466.0","","img/set2/S4.jpg","74","4","structured_load","74","random,structured_load,structured_normal,structured_incentive","3,4,2,3,2,1","true","",""
"null","","html-keyboard-response","467","1877283","0.0-467.0","","<img src=""img/set2/S4.jpg"" width=""540"" height = ""360"" style=""border:16px solid orange"">","null","","","","","","","",""
"null","","html-keyboard-response","468","1877485","0.0-468.0","","","null","","","","","","","",""
"811.1000000014901","","image-keyboard-response","469","1878298","0.0-469.0","","img/set2/S2.jpg","68","2","structured_load","68","random,structured_load,structured_normal,structured_incentive","3,4,2,3,2,1","true","",""
"null","","html-keyboard-response","470","1878652","0.0-470.0","","<img src=""img/set2/S2.jpg"" width=""540"" height = ""360"" style=""border:16px solid orange"">","null","","","","","","","",""
"null","","html-keyboard-response","471","1878855","0.0-471.0","","","null","","","","","","","",""
"795.1000000014901","","image-keyboard-response","472","1879652","0.0-472.0","","img/set2/S3.jpg","72","3","structured_load","72","random,structured_load,structured_normal,structured_incentive","3,4,2,3,2,1","true","",""
"null","","html-keyboard-response","473","1880006","0.0-473.0","","<img src=""img/set2/S3.jpg"" width=""540"" height = ""360"" style=""border:16px solid orange"">","null","","","","","","","",""
"null","","html-keyboard-response","474","1880208","0.0-474.0","","","null","","","","","","","",""
"562.2999999970198","","image-keyboard-response","475","1880772","0.0-475.0","","img/set2/S4.jpg","74","4","structured_load","74","random,structured_load,structured_normal,structured_incentive","3,4,2,3,2,1","true","",""
"null","","html-keyboard-response","476","1881127","0.0-476.0","","<img src=""img/set2/S4.jpg"" width=""540"" height = ""360"" style=""border:16px solid orange"">","null","","","","","","","",""
"null","","html-keyboard-response","477","1881329","0.0-477.0","","","null","","","","","","","",""
"721.4000000059605","","image-keyboard-response","478","1882052","0.0-478.0","","img/set2/S3.jpg","72","3","structured_load","72","random,structured_load,structured_normal,structured_incentive","3,4,2,3,2,1","true","",""
"null","","html-keyboard-response","479","1882405","0.0-479.0","","<img src=""img/set2/S3.jpg"" width=""540"" height = ""360"" style=""border:16px solid orange"">","null","","","","","","","",""
"null","","html-keyboard-response","480","1882606","0.0-480.0","","","null","","","","","","","",""
"637.4000000059605","","image-keyboard-response","481","1883245","0.0-481.0","","img/set2/S4.jpg","74","4","structured_load","74","random,structured_load,structured_normal,structured_incentive","3,4,2,3,2,1","true","",""
"null","","html-keyboard-response","482","1883598","0.0-482.0","","<img src=""img/set2/S4.jpg"" width=""540"" height = ""360"" style=""border:16px solid orange"">","null","","","","","","","",""
"null","","html-keyboard-response","483","1883800","0.0-483.0","","","null","","","","","","","",""
"589.3999999985099","","image-keyboard-response","484","1884392","0.0-484.0","","img/set2/S1.jpg","83","1","structured_load","83","random,structured_load,structured_normal,structured_incentive","3,4,2,3,2,1","true","",""
"null","","html-keyboard-response","485","1884745","0.0-485.0","","<img src=""img/set2/S1.jpg"" width=""540"" height = ""360"" style=""border:16px solid orange"">","null","","","","","","","",""
"null","","html-keyboard-response","486","1884947","0.0-486.0","","","null","","","","","","","",""
"584.2000000029802","","image-keyboard-response","487","1885533","0.0-487.0","","img/set2/S2.jpg","68","2","structured_load","68","random,structured_load,structured_normal,structured_incentive","3,4,2,3,2,1","true","",""
"null","","html-keyboard-response","488","1885886","0.0-488.0","","<img src=""img/set2/S2.jpg"" width=""540"" height = ""360"" style=""border:16px solid orange"">","null","","","","","","","",""
"null","","html-keyboard-response","489","1886088","0.0-489.0","","","null","","","","","","","",""
"704.7000000029802","","image-keyboard-response","490","1886795","0.0-490.0","","img/set2/S3.jpg","72","3","structured_load","72","random,structured_load,structured_normal,structured_incentive","3,4,2,3,2,1","true","",""
"null","","html-keyboard-response","491","1887148","0.0-491.0","","<img src=""img/set2/S3.jpg"" width=""540"" height = ""360"" style=""border:16px solid orange"">","null","","","","","","","",""
"null","","html-keyboard-response","492","1887350","0.0-492.0","","","null","","","","","","","",""
"564.0999999940395","","image-keyboard-response","493","1887917","0.0-493.0","","img/set2/S4.jpg","74","4","structured_load","74","random,structured_load,structured_normal,structured_incentive","3,4,2,3,2,1","true","",""
"null","","html-keyboard-response","494","1888270","0.0-494.0","","<img src=""img/set2/S4.jpg"" width=""540"" height = ""360"" style=""border:16px solid orange"">","null","","","","","","","",""
"null","","html-keyboard-response","495","1888472","0.0-495.0","","","null","","","","","","","",""
"667.7999999970198","","image-keyboard-response","496","1889142","0.0-496.0","","img/set2/S3.jpg","72","3","structured_load","72","random,structured_load,structured_normal,structured_incentive","3,4,2,3,2,1","true","",""
"null","","html-keyboard-response","497","1889495","0.0-497.0","","<img src=""img/set2/S3.jpg"" width=""540"" height = ""360"" style=""border:16px solid orange"">","null","","","","","","","",""
"null","","html-keyboard-response","498","1889697","0.0-498.0","","","null","","","","","","","",""
"602.8000000044703","","image-keyboard-response","499","1890303","0.0-499.0","","img/set2/S4.jpg","74","4","structured_load","74","random,structured_load,structured_normal,structured_incentive","3,4,2,3,2,1","true","",""
"null","","html-keyboard-response","500","1890656","0.0-500.0","","<img src=""img/set2/S4.jpg"" width=""540"" height = ""360"" style=""border:16px solid orange"">","null","","","","","","","",""
"null","","html-keyboard-response","501","1890858","0.0-501.0","","","null","","","","","","","",""
"610.6000000014901","","image-keyboard-response","502","1891471","0.0-502.0","","img/set2/S2.jpg","68","2","structured_load","68","random,structured_load,structured_normal,structured_incentive","3,4,2,3,2,1","true","",""
"null","","html-keyboard-response","503","1891825","0.0-503.0","","<img src=""img/set2/S2.jpg"" width=""540"" height = ""360"" style=""border:16px solid orange"">","null","","","","","","","",""
"null","","html-keyboard-response","504","1892026","0.0-504.0","","","null","","","","","","","",""
"748.6999999955297","","image-keyboard-response","505","1892778","0.0-505.0","","img/set2/S3.jpg","74","3","structured_load","72","random,structured_load,structured_normal,structured_incentive","3,4,2,3,2,1","false","",""
"null","","html-keyboard-response","506","1893132","0.0-506.0","","<img src=""img/set2/S3.jpg"" width=""540"" height = ""360"">","null","","","","","","","",""
"null","","html-keyboard-response","507","1893334","0.0-507.0","","","null","","","","","","","",""
"501.19999999552965","","image-keyboard-response","508","1893838","0.0-508.0","","img/set2/S4.jpg","74","4","structured_load","74","random,structured_load,structured_normal,structured_incentive","3,4,2,3,2,1","true","",""
"null","","html-keyboard-response","509","1894191","0.0-509.0","","<img src=""img/set2/S4.jpg"" width=""540"" height = ""360"" style=""border:16px solid orange"">","null","","","","","","","",""
"null","","html-keyboard-response","510","1894393","0.0-510.0","","","null","","","","","","","",""
"968.5","","image-keyboard-response","511","1895364","0.0-511.0","","img/set2/S2.jpg","68","2","structured_load","68","random,structured_load,structured_normal,structured_incentive","3,4,2,3,2,1","true","",""
"null","","html-keyboard-response","512","1895718","0.0-512.0","","<img src=""img/set2/S2.jpg"" width=""540"" height = ""360"" style=""border:16px solid orange"">","null","","","","","","","",""
"null","","html-keyboard-response","513","1895920","0.0-513.0","","","null","","","","","","","",""
"723.8999999985099","","image-keyboard-response","514","1896646","0.0-514.0","","img/set2/S3.jpg","72","3","structured_load","72","random,structured_load,structured_normal,structured_incentive","3,4,2,3,2,1","true","",""
"null","","html-keyboard-response","515","1897000","0.0-515.0","","<img src=""img/set2/S3.jpg"" width=""540"" height = ""360"" style=""border:16px solid orange"">","null","","","","","","","",""
"null","","html-keyboard-response","516","1897202","0.0-516.0","","","null","","","","","","","",""
"1759.7000000029802","","image-keyboard-response","517","1898964","0.0-517.0","","img/set2/S4.jpg","74","4","structured_load","74","random,structured_load,structured_normal,structured_incentive","3,4,2,3,2,1","true","",""
"null","","html-keyboard-response","518","1899318","0.0-518.0","","<img src=""img/set2/S4.jpg"" width=""540"" height = ""360"" style=""border:16px solid orange"">","null","","","","","","","",""
"null","","html-keyboard-response","519","1899520","0.0-519.0","","","null","","","","","","","",""
"455.5","","image-keyboard-response","520","1899978","0.0-520.0","","img/set2/S1.jpg","83","1","structured_load","83","random,structured_load,structured_normal,structured_incentive","3,4,2,3,2,1","true","",""
"null","","html-keyboard-response","521","1900332","0.0-521.0","","<img src=""img/set2/S1.jpg"" width=""540"" height = ""360"" style=""border:16px solid orange"">","null","","","","","","","",""
"null","","html-keyboard-response","522","1900533","0.0-522.0","","","null","","","","","","","",""
"874.6999999955297","","image-keyboard-response","523","1901410","0.0-523.0","","img/set2/S3.jpg","72","3","structured_load","72","random,structured_load,structured_normal,structured_incentive","3,4,2,3,2,1","true","",""
"null","","html-keyboard-response","524","1901763","0.0-524.0","","<img src=""img/set2/S3.jpg"" width=""540"" height = ""360"" style=""border:16px solid orange"">","null","","","","","","","",""
"null","","html-keyboard-response","525","1901965","0.0-525.0","","","null","","","","","","","",""
"606.3999999985099","","image-keyboard-response","526","1902574","0.0-526.0","","img/set2/S4.jpg","74","4","structured_load","74","random,structured_load,structured_normal,structured_incentive","3,4,2,3,2,1","true","",""
"null","","html-keyboard-response","527","1902929","0.0-527.0","","<img src=""img/set2/S4.jpg"" width=""540"" height = ""360"" style=""border:16px solid orange"">","null","","","","","","","",""
"null","","html-keyboard-response","528","1903131","0.0-528.0","","","null","","","","","","","",""
"652.8999999985099","","image-keyboard-response","529","1903786","0.0-529.0","","img/set2/S1.jpg","68","1","structured_load","83","random,structured_load,structured_normal,structured_incentive","3,4,2,3,2,1","false","",""
"null","","html-keyboard-response","530","1904141","0.0-530.0","","<img src=""img/set2/S1.jpg"" width=""540"" height = ""360"">","null","","","","","","","",""
"null","","html-keyboard-response","531","1904343","0.0-531.0","","","null","","","","","","","",""
"1927.6000000014901","","image-keyboard-response","532","1906273","0.0-532.0","","img/set2/S3.jpg","72","3","structured_load","72","random,structured_load,structured_normal,structured_incentive","3,4,2,3,2,1","true","",""
"null","","html-keyboard-response","533","1906626","0.0-533.0","","<img src=""img/set2/S3.jpg"" width=""540"" height = ""360"" style=""border:16px solid orange"">","null","","","","","","","",""
"null","","html-keyboard-response","534","1906828","0.0-534.0","","","null","","","","","","","",""
"591.1999999955297","","image-keyboard-response","535","1907422","0.0-535.0","","img/set2/S4.jpg","74","4","structured_load","74","random,structured_load,structured_normal,structured_incentive","3,4,2,3,2,1","true","",""
"null","","html-keyboard-response","536","1907776","0.0-536.0","","<img src=""img/set2/S4.jpg"" width=""540"" height = ""360"" style=""border:16px solid orange"">","null","","","","","","","",""
"null","","html-keyboard-response","537","1907978","0.0-537.0","","","null","","","","","","","",""
"1139.7000000029802","","image-keyboard-response","538","1909120","0.0-538.0","","img/set2/S3.jpg","72","3","structured_load","72","random,structured_load,structured_normal,structured_incentive","3,4,2,3,2,1","true","",""
"null","","html-keyboard-response","539","1909474","0.0-539.0","","<img src=""img/set2/S3.jpg"" width=""540"" height = ""360"" style=""border:16px solid orange"">","null","","","","","","","",""
"null","","html-keyboard-response","540","1909676","0.0-540.0","","","null","","","","","","","",""
"483.79999999701977","","image-keyboard-response","541","1910162","0.0-541.0","","img/set2/S4.jpg","74","4","structured_load","74","random,structured_load,structured_normal,structured_incentive","3,4,2,3,2,1","true","",""
"null","","html-keyboard-response","542","1910516","0.0-542.0","","<img src=""img/set2/S4.jpg"" width=""540"" height = ""360"" style=""border:16px solid orange"">","null","","","","","","","",""
"null","","html-keyboard-response","543","1910718","0.0-543.0","","","null","","","","","","","",""
"638.3999999985099","","image-keyboard-response","544","1911359","0.0-544.0","","img/set2/S2.jpg","68","2","structured_load","68","random,structured_load,structured_normal,structured_incentive","3,4,2,3,2,1","true","",""
"null","","html-keyboard-response","545","1911712","0.0-545.0","","<img src=""img/set2/S2.jpg"" width=""540"" height = ""360"" style=""border:16px solid orange"">","null","","","","","","","",""
"null","","html-keyboard-response","546","1911914","0.0-546.0","","","null","","","","","","","",""
"1141.4000000059605","","image-keyboard-response","547","1913058","0.0-547.0","","img/set2/S3.jpg","72","3","structured_load","72","random,structured_load,structured_normal,structured_incentive","3,4,2,3,2,1","true","",""
"null","","html-keyboard-response","548","1913411","0.0-548.0","","<img src=""img/set2/S3.jpg"" width=""540"" height = ""360"" style=""border:16px solid orange"">","null","","","","","","","",""
"null","","html-keyboard-response","549","1913613","0.0-549.0","","","null","","","","","","","",""
"1516.3000000044703","","image-keyboard-response","550","1915132","0.0-550.0","","img/set2/S4.jpg","74","4","structured_load","74","random,structured_load,structured_normal,structured_incentive","3,4,2,3,2,1","true","",""
"null","","html-keyboard-response","551","1915485","0.0-551.0","","<img src=""img/set2/S4.jpg"" width=""540"" height = ""360"" style=""border:16px solid orange"">","null","","","","","","","",""
"null","","html-keyboard-response","552","1915686","0.0-552.0","","","null","","","","","","","",""
"732","","image-keyboard-response","553","1916421","0.0-553.0","","img/set2/S2.jpg","68","2","structured_load","68","random,structured_load,structured_normal,structured_incentive","3,4,2,3,2,1","true","",""
"null","","html-keyboard-response","554","1916774","0.0-554.0","","<img src=""img/set2/S2.jpg"" width=""540"" height = ""360"" style=""border:16px solid orange"">","null","","","","","","","",""
"null","","html-keyboard-response","555","1916976","0.0-555.0","","","null","","","","","","","",""
"1299.8000000044703","","image-keyboard-response","556","1918279","0.0-556.0","","img/set2/S3.jpg","72","3","structured_load","72","random,structured_load,structured_normal,structured_incentive","3,4,2,3,2,1","true","",""
"null","","html-keyboard-response","557","1918632","0.0-557.0","","<img src=""img/set2/S3.jpg"" width=""540"" height = ""360"" style=""border:16px solid orange"">","null","","","","","","","",""
"null","","html-keyboard-response","558","1918834","0.0-558.0","","","null","","","","","","","",""
"523.6000000014901","","image-keyboard-response","559","1919360","0.0-559.0","","img/set2/S4.jpg","74","4","structured_load","74","random,structured_load,structured_normal,structured_incentive","3,4,2,3,2,1","true","",""
"null","","html-keyboard-response","560","1919713","0.0-560.0","","<img src=""img/set2/S4.jpg"" width=""540"" height = ""360"" style=""border:16px solid orange"">","null","","","","","","","",""
"null","","html-keyboard-response","561","1919915","0.0-561.0","","","null","","","","","","","",""
"703.7999999970198","","image-keyboard-response","562","1920621","0.0-562.0","","img/set2/S2.jpg","68","2","structured_load","68","random,structured_load,structured_normal,structured_incentive","3,4,2,3,2,1","true","",""
"null","","html-keyboard-response","563","1920975","0.0-563.0","","<img src=""img/set2/S2.jpg"" width=""540"" height = ""360"" style=""border:16px solid orange"">","null","","","","","","","",""
"null","","html-keyboard-response","564","1921177","0.0-564.0","","","null","","","","","","","",""
"637.1000000014901","","image-keyboard-response","565","1921818","0.0-565.0","","img/set2/S1.jpg","83","1","structured_load","83","random,structured_load,structured_normal,structured_incentive","3,4,2,3,2,1","true","",""
"null","","html-keyboard-response","566","1922172","0.0-566.0","","<img src=""img/set2/S1.jpg"" width=""540"" height = ""360"" style=""border:16px solid orange"">","null","","","","","","","",""
"null","","html-keyboard-response","567","1922374","0.0-567.0","","","null","","","","","","","",""
"881.1000000014901","","image-keyboard-response","568","1923258","0.0-568.0","","img/set2/S3.jpg","72","3","structured_load","72","random,structured_load,structured_normal,structured_incentive","3,4,2,3,2,1","true","",""
"null","","html-keyboard-response","569","1923611","0.0-569.0","","<img src=""img/set2/S3.jpg"" width=""540"" height = ""360"" style=""border:16px solid orange"">","null","","","","","","","",""
"null","","html-keyboard-response","570","1923813","0.0-570.0","","","null","","","","","","","",""
"1344.6999999955297","","image-keyboard-response","571","1925161","0.0-571.0","","img/set2/S4.jpg","74","4","structured_load","74","random,structured_load,structured_normal,structured_incentive","3,4,2,3,2,1","true","",""
"null","","html-keyboard-response","572","1925514","0.0-572.0","","<img src=""img/set2/S4.jpg"" width=""540"" height = ""360"" style=""border:16px solid orange"">","null","","","","","","","",""
"null","","html-keyboard-response","573","1925716","0.0-573.0","","","null","","","","","","","",""
"1198","","image-keyboard-response","574","1926916","0.0-574.0","","img/set2/S2.jpg","68","2","structured_load","68","random,structured_load,structured_normal,structured_incentive","3,4,2,3,2,1","true","",""
"null","","html-keyboard-response","575","1927270","0.0-575.0","","<img src=""img/set2/S2.jpg"" width=""540"" height = ""360"" style=""border:16px solid orange"">","null","","","","","","","",""
"null","","html-keyboard-response","576","1927472","0.0-576.0","","","null","","","","","","","",""
"1328.7999999970198","","image-keyboard-response","577","1928803","0.0-577.0","","img/set2/S2.jpg","68","2","structured_load","68","random,structured_load,structured_normal,structured_incentive","3,4,2,3,2,1","true","",""
"null","","html-keyboard-response","578","1929156","0.0-578.0","","<img src=""img/set2/S2.jpg"" width=""540"" height = ""360"" style=""border:16px solid orange"">","null","","","","","","","",""
"null","","html-keyboard-response","579","1929359","0.0-579.0","","","null","","","","","","","",""
"582.5999999940395","","image-keyboard-response","580","1929944","0.0-580.0","","img/set2/S2.jpg","68","2","structured_load","68","random,structured_load,structured_normal,structured_incentive","3,4,2,3,2,1","true","",""
"null","","html-keyboard-response","581","1930297","0.0-581.0","","<img src=""img/set2/S2.jpg"" width=""540"" height = ""360"" style=""border:16px solid orange"">","null","","","","","","","",""
"null","","html-keyboard-response","582","1930499","0.0-582.0","","","null","","","","","","","",""
"463.29999999701977","","image-keyboard-response","583","1930965","0.0-583.0","","img/set2/S2.jpg","68","2","structured_load","68","random,structured_load,structured_normal,structured_incentive","3,4,2,3,2,1","true","",""
"null","","html-keyboard-response","584","1931318","0.0-584.0","","<img src=""img/set2/S2.jpg"" width=""540"" height = ""360"" style=""border:16px solid orange"">","null","","","","","","","",""
"null","","html-keyboard-response","585","1931521","0.0-585.0","","","null","","","","","","","",""
"814.8000000044703","","image-keyboard-response","586","1932338","0.0-586.0","","img/set2/S1.jpg","83","1","structured_load","83","random,structured_load,structured_normal,structured_incentive","3,4,2,3,2,1","true","",""
"null","","html-keyboard-response","587","1932691","0.0-587.0","","<img src=""img/set2/S1.jpg"" width=""540"" height = ""360"" style=""border:16px solid orange"">","null","","","","","","","",""
"null","","html-keyboard-response","588","1932893","0.0-588.0","","","null","","","","","","","",""
"715.6000000014901","","image-keyboard-response","589","1933610","0.0-589.0","","img/set2/S1.jpg","83","1","structured_load","83","random,structured_load,structured_normal,structured_incentive","3,4,2,3,2,1","true","",""
