"rt","url","trial_type","trial_index","time_elapsed","internal_node_id","assignmentID","mturkID","hitID","view_history","stimulus","key_press","state","test_part","correct_response","order_block","order_chunk","order_freq","correct","responses","question_order","bonus"
"14238.800000011921","consent.html","external-html","0","14334","0.0-0.0","3OLQQLKKNTBH7NXRSUD3SM69M3TEJU","A2YTO4EY3MNYAJ","3GVPRXWRPHGYHD0HW29VLS36FVC7I4","","","","","","","","","","","","",""
"259414.10000002384","","instructions","1","273748","0.0-1.0","3OLQQLKKNTBH7NXRSUD3SM69M3TEJU","A2YTO4EY3MNYAJ","3GVPRXWRPHGYHD0HW29VLS36FVC7I4","[{""page_index"":0,""viewing_time"":11397.199999988079},{""page_index"":1,""viewing_time"":16374.900000035763},{""page_index"":2,""viewing_time"":163072.39999997616},{""page_index"":3,""viewing_time"":19232},{""page_index"":4,""viewing_time"":14058},{""page_index"":5,""viewing_time"":21410.899999976158},{""page_index"":6,""viewing_time"":13868.100000023842}]","","","","","","","","","","","",""
"13618.5","","instructions","2","287368","0.0-2.0","3OLQQLKKNTBH7NXRSUD3SM69M3TEJU","A2YTO4EY3MNYAJ","3GVPRXWRPHGYHD0HW29VLS36FVC7I4","[{""page_index"":0,""viewing_time"":13618.399999976158}]","","","","","","","","","","","",""
"25982.30000001192","","instructions","3","313351","0.0-3.0","3OLQQLKKNTBH7NXRSUD3SM69M3TEJU","A2YTO4EY3MNYAJ","3GVPRXWRPHGYHD0HW29VLS36FVC7I4","[{""page_index"":0,""viewing_time"":14092},{""page_index"":1,""viewing_time"":11890.100000023842}]","","","","","","","","","","","",""
"1790.1000000238419","","image-keyboard-response","4","315144","0.0-4.0","3OLQQLKKNTBH7NXRSUD3SM69M3TEJU","A2YTO4EY3MNYAJ","3GVPRXWRPHGYHD0HW29VLS36FVC7I4","","img/set1/S4.jpg","68","4","structured_incentive","74","structured_incentive,structured_load,random,structured_normal","2,3,1,2,4,2","4,3,1,2","false","","",""
"null","","html-keyboard-response","5","315500","0.0-5.0","3OLQQLKKNTBH7NXRSUD3SM69M3TEJU","A2YTO4EY3MNYAJ","3GVPRXWRPHGYHD0HW29VLS36FVC7I4","","<img src=""img/set1/S4.jpg"" width=""540"" height = ""360"">","null","","","","","","","","","",""
"null","","html-keyboard-response","6","315705","0.0-6.0","3OLQQLKKNTBH7NXRSUD3SM69M3TEJU","A2YTO4EY3MNYAJ","3GVPRXWRPHGYHD0HW29VLS36FVC7I4","","","null","","","","","","","","","",""
"1459.199999988079","","image-keyboard-response","7","317166","0.0-7.0","3OLQQLKKNTBH7NXRSUD3SM69M3TEJU","A2YTO4EY3MNYAJ","3GVPRXWRPHGYHD0HW29VLS36FVC7I4","","img/set1/S4.jpg","72","4","structured_incentive","74","structured_incentive,structured_load,random,structured_normal","2,3,1,2,4,2","4,3,1,2","false","","",""
"null","","html-keyboard-response","8","317520","0.0-8.0","3OLQQLKKNTBH7NXRSUD3SM69M3TEJU","A2YTO4EY3MNYAJ","3GVPRXWRPHGYHD0HW29VLS36FVC7I4","","<img src=""img/set1/S4.jpg"" width=""540"" height = ""360"">","null","","","","","","","","","",""
"null","","html-keyboard-response","9","317723","0.0-9.0","3OLQQLKKNTBH7NXRSUD3SM69M3TEJU","A2YTO4EY3MNYAJ","3GVPRXWRPHGYHD0HW29VLS36FVC7I4","","","null","","","","","","","","","",""
"1037.5999999642372","","image-keyboard-response","10","318762","0.0-10.0","3OLQQLKKNTBH7NXRSUD3SM69M3TEJU","A2YTO4EY3MNYAJ","3GVPRXWRPHGYHD0HW29VLS36FVC7I4","","img/set1/S2.jpg","74","2","structured_incentive","68","structured_incentive,structured_load,random,structured_normal","2,3,1,2,4,2","4,3,1,2","false","","",""
"null","","html-keyboard-response","11","319115","0.0-11.0","3OLQQLKKNTBH7NXRSUD3SM69M3TEJU","A2YTO4EY3MNYAJ","3GVPRXWRPHGYHD0HW29VLS36FVC7I4","","<img src=""img/set1/S2.jpg"" width=""540"" height = ""360"">","null","","","","","","","","","",""
"null","","html-keyboard-response","12","319318","0.0-12.0","3OLQQLKKNTBH7NXRSUD3SM69M3TEJU","A2YTO4EY3MNYAJ","3GVPRXWRPHGYHD0HW29VLS36FVC7I4","","","null","","","","","","","","","",""
"664.3999999761581","","image-keyboard-response","13","319985","0.0-13.0","3OLQQLKKNTBH7NXRSUD3SM69M3TEJU","A2YTO4EY3MNYAJ","3GVPRXWRPHGYHD0HW29VLS36FVC7I4","","img/set1/S3.jpg","68","3","structured_incentive","72","structured_incentive,structured_load,random,structured_normal","2,3,1,2,4,2","4,3,1,2","false","","",""
"null","","html-keyboard-response","14","320338","0.0-14.0","3OLQQLKKNTBH7NXRSUD3SM69M3TEJU","A2YTO4EY3MNYAJ","3GVPRXWRPHGYHD0HW29VLS36FVC7I4","","<img src=""img/set1/S3.jpg"" width=""540"" height = ""360"">","null","","","","","","","","","",""
"null","","html-keyboard-response","15","320540","0.0-15.0","3OLQQLKKNTBH7NXRSUD3SM69M3TEJU","A2YTO4EY3MNYAJ","3GVPRXWRPHGYHD0HW29VLS36FVC7I4","","","null","","","","","","","","","",""
"506.30000001192093","","image-keyboard-response","16","321048","0.0-16.0","3OLQQLKKNTBH7NXRSUD3SM69M3TEJU","A2YTO4EY3MNYAJ","3GVPRXWRPHGYHD0HW29VLS36FVC7I4","","img/set1/S4.jpg","68","4","structured_incentive","74","structured_incentive,structured_load,random,structured_normal","2,3,1,2,4,2","4,3,1,2","false","","",""
"null","","html-keyboard-response","17","321414","0.0-17.0","3OLQQLKKNTBH7NXRSUD3SM69M3TEJU","A2YTO4EY3MNYAJ","3GVPRXWRPHGYHD0HW29VLS36FVC7I4","","<img src=""img/set1/S4.jpg"" width=""540"" height = ""360"">","null","","","","","","","","","",""
"null","","html-keyboard-response","18","321615","0.0-18.0","3OLQQLKKNTBH7NXRSUD3SM69M3TEJU","A2YTO4EY3MNYAJ","3GVPRXWRPHGYHD0HW29VLS36FVC7I4","","","null","","","","","","","","","",""
"443.2000000476837","","image-keyboard-response","19","322061","0.0-19.0","3OLQQLKKNTBH7NXRSUD3SM69M3TEJU","A2YTO4EY3MNYAJ","3GVPRXWRPHGYHD0HW29VLS36FVC7I4","","img/set1/S2.jpg","72","2","structured_incentive","68","structured_incentive,structured_load,random,structured_normal","2,3,1,2,4,2","4,3,1,2","false","","",""
"null","","html-keyboard-response","20","322418","0.0-20.0","3OLQQLKKNTBH7NXRSUD3SM69M3TEJU","A2YTO4EY3MNYAJ","3GVPRXWRPHGYHD0HW29VLS36FVC7I4","","<img src=""img/set1/S2.jpg"" width=""540"" height = ""360"">","null","","","","","","","","","",""
"null","","html-keyboard-response","21","322621","0.0-21.0","3OLQQLKKNTBH7NXRSUD3SM69M3TEJU","A2YTO4EY3MNYAJ","3GVPRXWRPHGYHD0HW29VLS36FVC7I4","","","null","","","","","","","","","",""
"453.80000001192093","","image-keyboard-response","22","323077","0.0-22.0","3OLQQLKKNTBH7NXRSUD3SM69M3TEJU","A2YTO4EY3MNYAJ","3GVPRXWRPHGYHD0HW29VLS36FVC7I4","","img/set1/S3.jpg","74","3","structured_incentive","72","structured_incentive,structured_load,random,structured_normal","2,3,1,2,4,2","4,3,1,2","false","","",""
"null","","html-keyboard-response","23","323430","0.0-23.0","3OLQQLKKNTBH7NXRSUD3SM69M3TEJU","A2YTO4EY3MNYAJ","3GVPRXWRPHGYHD0HW29VLS36FVC7I4","","<img src=""img/set1/S3.jpg"" width=""540"" height = ""360"">","null","","","","","","","","","",""
"null","","html-keyboard-response","24","323632","0.0-24.0","3OLQQLKKNTBH7NXRSUD3SM69M3TEJU","A2YTO4EY3MNYAJ","3GVPRXWRPHGYHD0HW29VLS36FVC7I4","","","null","","","","","","","","","",""
"530.4000000357628","","image-keyboard-response","25","324164","0.0-25.0","3OLQQLKKNTBH7NXRSUD3SM69M3TEJU","A2YTO4EY3MNYAJ","3GVPRXWRPHGYHD0HW29VLS36FVC7I4","","img/set1/S4.jpg","74","4","structured_incentive","74","structured_incentive,structured_load,random,structured_normal","2,3,1,2,4,2","4,3,1,2","true","","",""
"null","","html-keyboard-response","26","324518","0.0-26.0","3OLQQLKKNTBH7NXRSUD3SM69M3TEJU","A2YTO4EY3MNYAJ","3GVPRXWRPHGYHD0HW29VLS36FVC7I4","","<img src=""img/set1/S4.jpg"" width=""540"" height = ""360"" style=""border:16px solid Violet"">","null","","","","","","","","","",""
"null","","html-keyboard-response","27","324719","0.0-27.0","3OLQQLKKNTBH7NXRSUD3SM69M3TEJU","A2YTO4EY3MNYAJ","3GVPRXWRPHGYHD0HW29VLS36FVC7I4","","","null","","","","","","","","","",""
"608.5","","image-keyboard-response","28","325330","0.0-28.0","3OLQQLKKNTBH7NXRSUD3SM69M3TEJU","A2YTO4EY3MNYAJ","3GVPRXWRPHGYHD0HW29VLS36FVC7I4","","img/set1/S4.jpg","74","4","structured_incentive","74","structured_incentive,structured_load,random,structured_normal","2,3,1,2,4,2","4,3,1,2","true","","",""
"null","","html-keyboard-response","29","325683","0.0-29.0","3OLQQLKKNTBH7NXRSUD3SM69M3TEJU","A2YTO4EY3MNYAJ","3GVPRXWRPHGYHD0HW29VLS36FVC7I4","","<img src=""img/set1/S4.jpg"" width=""540"" height = ""360"" style=""border:16px solid Violet"">","null","","","","","","","","","",""
"null","","html-keyboard-response","30","325886","0.0-30.0","3OLQQLKKNTBH7NXRSUD3SM69M3TEJU","A2YTO4EY3MNYAJ","3GVPRXWRPHGYHD0HW29VLS36FVC7I4","","","null","","","","","","","","","",""
"744.8000000119209","","image-keyboard-response","31","326632","0.0-31.0","3OLQQLKKNTBH7NXRSUD3SM69M3TEJU","A2YTO4EY3MNYAJ","3GVPRXWRPHGYHD0HW29VLS36FVC7I4","","img/set1/S2.jpg","72","2","structured_incentive","68","structured_incentive,structured_load,random,structured_normal","2,3,1,2,4,2","4,3,1,2","false","","",""
"null","","html-keyboard-response","32","326987","0.0-32.0","3OLQQLKKNTBH7NXRSUD3SM69M3TEJU","A2YTO4EY3MNYAJ","3GVPRXWRPHGYHD0HW29VLS36FVC7I4","","<img src=""img/set1/S2.jpg"" width=""540"" height = ""360"">","null","","","","","","","","","",""
"null","","html-keyboard-response","33","327190","0.0-33.0","3OLQQLKKNTBH7NXRSUD3SM69M3TEJU","A2YTO4EY3MNYAJ","3GVPRXWRPHGYHD0HW29VLS36FVC7I4","","","null","","","","","","","","","",""
"827.7999999523163","","image-keyboard-response","34","328019","0.0-34.0","3OLQQLKKNTBH7NXRSUD3SM69M3TEJU","A2YTO4EY3MNYAJ","3GVPRXWRPHGYHD0HW29VLS36FVC7I4","","img/set1/S3.jpg","68","3","structured_incentive","72","structured_incentive,structured_load,random,structured_normal","2,3,1,2,4,2","4,3,1,2","false","","",""
"null","","html-keyboard-response","35","328372","0.0-35.0","3OLQQLKKNTBH7NXRSUD3SM69M3TEJU","A2YTO4EY3MNYAJ","3GVPRXWRPHGYHD0HW29VLS36FVC7I4","","<img src=""img/set1/S3.jpg"" width=""540"" height = ""360"">","null","","","","","","","","","",""
"null","","html-keyboard-response","36","328574","0.0-36.0","3OLQQLKKNTBH7NXRSUD3SM69M3TEJU","A2YTO4EY3MNYAJ","3GVPRXWRPHGYHD0HW29VLS36FVC7I4","","","null","","","","","","","","","",""
"430.19999998807907","","image-keyboard-response","37","329007","0.0-37.0","3OLQQLKKNTBH7NXRSUD3SM69M3TEJU","A2YTO4EY3MNYAJ","3GVPRXWRPHGYHD0HW29VLS36FVC7I4","","img/set1/S2.jpg","83","2","structured_incentive","68","structured_incentive,structured_load,random,structured_normal","2,3,1,2,4,2","4,3,1,2","false","","",""
"null","","html-keyboard-response","38","329371","0.0-38.0","3OLQQLKKNTBH7NXRSUD3SM69M3TEJU","A2YTO4EY3MNYAJ","3GVPRXWRPHGYHD0HW29VLS36FVC7I4","","<img src=""img/set1/S2.jpg"" width=""540"" height = ""360"">","null","","","","","","","","","",""
"null","","html-keyboard-response","39","329573","0.0-39.0","3OLQQLKKNTBH7NXRSUD3SM69M3TEJU","A2YTO4EY3MNYAJ","3GVPRXWRPHGYHD0HW29VLS36FVC7I4","","","null","","","","","","","","","",""
"958.5","","image-keyboard-response","40","330534","0.0-40.0","3OLQQLKKNTBH7NXRSUD3SM69M3TEJU","A2YTO4EY3MNYAJ","3GVPRXWRPHGYHD0HW29VLS36FVC7I4","","img/set1/S3.jpg","74","3","structured_incentive","72","structured_incentive,structured_load,random,structured_normal","2,3,1,2,4,2","4,3,1,2","false","","",""
"null","","html-keyboard-response","41","330887","0.0-41.0","3OLQQLKKNTBH7NXRSUD3SM69M3TEJU","A2YTO4EY3MNYAJ","3GVPRXWRPHGYHD0HW29VLS36FVC7I4","","<img src=""img/set1/S3.jpg"" width=""540"" height = ""360"">","null","","","","","","","","","",""
"null","","html-keyboard-response","42","331090","0.0-42.0","3OLQQLKKNTBH7NXRSUD3SM69M3TEJU","A2YTO4EY3MNYAJ","3GVPRXWRPHGYHD0HW29VLS36FVC7I4","","","null","","","","","","","","","",""
"635.8000000119209","","image-keyboard-response","43","331727","0.0-43.0","3OLQQLKKNTBH7NXRSUD3SM69M3TEJU","A2YTO4EY3MNYAJ","3GVPRXWRPHGYHD0HW29VLS36FVC7I4","","img/set1/S2.jpg","74","2","structured_incentive","68","structured_incentive,structured_load,random,structured_normal","2,3,1,2,4,2","4,3,1,2","false","","",""
"null","","html-keyboard-response","44","332081","0.0-44.0","3OLQQLKKNTBH7NXRSUD3SM69M3TEJU","A2YTO4EY3MNYAJ","3GVPRXWRPHGYHD0HW29VLS36FVC7I4","","<img src=""img/set1/S2.jpg"" width=""540"" height = ""360"">","null","","","","","","","","","",""
"null","","html-keyboard-response","45","332291","0.0-45.0","3OLQQLKKNTBH7NXRSUD3SM69M3TEJU","A2YTO4EY3MNYAJ","3GVPRXWRPHGYHD0HW29VLS36FVC7I4","","","null","","","","","","","","","",""
"493.4000000357628","","image-keyboard-response","46","332786","0.0-46.0","3OLQQLKKNTBH7NXRSUD3SM69M3TEJU","A2YTO4EY3MNYAJ","3GVPRXWRPHGYHD0HW29VLS36FVC7I4","","img/set1/S3.jpg","72","3","structured_incentive","72","structured_incentive,structured_load,random,structured_normal","2,3,1,2,4,2","4,3,1,2","true","","",""
"null","","html-keyboard-response","47","333140","0.0-47.0","3OLQQLKKNTBH7NXRSUD3SM69M3TEJU","A2YTO4EY3MNYAJ","3GVPRXWRPHGYHD0HW29VLS36FVC7I4","","<img src=""img/set1/S3.jpg"" width=""540"" height = ""360"" style=""border:16px solid orange"">","null","","","","","","","","","",""
"null","","html-keyboard-response","48","333341","0.0-48.0","3OLQQLKKNTBH7NXRSUD3SM69M3TEJU","A2YTO4EY3MNYAJ","3GVPRXWRPHGYHD0HW29VLS36FVC7I4","","","null","","","","","","","","","",""
"664.8000000119209","","image-keyboard-response","49","334008","0.0-49.0","3OLQQLKKNTBH7NXRSUD3SM69M3TEJU","A2YTO4EY3MNYAJ","3GVPRXWRPHGYHD0HW29VLS36FVC7I4","","img/set1/S2.jpg","72","2","structured_incentive","68","structured_incentive,structured_load,random,structured_normal","2,3,1,2,4,2","4,3,1,2","false","","",""
"null","","html-keyboard-response","50","334362","0.0-50.0","3OLQQLKKNTBH7NXRSUD3SM69M3TEJU","A2YTO4EY3MNYAJ","3GVPRXWRPHGYHD0HW29VLS36FVC7I4","","<img src=""img/set1/S2.jpg"" width=""540"" height = ""360"">","null","","","","","","","","","",""
"null","","html-keyboard-response","51","334563","0.0-51.0","3OLQQLKKNTBH7NXRSUD3SM69M3TEJU","A2YTO4EY3MNYAJ","3GVPRXWRPHGYHD0HW29VLS36FVC7I4","","","null","","","","","","","","","",""
"466.7000000476837","","image-keyboard-response","52","335032","0.0-52.0","3OLQQLKKNTBH7NXRSUD3SM69M3TEJU","A2YTO4EY3MNYAJ","3GVPRXWRPHGYHD0HW29VLS36FVC7I4","","img/set1/S3.jpg","68","3","structured_incentive","72","structured_incentive,structured_load,random,structured_normal","2,3,1,2,4,2","4,3,1,2","false","","",""
"null","","html-keyboard-response","53","335385","0.0-53.0","3OLQQLKKNTBH7NXRSUD3SM69M3TEJU","A2YTO4EY3MNYAJ","3GVPRXWRPHGYHD0HW29VLS36FVC7I4","","<img src=""img/set1/S3.jpg"" width=""540"" height = ""360"">","null","","","","","","","","","",""
"null","","html-keyboard-response","54","335588","0.0-54.0","3OLQQLKKNTBH7NXRSUD3SM69M3TEJU","A2YTO4EY3MNYAJ","3GVPRXWRPHGYHD0HW29VLS36FVC7I4","","","null","","","","","","","","","",""
"357.7999999523163","","image-keyboard-response","55","335948","0.0-55.0","3OLQQLKKNTBH7NXRSUD3SM69M3TEJU","A2YTO4EY3MNYAJ","3GVPRXWRPHGYHD0HW29VLS36FVC7I4","","img/set1/S1.jpg","83","1","structured_incentive","83","structured_incentive,structured_load,random,structured_normal","2,3,1,2,4,2","4,3,1,2","true","","",""
"null","","html-keyboard-response","56","336301","0.0-56.0","3OLQQLKKNTBH7NXRSUD3SM69M3TEJU","A2YTO4EY3MNYAJ","3GVPRXWRPHGYHD0HW29VLS36FVC7I4","","<img src=""img/set1/S1.jpg"" width=""540"" height = ""360"" style=""border:16px solid orange"">","null","","","","","","","","","",""
"null","","html-keyboard-response","57","336503","0.0-57.0","3OLQQLKKNTBH7NXRSUD3SM69M3TEJU","A2YTO4EY3MNYAJ","3GVPRXWRPHGYHD0HW29VLS36FVC7I4","","","null","","","","","","","","","",""
"460.10000002384186","","image-keyboard-response","58","336966","0.0-58.0","3OLQQLKKNTBH7NXRSUD3SM69M3TEJU","A2YTO4EY3MNYAJ","3GVPRXWRPHGYHD0HW29VLS36FVC7I4","","img/set1/S1.jpg","83","1","structured_incentive","83","structured_incentive,structured_load,random,structured_normal","2,3,1,2,4,2","4,3,1,2","true","","",""
"null","","html-keyboard-response","59","337319","0.0-59.0","3OLQQLKKNTBH7NXRSUD3SM69M3TEJU","A2YTO4EY3MNYAJ","3GVPRXWRPHGYHD0HW29VLS36FVC7I4","","<img src=""img/set1/S1.jpg"" width=""540"" height = ""360"" style=""border:16px solid orange"">","null","","","","","","","","","",""
"null","","html-keyboard-response","60","337521","0.0-60.0","3OLQQLKKNTBH7NXRSUD3SM69M3TEJU","A2YTO4EY3MNYAJ","3GVPRXWRPHGYHD0HW29VLS36FVC7I4","","","null","","","","","","","","","",""
"515.6999999880791","","image-keyboard-response","61","338039","0.0-61.0","3OLQQLKKNTBH7NXRSUD3SM69M3TEJU","A2YTO4EY3MNYAJ","3GVPRXWRPHGYHD0HW29VLS36FVC7I4","","img/set1/S2.jpg","74","2","structured_incentive","68","structured_incentive,structured_load,random,structured_normal","2,3,1,2,4,2","4,3,1,2","false","","",""
"null","","html-keyboard-response","62","338392","0.0-62.0","3OLQQLKKNTBH7NXRSUD3SM69M3TEJU","A2YTO4EY3MNYAJ","3GVPRXWRPHGYHD0HW29VLS36FVC7I4","","<img src=""img/set1/S2.jpg"" width=""540"" height = ""360"">","null","","","","","","","","","",""
"null","","html-keyboard-response","63","338594","0.0-63.0","3OLQQLKKNTBH7NXRSUD3SM69M3TEJU","A2YTO4EY3MNYAJ","3GVPRXWRPHGYHD0HW29VLS36FVC7I4","","","null","","","","","","","","","",""
"384.60000002384186","","image-keyboard-response","64","338981","0.0-64.0","3OLQQLKKNTBH7NXRSUD3SM69M3TEJU","A2YTO4EY3MNYAJ","3GVPRXWRPHGYHD0HW29VLS36FVC7I4","","img/set1/S3.jpg","72","3","structured_incentive","72","structured_incentive,structured_load,random,structured_normal","2,3,1,2,4,2","4,3,1,2","true","","",""
"null","","html-keyboard-response","65","339334","0.0-65.0","3OLQQLKKNTBH7NXRSUD3SM69M3TEJU","A2YTO4EY3MNYAJ","3GVPRXWRPHGYHD0HW29VLS36FVC7I4","","<img src=""img/set1/S3.jpg"" width=""540"" height = ""360"" style=""border:16px solid orange"">","null","","","","","","","","","",""
"null","","html-keyboard-response","66","339535","0.0-66.0","3OLQQLKKNTBH7NXRSUD3SM69M3TEJU","A2YTO4EY3MNYAJ","3GVPRXWRPHGYHD0HW29VLS36FVC7I4","","","null","","","","","","","","","",""
"738.6000000238419","","image-keyboard-response","67","340276","0.0-67.0","3OLQQLKKNTBH7NXRSUD3SM69M3TEJU","A2YTO4EY3MNYAJ","3GVPRXWRPHGYHD0HW29VLS36FVC7I4","","img/set1/S2.jpg","68","2","structured_incentive","68","structured_incentive,structured_load,random,structured_normal","2,3,1,2,4,2","4,3,1,2","true","","",""
"null","","html-keyboard-response","68","340630","0.0-68.0","3OLQQLKKNTBH7NXRSUD3SM69M3TEJU","A2YTO4EY3MNYAJ","3GVPRXWRPHGYHD0HW29VLS36FVC7I4","","<img src=""img/set1/S2.jpg"" width=""540"" height = ""360"" style=""border:16px solid orange"">","null","","","","","","","","","",""
"null","","html-keyboard-response","69","340833","0.0-69.0","3OLQQLKKNTBH7NXRSUD3SM69M3TEJU","A2YTO4EY3MNYAJ","3GVPRXWRPHGYHD0HW29VLS36FVC7I4","","","null","","","","","","","","","",""
"664.5","","image-keyboard-response","70","341503","0.0-70.0","3OLQQLKKNTBH7NXRSUD3SM69M3TEJU","A2YTO4EY3MNYAJ","3GVPRXWRPHGYHD0HW29VLS36FVC7I4","","img/set1/S3.jpg","72","3","structured_incentive","72","structured_incentive,structured_load,random,structured_normal","2,3,1,2,4,2","4,3,1,2","true","","",""
"null","","html-keyboard-response","71","341856","0.0-71.0","3OLQQLKKNTBH7NXRSUD3SM69M3TEJU","A2YTO4EY3MNYAJ","3GVPRXWRPHGYHD0HW29VLS36FVC7I4","","<img src=""img/set1/S3.jpg"" width=""540"" height = ""360"" style=""border:16px solid orange"">","null","","","","","","","","","",""
"null","","html-keyboard-response","72","342058","0.0-72.0","3OLQQLKKNTBH7NXRSUD3SM69M3TEJU","A2YTO4EY3MNYAJ","3GVPRXWRPHGYHD0HW29VLS36FVC7I4","","","null","","","","","","","","","",""
"928.8999999761581","","image-keyboard-response","73","342989","0.0-73.0","3OLQQLKKNTBH7NXRSUD3SM69M3TEJU","A2YTO4EY3MNYAJ","3GVPRXWRPHGYHD0HW29VLS36FVC7I4","","img/set1/S4.jpg","74","4","structured_incentive","74","structured_incentive,structured_load,random,structured_normal","2,3,1,2,4,2","4,3,1,2","true","","",""
"null","","html-keyboard-response","74","343341","0.0-74.0","3OLQQLKKNTBH7NXRSUD3SM69M3TEJU","A2YTO4EY3MNYAJ","3GVPRXWRPHGYHD0HW29VLS36FVC7I4","","<img src=""img/set1/S4.jpg"" width=""540"" height = ""360"" style=""border:16px solid Violet"">","null","","","","","","","","","",""
"null","","html-keyboard-response","75","343544","0.0-75.0","3OLQQLKKNTBH7NXRSUD3SM69M3TEJU","A2YTO4EY3MNYAJ","3GVPRXWRPHGYHD0HW29VLS36FVC7I4","","","null","","","","","","","","","",""
"679.8999999761581","","image-keyboard-response","76","344226","0.0-76.0","3OLQQLKKNTBH7NXRSUD3SM69M3TEJU","A2YTO4EY3MNYAJ","3GVPRXWRPHGYHD0HW29VLS36FVC7I4","","img/set1/S4.jpg","74","4","structured_incentive","74","structured_incentive,structured_load,random,structured_normal","2,3,1,2,4,2","4,3,1,2","true","","",""
"null","","html-keyboard-response","77","344580","0.0-77.0","3OLQQLKKNTBH7NXRSUD3SM69M3TEJU","A2YTO4EY3MNYAJ","3GVPRXWRPHGYHD0HW29VLS36FVC7I4","","<img src=""img/set1/S4.jpg"" width=""540"" height = ""360"" style=""border:16px solid Violet"">","null","","","","","","","","","",""
"null","","html-keyboard-response","78","344782","0.0-78.0","3OLQQLKKNTBH7NXRSUD3SM69M3TEJU","A2YTO4EY3MNYAJ","3GVPRXWRPHGYHD0HW29VLS36FVC7I4","","","null","","","","","","","","","",""
"629.8999999761581","","image-keyboard-response","79","345413","0.0-79.0","3OLQQLKKNTBH7NXRSUD3SM69M3TEJU","A2YTO4EY3MNYAJ","3GVPRXWRPHGYHD0HW29VLS36FVC7I4","","img/set1/S3.jpg","68","3","structured_incentive","72","structured_incentive,structured_load,random,structured_normal","2,3,1,2,4,2","4,3,1,2","false","","",""
"null","","html-keyboard-response","80","345768","0.0-80.0","3OLQQLKKNTBH7NXRSUD3SM69M3TEJU","A2YTO4EY3MNYAJ","3GVPRXWRPHGYHD0HW29VLS36FVC7I4","","<img src=""img/set1/S3.jpg"" width=""540"" height = ""360"">","null","","","","","","","","","",""
"null","","html-keyboard-response","81","345970","0.0-81.0","3OLQQLKKNTBH7NXRSUD3SM69M3TEJU","A2YTO4EY3MNYAJ","3GVPRXWRPHGYHD0HW29VLS36FVC7I4","","","null","","","","","","","","","",""
"786.8000000119209","","image-keyboard-response","82","346758","0.0-82.0","3OLQQLKKNTBH7NXRSUD3SM69M3TEJU","A2YTO4EY3MNYAJ","3GVPRXWRPHGYHD0HW29VLS36FVC7I4","","img/set1/S1.jpg","83","1","structured_incentive","83","structured_incentive,structured_load,random,structured_normal","2,3,1,2,4,2","4,3,1,2","true","","",""
"null","","html-keyboard-response","83","347111","0.0-83.0","3OLQQLKKNTBH7NXRSUD3SM69M3TEJU","A2YTO4EY3MNYAJ","3GVPRXWRPHGYHD0HW29VLS36FVC7I4","","<img src=""img/set1/S1.jpg"" width=""540"" height = ""360"" style=""border:16px solid orange"">","null","","","","","","","","","",""
"null","","html-keyboard-response","84","347313","0.0-84.0","3OLQQLKKNTBH7NXRSUD3SM69M3TEJU","A2YTO4EY3MNYAJ","3GVPRXWRPHGYHD0HW29VLS36FVC7I4","","","null","","","","","","","","","",""
"605.8000000119209","","image-keyboard-response","85","347921","0.0-85.0","3OLQQLKKNTBH7NXRSUD3SM69M3TEJU","A2YTO4EY3MNYAJ","3GVPRXWRPHGYHD0HW29VLS36FVC7I4","","img/set1/S1.jpg","83","1","structured_incentive","83","structured_incentive,structured_load,random,structured_normal","2,3,1,2,4,2","4,3,1,2","true","","",""
"null","","html-keyboard-response","86","348274","0.0-86.0","3OLQQLKKNTBH7NXRSUD3SM69M3TEJU","A2YTO4EY3MNYAJ","3GVPRXWRPHGYHD0HW29VLS36FVC7I4","","<img src=""img/set1/S1.jpg"" width=""540"" height = ""360"" style=""border:16px solid orange"">","null","","","","","","","","","",""
"null","","html-keyboard-response","87","348476","0.0-87.0","3OLQQLKKNTBH7NXRSUD3SM69M3TEJU","A2YTO4EY3MNYAJ","3GVPRXWRPHGYHD0HW29VLS36FVC7I4","","","null","","","","","","","","","",""
"867.3999999761581","","image-keyboard-response","88","349345","0.0-88.0","3OLQQLKKNTBH7NXRSUD3SM69M3TEJU","A2YTO4EY3MNYAJ","3GVPRXWRPHGYHD0HW29VLS36FVC7I4","","img/set1/S4.jpg","74","4","structured_incentive","74","structured_incentive,structured_load,random,structured_normal","2,3,1,2,4,2","4,3,1,2","true","","",""
"null","","html-keyboard-response","89","349699","0.0-89.0","3OLQQLKKNTBH7NXRSUD3SM69M3TEJU","A2YTO4EY3MNYAJ","3GVPRXWRPHGYHD0HW29VLS36FVC7I4","","<img src=""img/set1/S4.jpg"" width=""540"" height = ""360"" style=""border:16px solid Violet"">","null","","","","","","","","","",""
"null","","html-keyboard-response","90","349901","0.0-90.0","3OLQQLKKNTBH7NXRSUD3SM69M3TEJU","A2YTO4EY3MNYAJ","3GVPRXWRPHGYHD0HW29VLS36FVC7I4","","","null","","","","","","","","","",""
"661.2000000476837","","image-keyboard-response","91","350565","0.0-91.0","3OLQQLKKNTBH7NXRSUD3SM69M3TEJU","A2YTO4EY3MNYAJ","3GVPRXWRPHGYHD0HW29VLS36FVC7I4","","img/set1/S2.jpg","72","2","structured_incentive","68","structured_incentive,structured_load,random,structured_normal","2,3,1,2,4,2","4,3,1,2","false","","",""
"null","","html-keyboard-response","92","350918","0.0-92.0","3OLQQLKKNTBH7NXRSUD3SM69M3TEJU","A2YTO4EY3MNYAJ","3GVPRXWRPHGYHD0HW29VLS36FVC7I4","","<img src=""img/set1/S2.jpg"" width=""540"" height = ""360"">","null","","","","","","","","","",""
"null","","html-keyboard-response","93","351120","0.0-93.0","3OLQQLKKNTBH7NXRSUD3SM69M3TEJU","A2YTO4EY3MNYAJ","3GVPRXWRPHGYHD0HW29VLS36FVC7I4","","","null","","","","","","","","","",""
"689.7999999523163","","image-keyboard-response","94","351811","0.0-94.0","3OLQQLKKNTBH7NXRSUD3SM69M3TEJU","A2YTO4EY3MNYAJ","3GVPRXWRPHGYHD0HW29VLS36FVC7I4","","img/set1/S3.jpg","68","3","structured_incentive","72","structured_incentive,structured_load,random,structured_normal","2,3,1,2,4,2","4,3,1,2","false","","",""
"null","","html-keyboard-response","95","352164","0.0-95.0","3OLQQLKKNTBH7NXRSUD3SM69M3TEJU","A2YTO4EY3MNYAJ","3GVPRXWRPHGYHD0HW29VLS36FVC7I4","","<img src=""img/set1/S3.jpg"" width=""540"" height = ""360"">","null","","","","","","","","","",""
"null","","html-keyboard-response","96","352366","0.0-96.0","3OLQQLKKNTBH7NXRSUD3SM69M3TEJU","A2YTO4EY3MNYAJ","3GVPRXWRPHGYHD0HW29VLS36FVC7I4","","","null","","","","","","","","","",""
"525.5999999642372","","image-keyboard-response","97","352893","0.0-97.0","3OLQQLKKNTBH7NXRSUD3SM69M3TEJU","A2YTO4EY3MNYAJ","3GVPRXWRPHGYHD0HW29VLS36FVC7I4","","img/set1/S1.jpg","83","1","structured_incentive","83","structured_incentive,structured_load,random,structured_normal","2,3,1,2,4,2","4,3,1,2","true","","",""
"null","","html-keyboard-response","98","353247","0.0-98.0","3OLQQLKKNTBH7NXRSUD3SM69M3TEJU","A2YTO4EY3MNYAJ","3GVPRXWRPHGYHD0HW29VLS36FVC7I4","","<img src=""img/set1/S1.jpg"" width=""540"" height = ""360"" style=""border:16px solid orange"">","null","","","","","","","","","",""
"null","","html-keyboard-response","99","353448","0.0-99.0","3OLQQLKKNTBH7NXRSUD3SM69M3TEJU","A2YTO4EY3MNYAJ","3GVPRXWRPHGYHD0HW29VLS36FVC7I4","","","null","","","","","","","","","",""
"848.2999999523163","","image-keyboard-response","100","354298","0.0-100.0","3OLQQLKKNTBH7NXRSUD3SM69M3TEJU","A2YTO4EY3MNYAJ","3GVPRXWRPHGYHD0HW29VLS36FVC7I4","","img/set1/S2.jpg","72","2","structured_incentive","68","structured_incentive,structured_load,random,structured_normal","2,3,1,2,4,2","4,3,1,2","false","","",""
"null","","html-keyboard-response","101","354651","0.0-101.0","3OLQQLKKNTBH7NXRSUD3SM69M3TEJU","A2YTO4EY3MNYAJ","3GVPRXWRPHGYHD0HW29VLS36FVC7I4","","<img src=""img/set1/S2.jpg"" width=""540"" height = ""360"">","null","","","","","","","","","",""
"null","","html-keyboard-response","102","354853","0.0-102.0","3OLQQLKKNTBH7NXRSUD3SM69M3TEJU","A2YTO4EY3MNYAJ","3GVPRXWRPHGYHD0HW29VLS36FVC7I4","","","null","","","","","","","","","",""
"1143","","image-keyboard-response","103","355998","0.0-103.0","3OLQQLKKNTBH7NXRSUD3SM69M3TEJU","A2YTO4EY3MNYAJ","3GVPRXWRPHGYHD0HW29VLS36FVC7I4","","img/set1/S3.jpg","74","3","structured_incentive","72","structured_incentive,structured_load,random,structured_normal","2,3,1,2,4,2","4,3,1,2","false","","",""
"null","","html-keyboard-response","104","356351","0.0-104.0","3OLQQLKKNTBH7NXRSUD3SM69M3TEJU","A2YTO4EY3MNYAJ","3GVPRXWRPHGYHD0HW29VLS36FVC7I4","","<img src=""img/set1/S3.jpg"" width=""540"" height = ""360"">","null","","","","","","","","","",""
"null","","html-keyboard-response","105","356554","0.0-105.0","3OLQQLKKNTBH7NXRSUD3SM69M3TEJU","A2YTO4EY3MNYAJ","3GVPRXWRPHGYHD0HW29VLS36FVC7I4","","","null","","","","","","","","","",""
"1093.800000011921","","image-keyboard-response","106","357650","0.0-106.0","3OLQQLKKNTBH7NXRSUD3SM69M3TEJU","A2YTO4EY3MNYAJ","3GVPRXWRPHGYHD0HW29VLS36FVC7I4","","img/set1/S2.jpg","74","2","structured_incentive","68","structured_incentive,structured_load,random,structured_normal","2,3,1,2,4,2","4,3,1,2","false","","",""
"null","","html-keyboard-response","107","358003","0.0-107.0","3OLQQLKKNTBH7NXRSUD3SM69M3TEJU","A2YTO4EY3MNYAJ","3GVPRXWRPHGYHD0HW29VLS36FVC7I4","","<img src=""img/set1/S2.jpg"" width=""540"" height = ""360"">","null","","","","","","","","","",""
"null","","html-keyboard-response","108","358214","0.0-108.0","3OLQQLKKNTBH7NXRSUD3SM69M3TEJU","A2YTO4EY3MNYAJ","3GVPRXWRPHGYHD0HW29VLS36FVC7I4","","","null","","","","","","","","","",""
"443.80000001192093","","image-keyboard-response","109","358660","0.0-109.0","3OLQQLKKNTBH7NXRSUD3SM69M3TEJU","A2YTO4EY3MNYAJ","3GVPRXWRPHGYHD0HW29VLS36FVC7I4","","img/set1/S3.jpg","68","3","structured_incentive","72","structured_incentive,structured_load,random,structured_normal","2,3,1,2,4,2","4,3,1,2","false","","",""
"null","","html-keyboard-response","110","359013","0.0-110.0","3OLQQLKKNTBH7NXRSUD3SM69M3TEJU","A2YTO4EY3MNYAJ","3GVPRXWRPHGYHD0HW29VLS36FVC7I4","","<img src=""img/set1/S3.jpg"" width=""540"" height = ""360"">","null","","","","","","","","","",""
"null","","html-keyboard-response","111","359215","0.0-111.0","3OLQQLKKNTBH7NXRSUD3SM69M3TEJU","A2YTO4EY3MNYAJ","3GVPRXWRPHGYHD0HW29VLS36FVC7I4","","","null","","","","","","","","","",""
"415.30000001192093","","image-keyboard-response","112","359632","0.0-112.0","3OLQQLKKNTBH7NXRSUD3SM69M3TEJU","A2YTO4EY3MNYAJ","3GVPRXWRPHGYHD0HW29VLS36FVC7I4","","img/set1/S3.jpg","83","3","structured_incentive","72","structured_incentive,structured_load,random,structured_normal","2,3,1,2,4,2","4,3,1,2","false","","",""
"null","","html-keyboard-response","113","359986","0.0-113.0","3OLQQLKKNTBH7NXRSUD3SM69M3TEJU","A2YTO4EY3MNYAJ","3GVPRXWRPHGYHD0HW29VLS36FVC7I4","","<img src=""img/set1/S3.jpg"" width=""540"" height = ""360"">","null","","","","","","","","","",""
"null","","html-keyboard-response","114","360188","0.0-114.0","3OLQQLKKNTBH7NXRSUD3SM69M3TEJU","A2YTO4EY3MNYAJ","3GVPRXWRPHGYHD0HW29VLS36FVC7I4","","","null","","","","","","","","","",""
"406.69999998807907","","image-keyboard-response","115","360596","0.0-115.0","3OLQQLKKNTBH7NXRSUD3SM69M3TEJU","A2YTO4EY3MNYAJ","3GVPRXWRPHGYHD0HW29VLS36FVC7I4","","img/set1/S4.jpg","72","4","structured_incentive","74","structured_incentive,structured_load,random,structured_normal","2,3,1,2,4,2","4,3,1,2","false","","",""
"null","","html-keyboard-response","116","360950","0.0-116.0","3OLQQLKKNTBH7NXRSUD3SM69M3TEJU","A2YTO4EY3MNYAJ","3GVPRXWRPHGYHD0HW29VLS36FVC7I4","","<img src=""img/set1/S4.jpg"" width=""540"" height = ""360"">","null","","","","","","","","","",""
"null","","html-keyboard-response","117","361152","0.0-117.0","3OLQQLKKNTBH7NXRSUD3SM69M3TEJU","A2YTO4EY3MNYAJ","3GVPRXWRPHGYHD0HW29VLS36FVC7I4","","","null","","","","","","","","","",""
"689.1999999880791","","image-keyboard-response","118","361843","0.0-118.0","3OLQQLKKNTBH7NXRSUD3SM69M3TEJU","A2YTO4EY3MNYAJ","3GVPRXWRPHGYHD0HW29VLS36FVC7I4","","img/set1/S3.jpg","72","3","structured_incentive","72","structured_incentive,structured_load,random,structured_normal","2,3,1,2,4,2","4,3,1,2","true","","",""
"null","","html-keyboard-response","119","362197","0.0-119.0","3OLQQLKKNTBH7NXRSUD3SM69M3TEJU","A2YTO4EY3MNYAJ","3GVPRXWRPHGYHD0HW29VLS36FVC7I4","","<img src=""img/set1/S3.jpg"" width=""540"" height = ""360"" style=""border:16px solid orange"">","null","","","","","","","","","",""
"null","","html-keyboard-response","120","362398","0.0-120.0","3OLQQLKKNTBH7NXRSUD3SM69M3TEJU","A2YTO4EY3MNYAJ","3GVPRXWRPHGYHD0HW29VLS36FVC7I4","","","null","","","","","","","","","",""
"637.6000000238419","","image-keyboard-response","121","363038","0.0-121.0","3OLQQLKKNTBH7NXRSUD3SM69M3TEJU","A2YTO4EY3MNYAJ","3GVPRXWRPHGYHD0HW29VLS36FVC7I4","","img/set1/S4.jpg","74","4","structured_incentive","74","structured_incentive,structured_load,random,structured_normal","2,3,1,2,4,2","4,3,1,2","true","","",""
"null","","html-keyboard-response","122","363391","0.0-122.0","3OLQQLKKNTBH7NXRSUD3SM69M3TEJU","A2YTO4EY3MNYAJ","3GVPRXWRPHGYHD0HW29VLS36FVC7I4","","<img src=""img/set1/S4.jpg"" width=""540"" height = ""360"" style=""border:16px solid Violet"">","null","","","","","","","","","",""
"null","","html-keyboard-response","123","363593","0.0-123.0","3OLQQLKKNTBH7NXRSUD3SM69M3TEJU","A2YTO4EY3MNYAJ","3GVPRXWRPHGYHD0HW29VLS36FVC7I4","","","null","","","","","","","","","",""
"564.8999999761581","","image-keyboard-response","124","364160","0.0-124.0","3OLQQLKKNTBH7NXRSUD3SM69M3TEJU","A2YTO4EY3MNYAJ","3GVPRXWRPHGYHD0HW29VLS36FVC7I4","","img/set1/S4.jpg","74","4","structured_incentive","74","structured_incentive,structured_load,random,structured_normal","2,3,1,2,4,2","4,3,1,2","true","","",""
"null","","html-keyboard-response","125","364513","0.0-125.0","3OLQQLKKNTBH7NXRSUD3SM69M3TEJU","A2YTO4EY3MNYAJ","3GVPRXWRPHGYHD0HW29VLS36FVC7I4","","<img src=""img/set1/S4.jpg"" width=""540"" height = ""360"" style=""border:16px solid Violet"">","null","","","","","","","","","",""
"null","","html-keyboard-response","126","364715","0.0-126.0","3OLQQLKKNTBH7NXRSUD3SM69M3TEJU","A2YTO4EY3MNYAJ","3GVPRXWRPHGYHD0HW29VLS36FVC7I4","","","null","","","","","","","","","",""
"736.6999999880791","","image-keyboard-response","127","365454","0.0-127.0","3OLQQLKKNTBH7NXRSUD3SM69M3TEJU","A2YTO4EY3MNYAJ","3GVPRXWRPHGYHD0HW29VLS36FVC7I4","","img/set1/S1.jpg","83","1","structured_incentive","83","structured_incentive,structured_load,random,structured_normal","2,3,1,2,4,2","4,3,1,2","true","","",""
"null","","html-keyboard-response","128","365807","0.0-128.0","3OLQQLKKNTBH7NXRSUD3SM69M3TEJU","A2YTO4EY3MNYAJ","3GVPRXWRPHGYHD0HW29VLS36FVC7I4","","<img src=""img/set1/S1.jpg"" width=""540"" height = ""360"" style=""border:16px solid orange"">","null","","","","","","","","","",""
"null","","html-keyboard-response","129","366009","0.0-129.0","3OLQQLKKNTBH7NXRSUD3SM69M3TEJU","A2YTO4EY3MNYAJ","3GVPRXWRPHGYHD0HW29VLS36FVC7I4","","","null","","","","","","","","","",""
"562.2000000476837","","image-keyboard-response","130","366573","0.0-130.0","3OLQQLKKNTBH7NXRSUD3SM69M3TEJU","A2YTO4EY3MNYAJ","3GVPRXWRPHGYHD0HW29VLS36FVC7I4","","img/set1/S1.jpg","83","1","structured_incentive","83","structured_incentive,structured_load,random,structured_normal","2,3,1,2,4,2","4,3,1,2","true","","",""
"null","","html-keyboard-response","131","366926","0.0-131.0","3OLQQLKKNTBH7NXRSUD3SM69M3TEJU","A2YTO4EY3MNYAJ","3GVPRXWRPHGYHD0HW29VLS36FVC7I4","","<img src=""img/set1/S1.jpg"" width=""540"" height = ""360"" style=""border:16px solid orange"">","null","","","","","","","","","",""
"null","","html-keyboard-response","132","367128","0.0-132.0","3OLQQLKKNTBH7NXRSUD3SM69M3TEJU","A2YTO4EY3MNYAJ","3GVPRXWRPHGYHD0HW29VLS36FVC7I4","","","null","","","","","","","","","",""
"722.3999999761581","","image-keyboard-response","133","367852","0.0-133.0","3OLQQLKKNTBH7NXRSUD3SM69M3TEJU","A2YTO4EY3MNYAJ","3GVPRXWRPHGYHD0HW29VLS36FVC7I4","","img/set1/S4.jpg","74","4","structured_incentive","74","structured_incentive,structured_load,random,structured_normal","2,3,1,2,4,2","4,3,1,2","true","","",""
"null","","html-keyboard-response","134","368206","0.0-134.0","3OLQQLKKNTBH7NXRSUD3SM69M3TEJU","A2YTO4EY3MNYAJ","3GVPRXWRPHGYHD0HW29VLS36FVC7I4","","<img src=""img/set1/S4.jpg"" width=""540"" height = ""360"" style=""border:16px solid Violet"">","null","","","","","","","","","",""
"null","","html-keyboard-response","135","368407","0.0-135.0","3OLQQLKKNTBH7NXRSUD3SM69M3TEJU","A2YTO4EY3MNYAJ","3GVPRXWRPHGYHD0HW29VLS36FVC7I4","","","null","","","","","","","","","",""
"582.5","","image-keyboard-response","136","368992","0.0-136.0","3OLQQLKKNTBH7NXRSUD3SM69M3TEJU","A2YTO4EY3MNYAJ","3GVPRXWRPHGYHD0HW29VLS36FVC7I4","","img/set1/S1.jpg","68","1","structured_incentive","83","structured_incentive,structured_load,random,structured_normal","2,3,1,2,4,2","4,3,1,2","false","","",""
"null","","html-keyboard-response","137","369345","0.0-137.0","3OLQQLKKNTBH7NXRSUD3SM69M3TEJU","A2YTO4EY3MNYAJ","3GVPRXWRPHGYHD0HW29VLS36FVC7I4","","<img src=""img/set1/S1.jpg"" width=""540"" height = ""360"">","null","","","","","","","","","",""
"null","","html-keyboard-response","138","369548","0.0-138.0","3OLQQLKKNTBH7NXRSUD3SM69M3TEJU","A2YTO4EY3MNYAJ","3GVPRXWRPHGYHD0HW29VLS36FVC7I4","","","null","","","","","","","","","",""
"824.9000000357628","","image-keyboard-response","139","370375","0.0-139.0","3OLQQLKKNTBH7NXRSUD3SM69M3TEJU","A2YTO4EY3MNYAJ","3GVPRXWRPHGYHD0HW29VLS36FVC7I4","","img/set1/S2.jpg","72","2","structured_incentive","68","structured_incentive,structured_load,random,structured_normal","2,3,1,2,4,2","4,3,1,2","false","","",""
"null","","html-keyboard-response","140","370731","0.0-140.0","3OLQQLKKNTBH7NXRSUD3SM69M3TEJU","A2YTO4EY3MNYAJ","3GVPRXWRPHGYHD0HW29VLS36FVC7I4","","<img src=""img/set1/S2.jpg"" width=""540"" height = ""360"">","null","","","","","","","","","",""
"null","","html-keyboard-response","141","370934","0.0-141.0","3OLQQLKKNTBH7NXRSUD3SM69M3TEJU","A2YTO4EY3MNYAJ","3GVPRXWRPHGYHD0HW29VLS36FVC7I4","","","null","","","","","","","","","",""
"1504","","image-keyboard-response","142","372440","0.0-142.0","3OLQQLKKNTBH7NXRSUD3SM69M3TEJU","A2YTO4EY3MNYAJ","3GVPRXWRPHGYHD0HW29VLS36FVC7I4","","img/set1/S3.jpg","72","3","structured_incentive","72","structured_incentive,structured_load,random,structured_normal","2,3,1,2,4,2","4,3,1,2","true","","",""
"null","","html-keyboard-response","143","372794","0.0-143.0","3OLQQLKKNTBH7NXRSUD3SM69M3TEJU","A2YTO4EY3MNYAJ","3GVPRXWRPHGYHD0HW29VLS36FVC7I4","","<img src=""img/set1/S3.jpg"" width=""540"" height = ""360"" style=""border:16px solid orange"">","null","","","","","","","","","",""
"null","","html-keyboard-response","144","372995","0.0-144.0","3OLQQLKKNTBH7NXRSUD3SM69M3TEJU","A2YTO4EY3MNYAJ","3GVPRXWRPHGYHD0HW29VLS36FVC7I4","","","null","","","","","","","","","",""
"886.8000000119209","","image-keyboard-response","145","373884","0.0-145.0","3OLQQLKKNTBH7NXRSUD3SM69M3TEJU","A2YTO4EY3MNYAJ","3GVPRXWRPHGYHD0HW29VLS36FVC7I4","","img/set1/S2.jpg","68","2","structured_incentive","68","structured_incentive,structured_load,random,structured_normal","2,3,1,2,4,2","4,3,1,2","true","","",""
"null","","html-keyboard-response","146","374237","0.0-146.0","3OLQQLKKNTBH7NXRSUD3SM69M3TEJU","A2YTO4EY3MNYAJ","3GVPRXWRPHGYHD0HW29VLS36FVC7I4","","<img src=""img/set1/S2.jpg"" width=""540"" height = ""360"" style=""border:16px solid orange"">","null","","","","","","","","","",""
"null","","html-keyboard-response","147","374439","0.0-147.0","3OLQQLKKNTBH7NXRSUD3SM69M3TEJU","A2YTO4EY3MNYAJ","3GVPRXWRPHGYHD0HW29VLS36FVC7I4","","","null","","","","","","","","","",""
"836.3000000119209","","image-keyboard-response","148","375277","0.0-148.0","3OLQQLKKNTBH7NXRSUD3SM69M3TEJU","A2YTO4EY3MNYAJ","3GVPRXWRPHGYHD0HW29VLS36FVC7I4","","img/set1/S3.jpg","72","3","structured_incentive","72","structured_incentive,structured_load,random,structured_normal","2,3,1,2,4,2","4,3,1,2","true","","",""
"null","","html-keyboard-response","149","375630","0.0-149.0","3OLQQLKKNTBH7NXRSUD3SM69M3TEJU","A2YTO4EY3MNYAJ","3GVPRXWRPHGYHD0HW29VLS36FVC7I4","","<img src=""img/set1/S3.jpg"" width=""540"" height = ""360"" style=""border:16px solid orange"">","null","","","","","","","","","",""
"null","","html-keyboard-response","150","375833","0.0-150.0","3OLQQLKKNTBH7NXRSUD3SM69M3TEJU","A2YTO4EY3MNYAJ","3GVPRXWRPHGYHD0HW29VLS36FVC7I4","","","null","","","","","","","","","",""
"473.5","","image-keyboard-response","151","376309","0.0-151.0","3OLQQLKKNTBH7NXRSUD3SM69M3TEJU","A2YTO4EY3MNYAJ","3GVPRXWRPHGYHD0HW29VLS36FVC7I4","","img/set1/S2.jpg","68","2","structured_incentive","68","structured_incentive,structured_load,random,structured_normal","2,3,1,2,4,2","4,3,1,2","true","","",""
"null","","html-keyboard-response","152","376662","0.0-152.0","3OLQQLKKNTBH7NXRSUD3SM69M3TEJU","A2YTO4EY3MNYAJ","3GVPRXWRPHGYHD0HW29VLS36FVC7I4","","<img src=""img/set1/S2.jpg"" width=""540"" height = ""360"" style=""border:16px solid orange"">","null","","","","","","","","","",""
"null","","html-keyboard-response","153","376870","0.0-153.0","3OLQQLKKNTBH7NXRSUD3SM69M3TEJU","A2YTO4EY3MNYAJ","3GVPRXWRPHGYHD0HW29VLS36FVC7I4","","","null","","","","","","","","","",""
"531.8999999761581","","image-keyboard-response","154","377403","0.0-154.0","3OLQQLKKNTBH7NXRSUD3SM69M3TEJU","A2YTO4EY3MNYAJ","3GVPRXWRPHGYHD0HW29VLS36FVC7I4","","img/set1/S4.jpg","74","4","structured_incentive","74","structured_incentive,structured_load,random,structured_normal","2,3,1,2,4,2","4,3,1,2","true","","",""
"null","","html-keyboard-response","155","377759","0.0-155.0","3OLQQLKKNTBH7NXRSUD3SM69M3TEJU","A2YTO4EY3MNYAJ","3GVPRXWRPHGYHD0HW29VLS36FVC7I4","","<img src=""img/set1/S4.jpg"" width=""540"" height = ""360"" style=""border:16px solid Violet"">","null","","","","","","","","","",""
"null","","html-keyboard-response","156","377963","0.0-156.0","3OLQQLKKNTBH7NXRSUD3SM69M3TEJU","A2YTO4EY3MNYAJ","3GVPRXWRPHGYHD0HW29VLS36FVC7I4","","","null","","","","","","","","","",""
"555.3999999761581","","image-keyboard-response","157","378521","0.0-157.0","3OLQQLKKNTBH7NXRSUD3SM69M3TEJU","A2YTO4EY3MNYAJ","3GVPRXWRPHGYHD0HW29VLS36FVC7I4","","img/set1/S1.jpg","83","1","structured_incentive","83","structured_incentive,structured_load,random,structured_normal","2,3,1,2,4,2","4,3,1,2","true","","",""
"null","","html-keyboard-response","158","378874","0.0-158.0","3OLQQLKKNTBH7NXRSUD3SM69M3TEJU","A2YTO4EY3MNYAJ","3GVPRXWRPHGYHD0HW29VLS36FVC7I4","","<img src=""img/set1/S1.jpg"" width=""540"" height = ""360"" style=""border:16px solid orange"">","null","","","","","","","","","",""
"null","","html-keyboard-response","159","379077","0.0-159.0","3OLQQLKKNTBH7NXRSUD3SM69M3TEJU","A2YTO4EY3MNYAJ","3GVPRXWRPHGYHD0HW29VLS36FVC7I4","","","null","","","","","","","","","",""
"800.8000000119209","","image-keyboard-response","160","379880","0.0-160.0","3OLQQLKKNTBH7NXRSUD3SM69M3TEJU","A2YTO4EY3MNYAJ","3GVPRXWRPHGYHD0HW29VLS36FVC7I4","","img/set1/S4.jpg","74","4","structured_incentive","74","structured_incentive,structured_load,random,structured_normal","2,3,1,2,4,2","4,3,1,2","true","","",""
"null","","html-keyboard-response","161","380243","0.0-161.0","3OLQQLKKNTBH7NXRSUD3SM69M3TEJU","A2YTO4EY3MNYAJ","3GVPRXWRPHGYHD0HW29VLS36FVC7I4","","<img src=""img/set1/S4.jpg"" width=""540"" height = ""360"" style=""border:16px solid Violet"">","null","","","","","","","","","",""
"null","","html-keyboard-response","162","380444","0.0-162.0","3OLQQLKKNTBH7NXRSUD3SM69M3TEJU","A2YTO4EY3MNYAJ","3GVPRXWRPHGYHD0HW29VLS36FVC7I4","","","null","","","","","","","","","",""
"550.6999999880791","","image-keyboard-response","163","380997","0.0-163.0","3OLQQLKKNTBH7NXRSUD3SM69M3TEJU","A2YTO4EY3MNYAJ","3GVPRXWRPHGYHD0HW29VLS36FVC7I4","","img/set1/S1.jpg","83","1","structured_incentive","83","structured_incentive,structured_load,random,structured_normal","2,3,1,2,4,2","4,3,1,2","true","","",""
"null","","html-keyboard-response","164","381350","0.0-164.0","3OLQQLKKNTBH7NXRSUD3SM69M3TEJU","A2YTO4EY3MNYAJ","3GVPRXWRPHGYHD0HW29VLS36FVC7I4","","<img src=""img/set1/S1.jpg"" width=""540"" height = ""360"" style=""border:16px solid orange"">","null","","","","","","","","","",""
"null","","html-keyboard-response","165","381552","0.0-165.0","3OLQQLKKNTBH7NXRSUD3SM69M3TEJU","A2YTO4EY3MNYAJ","3GVPRXWRPHGYHD0HW29VLS36FVC7I4","","","null","","","","","","","","","",""
"661","","image-keyboard-response","166","382215","0.0-166.0","3OLQQLKKNTBH7NXRSUD3SM69M3TEJU","A2YTO4EY3MNYAJ","3GVPRXWRPHGYHD0HW29VLS36FVC7I4","","img/set1/S4.jpg","74","4","structured_incentive","74","structured_incentive,structured_load,random,structured_normal","2,3,1,2,4,2","4,3,1,2","true","","",""
"null","","html-keyboard-response","167","382569","0.0-167.0","3OLQQLKKNTBH7NXRSUD3SM69M3TEJU","A2YTO4EY3MNYAJ","3GVPRXWRPHGYHD0HW29VLS36FVC7I4","","<img src=""img/set1/S4.jpg"" width=""540"" height = ""360"" style=""border:16px solid Violet"">","null","","","","","","","","","",""
"null","","html-keyboard-response","168","382771","0.0-168.0","3OLQQLKKNTBH7NXRSUD3SM69M3TEJU","A2YTO4EY3MNYAJ","3GVPRXWRPHGYHD0HW29VLS36FVC7I4","","","null","","","","","","","","","",""
"639.5","","image-keyboard-response","169","383412","0.0-169.0","3OLQQLKKNTBH7NXRSUD3SM69M3TEJU","A2YTO4EY3MNYAJ","3GVPRXWRPHGYHD0HW29VLS36FVC7I4","","img/set1/S2.jpg","72","2","structured_incentive","68","structured_incentive,structured_load,random,structured_normal","2,3,1,2,4,2","4,3,1,2","false","","",""
"null","","html-keyboard-response","170","383765","0.0-170.0","3OLQQLKKNTBH7NXRSUD3SM69M3TEJU","A2YTO4EY3MNYAJ","3GVPRXWRPHGYHD0HW29VLS36FVC7I4","","<img src=""img/set1/S2.jpg"" width=""540"" height = ""360"">","null","","","","","","","","","",""
"null","","html-keyboard-response","171","383967","0.0-171.0","3OLQQLKKNTBH7NXRSUD3SM69M3TEJU","A2YTO4EY3MNYAJ","3GVPRXWRPHGYHD0HW29VLS36FVC7I4","","","null","","","","","","","","","",""
"753.2000000476837","","image-keyboard-response","172","384722","0.0-172.0","3OLQQLKKNTBH7NXRSUD3SM69M3TEJU","A2YTO4EY3MNYAJ","3GVPRXWRPHGYHD0HW29VLS36FVC7I4","","img/set1/S3.jpg","68","3","structured_incentive","72","structured_incentive,structured_load,random,structured_normal","2,3,1,2,4,2","4,3,1,2","false","","",""
"null","","html-keyboard-response","173","385075","0.0-173.0","3OLQQLKKNTBH7NXRSUD3SM69M3TEJU","A2YTO4EY3MNYAJ","3GVPRXWRPHGYHD0HW29VLS36FVC7I4","","<img src=""img/set1/S3.jpg"" width=""540"" height = ""360"">","null","","","","","","","","","",""
"null","","html-keyboard-response","174","385278","0.0-174.0","3OLQQLKKNTBH7NXRSUD3SM69M3TEJU","A2YTO4EY3MNYAJ","3GVPRXWRPHGYHD0HW29VLS36FVC7I4","","","null","","","","","","","","","",""
"671.8000000119209","","image-keyboard-response","175","385951","0.0-175.0","3OLQQLKKNTBH7NXRSUD3SM69M3TEJU","A2YTO4EY3MNYAJ","3GVPRXWRPHGYHD0HW29VLS36FVC7I4","","img/set1/S4.jpg","74","4","structured_incentive","74","structured_incentive,structured_load,random,structured_normal","2,3,1,2,4,2","4,3,1,2","true","","",""
"null","","html-keyboard-response","176","386304","0.0-176.0","3OLQQLKKNTBH7NXRSUD3SM69M3TEJU","A2YTO4EY3MNYAJ","3GVPRXWRPHGYHD0HW29VLS36FVC7I4","","<img src=""img/set1/S4.jpg"" width=""540"" height = ""360"" style=""border:16px solid Violet"">","null","","","","","","","","","",""
"null","","html-keyboard-response","177","386506","0.0-177.0","3OLQQLKKNTBH7NXRSUD3SM69M3TEJU","A2YTO4EY3MNYAJ","3GVPRXWRPHGYHD0HW29VLS36FVC7I4","","","null","","","","","","","","","",""
"995.6999999880791","","image-keyboard-response","178","387504","0.0-178.0","3OLQQLKKNTBH7NXRSUD3SM69M3TEJU","A2YTO4EY3MNYAJ","3GVPRXWRPHGYHD0HW29VLS36FVC7I4","","img/set1/S2.jpg","68","2","structured_incentive","68","structured_incentive,structured_load,random,structured_normal","2,3,1,2,4,2","4,3,1,2","true","","",""
"null","","html-keyboard-response","179","387857","0.0-179.0","3OLQQLKKNTBH7NXRSUD3SM69M3TEJU","A2YTO4EY3MNYAJ","3GVPRXWRPHGYHD0HW29VLS36FVC7I4","","<img src=""img/set1/S2.jpg"" width=""540"" height = ""360"" style=""border:16px solid orange"">","null","","","","","","","","","",""
"null","","html-keyboard-response","180","388059","0.0-180.0","3OLQQLKKNTBH7NXRSUD3SM69M3TEJU","A2YTO4EY3MNYAJ","3GVPRXWRPHGYHD0HW29VLS36FVC7I4","","","null","","","","","","","","","",""
"607","","image-keyboard-response","181","388668","0.0-181.0","3OLQQLKKNTBH7NXRSUD3SM69M3TEJU","A2YTO4EY3MNYAJ","3GVPRXWRPHGYHD0HW29VLS36FVC7I4","","img/set1/S3.jpg","72","3","structured_incentive","72","structured_incentive,structured_load,random,structured_normal","2,3,1,2,4,2","4,3,1,2","true","","",""
"null","","html-keyboard-response","182","389020","0.0-182.0","3OLQQLKKNTBH7NXRSUD3SM69M3TEJU","A2YTO4EY3MNYAJ","3GVPRXWRPHGYHD0HW29VLS36FVC7I4","","<img src=""img/set1/S3.jpg"" width=""540"" height = ""360"" style=""border:16px solid orange"">","null","","","","","","","","","",""
"null","","html-keyboard-response","183","389223","0.0-183.0","3OLQQLKKNTBH7NXRSUD3SM69M3TEJU","A2YTO4EY3MNYAJ","3GVPRXWRPHGYHD0HW29VLS36FVC7I4","","","null","","","","","","","","","",""
"892.3000000119209","","image-keyboard-response","184","390117","0.0-184.0","3OLQQLKKNTBH7NXRSUD3SM69M3TEJU","A2YTO4EY3MNYAJ","3GVPRXWRPHGYHD0HW29VLS36FVC7I4","","img/set1/S2.jpg","68","2","structured_incentive","68","structured_incentive,structured_load,random,structured_normal","2,3,1,2,4,2","4,3,1,2","true","","",""
"null","","html-keyboard-response","185","390471","0.0-185.0","3OLQQLKKNTBH7NXRSUD3SM69M3TEJU","A2YTO4EY3MNYAJ","3GVPRXWRPHGYHD0HW29VLS36FVC7I4","","<img src=""img/set1/S2.jpg"" width=""540"" height = ""360"" style=""border:16px solid orange"">","null","","","","","","","","","",""
"null","","html-keyboard-response","186","390673","0.0-186.0","3OLQQLKKNTBH7NXRSUD3SM69M3TEJU","A2YTO4EY3MNYAJ","3GVPRXWRPHGYHD0HW29VLS36FVC7I4","","","null","","","","","","","","","",""
"513.6000000238419","","image-keyboard-response","187","391188","0.0-187.0","3OLQQLKKNTBH7NXRSUD3SM69M3TEJU","A2YTO4EY3MNYAJ","3GVPRXWRPHGYHD0HW29VLS36FVC7I4","","img/set1/S3.jpg","72","3","structured_incentive","72","structured_incentive,structured_load,random,structured_normal","2,3,1,2,4,2","4,3,1,2","true","","",""
"null","","html-keyboard-response","188","391542","0.0-188.0","3OLQQLKKNTBH7NXRSUD3SM69M3TEJU","A2YTO4EY3MNYAJ","3GVPRXWRPHGYHD0HW29VLS36FVC7I4","","<img src=""img/set1/S3.jpg"" width=""540"" height = ""360"" style=""border:16px solid orange"">","null","","","","","","","","","",""
"null","","html-keyboard-response","189","391745","0.0-189.0","3OLQQLKKNTBH7NXRSUD3SM69M3TEJU","A2YTO4EY3MNYAJ","3GVPRXWRPHGYHD0HW29VLS36FVC7I4","","","null","","","","","","","","","",""
"646.2000000476837","","image-keyboard-response","190","392393","0.0-190.0","3OLQQLKKNTBH7NXRSUD3SM69M3TEJU","A2YTO4EY3MNYAJ","3GVPRXWRPHGYHD0HW29VLS36FVC7I4","","img/set1/S4.jpg","74","4","structured_incentive","74","structured_incentive,structured_load,random,structured_normal","2,3,1,2,4,2","4,3,1,2","true","","",""
"null","","html-keyboard-response","191","392745","0.0-191.0","3OLQQLKKNTBH7NXRSUD3SM69M3TEJU","A2YTO4EY3MNYAJ","3GVPRXWRPHGYHD0HW29VLS36FVC7I4","","<img src=""img/set1/S4.jpg"" width=""540"" height = ""360"" style=""border:16px solid Violet"">","null","","","","","","","","","",""
"null","","html-keyboard-response","192","392949","0.0-192.0","3OLQQLKKNTBH7NXRSUD3SM69M3TEJU","A2YTO4EY3MNYAJ","3GVPRXWRPHGYHD0HW29VLS36FVC7I4","","","null","","","","","","","","","",""
"958.8000000119209","","image-keyboard-response","193","393909","0.0-193.0","3OLQQLKKNTBH7NXRSUD3SM69M3TEJU","A2YTO4EY3MNYAJ","3GVPRXWRPHGYHD0HW29VLS36FVC7I4","","img/set1/S2.jpg","68","2","structured_incentive","68","structured_incentive,structured_load,random,structured_normal","2,3,1,2,4,2","4,3,1,2","true","","",""
"null","","html-keyboard-response","194","394262","0.0-194.0","3OLQQLKKNTBH7NXRSUD3SM69M3TEJU","A2YTO4EY3MNYAJ","3GVPRXWRPHGYHD0HW29VLS36FVC7I4","","<img src=""img/set1/S2.jpg"" width=""540"" height = ""360"" style=""border:16px solid orange"">","null","","","","","","","","","",""
"null","","html-keyboard-response","195","394465","0.0-195.0","3OLQQLKKNTBH7NXRSUD3SM69M3TEJU","A2YTO4EY3MNYAJ","3GVPRXWRPHGYHD0HW29VLS36FVC7I4","","","null","","","","","","","","","",""
"616.9000000357628","","image-keyboard-response","196","395083","0.0-196.0","3OLQQLKKNTBH7NXRSUD3SM69M3TEJU","A2YTO4EY3MNYAJ","3GVPRXWRPHGYHD0HW29VLS36FVC7I4","","img/set1/S3.jpg","72","3","structured_incentive","72","structured_incentive,structured_load,random,structured_normal","2,3,1,2,4,2","4,3,1,2","true","","",""
"null","","html-keyboard-response","197","395436","0.0-197.0","3OLQQLKKNTBH7NXRSUD3SM69M3TEJU","A2YTO4EY3MNYAJ","3GVPRXWRPHGYHD0HW29VLS36FVC7I4","","<img src=""img/set1/S3.jpg"" width=""540"" height = ""360"" style=""border:16px solid orange"">","null","","","","","","","","","",""
"null","","html-keyboard-response","198","395638","0.0-198.0","3OLQQLKKNTBH7NXRSUD3SM69M3TEJU","A2YTO4EY3MNYAJ","3GVPRXWRPHGYHD0HW29VLS36FVC7I4","","","null","","","","","","","","","",""
"548.8000000119209","","image-keyboard-response","199","396189","0.0-199.0","3OLQQLKKNTBH7NXRSUD3SM69M3TEJU","A2YTO4EY3MNYAJ","3GVPRXWRPHGYHD0HW29VLS36FVC7I4","","img/set1/S1.jpg","83","1","structured_incentive","83","structured_incentive,structured_load,random,structured_normal","2,3,1,2,4,2","4,3,1,2","true","","",""
"null","","html-keyboard-response","200","396542","0.0-200.0","3OLQQLKKNTBH7NXRSUD3SM69M3TEJU","A2YTO4EY3MNYAJ","3GVPRXWRPHGYHD0HW29VLS36FVC7I4","","<img src=""img/set1/S1.jpg"" width=""540"" height = ""360"" style=""border:16px solid orange"">","null","","","","","","","","","",""
"null","","html-keyboard-response","201","396753","0.0-201.0","3OLQQLKKNTBH7NXRSUD3SM69M3TEJU","A2YTO4EY3MNYAJ","3GVPRXWRPHGYHD0HW29VLS36FVC7I4","","","null","","","","","","","","","",""
"942.1999999880791","","image-keyboard-response","202","397697","0.0-202.0","3OLQQLKKNTBH7NXRSUD3SM69M3TEJU","A2YTO4EY3MNYAJ","3GVPRXWRPHGYHD0HW29VLS36FVC7I4","","img/set1/S2.jpg","68","2","structured_incentive","68","structured_incentive,structured_load,random,structured_normal","2,3,1,2,4,2","4,3,1,2","true","","",""
"null","","html-keyboard-response","203","398050","0.0-203.0","3OLQQLKKNTBH7NXRSUD3SM69M3TEJU","A2YTO4EY3MNYAJ","3GVPRXWRPHGYHD0HW29VLS36FVC7I4","","<img src=""img/set1/S2.jpg"" width=""540"" height = ""360"" style=""border:16px solid orange"">","null","","","","","","","","","",""
"null","","html-keyboard-response","204","398252","0.0-204.0","3OLQQLKKNTBH7NXRSUD3SM69M3TEJU","A2YTO4EY3MNYAJ","3GVPRXWRPHGYHD0HW29VLS36FVC7I4","","","null","","","","","","","","","",""
"599.6999999880791","","image-keyboard-response","205","398853","0.0-205.0","3OLQQLKKNTBH7NXRSUD3SM69M3TEJU","A2YTO4EY3MNYAJ","3GVPRXWRPHGYHD0HW29VLS36FVC7I4","","img/set1/S3.jpg","72","3","structured_incentive","72","structured_incentive,structured_load,random,structured_normal","2,3,1,2,4,2","4,3,1,2","true","","",""
"null","","html-keyboard-response","206","399206","0.0-206.0","3OLQQLKKNTBH7NXRSUD3SM69M3TEJU","A2YTO4EY3MNYAJ","3GVPRXWRPHGYHD0HW29VLS36FVC7I4","","<img src=""img/set1/S3.jpg"" width=""540"" height = ""360"" style=""border:16px solid orange"">","null","","","","","","","","","",""
"null","","html-keyboard-response","207","399409","0.0-207.0","3OLQQLKKNTBH7NXRSUD3SM69M3TEJU","A2YTO4EY3MNYAJ","3GVPRXWRPHGYHD0HW29VLS36FVC7I4","","","null","","","","","","","","","",""
"720.6999999880791","","image-keyboard-response","208","400131","0.0-208.0","3OLQQLKKNTBH7NXRSUD3SM69M3TEJU","A2YTO4EY3MNYAJ","3GVPRXWRPHGYHD0HW29VLS36FVC7I4","","img/set1/S4.jpg","74","4","structured_incentive","74","structured_incentive,structured_load,random,structured_normal","2,3,1,2,4,2","4,3,1,2","true","","",""
"null","","html-keyboard-response","209","400494","0.0-209.0","3OLQQLKKNTBH7NXRSUD3SM69M3TEJU","A2YTO4EY3MNYAJ","3GVPRXWRPHGYHD0HW29VLS36FVC7I4","","<img src=""img/set1/S4.jpg"" width=""540"" height = ""360"" style=""border:16px solid Violet"">","null","","","","","","","","","",""
"null","","html-keyboard-response","210","400696","0.0-210.0","3OLQQLKKNTBH7NXRSUD3SM69M3TEJU","A2YTO4EY3MNYAJ","3GVPRXWRPHGYHD0HW29VLS36FVC7I4","","","null","","","","","","","","","",""
"923.8999999761581","","image-keyboard-response","211","401622","0.0-211.0","3OLQQLKKNTBH7NXRSUD3SM69M3TEJU","A2YTO4EY3MNYAJ","3GVPRXWRPHGYHD0HW29VLS36FVC7I4","","img/set1/S2.jpg","68","2","structured_incentive","68","structured_incentive,structured_load,random,structured_normal","2,3,1,2,4,2","4,3,1,2","true","","",""
"null","","html-keyboard-response","212","401976","0.0-212.0","3OLQQLKKNTBH7NXRSUD3SM69M3TEJU","A2YTO4EY3MNYAJ","3GVPRXWRPHGYHD0HW29VLS36FVC7I4","","<img src=""img/set1/S2.jpg"" width=""540"" height = ""360"" style=""border:16px solid orange"">","null","","","","","","","","","",""
"null","","html-keyboard-response","213","402178","0.0-213.0","3OLQQLKKNTBH7NXRSUD3SM69M3TEJU","A2YTO4EY3MNYAJ","3GVPRXWRPHGYHD0HW29VLS36FVC7I4","","","null","","","","","","","","","",""
"609.4000000357628","","image-keyboard-response","214","402790","0.0-214.0","3OLQQLKKNTBH7NXRSUD3SM69M3TEJU","A2YTO4EY3MNYAJ","3GVPRXWRPHGYHD0HW29VLS36FVC7I4","","img/set1/S3.jpg","72","3","structured_incentive","72","structured_incentive,structured_load,random,structured_normal","2,3,1,2,4,2","4,3,1,2","true","","",""
"null","","html-keyboard-response","215","403143","0.0-215.0","3OLQQLKKNTBH7NXRSUD3SM69M3TEJU","A2YTO4EY3MNYAJ","3GVPRXWRPHGYHD0HW29VLS36FVC7I4","","<img src=""img/set1/S3.jpg"" width=""540"" height = ""360"" style=""border:16px solid orange"">","null","","","","","","","","","",""
"null","","html-keyboard-response","216","403344","0.0-216.0","3OLQQLKKNTBH7NXRSUD3SM69M3TEJU","A2YTO4EY3MNYAJ","3GVPRXWRPHGYHD0HW29VLS36FVC7I4","","","null","","","","","","","","","",""
"611","","image-keyboard-response","217","403957","0.0-217.0","3OLQQLKKNTBH7NXRSUD3SM69M3TEJU","A2YTO4EY3MNYAJ","3GVPRXWRPHGYHD0HW29VLS36FVC7I4","","img/set1/S1.jpg","83","1","structured_incentive","83","structured_incentive,structured_load,random,structured_normal","2,3,1,2,4,2","4,3,1,2","true","","",""
"null","","html-keyboard-response","218","404310","0.0-218.0","3OLQQLKKNTBH7NXRSUD3SM69M3TEJU","A2YTO4EY3MNYAJ","3GVPRXWRPHGYHD0HW29VLS36FVC7I4","","<img src=""img/set1/S1.jpg"" width=""540"" height = ""360"" style=""border:16px solid orange"">","null","","","","","","","","","",""
"null","","html-keyboard-response","219","404512","0.0-219.0","3OLQQLKKNTBH7NXRSUD3SM69M3TEJU","A2YTO4EY3MNYAJ","3GVPRXWRPHGYHD0HW29VLS36FVC7I4","","","null","","","","","","","","","",""
"745.9000000357628","","image-keyboard-response","220","405260","0.0-220.0","3OLQQLKKNTBH7NXRSUD3SM69M3TEJU","A2YTO4EY3MNYAJ","3GVPRXWRPHGYHD0HW29VLS36FVC7I4","","img/set1/S2.jpg","68","2","structured_incentive","68","structured_incentive,structured_load,random,structured_normal","2,3,1,2,4,2","4,3,1,2","true","","",""
"null","","html-keyboard-response","221","405613","0.0-221.0","3OLQQLKKNTBH7NXRSUD3SM69M3TEJU","A2YTO4EY3MNYAJ","3GVPRXWRPHGYHD0HW29VLS36FVC7I4","","<img src=""img/set1/S2.jpg"" width=""540"" height = ""360"" style=""border:16px solid orange"">","null","","","","","","","","","",""
"null","","html-keyboard-response","222","405815","0.0-222.0","3OLQQLKKNTBH7NXRSUD3SM69M3TEJU","A2YTO4EY3MNYAJ","3GVPRXWRPHGYHD0HW29VLS36FVC7I4","","","null","","","","","","","","","",""
"427.19999998807907","","image-keyboard-response","223","406244","0.0-223.0","3OLQQLKKNTBH7NXRSUD3SM69M3TEJU","A2YTO4EY3MNYAJ","3GVPRXWRPHGYHD0HW29VLS36FVC7I4","","img/set1/S3.jpg","72","3","structured_incentive","72","structured_incentive,structured_load,random,structured_normal","2,3,1,2,4,2","4,3,1,2","true","","",""
"null","","html-keyboard-response","224","406598","0.0-224.0","3OLQQLKKNTBH7NXRSUD3SM69M3TEJU","A2YTO4EY3MNYAJ","3GVPRXWRPHGYHD0HW29VLS36FVC7I4","","<img src=""img/set1/S3.jpg"" width=""540"" height = ""360"" style=""border:16px solid orange"">","null","","","","","","","","","",""
"null","","html-keyboard-response","225","406801","0.0-225.0","3OLQQLKKNTBH7NXRSUD3SM69M3TEJU","A2YTO4EY3MNYAJ","3GVPRXWRPHGYHD0HW29VLS36FVC7I4","","","null","","","","","","","","","",""
"520.8000000119209","","image-keyboard-response","226","407323","0.0-226.0","3OLQQLKKNTBH7NXRSUD3SM69M3TEJU","A2YTO4EY3MNYAJ","3GVPRXWRPHGYHD0HW29VLS36FVC7I4","","img/set1/S1.jpg","83","1","structured_incentive","83","structured_incentive,structured_load,random,structured_normal","2,3,1,2,4,2","4,3,1,2","true","","",""
"null","","html-keyboard-response","227","407677","0.0-227.0","3OLQQLKKNTBH7NXRSUD3SM69M3TEJU","A2YTO4EY3MNYAJ","3GVPRXWRPHGYHD0HW29VLS36FVC7I4","","<img src=""img/set1/S1.jpg"" width=""540"" height = ""360"" style=""border:16px solid orange"">","null","","","","","","","","","",""
"null","","html-keyboard-response","228","407880","0.0-228.0","3OLQQLKKNTBH7NXRSUD3SM69M3TEJU","A2YTO4EY3MNYAJ","3GVPRXWRPHGYHD0HW29VLS36FVC7I4","","","null","","","","","","","","","",""
"952.8999999761581","","image-keyboard-response","229","408835","0.0-229.0","3OLQQLKKNTBH7NXRSUD3SM69M3TEJU","A2YTO4EY3MNYAJ","3GVPRXWRPHGYHD0HW29VLS36FVC7I4","","img/set1/S2.jpg","68","2","structured_incentive","68","structured_incentive,structured_load,random,structured_normal","2,3,1,2,4,2","4,3,1,2","true","","",""
"null","","html-keyboard-response","230","409188","0.0-230.0","3OLQQLKKNTBH7NXRSUD3SM69M3TEJU","A2YTO4EY3MNYAJ","3GVPRXWRPHGYHD0HW29VLS36FVC7I4","","<img src=""img/set1/S2.jpg"" width=""540"" height = ""360"" style=""border:16px solid orange"">","null","","","","","","","","","",""
"null","","html-keyboard-response","231","409391","0.0-231.0","3OLQQLKKNTBH7NXRSUD3SM69M3TEJU","A2YTO4EY3MNYAJ","3GVPRXWRPHGYHD0HW29VLS36FVC7I4","","","null","","","","","","","","","",""
"557","","image-keyboard-response","232","409950","0.0-232.0","3OLQQLKKNTBH7NXRSUD3SM69M3TEJU","A2YTO4EY3MNYAJ","3GVPRXWRPHGYHD0HW29VLS36FVC7I4","","img/set1/S3.jpg","72","3","structured_incentive","72","structured_incentive,structured_load,random,structured_normal","2,3,1,2,4,2","4,3,1,2","true","","",""
"null","","html-keyboard-response","233","410302","0.0-233.0","3OLQQLKKNTBH7NXRSUD3SM69M3TEJU","A2YTO4EY3MNYAJ","3GVPRXWRPHGYHD0HW29VLS36FVC7I4","","<img src=""img/set1/S3.jpg"" width=""540"" height = ""360"" style=""border:16px solid orange"">","null","","","","","","","","","",""
"null","","html-keyboard-response","234","410504","0.0-234.0","3OLQQLKKNTBH7NXRSUD3SM69M3TEJU","A2YTO4EY3MNYAJ","3GVPRXWRPHGYHD0HW29VLS36FVC7I4","","","null","","","","","","","","","",""
"370.7000000476837","","image-keyboard-response","235","410877","0.0-235.0","3OLQQLKKNTBH7NXRSUD3SM69M3TEJU","A2YTO4EY3MNYAJ","3GVPRXWRPHGYHD0HW29VLS36FVC7I4","","img/set1/S1.jpg","83","1","structured_incentive","83","structured_incentive,structured_load,random,structured_normal","2,3,1,2,4,2","4,3,1,2","true","","",""
"null","","html-keyboard-response","236","411230","0.0-236.0","3OLQQLKKNTBH7NXRSUD3SM69M3TEJU","A2YTO4EY3MNYAJ","3GVPRXWRPHGYHD0HW29VLS36FVC7I4","","<img src=""img/set1/S1.jpg"" width=""540"" height = ""360"" style=""border:16px solid orange"">","null","","","","","","","","","",""
"null","","html-keyboard-response","237","411432","0.0-237.0","3OLQQLKKNTBH7NXRSUD3SM69M3TEJU","A2YTO4EY3MNYAJ","3GVPRXWRPHGYHD0HW29VLS36FVC7I4","","","null","","","","","","","","","",""
"909.2000000476837","","image-keyboard-response","238","412343","0.0-238.0","3OLQQLKKNTBH7NXRSUD3SM69M3TEJU","A2YTO4EY3MNYAJ","3GVPRXWRPHGYHD0HW29VLS36FVC7I4","","img/set1/S2.jpg","68","2","structured_incentive","68","structured_incentive,structured_load,random,structured_normal","2,3,1,2,4,2","4,3,1,2","true","","",""
"null","","html-keyboard-response","239","412696","0.0-239.0","3OLQQLKKNTBH7NXRSUD3SM69M3TEJU","A2YTO4EY3MNYAJ","3GVPRXWRPHGYHD0HW29VLS36FVC7I4","","<img src=""img/set1/S2.jpg"" width=""540"" height = ""360"" style=""border:16px solid orange"">","null","","","","","","","","","",""
"null","","html-keyboard-response","240","412898","0.0-240.0","3OLQQLKKNTBH7NXRSUD3SM69M3TEJU","A2YTO4EY3MNYAJ","3GVPRXWRPHGYHD0HW29VLS36FVC7I4","","","null","","","","","","","","","",""
"451.19999998807907","","image-keyboard-response","241","413351","0.0-241.0","3OLQQLKKNTBH7NXRSUD3SM69M3TEJU","A2YTO4EY3MNYAJ","3GVPRXWRPHGYHD0HW29VLS36FVC7I4","","img/set1/S3.jpg","72","3","structured_incentive","72","structured_incentive,structured_load,random,structured_normal","2,3,1,2,4,2","4,3,1,2","true","","",""
"null","","html-keyboard-response","242","413705","0.0-242.0","3OLQQLKKNTBH7NXRSUD3SM69M3TEJU","A2YTO4EY3MNYAJ","3GVPRXWRPHGYHD0HW29VLS36FVC7I4","","<img src=""img/set1/S3.jpg"" width=""540"" height = ""360"" style=""border:16px solid orange"">","null","","","","","","","","","",""
"null","","html-keyboard-response","243","413908","0.0-243.0","3OLQQLKKNTBH7NXRSUD3SM69M3TEJU","A2YTO4EY3MNYAJ","3GVPRXWRPHGYHD0HW29VLS36FVC7I4","","","null","","","","","","","","","",""
"419","","image-keyboard-response","244","414329","0.0-244.0","3OLQQLKKNTBH7NXRSUD3SM69M3TEJU","A2YTO4EY3MNYAJ","3GVPRXWRPHGYHD0HW29VLS36FVC7I4","","img/set1/S1.jpg","83","1","structured_incentive","83","structured_incentive,structured_load,random,structured_normal","2,3,1,2,4,2","4,3,1,2","true","","",""
"null","","html-keyboard-response","245","414688","0.0-245.0","3OLQQLKKNTBH7NXRSUD3SM69M3TEJU","A2YTO4EY3MNYAJ","3GVPRXWRPHGYHD0HW29VLS36FVC7I4","","<img src=""img/set1/S1.jpg"" width=""540"" height = ""360"" style=""border:16px solid orange"">","null","","","","","","","","","",""
"null","","html-keyboard-response","246","414890","0.0-246.0","3OLQQLKKNTBH7NXRSUD3SM69M3TEJU","A2YTO4EY3MNYAJ","3GVPRXWRPHGYHD0HW29VLS36FVC7I4","","","null","","","","","","","","","",""
"629.5999999642372","","image-keyboard-response","247","415522","0.0-247.0","3OLQQLKKNTBH7NXRSUD3SM69M3TEJU","A2YTO4EY3MNYAJ","3GVPRXWRPHGYHD0HW29VLS36FVC7I4","","img/set1/S1.jpg","83","1","structured_incentive","83","structured_incentive,structured_load,random,structured_normal","2,3,1,2,4,2","4,3,1,2","true","","",""
"null","","html-keyboard-response","248","415875","0.0-248.0","3OLQQLKKNTBH7NXRSUD3SM69M3TEJU","A2YTO4EY3MNYAJ","3GVPRXWRPHGYHD0HW29VLS36FVC7I4","","<img src=""img/set1/S1.jpg"" width=""540"" height = ""360"" style=""border:16px solid orange"">","null","","","","","","","","","",""
"null","","html-keyboard-response","249","416077","0.0-249.0","3OLQQLKKNTBH7NXRSUD3SM69M3TEJU","A2YTO4EY3MNYAJ","3GVPRXWRPHGYHD0HW29VLS36FVC7I4","","","null","","","","","","","","","",""
"644.8000000119209","","image-keyboard-response","250","416724","0.0-250.0","3OLQQLKKNTBH7NXRSUD3SM69M3TEJU","A2YTO4EY3MNYAJ","3GVPRXWRPHGYHD0HW29VLS36FVC7I4","","img/set1/S2.jpg","68","2","structured_incentive","68","structured_incentive,structured_load,random,structured_normal","2,3,1,2,4,2","4,3,1,2","true","","",""
"null","","html-keyboard-response","251","417077","0.0-251.0","3OLQQLKKNTBH7NXRSUD3SM69M3TEJU","A2YTO4EY3MNYAJ","3GVPRXWRPHGYHD0HW29VLS36FVC7I4","","<img src=""img/set1/S2.jpg"" width=""540"" height = ""360"" style=""border:16px solid orange"">","null","","","","","","","","","",""
"null","","html-keyboard-response","252","417280","0.0-252.0","3OLQQLKKNTBH7NXRSUD3SM69M3TEJU","A2YTO4EY3MNYAJ","3GVPRXWRPHGYHD0HW29VLS36FVC7I4","","","null","","","","","","","","","",""
"439.30000001192093","","image-keyboard-response","253","417721","0.0-253.0","3OLQQLKKNTBH7NXRSUD3SM69M3TEJU","A2YTO4EY3MNYAJ","3GVPRXWRPHGYHD0HW29VLS36FVC7I4","","img/set1/S3.jpg","72","3","structured_incentive","72","structured_incentive,structured_load,random,structured_normal","2,3,1,2,4,2","4,3,1,2","true","","",""
"null","","html-keyboard-response","254","418074","0.0-254.0","3OLQQLKKNTBH7NXRSUD3SM69M3TEJU","A2YTO4EY3MNYAJ","3GVPRXWRPHGYHD0HW29VLS36FVC7I4","","<img src=""img/set1/S3.jpg"" width=""540"" height = ""360"" style=""border:16px solid orange"">","null","","","","","","","","","",""
"null","","html-keyboard-response","255","418276","0.0-255.0","3OLQQLKKNTBH7NXRSUD3SM69M3TEJU","A2YTO4EY3MNYAJ","3GVPRXWRPHGYHD0HW29VLS36FVC7I4","","","null","","","","","","","","","",""
"452.39999997615814","","image-keyboard-response","256","418730","0.0-256.0","3OLQQLKKNTBH7NXRSUD3SM69M3TEJU","A2YTO4EY3MNYAJ","3GVPRXWRPHGYHD0HW29VLS36FVC7I4","","img/set1/S1.jpg","83","1","structured_incentive","83","structured_incentive,structured_load,random,structured_normal","2,3,1,2,4,2","4,3,1,2","true","","",""
"null","","html-keyboard-response","257","419084","0.0-257.0","3OLQQLKKNTBH7NXRSUD3SM69M3TEJU","A2YTO4EY3MNYAJ","3GVPRXWRPHGYHD0HW29VLS36FVC7I4","","<img src=""img/set1/S1.jpg"" width=""540"" height = ""360"" style=""border:16px solid orange"">","null","","","","","","","","","",""
"null","","html-keyboard-response","258","419286","0.0-258.0","3OLQQLKKNTBH7NXRSUD3SM69M3TEJU","A2YTO4EY3MNYAJ","3GVPRXWRPHGYHD0HW29VLS36FVC7I4","","","null","","","","","","","","","",""
"507.80000001192093","","image-keyboard-response","259","419796","0.0-259.0","3OLQQLKKNTBH7NXRSUD3SM69M3TEJU","A2YTO4EY3MNYAJ","3GVPRXWRPHGYHD0HW29VLS36FVC7I4","","img/set1/S2.jpg","68","2","structured_incentive","68","structured_incentive,structured_load,random,structured_normal","2,3,1,2,4,2","4,3,1,2","true","","",""
"null","","html-keyboard-response","260","420148","0.0-260.0","3OLQQLKKNTBH7NXRSUD3SM69M3TEJU","A2YTO4EY3MNYAJ","3GVPRXWRPHGYHD0HW29VLS36FVC7I4","","<img src=""img/set1/S2.jpg"" width=""540"" height = ""360"" style=""border:16px solid orange"">","null","","","","","","","","","",""
"null","","html-keyboard-response","261","420351","0.0-261.0","3OLQQLKKNTBH7NXRSUD3SM69M3TEJU","A2YTO4EY3MNYAJ","3GVPRXWRPHGYHD0HW29VLS36FVC7I4","","","null","","","","","","","","","",""
"351.60000002384186","","image-keyboard-response","262","420704","0.0-262.0","3OLQQLKKNTBH7NXRSUD3SM69M3TEJU","A2YTO4EY3MNYAJ","3GVPRXWRPHGYHD0HW29VLS36FVC7I4","","img/set1/S3.jpg","72","3","structured_incentive","72","structured_incentive,structured_load,random,structured_normal","2,3,1,2,4,2","4,3,1,2","true","","",""
"null","","html-keyboard-response","263","421058","0.0-263.0","3OLQQLKKNTBH7NXRSUD3SM69M3TEJU","A2YTO4EY3MNYAJ","3GVPRXWRPHGYHD0HW29VLS36FVC7I4","","<img src=""img/set1/S3.jpg"" width=""540"" height = ""360"" style=""border:16px solid orange"">","null","","","","","","","","","",""
"null","","html-keyboard-response","264","421261","0.0-264.0","3OLQQLKKNTBH7NXRSUD3SM69M3TEJU","A2YTO4EY3MNYAJ","3GVPRXWRPHGYHD0HW29VLS36FVC7I4","","","null","","","","","","","","","",""
"734.5","","image-keyboard-response","265","421997","0.0-265.0","3OLQQLKKNTBH7NXRSUD3SM69M3TEJU","A2YTO4EY3MNYAJ","3GVPRXWRPHGYHD0HW29VLS36FVC7I4","","img/set1/S4.jpg","74","4","structured_incentive","74","structured_incentive,structured_load,random,structured_normal","2,3,1,2,4,2","4,3,1,2","true","","",""
"null","","html-keyboard-response","266","422351","0.0-266.0","3OLQQLKKNTBH7NXRSUD3SM69M3TEJU","A2YTO4EY3MNYAJ","3GVPRXWRPHGYHD0HW29VLS36FVC7I4","","<img src=""img/set1/S4.jpg"" width=""540"" height = ""360"" style=""border:16px solid Violet"">","null","","","","","","","","","",""
"null","","html-keyboard-response","267","422553","0.0-267.0","3OLQQLKKNTBH7NXRSUD3SM69M3TEJU","A2YTO4EY3MNYAJ","3GVPRXWRPHGYHD0HW29VLS36FVC7I4","","","null","","","","","","","","","",""
"642.0999999642372","","image-keyboard-response","268","423197","0.0-268.0","3OLQQLKKNTBH7NXRSUD3SM69M3TEJU","A2YTO4EY3MNYAJ","3GVPRXWRPHGYHD0HW29VLS36FVC7I4","","img/set1/S1.jpg","83","1","structured_incentive","83","structured_incentive,structured_load,random,structured_normal","2,3,1,2,4,2","4,3,1,2","true","","",""
"null","","html-keyboard-response","269","423551","0.0-269.0","3OLQQLKKNTBH7NXRSUD3SM69M3TEJU","A2YTO4EY3MNYAJ","3GVPRXWRPHGYHD0HW29VLS36FVC7I4","","<img src=""img/set1/S1.jpg"" width=""540"" height = ""360"" style=""border:16px solid orange"">","null","","","","","","","","","",""
"null","","html-keyboard-response","270","423753","0.0-270.0","3OLQQLKKNTBH7NXRSUD3SM69M3TEJU","A2YTO4EY3MNYAJ","3GVPRXWRPHGYHD0HW29VLS36FVC7I4","","","null","","","","","","","","","",""
"868.8000000119209","","image-keyboard-response","271","424623","0.0-271.0","3OLQQLKKNTBH7NXRSUD3SM69M3TEJU","A2YTO4EY3MNYAJ","3GVPRXWRPHGYHD0HW29VLS36FVC7I4","","img/set1/S4.jpg","74","4","structured_incentive","74","structured_incentive,structured_load,random,structured_normal","2,3,1,2,4,2","4,3,1,2","true","","",""
"null","","html-keyboard-response","272","424986","0.0-272.0","3OLQQLKKNTBH7NXRSUD3SM69M3TEJU","A2YTO4EY3MNYAJ","3GVPRXWRPHGYHD0HW29VLS36FVC7I4","","<img src=""img/set1/S4.jpg"" width=""540"" height = ""360"" style=""border:16px solid Violet"">","null","","","","","","","","","",""
"null","","html-keyboard-response","273","425189","0.0-273.0","3OLQQLKKNTBH7NXRSUD3SM69M3TEJU","A2YTO4EY3MNYAJ","3GVPRXWRPHGYHD0HW29VLS36FVC7I4","","","null","","","","","","","","","",""
"721.6000000238419","","image-keyboard-response","274","425912","0.0-274.0","3OLQQLKKNTBH7NXRSUD3SM69M3TEJU","A2YTO4EY3MNYAJ","3GVPRXWRPHGYHD0HW29VLS36FVC7I4","","img/set1/S1.jpg","83","1","structured_incentive","83","structured_incentive,structured_load,random,structured_normal","2,3,1,2,4,2","4,3,1,2","true","","",""
"null","","html-keyboard-response","275","426265","0.0-275.0","3OLQQLKKNTBH7NXRSUD3SM69M3TEJU","A2YTO4EY3MNYAJ","3GVPRXWRPHGYHD0HW29VLS36FVC7I4","","<img src=""img/set1/S1.jpg"" width=""540"" height = ""360"" style=""border:16px solid orange"">","null","","","","","","","","","",""
"null","","html-keyboard-response","276","426467","0.0-276.0","3OLQQLKKNTBH7NXRSUD3SM69M3TEJU","A2YTO4EY3MNYAJ","3GVPRXWRPHGYHD0HW29VLS36FVC7I4","","","null","","","","","","","","","",""
"525.3000000119209","","image-keyboard-response","277","426994","0.0-277.0","3OLQQLKKNTBH7NXRSUD3SM69M3TEJU","A2YTO4EY3MNYAJ","3GVPRXWRPHGYHD0HW29VLS36FVC7I4","","img/set1/S1.jpg","83","1","structured_incentive","83","structured_incentive,structured_load,random,structured_normal","2,3,1,2,4,2","4,3,1,2","true","","",""
"null","","html-keyboard-response","278","427348","0.0-278.0","3OLQQLKKNTBH7NXRSUD3SM69M3TEJU","A2YTO4EY3MNYAJ","3GVPRXWRPHGYHD0HW29VLS36FVC7I4","","<img src=""img/set1/S1.jpg"" width=""540"" height = ""360"" style=""border:16px solid orange"">","null","","","","","","","","","",""
"null","","html-keyboard-response","279","427550","0.0-279.0","3OLQQLKKNTBH7NXRSUD3SM69M3TEJU","A2YTO4EY3MNYAJ","3GVPRXWRPHGYHD0HW29VLS36FVC7I4","","","null","","","","","","","","","",""
"1027.800000011921","","image-keyboard-response","280","428580","0.0-280.0","3OLQQLKKNTBH7NXRSUD3SM69M3TEJU","A2YTO4EY3MNYAJ","3GVPRXWRPHGYHD0HW29VLS36FVC7I4","","img/set1/S2.jpg","68","2","structured_incentive","68","structured_incentive,structured_load,random,structured_normal","2,3,1,2,4,2","4,3,1,2","true","","",""
"null","","html-keyboard-response","281","428933","0.0-281.0","3OLQQLKKNTBH7NXRSUD3SM69M3TEJU","A2YTO4EY3MNYAJ","3GVPRXWRPHGYHD0HW29VLS36FVC7I4","","<img src=""img/set1/S2.jpg"" width=""540"" height = ""360"" style=""border:16px solid orange"">","null","","","","","","","","","",""
"null","","html-keyboard-response","282","429136","0.0-282.0","3OLQQLKKNTBH7NXRSUD3SM69M3TEJU","A2YTO4EY3MNYAJ","3GVPRXWRPHGYHD0HW29VLS36FVC7I4","","","null","","","","","","","","","",""
"432.9000000357628","","image-keyboard-response","283","429571","0.0-283.0","3OLQQLKKNTBH7NXRSUD3SM69M3TEJU","A2YTO4EY3MNYAJ","3GVPRXWRPHGYHD0HW29VLS36FVC7I4","","img/set1/S3.jpg","72","3","structured_incentive","72","structured_incentive,structured_load,random,structured_normal","2,3,1,2,4,2","4,3,1,2","true","","",""
"null","","html-keyboard-response","284","429923","0.0-284.0","3OLQQLKKNTBH7NXRSUD3SM69M3TEJU","A2YTO4EY3MNYAJ","3GVPRXWRPHGYHD0HW29VLS36FVC7I4","","<img src=""img/set1/S3.jpg"" width=""540"" height = ""360"" style=""border:16px solid orange"">","null","","","","","","","","","",""
"null","","html-keyboard-response","285","430126","0.0-285.0","3OLQQLKKNTBH7NXRSUD3SM69M3TEJU","A2YTO4EY3MNYAJ","3GVPRXWRPHGYHD0HW29VLS36FVC7I4","","","null","","","","","","","","","",""
"531.3000000119209","","image-keyboard-response","286","430659","0.0-286.0","3OLQQLKKNTBH7NXRSUD3SM69M3TEJU","A2YTO4EY3MNYAJ","3GVPRXWRPHGYHD0HW29VLS36FVC7I4","","img/set1/S1.jpg","83","1","structured_incentive","83","structured_incentive,structured_load,random,structured_normal","2,3,1,2,4,2","4,3,1,2","true","","",""
"null","","html-keyboard-response","287","431011","0.0-287.0","3OLQQLKKNTBH7NXRSUD3SM69M3TEJU","A2YTO4EY3MNYAJ","3GVPRXWRPHGYHD0HW29VLS36FVC7I4","","<img src=""img/set1/S1.jpg"" width=""540"" height = ""360"" style=""border:16px solid orange"">","null","","","","","","","","","",""
"null","","html-keyboard-response","288","431215","0.0-288.0","3OLQQLKKNTBH7NXRSUD3SM69M3TEJU","A2YTO4EY3MNYAJ","3GVPRXWRPHGYHD0HW29VLS36FVC7I4","","","null","","","","","","","","","",""
"638.5","","image-keyboard-response","289","431855","0.0-289.0","3OLQQLKKNTBH7NXRSUD3SM69M3TEJU","A2YTO4EY3MNYAJ","3GVPRXWRPHGYHD0HW29VLS36FVC7I4","","img/set1/S4.jpg","74","4","structured_incentive","74","structured_incentive,structured_load,random,structured_normal","2,3,1,2,4,2","4,3,1,2","true","","",""
"null","","html-keyboard-response","290","432208","0.0-290.0","3OLQQLKKNTBH7NXRSUD3SM69M3TEJU","A2YTO4EY3MNYAJ","3GVPRXWRPHGYHD0HW29VLS36FVC7I4","","<img src=""img/set1/S4.jpg"" width=""540"" height = ""360"" style=""border:16px solid Violet"">","null","","","","","","","","","",""
"null","","html-keyboard-response","291","432410","0.0-291.0","3OLQQLKKNTBH7NXRSUD3SM69M3TEJU","A2YTO4EY3MNYAJ","3GVPRXWRPHGYHD0HW29VLS36FVC7I4","","","null","","","","","","","","","",""
"707.4000000357628","","image-keyboard-response","292","433120","0.0-292.0","3OLQQLKKNTBH7NXRSUD3SM69M3TEJU","A2YTO4EY3MNYAJ","3GVPRXWRPHGYHD0HW29VLS36FVC7I4","","img/set1/S2.jpg","68","2","structured_incentive","68","structured_incentive,structured_load,random,structured_normal","2,3,1,2,4,2","4,3,1,2","true","","",""
"null","","html-keyboard-response","293","433473","0.0-293.0","3OLQQLKKNTBH7NXRSUD3SM69M3TEJU","A2YTO4EY3MNYAJ","3GVPRXWRPHGYHD0HW29VLS36FVC7I4","","<img src=""img/set1/S2.jpg"" width=""540"" height = ""360"" style=""border:16px solid orange"">","null","","","","","","","","","",""
"null","","html-keyboard-response","294","433675","0.0-294.0","3OLQQLKKNTBH7NXRSUD3SM69M3TEJU","A2YTO4EY3MNYAJ","3GVPRXWRPHGYHD0HW29VLS36FVC7I4","","","null","","","","","","","","","",""
"409.9000000357628","","image-keyboard-response","295","434087","0.0-295.0","3OLQQLKKNTBH7NXRSUD3SM69M3TEJU","A2YTO4EY3MNYAJ","3GVPRXWRPHGYHD0HW29VLS36FVC7I4","","img/set1/S4.jpg","72","4","structured_incentive","74","structured_incentive,structured_load,random,structured_normal","2,3,1,2,4,2","4,3,1,2","false","","",""
"null","","html-keyboard-response","296","434440","0.0-296.0","3OLQQLKKNTBH7NXRSUD3SM69M3TEJU","A2YTO4EY3MNYAJ","3GVPRXWRPHGYHD0HW29VLS36FVC7I4","","<img src=""img/set1/S4.jpg"" width=""540"" height = ""360"">","null","","","","","","","","","",""
"null","","html-keyboard-response","297","434642","0.0-297.0","3OLQQLKKNTBH7NXRSUD3SM69M3TEJU","A2YTO4EY3MNYAJ","3GVPRXWRPHGYHD0HW29VLS36FVC7I4","","","null","","","","","","","","","",""
"852.0999999642372","","image-keyboard-response","298","435498","0.0-298.0","3OLQQLKKNTBH7NXRSUD3SM69M3TEJU","A2YTO4EY3MNYAJ","3GVPRXWRPHGYHD0HW29VLS36FVC7I4","","img/set1/S3.jpg","72","3","structured_incentive","72","structured_incentive,structured_load,random,structured_normal","2,3,1,2,4,2","4,3,1,2","true","","",""
"null","","html-keyboard-response","299","435851","0.0-299.0","3OLQQLKKNTBH7NXRSUD3SM69M3TEJU","A2YTO4EY3MNYAJ","3GVPRXWRPHGYHD0HW29VLS36FVC7I4","","<img src=""img/set1/S3.jpg"" width=""540"" height = ""360"" style=""border:16px solid orange"">","null","","","","","","","","","",""
"null","","html-keyboard-response","300","436052","0.0-300.0","3OLQQLKKNTBH7NXRSUD3SM69M3TEJU","A2YTO4EY3MNYAJ","3GVPRXWRPHGYHD0HW29VLS36FVC7I4","","","null","","","","","","","","","",""
"519.6999999880791","","image-keyboard-response","301","436573","0.0-301.0","3OLQQLKKNTBH7NXRSUD3SM69M3TEJU","A2YTO4EY3MNYAJ","3GVPRXWRPHGYHD0HW29VLS36FVC7I4","","img/set1/S1.jpg","83","1","structured_incentive","83","structured_incentive,structured_load,random,structured_normal","2,3,1,2,4,2","4,3,1,2","true","","",""
"null","","html-keyboard-response","302","436926","0.0-302.0","3OLQQLKKNTBH7NXRSUD3SM69M3TEJU","A2YTO4EY3MNYAJ","3GVPRXWRPHGYHD0HW29VLS36FVC7I4","","<img src=""img/set1/S1.jpg"" width=""540"" height = ""360"" style=""border:16px solid orange"">","null","","","","","","","","","",""
"null","","html-keyboard-response","303","437129","0.0-303.0","3OLQQLKKNTBH7NXRSUD3SM69M3TEJU","A2YTO4EY3MNYAJ","3GVPRXWRPHGYHD0HW29VLS36FVC7I4","","","null","","","","","","","","","",""
"625.9000000357628","","image-keyboard-response","304","437757","0.0-304.0","3OLQQLKKNTBH7NXRSUD3SM69M3TEJU","A2YTO4EY3MNYAJ","3GVPRXWRPHGYHD0HW29VLS36FVC7I4","","img/set1/S4.jpg","74","4","structured_incentive","74","structured_incentive,structured_load,random,structured_normal","2,3,1,2,4,2","4,3,1,2","true","","",""
"null","","html-keyboard-response","305","438110","0.0-305.0","3OLQQLKKNTBH7NXRSUD3SM69M3TEJU","A2YTO4EY3MNYAJ","3GVPRXWRPHGYHD0HW29VLS36FVC7I4","","<img src=""img/set1/S4.jpg"" width=""540"" height = ""360"" style=""border:16px solid Violet"">","null","","","","","","","","","",""
"null","","html-keyboard-response","306","438312","0.0-306.0","3OLQQLKKNTBH7NXRSUD3SM69M3TEJU","A2YTO4EY3MNYAJ","3GVPRXWRPHGYHD0HW29VLS36FVC7I4","","","null","","","","","","","","","",""
"564.8000000119209","","image-keyboard-response","307","438879","0.0-307.0","3OLQQLKKNTBH7NXRSUD3SM69M3TEJU","A2YTO4EY3MNYAJ","3GVPRXWRPHGYHD0HW29VLS36FVC7I4","","img/set1/S1.jpg","68","1","structured_incentive","83","structured_incentive,structured_load,random,structured_normal","2,3,1,2,4,2","4,3,1,2","false","","",""
"null","","html-keyboard-response","308","439232","0.0-308.0","3OLQQLKKNTBH7NXRSUD3SM69M3TEJU","A2YTO4EY3MNYAJ","3GVPRXWRPHGYHD0HW29VLS36FVC7I4","","<img src=""img/set1/S1.jpg"" width=""540"" height = ""360"">","null","","","","","","","","","",""
"null","","html-keyboard-response","309","439435","0.0-309.0","3OLQQLKKNTBH7NXRSUD3SM69M3TEJU","A2YTO4EY3MNYAJ","3GVPRXWRPHGYHD0HW29VLS36FVC7I4","","","null","","","","","","","","","",""
"798.2999999523163","","image-keyboard-response","310","440235","0.0-310.0","3OLQQLKKNTBH7NXRSUD3SM69M3TEJU","A2YTO4EY3MNYAJ","3GVPRXWRPHGYHD0HW29VLS36FVC7I4","","img/set1/S2.jpg","68","2","structured_incentive","68","structured_incentive,structured_load,random,structured_normal","2,3,1,2,4,2","4,3,1,2","true","","",""
"null","","html-keyboard-response","311","440589","0.0-311.0","3OLQQLKKNTBH7NXRSUD3SM69M3TEJU","A2YTO4EY3MNYAJ","3GVPRXWRPHGYHD0HW29VLS36FVC7I4","","<img src=""img/set1/S2.jpg"" width=""540"" height = ""360"" style=""border:16px solid orange"">","null","","","","","","","","","",""
"null","","html-keyboard-response","312","440791","0.0-312.0","3OLQQLKKNTBH7NXRSUD3SM69M3TEJU","A2YTO4EY3MNYAJ","3GVPRXWRPHGYHD0HW29VLS36FVC7I4","","","null","","","","","","","","","",""
"804.8000000119209","","image-keyboard-response","313","441598","0.0-313.0","3OLQQLKKNTBH7NXRSUD3SM69M3TEJU","A2YTO4EY3MNYAJ","3GVPRXWRPHGYHD0HW29VLS36FVC7I4","","img/set1/S3.jpg","72","3","structured_incentive","72","structured_incentive,structured_load,random,structured_normal","2,3,1,2,4,2","4,3,1,2","true","","",""
"null","","html-keyboard-response","314","441952","0.0-314.0","3OLQQLKKNTBH7NXRSUD3SM69M3TEJU","A2YTO4EY3MNYAJ","3GVPRXWRPHGYHD0HW29VLS36FVC7I4","","<img src=""img/set1/S3.jpg"" width=""540"" height = ""360"" style=""border:16px solid orange"">","null","","","","","","","","","",""
"null","","html-keyboard-response","315","442154","0.0-315.0","3OLQQLKKNTBH7NXRSUD3SM69M3TEJU","A2YTO4EY3MNYAJ","3GVPRXWRPHGYHD0HW29VLS36FVC7I4","","","null","","","","","","","","","",""
"536.6999999880791","","image-keyboard-response","316","442693","0.0-316.0","3OLQQLKKNTBH7NXRSUD3SM69M3TEJU","A2YTO4EY3MNYAJ","3GVPRXWRPHGYHD0HW29VLS36FVC7I4","","img/set1/S4.jpg","74","4","structured_incentive","74","structured_incentive,structured_load,random,structured_normal","2,3,1,2,4,2","4,3,1,2","true","","",""
"null","","html-keyboard-response","317","443046","0.0-317.0","3OLQQLKKNTBH7NXRSUD3SM69M3TEJU","A2YTO4EY3MNYAJ","3GVPRXWRPHGYHD0HW29VLS36FVC7I4","","<img src=""img/set1/S4.jpg"" width=""540"" height = ""360"" style=""border:16px solid Violet"">","null","","","","","","","","","",""
"null","","html-keyboard-response","318","443247","0.0-318.0","3OLQQLKKNTBH7NXRSUD3SM69M3TEJU","A2YTO4EY3MNYAJ","3GVPRXWRPHGYHD0HW29VLS36FVC7I4","","","null","","","","","","","","","",""
"622.6999999880791","","image-keyboard-response","319","443872","0.0-319.0","3OLQQLKKNTBH7NXRSUD3SM69M3TEJU","A2YTO4EY3MNYAJ","3GVPRXWRPHGYHD0HW29VLS36FVC7I4","","img/set1/S4.jpg","74","4","structured_incentive","74","structured_incentive,structured_load,random,structured_normal","2,3,1,2,4,2","4,3,1,2","true","","",""
"null","","html-keyboard-response","320","444226","0.0-320.0","3OLQQLKKNTBH7NXRSUD3SM69M3TEJU","A2YTO4EY3MNYAJ","3GVPRXWRPHGYHD0HW29VLS36FVC7I4","","<img src=""img/set1/S4.jpg"" width=""540"" height = ""360"" style=""border:16px solid Violet"">","null","","","","","","","","","",""
"null","","html-keyboard-response","321","444427","0.0-321.0","3OLQQLKKNTBH7NXRSUD3SM69M3TEJU","A2YTO4EY3MNYAJ","3GVPRXWRPHGYHD0HW29VLS36FVC7I4","","","null","","","","","","","","","",""
"521.0999999642372","","image-keyboard-response","322","444951","0.0-322.0","3OLQQLKKNTBH7NXRSUD3SM69M3TEJU","A2YTO4EY3MNYAJ","3GVPRXWRPHGYHD0HW29VLS36FVC7I4","","img/set1/S1.jpg","83","1","structured_incentive","83","structured_incentive,structured_load,random,structured_normal","2,3,1,2,4,2","4,3,1,2","true","","",""
"null","","html-keyboard-response","323","445304","0.0-323.0","3OLQQLKKNTBH7NXRSUD3SM69M3TEJU","A2YTO4EY3MNYAJ","3GVPRXWRPHGYHD0HW29VLS36FVC7I4","","<img src=""img/set1/S1.jpg"" width=""540"" height = ""360"" style=""border:16px solid orange"">","null","","","","","","","","","",""
"null","","html-keyboard-response","324","445506","0.0-324.0","3OLQQLKKNTBH7NXRSUD3SM69M3TEJU","A2YTO4EY3MNYAJ","3GVPRXWRPHGYHD0HW29VLS36FVC7I4","","","null","","","","","","","","","",""
"479.5","","image-keyboard-response","325","445987","0.0-325.0","3OLQQLKKNTBH7NXRSUD3SM69M3TEJU","A2YTO4EY3MNYAJ","3GVPRXWRPHGYHD0HW29VLS36FVC7I4","","img/set1/S1.jpg","83","1","structured_incentive","83","structured_incentive,structured_load,random,structured_normal","2,3,1,2,4,2","4,3,1,2","true","","",""
"null","","html-keyboard-response","326","446341","0.0-326.0","3OLQQLKKNTBH7NXRSUD3SM69M3TEJU","A2YTO4EY3MNYAJ","3GVPRXWRPHGYHD0HW29VLS36FVC7I4","","<img src=""img/set1/S1.jpg"" width=""540"" height = ""360"" style=""border:16px solid orange"">","null","","","","","","","","","",""
"null","","html-keyboard-response","327","446552","0.0-327.0","3OLQQLKKNTBH7NXRSUD3SM69M3TEJU","A2YTO4EY3MNYAJ","3GVPRXWRPHGYHD0HW29VLS36FVC7I4","","","null","","","","","","","","","",""
"452.0999999642372","","image-keyboard-response","328","447005","0.0-328.0","3OLQQLKKNTBH7NXRSUD3SM69M3TEJU","A2YTO4EY3MNYAJ","3GVPRXWRPHGYHD0HW29VLS36FVC7I4","","img/set1/S1.jpg","83","1","structured_incentive","83","structured_incentive,structured_load,random,structured_normal","2,3,1,2,4,2","4,3,1,2","true","","",""
"null","","html-keyboard-response","329","447358","0.0-329.0","3OLQQLKKNTBH7NXRSUD3SM69M3TEJU","A2YTO4EY3MNYAJ","3GVPRXWRPHGYHD0HW29VLS36FVC7I4","","<img src=""img/set1/S1.jpg"" width=""540"" height = ""360"" style=""border:16px solid orange"">","null","","","","","","","","","",""
"null","","html-keyboard-response","330","447560","0.0-330.0","3OLQQLKKNTBH7NXRSUD3SM69M3TEJU","A2YTO4EY3MNYAJ","3GVPRXWRPHGYHD0HW29VLS36FVC7I4","","","null","","","","","","","","","",""
"399.19999998807907","","image-keyboard-response","331","447961","0.0-331.0","3OLQQLKKNTBH7NXRSUD3SM69M3TEJU","A2YTO4EY3MNYAJ","3GVPRXWRPHGYHD0HW29VLS36FVC7I4","","img/set1/S1.jpg","83","1","structured_incentive","83","structured_incentive,structured_load,random,structured_normal","2,3,1,2,4,2","4,3,1,2","true","","",""
"null","","html-keyboard-response","332","448315","0.0-332.0","3OLQQLKKNTBH7NXRSUD3SM69M3TEJU","A2YTO4EY3MNYAJ","3GVPRXWRPHGYHD0HW29VLS36FVC7I4","","<img src=""img/set1/S1.jpg"" width=""540"" height = ""360"" style=""border:16px solid orange"">","null","","","","","","","","","",""
"null","","html-keyboard-response","333","448517","0.0-333.0","3OLQQLKKNTBH7NXRSUD3SM69M3TEJU","A2YTO4EY3MNYAJ","3GVPRXWRPHGYHD0HW29VLS36FVC7I4","","","null","","","","","","","","","",""
"635.5","","image-keyboard-response","334","449155","0.0-334.0","3OLQQLKKNTBH7NXRSUD3SM69M3TEJU","A2YTO4EY3MNYAJ","3GVPRXWRPHGYHD0HW29VLS36FVC7I4","","img/set1/S2.jpg","68","2","structured_incentive","68","structured_incentive,structured_load,random,structured_normal","2,3,1,2,4,2","4,3,1,2","true","","",""
"null","","html-keyboard-response","335","449507","0.0-335.0","3OLQQLKKNTBH7NXRSUD3SM69M3TEJU","A2YTO4EY3MNYAJ","3GVPRXWRPHGYHD0HW29VLS36FVC7I4","","<img src=""img/set1/S2.jpg"" width=""540"" height = ""360"" style=""border:16px solid orange"">","null","","","","","","","","","",""
"null","","html-keyboard-response","336","449710","0.0-336.0","3OLQQLKKNTBH7NXRSUD3SM69M3TEJU","A2YTO4EY3MNYAJ","3GVPRXWRPHGYHD0HW29VLS36FVC7I4","","","null","","","","","","","","","",""
"462.89999997615814","","image-keyboard-response","337","450175","0.0-337.0","3OLQQLKKNTBH7NXRSUD3SM69M3TEJU","A2YTO4EY3MNYAJ","3GVPRXWRPHGYHD0HW29VLS36FVC7I4","","img/set1/S3.jpg","72","3","structured_incentive","72","structured_incentive,structured_load,random,structured_normal","2,3,1,2,4,2","4,3,1,2","true","","",""
"null","","html-keyboard-response","338","450528","0.0-338.0","3OLQQLKKNTBH7NXRSUD3SM69M3TEJU","A2YTO4EY3MNYAJ","3GVPRXWRPHGYHD0HW29VLS36FVC7I4","","<img src=""img/set1/S3.jpg"" width=""540"" height = ""360"" style=""border:16px solid orange"">","null","","","","","","","","","",""
"null","","html-keyboard-response","339","450731","0.0-339.0","3OLQQLKKNTBH7NXRSUD3SM69M3TEJU","A2YTO4EY3MNYAJ","3GVPRXWRPHGYHD0HW29VLS36FVC7I4","","","null","","","","","","","","","",""
"571.5","","image-keyboard-response","340","451305","0.0-340.0","3OLQQLKKNTBH7NXRSUD3SM69M3TEJU","A2YTO4EY3MNYAJ","3GVPRXWRPHGYHD0HW29VLS36FVC7I4","","img/set1/S4.jpg","74","4","structured_incentive","74","structured_incentive,structured_load,random,structured_normal","2,3,1,2,4,2","4,3,1,2","true","","",""
"null","","html-keyboard-response","341","451658","0.0-341.0","3OLQQLKKNTBH7NXRSUD3SM69M3TEJU","A2YTO4EY3MNYAJ","3GVPRXWRPHGYHD0HW29VLS36FVC7I4","","<img src=""img/set1/S4.jpg"" width=""540"" height = ""360"" style=""border:16px solid Violet"">","null","","","","","","","","","",""
"null","","html-keyboard-response","342","451861","0.0-342.0","3OLQQLKKNTBH7NXRSUD3SM69M3TEJU","A2YTO4EY3MNYAJ","3GVPRXWRPHGYHD0HW29VLS36FVC7I4","","","null","","","","","","","","","",""
"691.5","","image-keyboard-response","343","452554","0.0-343.0","3OLQQLKKNTBH7NXRSUD3SM69M3TEJU","A2YTO4EY3MNYAJ","3GVPRXWRPHGYHD0HW29VLS36FVC7I4","","img/set1/S1.jpg","83","1","structured_incentive","83","structured_incentive,structured_load,random,structured_normal","2,3,1,2,4,2","4,3,1,2","true","","",""
"null","","html-keyboard-response","344","452907","0.0-344.0","3OLQQLKKNTBH7NXRSUD3SM69M3TEJU","A2YTO4EY3MNYAJ","3GVPRXWRPHGYHD0HW29VLS36FVC7I4","","<img src=""img/set1/S1.jpg"" width=""540"" height = ""360"" style=""border:16px solid orange"">","null","","","","","","","","","",""
"null","","html-keyboard-response","345","453109","0.0-345.0","3OLQQLKKNTBH7NXRSUD3SM69M3TEJU","A2YTO4EY3MNYAJ","3GVPRXWRPHGYHD0HW29VLS36FVC7I4","","","null","","","","","","","","","",""
"754.2000000476837","","image-keyboard-response","346","453866","0.0-346.0","3OLQQLKKNTBH7NXRSUD3SM69M3TEJU","A2YTO4EY3MNYAJ","3GVPRXWRPHGYHD0HW29VLS36FVC7I4","","img/set1/S2.jpg","68","2","structured_incentive","68","structured_incentive,structured_load,random,structured_normal","2,3,1,2,4,2","4,3,1,2","true","","",""
"null","","html-keyboard-response","347","454219","0.0-347.0","3OLQQLKKNTBH7NXRSUD3SM69M3TEJU","A2YTO4EY3MNYAJ","3GVPRXWRPHGYHD0HW29VLS36FVC7I4","","<img src=""img/set1/S2.jpg"" width=""540"" height = ""360"" style=""border:16px solid orange"">","null","","","","","","","","","",""
"null","","html-keyboard-response","348","454421","0.0-348.0","3OLQQLKKNTBH7NXRSUD3SM69M3TEJU","A2YTO4EY3MNYAJ","3GVPRXWRPHGYHD0HW29VLS36FVC7I4","","","null","","","","","","","","","",""
"800.2999999523163","","image-keyboard-response","349","455223","0.0-349.0","3OLQQLKKNTBH7NXRSUD3SM69M3TEJU","A2YTO4EY3MNYAJ","3GVPRXWRPHGYHD0HW29VLS36FVC7I4","","img/set1/S3.jpg","72","3","structured_incentive","72","structured_incentive,structured_load,random,structured_normal","2,3,1,2,4,2","4,3,1,2","true","","",""
"null","","html-keyboard-response","350","455577","0.0-350.0","3OLQQLKKNTBH7NXRSUD3SM69M3TEJU","A2YTO4EY3MNYAJ","3GVPRXWRPHGYHD0HW29VLS36FVC7I4","","<img src=""img/set1/S3.jpg"" width=""540"" height = ""360"" style=""border:16px solid orange"">","null","","","","","","","","","",""
"null","","html-keyboard-response","351","455779","0.0-351.0","3OLQQLKKNTBH7NXRSUD3SM69M3TEJU","A2YTO4EY3MNYAJ","3GVPRXWRPHGYHD0HW29VLS36FVC7I4","","","null","","","","","","","","","",""
"533.6999999880791","","image-keyboard-response","352","456315","0.0-352.0","3OLQQLKKNTBH7NXRSUD3SM69M3TEJU","A2YTO4EY3MNYAJ","3GVPRXWRPHGYHD0HW29VLS36FVC7I4","","img/set1/S4.jpg","74","4","structured_incentive","74","structured_incentive,structured_load,random,structured_normal","2,3,1,2,4,2","4,3,1,2","true","","",""
"null","","html-keyboard-response","353","456668","0.0-353.0","3OLQQLKKNTBH7NXRSUD3SM69M3TEJU","A2YTO4EY3MNYAJ","3GVPRXWRPHGYHD0HW29VLS36FVC7I4","","<img src=""img/set1/S4.jpg"" width=""540"" height = ""360"" style=""border:16px solid Violet"">","null","","","","","","","","","",""
"null","","html-keyboard-response","354","456870","0.0-354.0","3OLQQLKKNTBH7NXRSUD3SM69M3TEJU","A2YTO4EY3MNYAJ","3GVPRXWRPHGYHD0HW29VLS36FVC7I4","","","null","","","","","","","","","",""
"523.1999999880791","","image-keyboard-response","355","457395","0.0-355.0","3OLQQLKKNTBH7NXRSUD3SM69M3TEJU","A2YTO4EY3MNYAJ","3GVPRXWRPHGYHD0HW29VLS36FVC7I4","","img/set1/S2.jpg","68","2","structured_incentive","68","structured_incentive,structured_load,random,structured_normal","2,3,1,2,4,2","4,3,1,2","true","","",""
"null","","html-keyboard-response","356","457747","0.0-356.0","3OLQQLKKNTBH7NXRSUD3SM69M3TEJU","A2YTO4EY3MNYAJ","3GVPRXWRPHGYHD0HW29VLS36FVC7I4","","<img src=""img/set1/S2.jpg"" width=""540"" height = ""360"" style=""border:16px solid orange"">","null","","","","","","","","","",""
"null","","html-keyboard-response","357","457950","0.0-357.0","3OLQQLKKNTBH7NXRSUD3SM69M3TEJU","A2YTO4EY3MNYAJ","3GVPRXWRPHGYHD0HW29VLS36FVC7I4","","","null","","","","","","","","","",""
"407.5","","image-keyboard-response","358","458359","0.0-358.0","3OLQQLKKNTBH7NXRSUD3SM69M3TEJU","A2YTO4EY3MNYAJ","3GVPRXWRPHGYHD0HW29VLS36FVC7I4","","img/set1/S4.jpg","72","4","structured_incentive","74","structured_incentive,structured_load,random,structured_normal","2,3,1,2,4,2","4,3,1,2","false","","",""
"null","","html-keyboard-response","359","458712","0.0-359.0","3OLQQLKKNTBH7NXRSUD3SM69M3TEJU","A2YTO4EY3MNYAJ","3GVPRXWRPHGYHD0HW29VLS36FVC7I4","","<img src=""img/set1/S4.jpg"" width=""540"" height = ""360"">","null","","","","","","","","","",""
"null","","html-keyboard-response","360","458914","0.0-360.0","3OLQQLKKNTBH7NXRSUD3SM69M3TEJU","A2YTO4EY3MNYAJ","3GVPRXWRPHGYHD0HW29VLS36FVC7I4","","","null","","","","","","","","","",""
"443.5999999642372","","image-keyboard-response","361","459359","0.0-361.0","3OLQQLKKNTBH7NXRSUD3SM69M3TEJU","A2YTO4EY3MNYAJ","3GVPRXWRPHGYHD0HW29VLS36FVC7I4","","img/set1/S1.jpg","68","1","structured_incentive","83","structured_incentive,structured_load,random,structured_normal","2,3,1,2,4,2","4,3,1,2","false","","",""
"null","","html-keyboard-response","362","459713","0.0-362.0","3OLQQLKKNTBH7NXRSUD3SM69M3TEJU","A2YTO4EY3MNYAJ","3GVPRXWRPHGYHD0HW29VLS36FVC7I4","","<img src=""img/set1/S1.jpg"" width=""540"" height = ""360"">","null","","","","","","","","","",""
"null","","html-keyboard-response","363","459915","0.0-363.0","3OLQQLKKNTBH7NXRSUD3SM69M3TEJU","A2YTO4EY3MNYAJ","3GVPRXWRPHGYHD0HW29VLS36FVC7I4","","","null","","","","","","","","","",""
"765.9000000357628","","image-keyboard-response","364","460683","0.0-364.0","3OLQQLKKNTBH7NXRSUD3SM69M3TEJU","A2YTO4EY3MNYAJ","3GVPRXWRPHGYHD0HW29VLS36FVC7I4","","img/set1/S4.jpg","74","4","structured_incentive","74","structured_incentive,structured_load,random,structured_normal","2,3,1,2,4,2","4,3,1,2","true","","",""
"null","","html-keyboard-response","365","461037","0.0-365.0","3OLQQLKKNTBH7NXRSUD3SM69M3TEJU","A2YTO4EY3MNYAJ","3GVPRXWRPHGYHD0HW29VLS36FVC7I4","","<img src=""img/set1/S4.jpg"" width=""540"" height = ""360"" style=""border:16px solid Violet"">","null","","","","","","","","","",""
"null","","html-keyboard-response","366","461240","0.0-366.0","3OLQQLKKNTBH7NXRSUD3SM69M3TEJU","A2YTO4EY3MNYAJ","3GVPRXWRPHGYHD0HW29VLS36FVC7I4","","","null","","","","","","","","","",""
"707.1000000238419","","image-keyboard-response","367","461948","0.0-367.0","3OLQQLKKNTBH7NXRSUD3SM69M3TEJU","A2YTO4EY3MNYAJ","3GVPRXWRPHGYHD0HW29VLS36FVC7I4","","img/set1/S2.jpg","68","2","structured_incentive","68","structured_incentive,structured_load,random,structured_normal","2,3,1,2,4,2","4,3,1,2","true","","",""
"null","","html-keyboard-response","368","462301","0.0-368.0","3OLQQLKKNTBH7NXRSUD3SM69M3TEJU","A2YTO4EY3MNYAJ","3GVPRXWRPHGYHD0HW29VLS36FVC7I4","","<img src=""img/set1/S2.jpg"" width=""540"" height = ""360"" style=""border:16px solid orange"">","null","","","","","","","","","",""
"null","","html-keyboard-response","369","462503","0.0-369.0","3OLQQLKKNTBH7NXRSUD3SM69M3TEJU","A2YTO4EY3MNYAJ","3GVPRXWRPHGYHD0HW29VLS36FVC7I4","","","null","","","","","","","","","",""
"721.1000000238419","","image-keyboard-response","370","463226","0.0-370.0","3OLQQLKKNTBH7NXRSUD3SM69M3TEJU","A2YTO4EY3MNYAJ","3GVPRXWRPHGYHD0HW29VLS36FVC7I4","","img/set1/S3.jpg","72","3","structured_incentive","72","structured_incentive,structured_load,random,structured_normal","2,3,1,2,4,2","4,3,1,2","true","","",""
"null","","html-keyboard-response","371","463580","0.0-371.0","3OLQQLKKNTBH7NXRSUD3SM69M3TEJU","A2YTO4EY3MNYAJ","3GVPRXWRPHGYHD0HW29VLS36FVC7I4","","<img src=""img/set1/S3.jpg"" width=""540"" height = ""360"" style=""border:16px solid orange"">","null","","","","","","","","","",""
"null","","html-keyboard-response","372","463783","0.0-372.0","3OLQQLKKNTBH7NXRSUD3SM69M3TEJU","A2YTO4EY3MNYAJ","3GVPRXWRPHGYHD0HW29VLS36FVC7I4","","","null","","","","","","","","","",""
"663.3999999761581","","image-keyboard-response","373","464448","0.0-373.0","3OLQQLKKNTBH7NXRSUD3SM69M3TEJU","A2YTO4EY3MNYAJ","3GVPRXWRPHGYHD0HW29VLS36FVC7I4","","img/set1/S1.jpg","83","1","structured_incentive","83","structured_incentive,structured_load,random,structured_normal","2,3,1,2,4,2","4,3,1,2","true","","",""
"null","","html-keyboard-response","374","464802","0.0-374.0","3OLQQLKKNTBH7NXRSUD3SM69M3TEJU","A2YTO4EY3MNYAJ","3GVPRXWRPHGYHD0HW29VLS36FVC7I4","","<img src=""img/set1/S1.jpg"" width=""540"" height = ""360"" style=""border:16px solid orange"">","null","","","","","","","","","",""
"null","","html-keyboard-response","375","465004","0.0-375.0","3OLQQLKKNTBH7NXRSUD3SM69M3TEJU","A2YTO4EY3MNYAJ","3GVPRXWRPHGYHD0HW29VLS36FVC7I4","","","null","","","","","","","","","",""
"519.1000000238419","","image-keyboard-response","376","465525","0.0-376.0","3OLQQLKKNTBH7NXRSUD3SM69M3TEJU","A2YTO4EY3MNYAJ","3GVPRXWRPHGYHD0HW29VLS36FVC7I4","","img/set1/S1.jpg","83","1","structured_incentive","83","structured_incentive,structured_load,random,structured_normal","2,3,1,2,4,2","4,3,1,2","true","","",""
"null","","html-keyboard-response","377","465878","0.0-377.0","3OLQQLKKNTBH7NXRSUD3SM69M3TEJU","A2YTO4EY3MNYAJ","3GVPRXWRPHGYHD0HW29VLS36FVC7I4","","<img src=""img/set1/S1.jpg"" width=""540"" height = ""360"" style=""border:16px solid orange"">","null","","","","","","","","","",""
"null","","html-keyboard-response","378","466079","0.0-378.0","3OLQQLKKNTBH7NXRSUD3SM69M3TEJU","A2YTO4EY3MNYAJ","3GVPRXWRPHGYHD0HW29VLS36FVC7I4","","","null","","","","","","","","","",""
"708.6999999880791","","image-keyboard-response","379","466790","0.0-379.0","3OLQQLKKNTBH7NXRSUD3SM69M3TEJU","A2YTO4EY3MNYAJ","3GVPRXWRPHGYHD0HW29VLS36FVC7I4","","img/set1/S3.jpg","72","3","structured_incentive","72","structured_incentive,structured_load,random,structured_normal","2,3,1,2,4,2","4,3,1,2","true","","",""
"null","","html-keyboard-response","380","467143","0.0-380.0","3OLQQLKKNTBH7NXRSUD3SM69M3TEJU","A2YTO4EY3MNYAJ","3GVPRXWRPHGYHD0HW29VLS36FVC7I4","","<img src=""img/set1/S3.jpg"" width=""540"" height = ""360"" style=""border:16px solid orange"">","null","","","","","","","","","",""
