"rt","url","trial_type","trial_index","time_elapsed","internal_node_id","view_history","stimulus","key_press","state","test_part","correct_response","order_block","order_chunk","correct","responses","bonus"
"58376","consent.html","external-html","0","58508","0.0-0.0","","","","","","","","","","",""
"111140","","instructions","1","169651","0.0-1.0","[{""page_index"":0,""viewing_time"":5505},{""page_index"":1,""viewing_time"":7355},{""page_index"":2,""viewing_time"":12124},{""page_index"":3,""viewing_time"":17325},{""page_index"":4,""viewing_time"":8752},{""page_index"":5,""viewing_time"":50043},{""page_index"":6,""viewing_time"":10035}]","","","","","","","","","",""
"8706","","instructions","2","178360","0.0-2.0","[{""page_index"":0,""viewing_time"":8706}]","","","","","","","","","",""
"4949","","instructions","3","183310","0.0-3.0","[{""page_index"":0,""viewing_time"":4948}]","","","","","","","","","",""
"695","","image-keyboard-response","4","184009","0.0-4.0","","img/set1/S2.jpg","68","2","random","68","random,structured_normal,structured_incentive,structured_load","3,4,2,3,2,1","true","",""
"null","","html-keyboard-response","5","184364","0.0-5.0","","<img src=""img/set1/S2.jpg"" width=""540"" height = ""360"" style=""border:16px solid orange"">","null","","","","","","","",""
"null","","html-keyboard-response","6","184564","0.0-6.0","","","null","","","","","","","",""
"776","","image-keyboard-response","7","185343","0.0-7.0","","img/set1/S1.jpg","72","1","random","83","random,structured_normal,structured_incentive,structured_load","3,4,2,3,2,1","false","",""
"null","","html-keyboard-response","8","185696","0.0-8.0","","<img src=""img/set1/S1.jpg"" width=""540"" height = ""360"">","null","","","","","","","",""
"null","","html-keyboard-response","9","185903","0.0-9.0","","","null","","","","","","","",""
"498","","image-keyboard-response","10","186405","0.0-10.0","","img/set1/S4.jpg","74","4","random","74","random,structured_normal,structured_incentive,structured_load","3,4,2,3,2,1","true","",""
"null","","html-keyboard-response","11","186761","0.0-11.0","","<img src=""img/set1/S4.jpg"" width=""540"" height = ""360"" style=""border:16px solid orange"">","null","","","","","","","",""
"null","","html-keyboard-response","12","186962","0.0-12.0","","","null","","","","","","","",""
"530","","image-keyboard-response","13","187493","0.0-13.0","","img/set1/S3.jpg","83","3","random","72","random,structured_normal,structured_incentive,structured_load","3,4,2,3,2,1","false","",""
"null","","html-keyboard-response","14","187848","0.0-14.0","","<img src=""img/set1/S3.jpg"" width=""540"" height = ""360"">","null","","","","","","","",""
"null","","html-keyboard-response","15","188048","0.0-15.0","","","null","","","","","","","",""
"411","","image-keyboard-response","16","188462","0.0-16.0","","img/set1/S1.jpg","68","1","random","83","random,structured_normal,structured_incentive,structured_load","3,4,2,3,2,1","false","",""
"null","","html-keyboard-response","17","188815","0.0-17.0","","<img src=""img/set1/S1.jpg"" width=""540"" height = ""360"">","null","","","","","","","",""
"null","","html-keyboard-response","18","189017","0.0-18.0","","","null","","","","","","","",""
"491","","image-keyboard-response","19","189510","0.0-19.0","","img/set1/S4.jpg","83","4","random","74","random,structured_normal,structured_incentive,structured_load","3,4,2,3,2,1","false","",""
"null","","html-keyboard-response","20","189861","0.0-20.0","","<img src=""img/set1/S4.jpg"" width=""540"" height = ""360"">","null","","","","","","","",""
"null","","html-keyboard-response","21","190064","0.0-21.0","","","null","","","","","","","",""
"377","","image-keyboard-response","22","190445","0.0-22.0","","img/set1/S2.jpg","72","2","random","68","random,structured_normal,structured_incentive,structured_load","3,4,2,3,2,1","false","",""
"null","","html-keyboard-response","23","190797","0.0-23.0","","<img src=""img/set1/S2.jpg"" width=""540"" height = ""360"">","null","","","","","","","",""
"null","","html-keyboard-response","24","191004","0.0-24.0","","","null","","","","","","","",""
"538","","image-keyboard-response","25","191542","0.0-25.0","","img/set1/S3.jpg","72","3","random","72","random,structured_normal,structured_incentive,structured_load","3,4,2,3,2,1","true","",""
"null","","html-keyboard-response","26","191895","0.0-26.0","","<img src=""img/set1/S3.jpg"" width=""540"" height = ""360"" style=""border:16px solid orange"">","null","","","","","","","",""
"null","","html-keyboard-response","27","192096","0.0-27.0","","","null","","","","","","","",""
"411","","image-keyboard-response","28","192509","0.0-28.0","","img/set1/S3.jpg","74","3","random","72","random,structured_normal,structured_incentive,structured_load","3,4,2,3,2,1","false","",""
"null","","html-keyboard-response","29","192860","0.0-29.0","","<img src=""img/set1/S3.jpg"" width=""540"" height = ""360"">","null","","","","","","","",""
"null","","html-keyboard-response","30","193063","0.0-30.0","","","null","","","","","","","",""
"496","","image-keyboard-response","31","193562","0.0-31.0","","img/set1/S4.jpg","68","4","random","74","random,structured_normal,structured_incentive,structured_load","3,4,2,3,2,1","false","",""
"null","","html-keyboard-response","32","193915","0.0-32.0","","<img src=""img/set1/S4.jpg"" width=""540"" height = ""360"">","null","","","","","","","",""
"null","","html-keyboard-response","33","194116","0.0-33.0","","","null","","","","","","","",""
"567","","image-keyboard-response","34","194685","0.0-34.0","","img/set1/S3.jpg","72","3","random","72","random,structured_normal,structured_incentive,structured_load","3,4,2,3,2,1","true","",""
"null","","html-keyboard-response","35","195037","0.0-35.0","","<img src=""img/set1/S3.jpg"" width=""540"" height = ""360"" style=""border:16px solid orange"">","null","","","","","","","",""
"null","","html-keyboard-response","36","195239","0.0-36.0","","","null","","","","","","","",""
"538","","image-keyboard-response","37","195781","0.0-37.0","","img/set1/S2.jpg","72","2","random","68","random,structured_normal,structured_incentive,structured_load","3,4,2,3,2,1","false","",""
"null","","html-keyboard-response","38","196138","0.0-38.0","","<img src=""img/set1/S2.jpg"" width=""540"" height = ""360"">","null","","","","","","","",""
"null","","html-keyboard-response","39","196339","0.0-39.0","","","null","","","","","","","",""
"703","","image-keyboard-response","40","197045","0.0-40.0","","img/set1/S3.jpg","72","3","random","72","random,structured_normal,structured_incentive,structured_load","3,4,2,3,2,1","true","",""
"null","","html-keyboard-response","41","197396","0.0-41.0","","<img src=""img/set1/S3.jpg"" width=""540"" height = ""360"" style=""border:16px solid orange"">","null","","","","","","","",""
"null","","html-keyboard-response","42","197600","0.0-42.0","","","null","","","","","","","",""
"339","","image-keyboard-response","43","197941","0.0-43.0","","img/set1/S2.jpg","68","2","random","68","random,structured_normal,structured_incentive,structured_load","3,4,2,3,2,1","true","",""
"null","","html-keyboard-response","44","198293","0.0-44.0","","<img src=""img/set1/S2.jpg"" width=""540"" height = ""360"" style=""border:16px solid orange"">","null","","","","","","","",""
"null","","html-keyboard-response","45","198496","0.0-45.0","","","null","","","","","","","",""
"597","","image-keyboard-response","46","199096","0.0-46.0","","img/set1/S1.jpg","83","1","random","83","random,structured_normal,structured_incentive,structured_load","3,4,2,3,2,1","true","",""
"null","","html-keyboard-response","47","199448","0.0-47.0","","<img src=""img/set1/S1.jpg"" width=""540"" height = ""360"" style=""border:16px solid orange"">","null","","","","","","","",""
"null","","html-keyboard-response","48","199650","0.0-48.0","","","null","","","","","","","",""
"401","","image-keyboard-response","49","200053","0.0-49.0","","img/set1/S3.jpg","74","3","random","72","random,structured_normal,structured_incentive,structured_load","3,4,2,3,2,1","false","",""
"null","","html-keyboard-response","50","200409","0.0-50.0","","<img src=""img/set1/S3.jpg"" width=""540"" height = ""360"">","null","","","","","","","",""
"null","","html-keyboard-response","51","200609","0.0-51.0","","","null","","","","","","","",""
"498","","image-keyboard-response","52","201109","0.0-52.0","","img/set1/S4.jpg","74","4","random","74","random,structured_normal,structured_incentive,structured_load","3,4,2,3,2,1","true","",""
"null","","html-keyboard-response","53","201461","0.0-53.0","","<img src=""img/set1/S4.jpg"" width=""540"" height = ""360"" style=""border:16px solid orange"">","null","","","","","","","",""
"null","","html-keyboard-response","54","201663","0.0-54.0","","","null","","","","","","","",""
"719","","image-keyboard-response","55","202385","0.0-55.0","","img/set1/S1.jpg","68","1","random","83","random,structured_normal,structured_incentive,structured_load","3,4,2,3,2,1","false","",""
"null","","html-keyboard-response","56","202788","0.0-56.0","","<img src=""img/set1/S1.jpg"" width=""540"" height = ""360"">","null","","","","","","","",""
"null","","html-keyboard-response","57","203001","0.0-57.0","","","null","","","","","","","",""
"760","","image-keyboard-response","58","203765","0.0-58.0","","img/set1/S2.jpg","83","2","random","68","random,structured_normal,structured_incentive,structured_load","3,4,2,3,2,1","false","",""
"null","","html-keyboard-response","59","204144","0.0-59.0","","<img src=""img/set1/S2.jpg"" width=""540"" height = ""360"">","null","","","","","","","",""
"null","","html-keyboard-response","60","204344","0.0-60.0","","","null","","","","","","","",""
"667","","image-keyboard-response","61","205014","0.0-61.0","","img/set1/S2.jpg","74","2","random","68","random,structured_normal,structured_incentive,structured_load","3,4,2,3,2,1","false","",""
"null","","html-keyboard-response","62","205405","0.0-62.0","","<img src=""img/set1/S2.jpg"" width=""540"" height = ""360"">","null","","","","","","","",""
"null","","html-keyboard-response","63","205607","0.0-63.0","","","null","","","","","","","",""
"596","","image-keyboard-response","64","206205","0.0-64.0","","img/set1/S3.jpg","72","3","random","72","random,structured_normal,structured_incentive,structured_load","3,4,2,3,2,1","true","",""
"null","","html-keyboard-response","65","206556","0.0-65.0","","<img src=""img/set1/S3.jpg"" width=""540"" height = ""360"" style=""border:16px solid orange"">","null","","","","","","","",""
"null","","html-keyboard-response","66","206759","0.0-66.0","","","null","","","","","","","",""
"660","","image-keyboard-response","67","207422","0.0-67.0","","img/set1/S1.jpg","68","1","random","83","random,structured_normal,structured_incentive,structured_load","3,4,2,3,2,1","false","",""
"null","","html-keyboard-response","68","207775","0.0-68.0","","<img src=""img/set1/S1.jpg"" width=""540"" height = ""360"">","null","","","","","","","",""
"null","","html-keyboard-response","69","207989","0.0-69.0","","","null","","","","","","","",""
"629","","image-keyboard-response","70","208638","0.0-70.0","","img/set1/S1.jpg","83","1","random","83","random,structured_normal,structured_incentive,structured_load","3,4,2,3,2,1","true","",""
"null","","html-keyboard-response","71","208989","0.0-71.0","","<img src=""img/set1/S1.jpg"" width=""540"" height = ""360"" style=""border:16px solid orange"">","null","","","","","","","",""
"null","","html-keyboard-response","72","209190","0.0-72.0","","","null","","","","","","","",""
"960","","image-keyboard-response","73","210153","0.0-73.0","","img/set1/S4.jpg","74","4","random","74","random,structured_normal,structured_incentive,structured_load","3,4,2,3,2,1","true","",""
"null","","html-keyboard-response","74","210510","0.0-74.0","","<img src=""img/set1/S4.jpg"" width=""540"" height = ""360"" style=""border:16px solid orange"">","null","","","","","","","",""
"null","","html-keyboard-response","75","210716","0.0-75.0","","","null","","","","","","","",""
"496","","image-keyboard-response","76","211213","0.0-76.0","","img/set1/S2.jpg","68","2","random","68","random,structured_normal,structured_incentive,structured_load","3,4,2,3,2,1","true","",""
"null","","html-keyboard-response","77","211569","0.0-77.0","","<img src=""img/set1/S2.jpg"" width=""540"" height = ""360"" style=""border:16px solid orange"">","null","","","","","","","",""
"null","","html-keyboard-response","78","211769","0.0-78.0","","","null","","","","","","","",""
"563","","image-keyboard-response","79","212335","0.0-79.0","","img/set1/S4.jpg","72","4","random","74","random,structured_normal,structured_incentive,structured_load","3,4,2,3,2,1","false","",""
"null","","html-keyboard-response","80","212686","0.0-80.0","","<img src=""img/set1/S4.jpg"" width=""540"" height = ""360"">","null","","","","","","","",""
"null","","html-keyboard-response","81","212888","0.0-81.0","","","null","","","","","","","",""
"467","","image-keyboard-response","82","213357","0.0-82.0","","img/set1/S3.jpg","72","3","random","72","random,structured_normal,structured_incentive,structured_load","3,4,2,3,2,1","true","",""
"null","","html-keyboard-response","83","213710","0.0-83.0","","<img src=""img/set1/S3.jpg"" width=""540"" height = ""360"" style=""border:16px solid orange"">","null","","","","","","","",""
"null","","html-keyboard-response","84","213911","0.0-84.0","","","null","","","","","","","",""
"612","","image-keyboard-response","85","214526","0.0-85.0","","img/set1/S4.jpg","74","4","random","74","random,structured_normal,structured_incentive,structured_load","3,4,2,3,2,1","true","",""
"null","","html-keyboard-response","86","214877","0.0-86.0","","<img src=""img/set1/S4.jpg"" width=""540"" height = ""360"" style=""border:16px solid orange"">","null","","","","","","","",""
"null","","html-keyboard-response","87","215078","0.0-87.0","","","null","","","","","","","",""
"708","","image-keyboard-response","88","215790","0.0-88.0","","img/set1/S1.jpg","68","1","random","83","random,structured_normal,structured_incentive,structured_load","3,4,2,3,2,1","false","",""
"null","","html-keyboard-response","89","216142","0.0-89.0","","<img src=""img/set1/S1.jpg"" width=""540"" height = ""360"">","null","","","","","","","",""
"null","","html-keyboard-response","90","216345","0.0-90.0","","","null","","","","","","","",""
"748","","image-keyboard-response","91","217093","0.0-91.0","","img/set1/S2.jpg","83","2","random","68","random,structured_normal,structured_incentive,structured_load","3,4,2,3,2,1","false","",""
"null","","html-keyboard-response","92","217484","0.0-92.0","","<img src=""img/set1/S2.jpg"" width=""540"" height = ""360"">","null","","","","","","","",""
"null","","html-keyboard-response","93","217686","0.0-93.0","","","null","","","","","","","",""
"445","","image-keyboard-response","94","218133","0.0-94.0","","img/set1/S2.jpg","68","2","random","68","random,structured_normal,structured_incentive,structured_load","3,4,2,3,2,1","true","",""
"null","","html-keyboard-response","95","218484","0.0-95.0","","<img src=""img/set1/S2.jpg"" width=""540"" height = ""360"" style=""border:16px solid orange"">","null","","","","","","","",""
"null","","html-keyboard-response","96","218689","0.0-96.0","","","null","","","","","","","",""
"676","","image-keyboard-response","97","219366","0.0-97.0","","img/set1/S4.jpg","74","4","random","74","random,structured_normal,structured_incentive,structured_load","3,4,2,3,2,1","true","",""
"null","","html-keyboard-response","98","219718","0.0-98.0","","<img src=""img/set1/S4.jpg"" width=""540"" height = ""360"" style=""border:16px solid orange"">","null","","","","","","","",""
"null","","html-keyboard-response","99","219924","0.0-99.0","","","null","","","","","","","",""
"652","","image-keyboard-response","100","220579","0.0-100.0","","img/set1/S2.jpg","68","2","random","68","random,structured_normal,structured_incentive,structured_load","3,4,2,3,2,1","true","",""
"null","","html-keyboard-response","101","220930","0.0-101.0","","<img src=""img/set1/S2.jpg"" width=""540"" height = ""360"" style=""border:16px solid orange"">","null","","","","","","","",""
"null","","html-keyboard-response","102","221132","0.0-102.0","","","null","","","","","","","",""
"591","","image-keyboard-response","103","221725","0.0-103.0","","img/set1/S3.jpg","72","3","random","72","random,structured_normal,structured_incentive,structured_load","3,4,2,3,2,1","true","",""
"null","","html-keyboard-response","104","222076","0.0-104.0","","<img src=""img/set1/S3.jpg"" width=""540"" height = ""360"" style=""border:16px solid orange"">","null","","","","","","","",""
"null","","html-keyboard-response","105","222279","0.0-105.0","","","null","","","","","","","",""
"572","","image-keyboard-response","106","222853","0.0-106.0","","img/set1/S3.jpg","72","3","random","72","random,structured_normal,structured_incentive,structured_load","3,4,2,3,2,1","true","",""
"null","","html-keyboard-response","107","223205","0.0-107.0","","<img src=""img/set1/S3.jpg"" width=""540"" height = ""360"" style=""border:16px solid orange"">","null","","","","","","","",""
"null","","html-keyboard-response","108","223420","0.0-108.0","","","null","","","","","","","",""
"502","","image-keyboard-response","109","223926","0.0-109.0","","img/set1/S3.jpg","72","3","random","72","random,structured_normal,structured_incentive,structured_load","3,4,2,3,2,1","true","",""
"null","","html-keyboard-response","110","224277","0.0-110.0","","<img src=""img/set1/S3.jpg"" width=""540"" height = ""360"" style=""border:16px solid orange"">","null","","","","","","","",""
"null","","html-keyboard-response","111","224479","0.0-111.0","","","null","","","","","","","",""
"412","","image-keyboard-response","112","224893","0.0-112.0","","img/set1/S3.jpg","72","3","random","72","random,structured_normal,structured_incentive,structured_load","3,4,2,3,2,1","true","",""
"null","","html-keyboard-response","113","225244","0.0-113.0","","<img src=""img/set1/S3.jpg"" width=""540"" height = ""360"" style=""border:16px solid orange"">","null","","","","","","","",""
"null","","html-keyboard-response","114","225447","0.0-114.0","","","null","","","","","","","",""
"1764","","image-keyboard-response","115","227214","0.0-115.0","","img/set1/S2.jpg","83","2","random","68","random,structured_normal,structured_incentive,structured_load","3,4,2,3,2,1","false","",""
"null","","html-keyboard-response","116","227590","0.0-116.0","","<img src=""img/set1/S2.jpg"" width=""540"" height = ""360"">","null","","","","","","","",""
"null","","html-keyboard-response","117","227793","0.0-117.0","","","null","","","","","","","",""
"643","","image-keyboard-response","118","228438","0.0-118.0","","img/set1/S4.jpg","72","4","random","74","random,structured_normal,structured_incentive,structured_load","3,4,2,3,2,1","false","",""
"null","","html-keyboard-response","119","228811","0.0-119.0","","<img src=""img/set1/S4.jpg"" width=""540"" height = ""360"">","null","","","","","","","",""
"null","","html-keyboard-response","120","229011","0.0-120.0","","","null","","","","","","","",""
"759","","image-keyboard-response","121","229773","0.0-121.0","","img/set1/S2.jpg","68","2","random","68","random,structured_normal,structured_incentive,structured_load","3,4,2,3,2,1","true","",""
"null","","html-keyboard-response","122","230127","0.0-122.0","","<img src=""img/set1/S2.jpg"" width=""540"" height = ""360"" style=""border:16px solid orange"">","null","","","","","","","",""
"null","","html-keyboard-response","123","230328","0.0-123.0","","","null","","","","","","","",""
"619","","image-keyboard-response","124","230950","0.0-124.0","","img/set1/S4.jpg","74","4","random","74","random,structured_normal,structured_incentive,structured_load","3,4,2,3,2,1","true","",""
"null","","html-keyboard-response","125","231302","0.0-125.0","","<img src=""img/set1/S4.jpg"" width=""540"" height = ""360"" style=""border:16px solid orange"">","null","","","","","","","",""
"null","","html-keyboard-response","126","231504","0.0-126.0","","","null","","","","","","","",""
"554","","image-keyboard-response","127","232061","0.0-127.0","","img/set1/S1.jpg","83","1","random","83","random,structured_normal,structured_incentive,structured_load","3,4,2,3,2,1","true","",""
"null","","html-keyboard-response","128","232413","0.0-128.0","","<img src=""img/set1/S1.jpg"" width=""540"" height = ""360"" style=""border:16px solid orange"">","null","","","","","","","",""
"null","","html-keyboard-response","129","232615","0.0-129.0","","","null","","","","","","","",""
"531","","image-keyboard-response","130","233149","0.0-130.0","","img/set1/S3.jpg","72","3","random","72","random,structured_normal,structured_incentive,structured_load","3,4,2,3,2,1","true","",""
"null","","html-keyboard-response","131","233501","0.0-131.0","","<img src=""img/set1/S3.jpg"" width=""540"" height = ""360"" style=""border:16px solid orange"">","null","","","","","","","",""
"null","","html-keyboard-response","132","233703","0.0-132.0","","","null","","","","","","","",""
"611","","image-keyboard-response","133","234317","0.0-133.0","","img/set1/S1.jpg","74","1","random","83","random,structured_normal,structured_incentive,structured_load","3,4,2,3,2,1","false","",""
"null","","html-keyboard-response","134","234671","0.0-134.0","","<img src=""img/set1/S1.jpg"" width=""540"" height = ""360"">","null","","","","","","","",""
"null","","html-keyboard-response","135","234871","0.0-135.0","","","null","","","","","","","",""
"684","","image-keyboard-response","136","235558","0.0-136.0","","img/set1/S4.jpg","74","4","random","74","random,structured_normal,structured_incentive,structured_load","3,4,2,3,2,1","true","",""
"null","","html-keyboard-response","137","235909","0.0-137.0","","<img src=""img/set1/S4.jpg"" width=""540"" height = ""360"" style=""border:16px solid orange"">","null","","","","","","","",""
"null","","html-keyboard-response","138","236112","0.0-138.0","","","null","","","","","","","",""
"683","","image-keyboard-response","139","236796","0.0-139.0","","img/set1/S3.jpg","72","3","random","72","random,structured_normal,structured_incentive,structured_load","3,4,2,3,2,1","true","",""
"null","","html-keyboard-response","140","237148","0.0-140.0","","<img src=""img/set1/S3.jpg"" width=""540"" height = ""360"" style=""border:16px solid orange"">","null","","","","","","","",""
"null","","html-keyboard-response","141","237351","0.0-141.0","","","null","","","","","","","",""
"683","","image-keyboard-response","142","238035","0.0-142.0","","img/set1/S4.jpg","74","4","random","74","random,structured_normal,structured_incentive,structured_load","3,4,2,3,2,1","true","",""
"null","","html-keyboard-response","143","238389","0.0-143.0","","<img src=""img/set1/S4.jpg"" width=""540"" height = ""360"" style=""border:16px solid orange"">","null","","","","","","","",""
"null","","html-keyboard-response","144","238596","0.0-144.0","","","null","","","","","","","",""
"560","","image-keyboard-response","145","239157","0.0-145.0","","img/set1/S4.jpg","74","4","random","74","random,structured_normal,structured_incentive,structured_load","3,4,2,3,2,1","true","",""
"null","","html-keyboard-response","146","239518","0.0-146.0","","<img src=""img/set1/S4.jpg"" width=""540"" height = ""360"" style=""border:16px solid orange"">","null","","","","","","","",""
"null","","html-keyboard-response","147","239719","0.0-147.0","","","null","","","","","","","",""
"674","","image-keyboard-response","148","240397","0.0-148.0","","img/set1/S3.jpg","68","3","random","72","random,structured_normal,structured_incentive,structured_load","3,4,2,3,2,1","false","",""
"null","","html-keyboard-response","149","240750","0.0-149.0","","<img src=""img/set1/S3.jpg"" width=""540"" height = ""360"">","null","","","","","","","",""
"null","","html-keyboard-response","150","240953","0.0-150.0","","","null","","","","","","","",""
"530","","image-keyboard-response","151","241485","0.0-151.0","","img/set1/S4.jpg","74","4","random","74","random,structured_normal,structured_incentive,structured_load","3,4,2,3,2,1","true","",""
"null","","html-keyboard-response","152","241839","0.0-152.0","","<img src=""img/set1/S4.jpg"" width=""540"" height = ""360"" style=""border:16px solid orange"">","null","","","","","","","",""
"null","","html-keyboard-response","153","242041","0.0-153.0","","","null","","","","","","","",""
"498","","image-keyboard-response","154","242540","0.0-154.0","","img/set1/S4.jpg","74","4","random","74","random,structured_normal,structured_incentive,structured_load","3,4,2,3,2,1","true","",""
"null","","html-keyboard-response","155","242894","0.0-155.0","","<img src=""img/set1/S4.jpg"" width=""540"" height = ""360"" style=""border:16px solid orange"">","null","","","","","","","",""
"null","","html-keyboard-response","156","243096","0.0-156.0","","","null","","","","","","","",""
"595","","image-keyboard-response","157","243692","0.0-157.0","","img/set1/S4.jpg","74","4","random","74","random,structured_normal,structured_incentive,structured_load","3,4,2,3,2,1","true","",""
"null","","html-keyboard-response","158","244044","0.0-158.0","","<img src=""img/set1/S4.jpg"" width=""540"" height = ""360"" style=""border:16px solid orange"">","null","","","","","","","",""
"null","","html-keyboard-response","159","244245","0.0-159.0","","","null","","","","","","","",""
"782","","image-keyboard-response","160","245028","0.0-160.0","","img/set1/S2.jpg","68","2","random","68","random,structured_normal,structured_incentive,structured_load","3,4,2,3,2,1","true","",""
"null","","html-keyboard-response","161","245383","0.0-161.0","","<img src=""img/set1/S2.jpg"" width=""540"" height = ""360"" style=""border:16px solid orange"">","null","","","","","","","",""
"null","","html-keyboard-response","162","245585","0.0-162.0","","","null","","","","","","","",""
"562","","image-keyboard-response","163","246149","0.0-163.0","","img/set1/S4.jpg","74","4","random","74","random,structured_normal,structured_incentive,structured_load","3,4,2,3,2,1","true","",""
"null","","html-keyboard-response","164","246502","0.0-164.0","","<img src=""img/set1/S4.jpg"" width=""540"" height = ""360"" style=""border:16px solid orange"">","null","","","","","","","",""
"null","","html-keyboard-response","165","246711","0.0-165.0","","","null","","","","","","","",""
"612","","image-keyboard-response","166","247325","0.0-166.0","","img/set1/S2.jpg","68","2","random","68","random,structured_normal,structured_incentive,structured_load","3,4,2,3,2,1","true","",""
"null","","html-keyboard-response","167","247688","0.0-167.0","","<img src=""img/set1/S2.jpg"" width=""540"" height = ""360"" style=""border:16px solid orange"">","null","","","","","","","",""
"null","","html-keyboard-response","168","247888","0.0-168.0","","","null","","","","","","","",""
"515","","image-keyboard-response","169","248414","0.0-169.0","","img/set1/S3.jpg","74","3","random","72","random,structured_normal,structured_incentive,structured_load","3,4,2,3,2,1","false","",""
"null","","html-keyboard-response","170","248766","0.0-170.0","","<img src=""img/set1/S3.jpg"" width=""540"" height = ""360"">","null","","","","","","","",""
"null","","html-keyboard-response","171","248972","0.0-171.0","","","null","","","","","","","",""
"471","","image-keyboard-response","172","249445","0.0-172.0","","img/set1/S3.jpg","72","3","random","72","random,structured_normal,structured_incentive,structured_load","3,4,2,3,2,1","true","",""
"null","","html-keyboard-response","173","249801","0.0-173.0","","<img src=""img/set1/S3.jpg"" width=""540"" height = ""360"" style=""border:16px solid orange"">","null","","","","","","","",""
"null","","html-keyboard-response","174","250003","0.0-174.0","","","null","","","","","","","",""
"680","","image-keyboard-response","175","250685","0.0-175.0","","img/set1/S4.jpg","74","4","random","74","random,structured_normal,structured_incentive,structured_load","3,4,2,3,2,1","true","",""
"null","","html-keyboard-response","176","251037","0.0-176.0","","<img src=""img/set1/S4.jpg"" width=""540"" height = ""360"" style=""border:16px solid orange"">","null","","","","","","","",""
"null","","html-keyboard-response","177","251239","0.0-177.0","","","null","","","","","","","",""
"612","","image-keyboard-response","178","251853","0.0-178.0","","img/set1/S4.jpg","74","4","random","74","random,structured_normal,structured_incentive,structured_load","3,4,2,3,2,1","true","",""
"null","","html-keyboard-response","179","252205","0.0-179.0","","<img src=""img/set1/S4.jpg"" width=""540"" height = ""360"" style=""border:16px solid orange"">","null","","","","","","","",""
"null","","html-keyboard-response","180","252408","0.0-180.0","","","null","","","","","","","",""
"685","","image-keyboard-response","181","253094","0.0-181.0","","img/set1/S2.jpg","68","2","random","68","random,structured_normal,structured_incentive,structured_load","3,4,2,3,2,1","true","",""
"null","","html-keyboard-response","182","253445","0.0-182.0","","<img src=""img/set1/S2.jpg"" width=""540"" height = ""360"" style=""border:16px solid orange"">","null","","","","","","","",""
"null","","html-keyboard-response","183","253647","0.0-183.0","","","null","","","","","","","",""
"603","","image-keyboard-response","184","254252","0.0-184.0","","img/set1/S4.jpg","74","4","random","74","random,structured_normal,structured_incentive,structured_load","3,4,2,3,2,1","true","",""
"null","","html-keyboard-response","185","254604","0.0-185.0","","<img src=""img/set1/S4.jpg"" width=""540"" height = ""360"" style=""border:16px solid orange"">","null","","","","","","","",""
"null","","html-keyboard-response","186","254818","0.0-186.0","","","null","","","","","","","",""
"427","","image-keyboard-response","187","255247","0.0-187.0","","img/set1/S1.jpg","83","1","random","83","random,structured_normal,structured_incentive,structured_load","3,4,2,3,2,1","true","",""
"null","","html-keyboard-response","188","255598","0.0-188.0","","<img src=""img/set1/S1.jpg"" width=""540"" height = ""360"" style=""border:16px solid orange"">","null","","","","","","","",""
"null","","html-keyboard-response","189","255799","0.0-189.0","","","null","","","","","","","",""
"619","","image-keyboard-response","190","256420","0.0-190.0","","img/set1/S3.jpg","72","3","random","72","random,structured_normal,structured_incentive,structured_load","3,4,2,3,2,1","true","",""
"null","","html-keyboard-response","191","256772","0.0-191.0","","<img src=""img/set1/S3.jpg"" width=""540"" height = ""360"" style=""border:16px solid orange"">","null","","","","","","","",""
"null","","html-keyboard-response","192","256977","0.0-192.0","","","null","","","","","","","",""
"813","","image-keyboard-response","193","257820","0.0-193.0","","img/set1/S1.jpg","83","1","random","83","random,structured_normal,structured_incentive,structured_load","3,4,2,3,2,1","true","",""
"null","","html-keyboard-response","194","258172","0.0-194.0","","<img src=""img/set1/S1.jpg"" width=""540"" height = ""360"" style=""border:16px solid orange"">","null","","","","","","","",""
"null","","html-keyboard-response","195","258373","0.0-195.0","","","null","","","","","","","",""
"605","","image-keyboard-response","196","258980","0.0-196.0","","img/set1/S3.jpg","72","3","random","72","random,structured_normal,structured_incentive,structured_load","3,4,2,3,2,1","true","",""
"null","","html-keyboard-response","197","259336","0.0-197.0","","<img src=""img/set1/S3.jpg"" width=""540"" height = ""360"" style=""border:16px solid orange"">","null","","","","","","","",""
"null","","html-keyboard-response","198","259537","0.0-198.0","","","null","","","","","","","",""
"785","","image-keyboard-response","199","260324","0.0-199.0","","img/set1/S2.jpg","83","2","random","68","random,structured_normal,structured_incentive,structured_load","3,4,2,3,2,1","false","",""
"null","","html-keyboard-response","200","260676","0.0-200.0","","<img src=""img/set1/S2.jpg"" width=""540"" height = ""360"">","null","","","","","","","",""
"null","","html-keyboard-response","201","260877","0.0-201.0","","","null","","","","","","","",""
"467","","image-keyboard-response","202","261345","0.0-202.0","","img/set1/S2.jpg","68","2","random","68","random,structured_normal,structured_incentive,structured_load","3,4,2,3,2,1","true","",""
"null","","html-keyboard-response","203","261697","0.0-203.0","","<img src=""img/set1/S2.jpg"" width=""540"" height = ""360"" style=""border:16px solid orange"">","null","","","","","","","",""
"null","","html-keyboard-response","204","261899","0.0-204.0","","","null","","","","","","","",""
"597","","image-keyboard-response","205","262501","0.0-205.0","","img/set1/S4.jpg","74","4","random","74","random,structured_normal,structured_incentive,structured_load","3,4,2,3,2,1","true","",""
"null","","html-keyboard-response","206","262852","0.0-206.0","","<img src=""img/set1/S4.jpg"" width=""540"" height = ""360"" style=""border:16px solid orange"">","null","","","","","","","",""
"null","","html-keyboard-response","207","263055","0.0-207.0","","","null","","","","","","","",""
"431","","image-keyboard-response","208","263488","0.0-208.0","","img/set1/S4.jpg","74","4","random","74","random,structured_normal,structured_incentive,structured_load","3,4,2,3,2,1","true","",""
"null","","html-keyboard-response","209","263839","0.0-209.0","","<img src=""img/set1/S4.jpg"" width=""540"" height = ""360"" style=""border:16px solid orange"">","null","","","","","","","",""
"null","","html-keyboard-response","210","264041","0.0-210.0","","","null","","","","","","","",""
"634","","image-keyboard-response","211","264677","0.0-211.0","","img/set1/S3.jpg","72","3","random","72","random,structured_normal,structured_incentive,structured_load","3,4,2,3,2,1","true","",""
"null","","html-keyboard-response","212","265114","0.0-212.0","","<img src=""img/set1/S3.jpg"" width=""540"" height = ""360"" style=""border:16px solid orange"">","null","","","","","","","",""
"null","","html-keyboard-response","213","265317","0.0-213.0","","","null","","","","","","","",""
"665","","image-keyboard-response","214","265984","0.0-214.0","","img/set1/S2.jpg","68","2","random","68","random,structured_normal,structured_incentive,structured_load","3,4,2,3,2,1","true","",""
"null","","html-keyboard-response","215","266340","0.0-215.0","","<img src=""img/set1/S2.jpg"" width=""540"" height = ""360"" style=""border:16px solid orange"">","null","","","","","","","",""
"null","","html-keyboard-response","216","266541","0.0-216.0","","","null","","","","","","","",""
"493","","image-keyboard-response","217","267037","0.0-217.0","","img/set1/S2.jpg","68","2","random","68","random,structured_normal,structured_incentive,structured_load","3,4,2,3,2,1","true","",""
"null","","html-keyboard-response","218","267389","0.0-218.0","","<img src=""img/set1/S2.jpg"" width=""540"" height = ""360"" style=""border:16px solid orange"">","null","","","","","","","",""
"null","","html-keyboard-response","219","267590","0.0-219.0","","","null","","","","","","","",""
"516","","image-keyboard-response","220","268108","0.0-220.0","","img/set1/S2.jpg","68","2","random","68","random,structured_normal,structured_incentive,structured_load","3,4,2,3,2,1","true","",""
"null","","html-keyboard-response","221","268459","0.0-221.0","","<img src=""img/set1/S2.jpg"" width=""540"" height = ""360"" style=""border:16px solid orange"">","null","","","","","","","",""
"null","","html-keyboard-response","222","268663","0.0-222.0","","","null","","","","","","","",""
"709","","image-keyboard-response","223","269372","0.0-223.0","","img/set1/S1.jpg","83","1","random","83","random,structured_normal,structured_incentive,structured_load","3,4,2,3,2,1","true","",""
"null","","html-keyboard-response","224","269723","0.0-224.0","","<img src=""img/set1/S1.jpg"" width=""540"" height = ""360"" style=""border:16px solid orange"">","null","","","","","","","",""
"null","","html-keyboard-response","225","269924","0.0-225.0","","","null","","","","","","","",""
"535","","image-keyboard-response","226","270460","0.0-226.0","","img/set1/S1.jpg","83","1","random","83","random,structured_normal,structured_incentive,structured_load","3,4,2,3,2,1","true","",""
"null","","html-keyboard-response","227","270811","0.0-227.0","","<img src=""img/set1/S1.jpg"" width=""540"" height = ""360"" style=""border:16px solid orange"">","null","","","","","","","",""
"null","","html-keyboard-response","228","271012","0.0-228.0","","","null","","","","","","","",""
"615","","image-keyboard-response","229","271628","0.0-229.0","","img/set1/S4.jpg","74","4","random","74","random,structured_normal,structured_incentive,structured_load","3,4,2,3,2,1","true","",""
"null","","html-keyboard-response","230","271981","0.0-230.0","","<img src=""img/set1/S4.jpg"" width=""540"" height = ""360"" style=""border:16px solid orange"">","null","","","","","","","",""
"null","","html-keyboard-response","231","272183","0.0-231.0","","","null","","","","","","","",""
"478","","image-keyboard-response","232","272663","0.0-232.0","","img/set1/S4.jpg","74","4","random","74","random,structured_normal,structured_incentive,structured_load","3,4,2,3,2,1","true","",""
"null","","html-keyboard-response","233","273014","0.0-233.0","","<img src=""img/set1/S4.jpg"" width=""540"" height = ""360"" style=""border:16px solid orange"">","null","","","","","","","",""
"null","","html-keyboard-response","234","273217","0.0-234.0","","","null","","","","","","","",""
"715","","image-keyboard-response","235","273932","0.0-235.0","","img/set1/S3.jpg","68","3","random","72","random,structured_normal,structured_incentive,structured_load","3,4,2,3,2,1","false","",""
"null","","html-keyboard-response","236","274285","0.0-236.0","","<img src=""img/set1/S3.jpg"" width=""540"" height = ""360"">","null","","","","","","","",""
"null","","html-keyboard-response","237","274487","0.0-237.0","","","null","","","","","","","",""
"708","","image-keyboard-response","238","275196","0.0-238.0","","img/set1/S2.jpg","68","2","random","68","random,structured_normal,structured_incentive,structured_load","3,4,2,3,2,1","true","",""
"null","","html-keyboard-response","239","275548","0.0-239.0","","<img src=""img/set1/S2.jpg"" width=""540"" height = ""360"" style=""border:16px solid orange"">","null","","","","","","","",""
"null","","html-keyboard-response","240","275749","0.0-240.0","","","null","","","","","","","",""
"541","","image-keyboard-response","241","276301","0.0-241.0","","img/set1/S4.jpg","74","4","random","74","random,structured_normal,structured_incentive,structured_load","3,4,2,3,2,1","true","",""
"null","","html-keyboard-response","242","276653","0.0-242.0","","<img src=""img/set1/S4.jpg"" width=""540"" height = ""360"" style=""border:16px solid orange"">","null","","","","","","","",""
"null","","html-keyboard-response","243","276854","0.0-243.0","","","null","","","","","","","",""
"613","","image-keyboard-response","244","277469","0.0-244.0","","img/set1/S3.jpg","72","3","random","72","random,structured_normal,structured_incentive,structured_load","3,4,2,3,2,1","true","",""
"null","","html-keyboard-response","245","277821","0.0-245.0","","<img src=""img/set1/S3.jpg"" width=""540"" height = ""360"" style=""border:16px solid orange"">","null","","","","","","","",""
"null","","html-keyboard-response","246","278023","0.0-246.0","","","null","","","","","","","",""
"461","","image-keyboard-response","247","278485","0.0-247.0","","img/set1/S3.jpg","72","3","random","72","random,structured_normal,structured_incentive,structured_load","3,4,2,3,2,1","true","",""
"null","","html-keyboard-response","248","278839","0.0-248.0","","<img src=""img/set1/S3.jpg"" width=""540"" height = ""360"" style=""border:16px solid orange"">","null","","","","","","","",""
"null","","html-keyboard-response","249","279040","0.0-249.0","","","null","","","","","","","",""
"579","","image-keyboard-response","250","279620","0.0-250.0","","img/set1/S4.jpg","74","4","random","74","random,structured_normal,structured_incentive,structured_load","3,4,2,3,2,1","true","",""
"null","","html-keyboard-response","251","279972","0.0-251.0","","<img src=""img/set1/S4.jpg"" width=""540"" height = ""360"" style=""border:16px solid orange"">","null","","","","","","","",""
"null","","html-keyboard-response","252","280181","0.0-252.0","","","null","","","","","","","",""
"615","","image-keyboard-response","253","280797","0.0-253.0","","img/set1/S2.jpg","68","2","random","68","random,structured_normal,structured_incentive,structured_load","3,4,2,3,2,1","true","",""
"null","","html-keyboard-response","254","281150","0.0-254.0","","<img src=""img/set1/S2.jpg"" width=""540"" height = ""360"" style=""border:16px solid orange"">","null","","","","","","","",""
"null","","html-keyboard-response","255","281350","0.0-255.0","","","null","","","","","","","",""
"541","","image-keyboard-response","256","281892","0.0-256.0","","img/set1/S3.jpg","72","3","random","72","random,structured_normal,structured_incentive,structured_load","3,4,2,3,2,1","true","",""
"null","","html-keyboard-response","257","282245","0.0-257.0","","<img src=""img/set1/S3.jpg"" width=""540"" height = ""360"" style=""border:16px solid orange"">","null","","","","","","","",""
"null","","html-keyboard-response","258","282446","0.0-258.0","","","null","","","","","","","",""
"613","","image-keyboard-response","259","283061","0.0-259.0","","img/set1/S1.jpg","83","1","random","83","random,structured_normal,structured_incentive,structured_load","3,4,2,3,2,1","true","",""
"null","","html-keyboard-response","260","283416","0.0-260.0","","<img src=""img/set1/S1.jpg"" width=""540"" height = ""360"" style=""border:16px solid orange"">","null","","","","","","","",""
"null","","html-keyboard-response","261","283618","0.0-261.0","","","null","","","","","","","",""
"617","","image-keyboard-response","262","284236","0.0-262.0","","img/set1/S3.jpg","72","3","random","72","random,structured_normal,structured_incentive,structured_load","3,4,2,3,2,1","true","",""
"null","","html-keyboard-response","263","284588","0.0-263.0","","<img src=""img/set1/S3.jpg"" width=""540"" height = ""360"" style=""border:16px solid orange"">","null","","","","","","","",""
"null","","html-keyboard-response","264","284789","0.0-264.0","","","null","","","","","","","",""
"701","","image-keyboard-response","265","285492","0.0-265.0","","img/set1/S1.jpg","83","1","random","83","random,structured_normal,structured_incentive,structured_load","3,4,2,3,2,1","true","",""
"null","","html-keyboard-response","266","285843","0.0-266.0","","<img src=""img/set1/S1.jpg"" width=""540"" height = ""360"" style=""border:16px solid orange"">","null","","","","","","","",""
"null","","html-keyboard-response","267","286045","0.0-267.0","","","null","","","","","","","",""
"565","","image-keyboard-response","268","286612","0.0-268.0","","img/set1/S1.jpg","83","1","random","83","random,structured_normal,structured_incentive,structured_load","3,4,2,3,2,1","true","",""
"null","","html-keyboard-response","269","286968","0.0-269.0","","<img src=""img/set1/S1.jpg"" width=""540"" height = ""360"" style=""border:16px solid orange"">","null","","","","","","","",""
"null","","html-keyboard-response","270","287169","0.0-270.0","","","null","","","","","","","",""
"624","","image-keyboard-response","271","287796","0.0-271.0","","img/set1/S4.jpg","74","4","random","74","random,structured_normal,structured_incentive,structured_load","3,4,2,3,2,1","true","",""
"null","","html-keyboard-response","272","288148","0.0-272.0","","<img src=""img/set1/S4.jpg"" width=""540"" height = ""360"" style=""border:16px solid orange"">","null","","","","","","","",""
"null","","html-keyboard-response","273","288356","0.0-273.0","","","null","","","","","","","",""
"635","","image-keyboard-response","274","288997","0.0-274.0","","img/set1/S2.jpg","68","2","random","68","random,structured_normal,structured_incentive,structured_load","3,4,2,3,2,1","true","",""
"null","","html-keyboard-response","275","289349","0.0-275.0","","<img src=""img/set1/S2.jpg"" width=""540"" height = ""360"" style=""border:16px solid orange"">","null","","","","","","","",""
"null","","html-keyboard-response","276","289551","0.0-276.0","","","null","","","","","","","",""
"486","","image-keyboard-response","277","290037","0.0-277.0","","img/set1/S2.jpg","68","2","random","68","random,structured_normal,structured_incentive,structured_load","3,4,2,3,2,1","true","",""
"null","","html-keyboard-response","278","290389","0.0-278.0","","<img src=""img/set1/S2.jpg"" width=""540"" height = ""360"" style=""border:16px solid orange"">","null","","","","","","","",""
"null","","html-keyboard-response","279","290591","0.0-279.0","","","null","","","","","","","",""
"598","","image-keyboard-response","280","291190","0.0-280.0","","img/set1/S4.jpg","74","4","random","74","random,structured_normal,structured_incentive,structured_load","3,4,2,3,2,1","true","",""
"null","","html-keyboard-response","281","291541","0.0-281.0","","<img src=""img/set1/S4.jpg"" width=""540"" height = ""360"" style=""border:16px solid orange"">","null","","","","","","","",""
"null","","html-keyboard-response","282","291771","0.0-282.0","","","null","","","","","","","",""
"712","","image-keyboard-response","283","292485","0.0-283.0","","img/set1/S2.jpg","68","2","random","68","random,structured_normal,structured_incentive,structured_load","3,4,2,3,2,1","true","",""
"null","","html-keyboard-response","284","292854","0.0-284.0","","<img src=""img/set1/S2.jpg"" width=""540"" height = ""360"" style=""border:16px solid orange"">","null","","","","","","","",""
"null","","html-keyboard-response","285","293056","0.0-285.0","","","null","","","","","","","",""
"780","","image-keyboard-response","286","293837","0.0-286.0","","img/set1/S1.jpg","83","1","random","83","random,structured_normal,structured_incentive,structured_load","3,4,2,3,2,1","true","",""
"null","","html-keyboard-response","287","294188","0.0-287.0","","<img src=""img/set1/S1.jpg"" width=""540"" height = ""360"" style=""border:16px solid orange"">","null","","","","","","","",""
"null","","html-keyboard-response","288","294389","0.0-288.0","","","null","","","","","","","",""
"631","","image-keyboard-response","289","295022","0.0-289.0","","img/set1/S2.jpg","68","2","random","68","random,structured_normal,structured_incentive,structured_load","3,4,2,3,2,1","true","",""
"null","","html-keyboard-response","290","295373","0.0-290.0","","<img src=""img/set1/S2.jpg"" width=""540"" height = ""360"" style=""border:16px solid orange"">","null","","","","","","","",""
"null","","html-keyboard-response","291","295574","0.0-291.0","","","null","","","","","","","",""
"477","","image-keyboard-response","292","296053","0.0-292.0","","img/set1/S3.jpg","72","3","random","72","random,structured_normal,structured_incentive,structured_load","3,4,2,3,2,1","true","",""
"null","","html-keyboard-response","293","296404","0.0-293.0","","<img src=""img/set1/S3.jpg"" width=""540"" height = ""360"" style=""border:16px solid orange"">","null","","","","","","","",""
"null","","html-keyboard-response","294","296606","0.0-294.0","","","null","","","","","","","",""
"406","","image-keyboard-response","295","297013","0.0-295.0","","img/set1/S3.jpg","72","3","random","72","random,structured_normal,structured_incentive,structured_load","3,4,2,3,2,1","true","",""
"null","","html-keyboard-response","296","297364","0.0-296.0","","<img src=""img/set1/S3.jpg"" width=""540"" height = ""360"" style=""border:16px solid orange"">","null","","","","","","","",""
"null","","html-keyboard-response","297","297566","0.0-297.0","","","null","","","","","","","",""
"696","","image-keyboard-response","298","298263","0.0-298.0","","img/set1/S1.jpg","83","1","random","83","random,structured_normal,structured_incentive,structured_load","3,4,2,3,2,1","true","",""
"null","","html-keyboard-response","299","298615","0.0-299.0","","<img src=""img/set1/S1.jpg"" width=""540"" height = ""360"" style=""border:16px solid orange"">","null","","","","","","","",""
"null","","html-keyboard-response","300","298818","0.0-300.0","","","null","","","","","","","",""
"522","","image-keyboard-response","301","299342","0.0-301.0","","img/set1/S1.jpg","83","1","random","83","random,structured_normal,structured_incentive,structured_load","3,4,2,3,2,1","true","",""
"null","","html-keyboard-response","302","299694","0.0-302.0","","<img src=""img/set1/S1.jpg"" width=""540"" height = ""360"" style=""border:16px solid orange"">","null","","","","","","","",""
"null","","html-keyboard-response","303","299896","0.0-303.0","","","null","","","","","","","",""
"588","","image-keyboard-response","304","300486","0.0-304.0","","img/set1/S1.jpg","83","1","random","83","random,structured_normal,structured_incentive,structured_load","3,4,2,3,2,1","true","",""
"null","","html-keyboard-response","305","300840","0.0-305.0","","<img src=""img/set1/S1.jpg"" width=""540"" height = ""360"" style=""border:16px solid orange"">","null","","","","","","","",""
"null","","html-keyboard-response","306","301044","0.0-306.0","","","null","","","","","","","",""
"632","","image-keyboard-response","307","301677","0.0-307.0","","img/set1/S1.jpg","83","1","random","83","random,structured_normal,structured_incentive,structured_load","3,4,2,3,2,1","true","",""
"null","","html-keyboard-response","308","302038","0.0-308.0","","<img src=""img/set1/S1.jpg"" width=""540"" height = ""360"" style=""border:16px solid orange"">","null","","","","","","","",""
"null","","html-keyboard-response","309","302239","0.0-309.0","","","null","","","","","","","",""
"533","","image-keyboard-response","310","302773","0.0-310.0","","img/set1/S3.jpg","72","3","random","72","random,structured_normal,structured_incentive,structured_load","3,4,2,3,2,1","true","",""
"null","","html-keyboard-response","311","303124","0.0-311.0","","<img src=""img/set1/S3.jpg"" width=""540"" height = ""360"" style=""border:16px solid orange"">","null","","","","","","","",""
"null","","html-keyboard-response","312","303325","0.0-312.0","","","null","","","","","","","",""
"679","","image-keyboard-response","313","304006","0.0-313.0","","img/set1/S1.jpg","83","1","random","83","random,structured_normal,structured_incentive,structured_load","3,4,2,3,2,1","true","",""
"null","","html-keyboard-response","314","304358","0.0-314.0","","<img src=""img/set1/S1.jpg"" width=""540"" height = ""360"" style=""border:16px solid orange"">","null","","","","","","","",""
"null","","html-keyboard-response","315","304564","0.0-315.0","","","null","","","","","","","",""
"504","","image-keyboard-response","316","305070","0.0-316.0","","img/set1/S1.jpg","83","1","random","83","random,structured_normal,structured_incentive,structured_load","3,4,2,3,2,1","true","",""
"null","","html-keyboard-response","317","305422","0.0-317.0","","<img src=""img/set1/S1.jpg"" width=""540"" height = ""360"" style=""border:16px solid orange"">","null","","","","","","","",""
"null","","html-keyboard-response","318","305625","0.0-318.0","","","null","","","","","","","",""
"624","","image-keyboard-response","319","306250","0.0-319.0","","img/set1/S1.jpg","83","1","random","83","random,structured_normal,structured_incentive,structured_load","3,4,2,3,2,1","true","",""
"null","","html-keyboard-response","320","306601","0.0-320.0","","<img src=""img/set1/S1.jpg"" width=""540"" height = ""360"" style=""border:16px solid orange"">","null","","","","","","","",""
"null","","html-keyboard-response","321","306803","0.0-321.0","","","null","","","","","","","",""
"433","","image-keyboard-response","322","307237","0.0-322.0","","img/set1/S1.jpg","83","1","random","83","random,structured_normal,structured_incentive,structured_load","3,4,2,3,2,1","true","",""
"null","","html-keyboard-response","323","307589","0.0-323.0","","<img src=""img/set1/S1.jpg"" width=""540"" height = ""360"" style=""border:16px solid orange"">","null","","","","","","","",""
"null","","html-keyboard-response","324","307791","0.0-324.0","","","null","","","","","","","",""
"653","","image-keyboard-response","325","308445","0.0-325.0","","img/set1/S4.jpg","74","4","random","74","random,structured_normal,structured_incentive,structured_load","3,4,2,3,2,1","true","",""
"null","","html-keyboard-response","326","308797","0.0-326.0","","<img src=""img/set1/S4.jpg"" width=""540"" height = ""360"" style=""border:16px solid orange"">","null","","","","","","","",""
"null","","html-keyboard-response","327","308998","0.0-327.0","","","null","","","","","","","",""
"703","","image-keyboard-response","328","309703","0.0-328.0","","img/set1/S1.jpg","83","1","random","83","random,structured_normal,structured_incentive,structured_load","3,4,2,3,2,1","true","",""
"null","","html-keyboard-response","329","310055","0.0-329.0","","<img src=""img/set1/S1.jpg"" width=""540"" height = ""360"" style=""border:16px solid orange"">","null","","","","","","","",""
"null","","html-keyboard-response","330","310261","0.0-330.0","","","null","","","","","","","",""
"662","","image-keyboard-response","331","310925","0.0-331.0","","img/set1/S2.jpg","68","2","random","68","random,structured_normal,structured_incentive,structured_load","3,4,2,3,2,1","true","",""
"null","","html-keyboard-response","332","311277","0.0-332.0","","<img src=""img/set1/S2.jpg"" width=""540"" height = ""360"" style=""border:16px solid orange"">","null","","","","","","","",""
"null","","html-keyboard-response","333","311482","0.0-333.0","","","null","","","","","","","",""
"468","","image-keyboard-response","334","311951","0.0-334.0","","img/set1/S2.jpg","68","2","random","68","random,structured_normal,structured_incentive,structured_load","3,4,2,3,2,1","true","",""
"null","","html-keyboard-response","335","312304","0.0-335.0","","<img src=""img/set1/S2.jpg"" width=""540"" height = ""360"" style=""border:16px solid orange"">","null","","","","","","","",""
"null","","html-keyboard-response","336","312506","0.0-336.0","","","null","","","","","","","",""
"666","","image-keyboard-response","337","313174","0.0-337.0","","img/set1/S1.jpg","72","1","random","83","random,structured_normal,structured_incentive,structured_load","3,4,2,3,2,1","false","",""
"null","","html-keyboard-response","338","313548","0.0-338.0","","<img src=""img/set1/S1.jpg"" width=""540"" height = ""360"">","null","","","","","","","",""
"null","","html-keyboard-response","339","313749","0.0-339.0","","","null","","","","","","","",""
"519","","image-keyboard-response","340","314270","0.0-340.0","","img/set1/S3.jpg","72","3","random","72","random,structured_normal,structured_incentive,structured_load","3,4,2,3,2,1","true","",""
"null","","html-keyboard-response","341","314640","0.0-341.0","","<img src=""img/set1/S3.jpg"" width=""540"" height = ""360"" style=""border:16px solid orange"">","null","","","","","","","",""
"null","","html-keyboard-response","342","314847","0.0-342.0","","","null","","","","","","","",""
"540","","image-keyboard-response","343","315389","0.0-343.0","","img/set1/S4.jpg","74","4","random","74","random,structured_normal,structured_incentive,structured_load","3,4,2,3,2,1","true","",""
"null","","html-keyboard-response","344","315741","0.0-344.0","","<img src=""img/set1/S4.jpg"" width=""540"" height = ""360"" style=""border:16px solid orange"">","null","","","","","","","",""
"null","","html-keyboard-response","345","315944","0.0-345.0","","","null","","","","","","","",""
"820","","image-keyboard-response","346","316766","0.0-346.0","","img/set1/S1.jpg","83","1","random","83","random,structured_normal,structured_incentive,structured_load","3,4,2,3,2,1","true","",""
"null","","html-keyboard-response","347","317117","0.0-347.0","","<img src=""img/set1/S1.jpg"" width=""540"" height = ""360"" style=""border:16px solid orange"">","null","","","","","","","",""
"null","","html-keyboard-response","348","317318","0.0-348.0","","","null","","","","","","","",""
"454","","image-keyboard-response","349","317773","0.0-349.0","","img/set1/S3.jpg","72","3","random","72","random,structured_normal,structured_incentive,structured_load","3,4,2,3,2,1","true","",""
"null","","html-keyboard-response","350","318125","0.0-350.0","","<img src=""img/set1/S3.jpg"" width=""540"" height = ""360"" style=""border:16px solid orange"">","null","","","","","","","",""
"null","","html-keyboard-response","351","318327","0.0-351.0","","","null","","","","","","","",""
"655","","image-keyboard-response","352","318984","0.0-352.0","","img/set1/S1.jpg","83","1","random","83","random,structured_normal,structured_incentive,structured_load","3,4,2,3,2,1","true","",""
"null","","html-keyboard-response","353","319335","0.0-353.0","","<img src=""img/set1/S1.jpg"" width=""540"" height = ""360"" style=""border:16px solid orange"">","null","","","","","","","",""
"null","","html-keyboard-response","354","319537","0.0-354.0","","","null","","","","","","","",""
"747","","image-keyboard-response","355","320285","0.0-355.0","","img/set1/S2.jpg","68","2","random","68","random,structured_normal,structured_incentive,structured_load","3,4,2,3,2,1","true","",""
"null","","html-keyboard-response","356","320638","0.0-356.0","","<img src=""img/set1/S2.jpg"" width=""540"" height = ""360"" style=""border:16px solid orange"">","null","","","","","","","",""
"null","","html-keyboard-response","357","320865","0.0-357.0","","","null","","","","","","","",""
"628","","image-keyboard-response","358","321493","0.0-358.0","","img/set1/S1.jpg","72","1","random","83","random,structured_normal,structured_incentive,structured_load","3,4,2,3,2,1","false","",""
"null","","html-keyboard-response","359","321844","0.0-359.0","","<img src=""img/set1/S1.jpg"" width=""540"" height = ""360"">","null","","","","","","","",""
"null","","html-keyboard-response","360","322046","0.0-360.0","","","null","","","","","","","",""
"470","","image-keyboard-response","361","322517","0.0-361.0","","img/set1/S2.jpg","72","2","random","68","random,structured_normal,structured_incentive,structured_load","3,4,2,3,2,1","false","",""
"null","","html-keyboard-response","362","322873","0.0-362.0","","<img src=""img/set1/S2.jpg"" width=""540"" height = ""360"">","null","","","","","","","",""
"null","","html-keyboard-response","363","323074","0.0-363.0","","","null","","","","","","","",""
"1923","","html-keyboard-response","364","324999","0.0-364.0","","<p class=""center-content"">You have completed a block! </p><p class=""center-content"">Press any key on the keyboard to continue, </p><p class=""center-content"">or wait for the automatic progression to the next block after one minute.</p>","72","","","","","","","",""
"6451","","instructions","365","331452","0.0-365.0","[{""page_index"":0,""viewing_time"":6451}]","","","","","","","","","",""
"1244","","instructions","366","332697","0.0-366.0","[{""page_index"":0,""viewing_time"":1244}]","","","","","","","","","",""
"971","","image-keyboard-response","367","333670","0.0-367.0","","img/set2/S3.jpg","83","3","structured_normal","72","random,structured_normal,structured_incentive,structured_load","3,4,2,3,2,1","false","",""
"null","","html-keyboard-response","368","334030","0.0-368.0","","<img src=""img/set2/S3.jpg"" width=""540"" height = ""360"">","null","","","","","","","",""
"null","","html-keyboard-response","369","334231","0.0-369.0","","","null","","","","","","","",""
"349","","image-keyboard-response","370","334581","0.0-370.0","","img/set2/S4.jpg","68","4","structured_normal","74","random,structured_normal,structured_incentive,structured_load","3,4,2,3,2,1","false","",""
"null","","html-keyboard-response","371","334933","0.0-371.0","","<img src=""img/set2/S4.jpg"" width=""540"" height = ""360"">","null","","","","","","","",""
"null","","html-keyboard-response","372","335146","0.0-372.0","","","null","","","","","","","",""
"729","","image-keyboard-response","373","335878","0.0-373.0","","img/set2/S3.jpg","74","3","structured_normal","72","random,structured_normal,structured_incentive,structured_load","3,4,2,3,2,1","false","",""
"null","","html-keyboard-response","374","336242","0.0-374.0","","<img src=""img/set2/S3.jpg"" width=""540"" height = ""360"">","null","","","","","","","",""
"null","","html-keyboard-response","375","336444","0.0-375.0","","","null","","","","","","","",""
"823","","image-keyboard-response","376","337269","0.0-376.0","","img/set2/S4.jpg","68","4","structured_normal","74","random,structured_normal,structured_incentive,structured_load","3,4,2,3,2,1","false","",""
"null","","html-keyboard-response","377","337621","0.0-377.0","","<img src=""img/set2/S4.jpg"" width=""540"" height = ""360"">","null","","","","","","","",""
"null","","html-keyboard-response","378","337823","0.0-378.0","","","null","","","","","","","",""
"1908","","image-keyboard-response","379","339733","0.0-379.0","","img/set2/S3.jpg","68","3","structured_normal","72","random,structured_normal,structured_incentive,structured_load","3,4,2,3,2,1","false","",""
"null","","html-keyboard-response","380","340085","0.0-380.0","","<img src=""img/set2/S3.jpg"" width=""540"" height = ""360"">","null","","","","","","","",""
"null","","html-keyboard-response","381","340287","0.0-381.0","","","null","","","","","","","",""
"828","","image-keyboard-response","382","341117","0.0-382.0","","img/set2/S4.jpg","72","4","structured_normal","74","random,structured_normal,structured_incentive,structured_load","3,4,2,3,2,1","false","",""
"null","","html-keyboard-response","383","341469","0.0-383.0","","<img src=""img/set2/S4.jpg"" width=""540"" height = ""360"">","null","","","","","","","",""
"null","","html-keyboard-response","384","341671","0.0-384.0","","","null","","","","","","","",""
"460","","image-keyboard-response","385","342133","0.0-385.0","","img/set2/S1.jpg","74","1","structured_normal","83","random,structured_normal,structured_incentive,structured_load","3,4,2,3,2,1","false","",""
"null","","html-keyboard-response","386","342485","0.0-386.0","","<img src=""img/set2/S1.jpg"" width=""540"" height = ""360"">","null","","","","","","","",""
"null","","html-keyboard-response","387","342687","0.0-387.0","","","null","","","","","","","",""
"790","","image-keyboard-response","388","343478","0.0-388.0","","img/set2/S3.jpg","68","3","structured_normal","72","random,structured_normal,structured_incentive,structured_load","3,4,2,3,2,1","false","",""
"null","","html-keyboard-response","389","343831","0.0-389.0","","<img src=""img/set2/S3.jpg"" width=""540"" height = ""360"">","null","","","","","","","",""
"null","","html-keyboard-response","390","344032","0.0-390.0","","","null","","","","","","","",""
"348","","image-keyboard-response","391","344381","0.0-391.0","","img/set2/S4.jpg","83","4","structured_normal","74","random,structured_normal,structured_incentive,structured_load","3,4,2,3,2,1","false","",""
"null","","html-keyboard-response","392","344735","0.0-392.0","","<img src=""img/set2/S4.jpg"" width=""540"" height = ""360"">","null","","","","","","","",""
"null","","html-keyboard-response","393","344936","0.0-393.0","","","null","","","","","","","",""
"675","","image-keyboard-response","394","345613","0.0-394.0","","img/set2/S3.jpg","72","3","structured_normal","72","random,structured_normal,structured_incentive,structured_load","3,4,2,3,2,1","true","",""
"null","","html-keyboard-response","395","345974","0.0-395.0","","<img src=""img/set2/S3.jpg"" width=""540"" height = ""360"" style=""border:16px solid orange"">","null","","","","","","","",""
"null","","html-keyboard-response","396","346177","0.0-396.0","","","null","","","","","","","",""
"563","","image-keyboard-response","397","346741","0.0-397.0","","img/set2/S4.jpg","68","4","structured_normal","74","random,structured_normal,structured_incentive,structured_load","3,4,2,3,2,1","false","",""
"null","","html-keyboard-response","398","347095","0.0-398.0","","<img src=""img/set2/S4.jpg"" width=""540"" height = ""360"">","null","","","","","","","",""
"null","","html-keyboard-response","399","347296","0.0-399.0","","","null","","","","","","","",""
"883","","image-keyboard-response","400","348181","0.0-400.0","","img/set2/S2.jpg","74","2","structured_normal","68","random,structured_normal,structured_incentive,structured_load","3,4,2,3,2,1","false","",""
"null","","html-keyboard-response","401","348534","0.0-401.0","","<img src=""img/set2/S2.jpg"" width=""540"" height = ""360"">","null","","","","","","","",""
"null","","html-keyboard-response","402","348735","0.0-402.0","","","null","","","","","","","",""
"473","","image-keyboard-response","403","349213","0.0-403.0","","img/set2/S3.jpg","72","3","structured_normal","72","random,structured_normal,structured_incentive,structured_load","3,4,2,3,2,1","true","",""
"null","","html-keyboard-response","404","349577","0.0-404.0","","<img src=""img/set2/S3.jpg"" width=""540"" height = ""360"" style=""border:16px solid orange"">","null","","","","","","","",""
"null","","html-keyboard-response","405","349779","0.0-405.0","","","null","","","","","","","",""
"377","","image-keyboard-response","406","350159","0.0-406.0","","img/set2/S4.jpg","83","4","structured_normal","74","random,structured_normal,structured_incentive,structured_load","3,4,2,3,2,1","false","",""
"null","","html-keyboard-response","407","350511","0.0-407.0","","<img src=""img/set2/S4.jpg"" width=""540"" height = ""360"">","null","","","","","","","",""
"null","","html-keyboard-response","408","350713","0.0-408.0","","","null","","","","","","","",""
"778","","image-keyboard-response","409","351493","0.0-409.0","","img/set2/S2.jpg","74","2","structured_normal","68","random,structured_normal,structured_incentive,structured_load","3,4,2,3,2,1","false","",""
"null","","html-keyboard-response","410","351848","0.0-410.0","","<img src=""img/set2/S2.jpg"" width=""540"" height = ""360"">","null","","","","","","","",""
"null","","html-keyboard-response","411","352050","0.0-411.0","","","null","","","","","","","",""
"362","","image-keyboard-response","412","352414","0.0-412.0","","img/set2/S3.jpg","72","3","structured_normal","72","random,structured_normal,structured_incentive,structured_load","3,4,2,3,2,1","true","",""
"null","","html-keyboard-response","413","352765","0.0-413.0","","<img src=""img/set2/S3.jpg"" width=""540"" height = ""360"" style=""border:16px solid orange"">","null","","","","","","","",""
"null","","html-keyboard-response","414","352967","0.0-414.0","","","null","","","","","","","",""
"748","","image-keyboard-response","415","353717","0.0-415.0","","img/set2/S4.jpg","68","4","structured_normal","74","random,structured_normal,structured_incentive,structured_load","3,4,2,3,2,1","false","",""
"null","","html-keyboard-response","416","354069","0.0-416.0","","<img src=""img/set2/S4.jpg"" width=""540"" height = ""360"">","null","","","","","","","",""
"null","","html-keyboard-response","417","354272","0.0-417.0","","","null","","","","","","","",""
"819","","image-keyboard-response","418","355093","0.0-418.0","","img/set2/S2.jpg","83","2","structured_normal","68","random,structured_normal,structured_incentive,structured_load","3,4,2,3,2,1","false","",""
"null","","html-keyboard-response","419","355445","0.0-419.0","","<img src=""img/set2/S2.jpg"" width=""540"" height = ""360"">","null","","","","","","","",""
"null","","html-keyboard-response","420","355649","0.0-420.0","","","null","","","","","","","",""
"726","","image-keyboard-response","421","356377","0.0-421.0","","img/set2/S1.jpg","68","1","structured_normal","83","random,structured_normal,structured_incentive,structured_load","3,4,2,3,2,1","false","",""
"null","","html-keyboard-response","422","356733","0.0-422.0","","<img src=""img/set2/S1.jpg"" width=""540"" height = ""360"">","null","","","","","","","",""
"null","","html-keyboard-response","423","356933","0.0-423.0","","","null","","","","","","","",""
"542","","image-keyboard-response","424","357477","0.0-424.0","","img/set2/S3.jpg","72","3","structured_normal","72","random,structured_normal,structured_incentive,structured_load","3,4,2,3,2,1","true","",""
"null","","html-keyboard-response","425","357829","0.0-425.0","","<img src=""img/set2/S3.jpg"" width=""540"" height = ""360"" style=""border:16px solid orange"">","null","","","","","","","",""
"null","","html-keyboard-response","426","358033","0.0-426.0","","","null","","","","","","","",""
"874","","image-keyboard-response","427","358909","0.0-427.0","","img/set2/S4.jpg","74","4","structured_normal","74","random,structured_normal,structured_incentive,structured_load","3,4,2,3,2,1","true","",""
"null","","html-keyboard-response","428","359261","0.0-428.0","","<img src=""img/set2/S4.jpg"" width=""540"" height = ""360"" style=""border:16px solid orange"">","null","","","","","","","",""
"null","","html-keyboard-response","429","359462","0.0-429.0","","","null","","","","","","","",""
"797","","image-keyboard-response","430","360261","0.0-430.0","","img/set2/S1.jpg","68","1","structured_normal","83","random,structured_normal,structured_incentive,structured_load","3,4,2,3,2,1","false","",""
"null","","html-keyboard-response","431","360613","0.0-431.0","","<img src=""img/set2/S1.jpg"" width=""540"" height = ""360"">","null","","","","","","","",""
"null","","html-keyboard-response","432","360815","0.0-432.0","","","null","","","","","","","",""
"552","","image-keyboard-response","433","361369","0.0-433.0","","img/set2/S2.jpg","83","2","structured_normal","68","random,structured_normal,structured_incentive,structured_load","3,4,2,3,2,1","false","",""
"null","","html-keyboard-response","434","361723","0.0-434.0","","<img src=""img/set2/S2.jpg"" width=""540"" height = ""360"">","null","","","","","","","",""
"null","","html-keyboard-response","435","361923","0.0-435.0","","","null","","","","","","","",""
"784","","image-keyboard-response","436","362709","0.0-436.0","","img/set2/S1.jpg","83","1","structured_normal","83","random,structured_normal,structured_incentive,structured_load","3,4,2,3,2,1","true","",""
"null","","html-keyboard-response","437","363062","0.0-437.0","","<img src=""img/set2/S1.jpg"" width=""540"" height = ""360"" style=""border:16px solid orange"">","null","","","","","","","",""
"null","","html-keyboard-response","438","363264","0.0-438.0","","","null","","","","","","","",""
"435","","image-keyboard-response","439","363701","0.0-439.0","","img/set2/S2.jpg","68","2","structured_normal","68","random,structured_normal,structured_incentive,structured_load","3,4,2,3,2,1","true","",""
"null","","html-keyboard-response","440","364053","0.0-440.0","","<img src=""img/set2/S2.jpg"" width=""540"" height = ""360"" style=""border:16px solid orange"">","null","","","","","","","",""
"null","","html-keyboard-response","441","364254","0.0-441.0","","","null","","","","","","","",""
"757","","image-keyboard-response","442","365013","0.0-442.0","","img/set2/S1.jpg","83","1","structured_normal","83","random,structured_normal,structured_incentive,structured_load","3,4,2,3,2,1","true","",""
"null","","html-keyboard-response","443","365366","0.0-443.0","","<img src=""img/set2/S1.jpg"" width=""540"" height = ""360"" style=""border:16px solid orange"">","null","","","","","","","",""
"null","","html-keyboard-response","444","365566","0.0-444.0","","","null","","","","","","","",""
"621","","image-keyboard-response","445","366189","0.0-445.0","","img/set2/S1.jpg","83","1","structured_normal","83","random,structured_normal,structured_incentive,structured_load","3,4,2,3,2,1","true","",""
"null","","html-keyboard-response","446","366541","0.0-446.0","","<img src=""img/set2/S1.jpg"" width=""540"" height = ""360"" style=""border:16px solid orange"">","null","","","","","","","",""
"null","","html-keyboard-response","447","366742","0.0-447.0","","","null","","","","","","","",""
"485","","image-keyboard-response","448","367229","0.0-448.0","","img/set2/S1.jpg","83","1","structured_normal","83","random,structured_normal,structured_incentive,structured_load","3,4,2,3,2,1","true","",""
"null","","html-keyboard-response","449","367580","0.0-449.0","","<img src=""img/set2/S1.jpg"" width=""540"" height = ""360"" style=""border:16px solid orange"">","null","","","","","","","",""
"null","","html-keyboard-response","450","367781","0.0-450.0","","","null","","","","","","","",""
"781","","image-keyboard-response","451","368565","0.0-451.0","","img/set2/S3.jpg","72","3","structured_normal","72","random,structured_normal,structured_incentive,structured_load","3,4,2,3,2,1","true","",""
"null","","html-keyboard-response","452","368918","0.0-452.0","","<img src=""img/set2/S3.jpg"" width=""540"" height = ""360"" style=""border:16px solid orange"">","null","","","","","","","",""
"null","","html-keyboard-response","453","369119","0.0-453.0","","","null","","","","","","","",""
"532","","image-keyboard-response","454","369653","0.0-454.0","","img/set2/S4.jpg","74","4","structured_normal","74","random,structured_normal,structured_incentive,structured_load","3,4,2,3,2,1","true","",""
"null","","html-keyboard-response","455","370004","0.0-455.0","","<img src=""img/set2/S4.jpg"" width=""540"" height = ""360"" style=""border:16px solid orange"">","null","","","","","","","",""
"null","","html-keyboard-response","456","370206","0.0-456.0","","","null","","","","","","","",""
"739","","image-keyboard-response","457","370947","0.0-457.0","","img/set2/S2.jpg","83","2","structured_normal","68","random,structured_normal,structured_incentive,structured_load","3,4,2,3,2,1","false","",""
"null","","html-keyboard-response","458","371300","0.0-458.0","","<img src=""img/set2/S2.jpg"" width=""540"" height = ""360"">","null","","","","","","","",""
"null","","html-keyboard-response","459","371500","0.0-459.0","","","null","","","","","","","",""
"655","","image-keyboard-response","460","372157","0.0-460.0","","img/set2/S3.jpg","72","3","structured_normal","72","random,structured_normal,structured_incentive,structured_load","3,4,2,3,2,1","true","",""
"null","","html-keyboard-response","461","372509","0.0-461.0","","<img src=""img/set2/S3.jpg"" width=""540"" height = ""360"" style=""border:16px solid orange"">","null","","","","","","","",""
"null","","html-keyboard-response","462","372711","0.0-462.0","","","null","","","","","","","",""
"578","","image-keyboard-response","463","373291","0.0-463.0","","img/set2/S4.jpg","74","4","structured_normal","74","random,structured_normal,structured_incentive,structured_load","3,4,2,3,2,1","true","",""
"null","","html-keyboard-response","464","373642","0.0-464.0","","<img src=""img/set2/S4.jpg"" width=""540"" height = ""360"" style=""border:16px solid orange"">","null","","","","","","","",""
"null","","html-keyboard-response","465","373843","0.0-465.0","","","null","","","","","","","",""
"625","","image-keyboard-response","466","374469","0.0-466.0","","img/set2/S3.jpg","72","3","structured_normal","72","random,structured_normal,structured_incentive,structured_load","3,4,2,3,2,1","true","",""
"null","","html-keyboard-response","467","374821","0.0-467.0","","<img src=""img/set2/S3.jpg"" width=""540"" height = ""360"" style=""border:16px solid orange"">","null","","","","","","","",""
"null","","html-keyboard-response","468","375045","0.0-468.0","","","null","","","","","","","",""
"566","","image-keyboard-response","469","375613","0.0-469.0","","img/set2/S4.jpg","74","4","structured_normal","74","random,structured_normal,structured_incentive,structured_load","3,4,2,3,2,1","true","",""
"null","","html-keyboard-response","470","375965","0.0-470.0","","<img src=""img/set2/S4.jpg"" width=""540"" height = ""360"" style=""border:16px solid orange"">","null","","","","","","","",""
"null","","html-keyboard-response","471","376171","0.0-471.0","","","null","","","","","","","",""
"585","","image-keyboard-response","472","376758","0.0-472.0","","img/set2/S2.jpg","68","2","structured_normal","68","random,structured_normal,structured_incentive,structured_load","3,4,2,3,2,1","true","",""
"null","","html-keyboard-response","473","377110","0.0-473.0","","<img src=""img/set2/S2.jpg"" width=""540"" height = ""360"" style=""border:16px solid orange"">","null","","","","","","","",""
"null","","html-keyboard-response","474","377312","0.0-474.0","","","null","","","","","","","",""
"675","","image-keyboard-response","475","377989","0.0-475.0","","img/set2/S3.jpg","72","3","structured_normal","72","random,structured_normal,structured_incentive,structured_load","3,4,2,3,2,1","true","",""
"null","","html-keyboard-response","476","378350","0.0-476.0","","<img src=""img/set2/S3.jpg"" width=""540"" height = ""360"" style=""border:16px solid orange"">","null","","","","","","","",""
"null","","html-keyboard-response","477","378552","0.0-477.0","","","null","","","","","","","",""
"611","","image-keyboard-response","478","379166","0.0-478.0","","img/set2/S4.jpg","68","4","structured_normal","74","random,structured_normal,structured_incentive,structured_load","3,4,2,3,2,1","false","",""
"null","","html-keyboard-response","479","379518","0.0-479.0","","<img src=""img/set2/S4.jpg"" width=""540"" height = ""360"">","null","","","","","","","",""
"null","","html-keyboard-response","480","379720","0.0-480.0","","","null","","","","","","","",""
"523","","image-keyboard-response","481","380245","0.0-481.0","","img/set2/S3.jpg","72","3","structured_normal","72","random,structured_normal,structured_incentive,structured_load","3,4,2,3,2,1","true","",""
"null","","html-keyboard-response","482","380597","0.0-482.0","","<img src=""img/set2/S3.jpg"" width=""540"" height = ""360"" style=""border:16px solid orange"">","null","","","","","","","",""
"null","","html-keyboard-response","483","380800","0.0-483.0","","","null","","","","","","","",""
"436","","image-keyboard-response","484","381237","0.0-484.0","","img/set2/S4.jpg","74","4","structured_normal","74","random,structured_normal,structured_incentive,structured_load","3,4,2,3,2,1","true","",""
"null","","html-keyboard-response","485","381590","0.0-485.0","","<img src=""img/set2/S4.jpg"" width=""540"" height = ""360"" style=""border:16px solid orange"">","null","","","","","","","",""
"null","","html-keyboard-response","486","381794","0.0-486.0","","","null","","","","","","","",""
"706","","image-keyboard-response","487","382501","0.0-487.0","","img/set2/S1.jpg","83","1","structured_normal","83","random,structured_normal,structured_incentive,structured_load","3,4,2,3,2,1","true","",""
"null","","html-keyboard-response","488","382854","0.0-488.0","","<img src=""img/set2/S1.jpg"" width=""540"" height = ""360"" style=""border:16px solid orange"">","null","","","","","","","",""
"null","","html-keyboard-response","489","383054","0.0-489.0","","","null","","","","","","","",""
"677","","image-keyboard-response","490","383733","0.0-490.0","","img/set2/S3.jpg","72","3","structured_normal","72","random,structured_normal,structured_incentive,structured_load","3,4,2,3,2,1","true","",""
"null","","html-keyboard-response","491","384085","0.0-491.0","","<img src=""img/set2/S3.jpg"" width=""540"" height = ""360"" style=""border:16px solid orange"">","null","","","","","","","",""
"null","","html-keyboard-response","492","384288","0.0-492.0","","","null","","","","","","","",""
"795","","image-keyboard-response","493","385085","0.0-493.0","","img/set2/S4.jpg","74","4","structured_normal","74","random,structured_normal,structured_incentive,structured_load","3,4,2,3,2,1","true","",""
"null","","html-keyboard-response","494","385436","0.0-494.0","","<img src=""img/set2/S4.jpg"" width=""540"" height = ""360"" style=""border:16px solid orange"">","null","","","","","","","",""
"null","","html-keyboard-response","495","385639","0.0-495.0","","","null","","","","","","","",""
"628","","image-keyboard-response","496","386270","0.0-496.0","","img/set2/S2.jpg","68","2","structured_normal","68","random,structured_normal,structured_incentive,structured_load","3,4,2,3,2,1","true","",""
"null","","html-keyboard-response","497","386622","0.0-497.0","","<img src=""img/set2/S2.jpg"" width=""540"" height = ""360"" style=""border:16px solid orange"">","null","","","","","","","",""
"null","","html-keyboard-response","498","386823","0.0-498.0","","","null","","","","","","","",""
"548","","image-keyboard-response","499","387373","0.0-499.0","","img/set2/S2.jpg","68","2","structured_normal","68","random,structured_normal,structured_incentive,structured_load","3,4,2,3,2,1","true","",""
"null","","html-keyboard-response","500","387727","0.0-500.0","","<img src=""img/set2/S2.jpg"" width=""540"" height = ""360"" style=""border:16px solid orange"">","null","","","","","","","",""
"null","","html-keyboard-response","501","387977","0.0-501.0","","","null","","","","","","","",""
"738","","image-keyboard-response","502","388717","0.0-502.0","","img/set2/S1.jpg","83","1","structured_normal","83","random,structured_normal,structured_incentive,structured_load","3,4,2,3,2,1","true","",""
"null","","html-keyboard-response","503","389069","0.0-503.0","","<img src=""img/set2/S1.jpg"" width=""540"" height = ""360"" style=""border:16px solid orange"">","null","","","","","","","",""
"null","","html-keyboard-response","504","389271","0.0-504.0","","","null","","","","","","","",""
"379","","image-keyboard-response","505","389653","0.0-505.0","","img/set2/S1.jpg","83","1","structured_normal","83","random,structured_normal,structured_incentive,structured_load","3,4,2,3,2,1","true","",""
"null","","html-keyboard-response","506","390007","0.0-506.0","","<img src=""img/set2/S1.jpg"" width=""540"" height = ""360"" style=""border:16px solid orange"">","null","","","","","","","",""
"null","","html-keyboard-response","507","390208","0.0-507.0","","","null","","","","","","","",""
"459","","image-keyboard-response","508","390669","0.0-508.0","","img/set2/S1.jpg","83","1","structured_normal","83","random,structured_normal,structured_incentive,structured_load","3,4,2,3,2,1","true","",""
"null","","html-keyboard-response","509","391020","0.0-509.0","","<img src=""img/set2/S1.jpg"" width=""540"" height = ""360"" style=""border:16px solid orange"">","null","","","","","","","",""
"null","","html-keyboard-response","510","391221","0.0-510.0","","","null","","","","","","","",""
"438","","image-keyboard-response","511","391661","0.0-511.0","","img/set2/S1.jpg","83","1","structured_normal","83","random,structured_normal,structured_incentive,structured_load","3,4,2,3,2,1","true","",""
"null","","html-keyboard-response","512","392014","0.0-512.0","","<img src=""img/set2/S1.jpg"" width=""540"" height = ""360"" style=""border:16px solid orange"">","null","","","","","","","",""
"null","","html-keyboard-response","513","392216","0.0-513.0","","","null","","","","","","","",""
"439","","image-keyboard-response","514","392656","0.0-514.0","","img/set2/S1.jpg","83","1","structured_normal","83","random,structured_normal,structured_incentive,structured_load","3,4,2,3,2,1","true","",""
"null","","html-keyboard-response","515","393007","0.0-515.0","","<img src=""img/set2/S1.jpg"" width=""540"" height = ""360"" style=""border:16px solid orange"">","null","","","","","","","",""
"null","","html-keyboard-response","516","393209","0.0-516.0","","","null","","","","","","","",""
"617","","image-keyboard-response","517","393829","0.0-517.0","","img/set2/S3.jpg","72","3","structured_normal","72","random,structured_normal,structured_incentive,structured_load","3,4,2,3,2,1","true","",""
"null","","html-keyboard-response","518","394181","0.0-518.0","","<img src=""img/set2/S3.jpg"" width=""540"" height = ""360"" style=""border:16px solid orange"">","null","","","","","","","",""
"null","","html-keyboard-response","519","394385","0.0-519.0","","","null","","","","","","","",""
"722","","image-keyboard-response","520","395109","0.0-520.0","","img/set2/S4.jpg","74","4","structured_normal","74","random,structured_normal,structured_incentive,structured_load","3,4,2,3,2,1","true","",""
"null","","html-keyboard-response","521","395461","0.0-521.0","","<img src=""img/set2/S4.jpg"" width=""540"" height = ""360"" style=""border:16px solid orange"">","null","","","","","","","",""
"null","","html-keyboard-response","522","395662","0.0-522.0","","","null","","","","","","","",""
"724","","image-keyboard-response","523","396389","0.0-523.0","","img/set2/S1.jpg","83","1","structured_normal","83","random,structured_normal,structured_incentive,structured_load","3,4,2,3,2,1","true","",""
"null","","html-keyboard-response","524","396740","0.0-524.0","","<img src=""img/set2/S1.jpg"" width=""540"" height = ""360"" style=""border:16px solid orange"">","null","","","","","","","",""
"null","","html-keyboard-response","525","396942","0.0-525.0","","","null","","","","","","","",""
"557","","image-keyboard-response","526","397501","0.0-526.0","","img/set2/S2.jpg","68","2","structured_normal","68","random,structured_normal,structured_incentive,structured_load","3,4,2,3,2,1","true","",""
"null","","html-keyboard-response","527","397853","0.0-527.0","","<img src=""img/set2/S2.jpg"" width=""540"" height = ""360"" style=""border:16px solid orange"">","null","","","","","","","",""
"null","","html-keyboard-response","528","398055","0.0-528.0","","","null","","","","","","","",""
"540","","image-keyboard-response","529","398597","0.0-529.0","","img/set2/S2.jpg","68","2","structured_normal","68","random,structured_normal,structured_incentive,structured_load","3,4,2,3,2,1","true","",""
"null","","html-keyboard-response","530","398953","0.0-530.0","","<img src=""img/set2/S2.jpg"" width=""540"" height = ""360"" style=""border:16px solid orange"">","null","","","","","","","",""
"null","","html-keyboard-response","531","399153","0.0-531.0","","","null","","","","","","","",""
"415","","image-keyboard-response","532","399570","0.0-532.0","","img/set2/S2.jpg","68","2","structured_normal","68","random,structured_normal,structured_incentive,structured_load","3,4,2,3,2,1","true","",""
"null","","html-keyboard-response","533","399922","0.0-533.0","","<img src=""img/set2/S2.jpg"" width=""540"" height = ""360"" style=""border:16px solid orange"">","null","","","","","","","",""
"null","","html-keyboard-response","534","400125","0.0-534.0","","","null","","","","","","","",""
"399","","image-keyboard-response","535","400525","0.0-535.0","","img/set2/S2.jpg","68","2","structured_normal","68","random,structured_normal,structured_incentive,structured_load","3,4,2,3,2,1","true","",""
"null","","html-keyboard-response","536","400876","0.0-536.0","","<img src=""img/set2/S2.jpg"" width=""540"" height = ""360"" style=""border:16px solid orange"">","null","","","","","","","",""
"null","","html-keyboard-response","537","401078","0.0-537.0","","","null","","","","","","","",""
"390","","image-keyboard-response","538","401470","0.0-538.0","","img/set2/S2.jpg","68","2","structured_normal","68","random,structured_normal,structured_incentive,structured_load","3,4,2,3,2,1","true","",""
"null","","html-keyboard-response","539","401822","0.0-539.0","","<img src=""img/set2/S2.jpg"" width=""540"" height = ""360"" style=""border:16px solid orange"">","null","","","","","","","",""
"null","","html-keyboard-response","540","402024","0.0-540.0","","","null","","","","","","","",""
"603","","image-keyboard-response","541","402629","0.0-541.0","","img/set2/S3.jpg","72","3","structured_normal","72","random,structured_normal,structured_incentive,structured_load","3,4,2,3,2,1","true","",""
"null","","html-keyboard-response","542","402981","0.0-542.0","","<img src=""img/set2/S3.jpg"" width=""540"" height = ""360"" style=""border:16px solid orange"">","null","","","","","","","",""
"null","","html-keyboard-response","543","403198","0.0-543.0","","","null","","","","","","","",""
"598","","image-keyboard-response","544","403799","0.0-544.0","","img/set2/S4.jpg","74","4","structured_normal","74","random,structured_normal,structured_incentive,structured_load","3,4,2,3,2,1","true","",""
"null","","html-keyboard-response","545","404151","0.0-545.0","","<img src=""img/set2/S4.jpg"" width=""540"" height = ""360"" style=""border:16px solid orange"">","null","","","","","","","",""
"null","","html-keyboard-response","546","404354","0.0-546.0","","","null","","","","","","","",""
"601","","image-keyboard-response","547","404957","0.0-547.0","","img/set2/S2.jpg","68","2","structured_normal","68","random,structured_normal,structured_incentive,structured_load","3,4,2,3,2,1","true","",""
"null","","html-keyboard-response","548","405319","0.0-548.0","","<img src=""img/set2/S2.jpg"" width=""540"" height = ""360"" style=""border:16px solid orange"">","null","","","","","","","",""
"null","","html-keyboard-response","549","405520","0.0-549.0","","","null","","","","","","","",""
"483","","image-keyboard-response","550","406005","0.0-550.0","","img/set2/S1.jpg","83","1","structured_normal","83","random,structured_normal,structured_incentive,structured_load","3,4,2,3,2,1","true","",""
"null","","html-keyboard-response","551","406358","0.0-551.0","","<img src=""img/set2/S1.jpg"" width=""540"" height = ""360"" style=""border:16px solid orange"">","null","","","","","","","",""
"null","","html-keyboard-response","552","406568","0.0-552.0","","","null","","","","","","","",""
"531","","image-keyboard-response","553","407101","0.0-553.0","","img/set2/S2.jpg","68","2","structured_normal","68","random,structured_normal,structured_incentive,structured_load","3,4,2,3,2,1","true","",""
"null","","html-keyboard-response","554","407479","0.0-554.0","","<img src=""img/set2/S2.jpg"" width=""540"" height = ""360"" style=""border:16px solid orange"">","null","","","","","","","",""
"null","","html-keyboard-response","555","407680","0.0-555.0","","","null","","","","","","","",""
"523","","image-keyboard-response","556","408204","0.0-556.0","","img/set2/S3.jpg","72","3","structured_normal","72","random,structured_normal,structured_incentive,structured_load","3,4,2,3,2,1","true","",""
"null","","html-keyboard-response","557","408559","0.0-557.0","","<img src=""img/set2/S3.jpg"" width=""540"" height = ""360"" style=""border:16px solid orange"">","null","","","","","","","",""
"null","","html-keyboard-response","558","408764","0.0-558.0","","","null","","","","","","","",""
"599","","image-keyboard-response","559","409365","0.0-559.0","","img/set2/S4.jpg","74","4","structured_normal","74","random,structured_normal,structured_incentive,structured_load","3,4,2,3,2,1","true","",""
"null","","html-keyboard-response","560","409716","0.0-560.0","","<img src=""img/set2/S4.jpg"" width=""540"" height = ""360"" style=""border:16px solid orange"">","null","","","","","","","",""
"null","","html-keyboard-response","561","409920","0.0-561.0","","","null","","","","","","","",""
"436","","image-keyboard-response","562","410357","0.0-562.0","","img/set2/S3.jpg","72","3","structured_normal","72","random,structured_normal,structured_incentive,structured_load","3,4,2,3,2,1","true","",""
"null","","html-keyboard-response","563","410722","0.0-563.0","","<img src=""img/set2/S3.jpg"" width=""540"" height = ""360"" style=""border:16px solid orange"">","null","","","","","","","",""
"null","","html-keyboard-response","564","410924","0.0-564.0","","","null","","","","","","","",""
"488","","image-keyboard-response","565","411414","0.0-565.0","","img/set2/S4.jpg","74","4","structured_normal","74","random,structured_normal,structured_incentive,structured_load","3,4,2,3,2,1","true","",""
"null","","html-keyboard-response","566","411780","0.0-566.0","","<img src=""img/set2/S4.jpg"" width=""540"" height = ""360"" style=""border:16px solid orange"">","null","","","","","","","",""
"null","","html-keyboard-response","567","411985","0.0-567.0","","","null","","","","","","","",""
"427","","image-keyboard-response","568","412413","0.0-568.0","","img/set2/S3.jpg","72","3","structured_normal","72","random,structured_normal,structured_incentive,structured_load","3,4,2,3,2,1","true","",""
"null","","html-keyboard-response","569","412767","0.0-569.0","","<img src=""img/set2/S3.jpg"" width=""540"" height = ""360"" style=""border:16px solid orange"">","null","","","","","","","",""
"null","","html-keyboard-response","570","412968","0.0-570.0","","","null","","","","","","","",""
"635","","image-keyboard-response","571","413605","0.0-571.0","","img/set2/S4.jpg","74","4","structured_normal","74","random,structured_normal,structured_incentive,structured_load","3,4,2,3,2,1","true","",""
"null","","html-keyboard-response","572","413956","0.0-572.0","","<img src=""img/set2/S4.jpg"" width=""540"" height = ""360"" style=""border:16px solid orange"">","null","","","","","","","",""
"null","","html-keyboard-response","573","414160","0.0-573.0","","","null","","","","","","","",""
"459","","image-keyboard-response","574","414621","0.0-574.0","","img/set2/S3.jpg","72","3","structured_normal","72","random,structured_normal,structured_incentive,structured_load","3,4,2,3,2,1","true","",""
"null","","html-keyboard-response","575","414981","0.0-575.0","","<img src=""img/set2/S3.jpg"" width=""540"" height = ""360"" style=""border:16px solid orange"">","null","","","","","","","",""
"null","","html-keyboard-response","576","415182","0.0-576.0","","","null","","","","","","","",""
"436","","image-keyboard-response","577","415621","0.0-577.0","","img/set2/S4.jpg","74","4","structured_normal","74","random,structured_normal,structured_incentive,structured_load","3,4,2,3,2,1","true","",""
"null","","html-keyboard-response","578","415975","0.0-578.0","","<img src=""img/set2/S4.jpg"" width=""540"" height = ""360"" style=""border:16px solid orange"">","null","","","","","","","",""
"null","","html-keyboard-response","579","416177","0.0-579.0","","","null","","","","","","","",""
"628","","image-keyboard-response","580","416807","0.0-580.0","","img/set2/S3.jpg","72","3","structured_normal","72","random,structured_normal,structured_incentive,structured_load","3,4,2,3,2,1","true","",""
"null","","html-keyboard-response","581","417173","0.0-581.0","","<img src=""img/set2/S3.jpg"" width=""540"" height = ""360"" style=""border:16px solid orange"">","null","","","","","","","",""
"null","","html-keyboard-response","582","417373","0.0-582.0","","","null","","","","","","","",""
"430","","image-keyboard-response","583","417805","0.0-583.0","","img/set2/S4.jpg","74","4","structured_normal","74","random,structured_normal,structured_incentive,structured_load","3,4,2,3,2,1","true","",""
"null","","html-keyboard-response","584","418157","0.0-584.0","","<img src=""img/set2/S4.jpg"" width=""540"" height = ""360"" style=""border:16px solid orange"">","null","","","","","","","",""
"null","","html-keyboard-response","585","418360","0.0-585.0","","","null","","","","","","","",""
"515","","image-keyboard-response","586","418877","0.0-586.0","","img/set2/S3.jpg","72","3","structured_normal","72","random,structured_normal,structured_incentive,structured_load","3,4,2,3,2,1","true","",""
"null","","html-keyboard-response","587","419229","0.0-587.0","","<img src=""img/set2/S3.jpg"" width=""540"" height = ""360"" style=""border:16px solid orange"">","null","","","","","","","",""
"null","","html-keyboard-response","588","419438","0.0-588.0","","","null","","","","","","","",""
"501","","image-keyboard-response","589","419940","0.0-589.0","","img/set2/S4.jpg","74","4","structured_normal","74","random,structured_normal,structured_incentive,structured_load","3,4,2,3,2,1","true","",""
"null","","html-keyboard-response","590","420291","0.0-590.0","","<img src=""img/set2/S4.jpg"" width=""540"" height = ""360"" style=""border:16px solid orange"">","null","","","","","","","",""
"null","","html-keyboard-response","591","420499","0.0-591.0","","","null","","","","","","","",""
"672","","image-keyboard-response","592","421172","0.0-592.0","","img/set2/S1.jpg","83","1","structured_normal","83","random,structured_normal,structured_incentive,structured_load","3,4,2,3,2,1","true","",""
"null","","html-keyboard-response","593","421525","0.0-593.0","","<img src=""img/set2/S1.jpg"" width=""540"" height = ""360"" style=""border:16px solid orange"">","null","","","","","","","",""
"null","","html-keyboard-response","594","421835","0.0-594.0","","","null","","","","","","","",""
"513","","image-keyboard-response","595","422350","0.0-595.0","","img/set2/S1.jpg","83","1","structured_normal","83","random,structured_normal,structured_incentive,structured_load","3,4,2,3,2,1","true","",""
"null","","html-keyboard-response","596","422728","0.0-596.0","","<img src=""img/set2/S1.jpg"" width=""540"" height = ""360"" style=""border:16px solid orange"">","null","","","","","","","",""
"null","","html-keyboard-response","597","422929","0.0-597.0","","","null","","","","","","","",""
"474","","image-keyboard-response","598","423405","0.0-598.0","","img/set2/S1.jpg","83","1","structured_normal","83","random,structured_normal,structured_incentive,structured_load","3,4,2,3,2,1","true","",""
"null","","html-keyboard-response","599","423756","0.0-599.0","","<img src=""img/set2/S1.jpg"" width=""540"" height = ""360"" style=""border:16px solid orange"">","null","","","","","","","",""
"null","","html-keyboard-response","600","423957","0.0-600.0","","","null","","","","","","","",""
"455","","image-keyboard-response","601","424414","0.0-601.0","","img/set2/S1.jpg","83","1","structured_normal","83","random,structured_normal,structured_incentive,structured_load","3,4,2,3,2,1","true","",""
"null","","html-keyboard-response","602","424767","0.0-602.0","","<img src=""img/set2/S1.jpg"" width=""540"" height = ""360"" style=""border:16px solid orange"">","null","","","","","","","",""
"null","","html-keyboard-response","603","424969","0.0-603.0","","","null","","","","","","","",""
"434","","image-keyboard-response","604","425405","0.0-604.0","","img/set2/S1.jpg","83","1","structured_normal","83","random,structured_normal,structured_incentive,structured_load","3,4,2,3,2,1","true","",""
"null","","html-keyboard-response","605","425758","0.0-605.0","","<img src=""img/set2/S1.jpg"" width=""540"" height = ""360"" style=""border:16px solid orange"">","null","","","","","","","",""
"null","","html-keyboard-response","606","425974","0.0-606.0","","","null","","","","","","","",""
"438","","image-keyboard-response","607","426414","0.0-607.0","","img/set2/S2.jpg","68","2","structured_normal","68","random,structured_normal,structured_incentive,structured_load","3,4,2,3,2,1","true","",""
"null","","html-keyboard-response","608","426766","0.0-608.0","","<img src=""img/set2/S2.jpg"" width=""540"" height = ""360"" style=""border:16px solid orange"">","null","","","","","","","",""
"null","","html-keyboard-response","609","426967","0.0-609.0","","","null","","","","","","","",""
"596","","image-keyboard-response","610","427565","0.0-610.0","","img/set2/S3.jpg","72","3","structured_normal","72","random,structured_normal,structured_incentive,structured_load","3,4,2,3,2,1","true","",""
