"rt","url","trial_type","trial_index","time_elapsed","internal_node_id","assignmentID","mturkID","hitID","view_history","stimulus","key_press","state","test_part","correct_response","order_block","order_chunk","order_freq","correct","responses","question_order","bonus"
"47888.299999952316","consent.html","external-html","0","48023","0.0-0.0","3EO896NRAXHJW6FOIP2YR86AOSGJTI","A30HUZHJBOX1LK","3RKHNXPHGWIRLJ219DNI80W3E6SKUF","","","","","","","","","","","","",""
"55564","","instructions","1","103595","0.0-1.0","3EO896NRAXHJW6FOIP2YR86AOSGJTI","A30HUZHJBOX1LK","3RKHNXPHGWIRLJ219DNI80W3E6SKUF","[{""page_index"":0,""viewing_time"":2822.2999999523163},{""page_index"":1,""viewing_time"":5703.900000095367},{""page_index"":2,""viewing_time"":7317.699999928474},{""page_index"":3,""viewing_time"":17125.800000071526},{""page_index"":4,""viewing_time"":5741.899999976158},{""page_index"":5,""viewing_time"":12257.600000023842},{""page_index"":6,""viewing_time"":4593.699999928474}]","","","","","","","","","","","",""
"6920.100000023842","","instructions","2","110516","0.0-2.0","3EO896NRAXHJW6FOIP2YR86AOSGJTI","A30HUZHJBOX1LK","3RKHNXPHGWIRLJ219DNI80W3E6SKUF","[{""page_index"":0,""viewing_time"":6919.899999976158}]","","","","","","","","","","","",""
"23599.899999976158","","instructions","3","134119","0.0-3.0","3EO896NRAXHJW6FOIP2YR86AOSGJTI","A30HUZHJBOX1LK","3RKHNXPHGWIRLJ219DNI80W3E6SKUF","[{""page_index"":0,""viewing_time"":19776.299999952316},{""page_index"":1,""viewing_time"":3823.3000000715256}]","","","","","","","","","","","",""
"null","","image-keyboard-response","4","136624","0.0-4.0","3EO896NRAXHJW6FOIP2YR86AOSGJTI","A30HUZHJBOX1LK","3RKHNXPHGWIRLJ219DNI80W3E6SKUF","","img/set1/S1.jpg","null","1","structured_load","83","structured_load,structured_incentive,random,structured_normal","","3,1,2,4","false","","",""
"null","","html-keyboard-response","5","136977","0.0-5.0","3EO896NRAXHJW6FOIP2YR86AOSGJTI","A30HUZHJBOX1LK","3RKHNXPHGWIRLJ219DNI80W3E6SKUF","","<img src=""img/set1/S1.jpg"" width=""540"" height = ""360"">","null","","","","","","","","","",""
"null","","html-keyboard-response","6","137178","0.0-6.0","3EO896NRAXHJW6FOIP2YR86AOSGJTI","A30HUZHJBOX1LK","3RKHNXPHGWIRLJ219DNI80W3E6SKUF","","","null","","","","","","","","","",""
"697.1000000238419","","image-keyboard-response","7","137878","0.0-7.0","3EO896NRAXHJW6FOIP2YR86AOSGJTI","A30HUZHJBOX1LK","3RKHNXPHGWIRLJ219DNI80W3E6SKUF","","img/set1/S4.jpg","68","4","structured_load","74","structured_load,structured_incentive,random,structured_normal","","3,1,2,4","false","","",""
"null","","html-keyboard-response","8","138230","0.0-8.0","3EO896NRAXHJW6FOIP2YR86AOSGJTI","A30HUZHJBOX1LK","3RKHNXPHGWIRLJ219DNI80W3E6SKUF","","<img src=""img/set1/S4.jpg"" width=""540"" height = ""360"">","null","","","","","","","","","",""
"null","","html-keyboard-response","9","138432","0.0-9.0","3EO896NRAXHJW6FOIP2YR86AOSGJTI","A30HUZHJBOX1LK","3RKHNXPHGWIRLJ219DNI80W3E6SKUF","","","null","","","","","","","","","",""
"683.3999999761581","","image-keyboard-response","10","139117","0.0-10.0","3EO896NRAXHJW6FOIP2YR86AOSGJTI","A30HUZHJBOX1LK","3RKHNXPHGWIRLJ219DNI80W3E6SKUF","","img/set1/S3.jpg","72","3","structured_load","72","structured_load,structured_incentive,random,structured_normal","","3,1,2,4","true","","",""
"null","","html-keyboard-response","11","139469","0.0-11.0","3EO896NRAXHJW6FOIP2YR86AOSGJTI","A30HUZHJBOX1LK","3RKHNXPHGWIRLJ219DNI80W3E6SKUF","","<img src=""img/set1/S3.jpg"" width=""540"" height = ""360"" style=""border:16px solid orange"">","null","","","","","","","","","",""
"null","","html-keyboard-response","12","139670","0.0-12.0","3EO896NRAXHJW6FOIP2YR86AOSGJTI","A30HUZHJBOX1LK","3RKHNXPHGWIRLJ219DNI80W3E6SKUF","","","null","","","","","","","","","",""
"813.7000000476837","","image-keyboard-response","13","140485","0.0-13.0","3EO896NRAXHJW6FOIP2YR86AOSGJTI","A30HUZHJBOX1LK","3RKHNXPHGWIRLJ219DNI80W3E6SKUF","","img/set1/S4.jpg","74","4","structured_load","74","structured_load,structured_incentive,random,structured_normal","","3,1,2,4","true","","",""
"null","","html-keyboard-response","14","140837","0.0-14.0","3EO896NRAXHJW6FOIP2YR86AOSGJTI","A30HUZHJBOX1LK","3RKHNXPHGWIRLJ219DNI80W3E6SKUF","","<img src=""img/set1/S4.jpg"" width=""540"" height = ""360"" style=""border:16px solid orange"">","null","","","","","","","","","",""
"null","","html-keyboard-response","15","141038","0.0-15.0","3EO896NRAXHJW6FOIP2YR86AOSGJTI","A30HUZHJBOX1LK","3RKHNXPHGWIRLJ219DNI80W3E6SKUF","","","null","","","","","","","","","",""
"1100.5","","image-keyboard-response","16","142140","0.0-16.0","3EO896NRAXHJW6FOIP2YR86AOSGJTI","A30HUZHJBOX1LK","3RKHNXPHGWIRLJ219DNI80W3E6SKUF","","img/set1/S2.jpg","68","2","structured_load","68","structured_load,structured_incentive,random,structured_normal","","3,1,2,4","true","","",""
"null","","html-keyboard-response","17","142492","0.0-17.0","3EO896NRAXHJW6FOIP2YR86AOSGJTI","A30HUZHJBOX1LK","3RKHNXPHGWIRLJ219DNI80W3E6SKUF","","<img src=""img/set1/S2.jpg"" width=""540"" height = ""360"" style=""border:16px solid orange"">","null","","","","","","","","","",""
"null","","html-keyboard-response","18","142693","0.0-18.0","3EO896NRAXHJW6FOIP2YR86AOSGJTI","A30HUZHJBOX1LK","3RKHNXPHGWIRLJ219DNI80W3E6SKUF","","","null","","","","","","","","","",""
"845.8999999761581","","image-keyboard-response","19","143540","0.0-19.0","3EO896NRAXHJW6FOIP2YR86AOSGJTI","A30HUZHJBOX1LK","3RKHNXPHGWIRLJ219DNI80W3E6SKUF","","img/set1/S4.jpg","68","4","structured_load","74","structured_load,structured_incentive,random,structured_normal","","3,1,2,4","false","","",""
"null","","html-keyboard-response","20","143891","0.0-20.0","3EO896NRAXHJW6FOIP2YR86AOSGJTI","A30HUZHJBOX1LK","3RKHNXPHGWIRLJ219DNI80W3E6SKUF","","<img src=""img/set1/S4.jpg"" width=""540"" height = ""360"">","null","","","","","","","","","",""
"null","","html-keyboard-response","21","144093","0.0-21.0","3EO896NRAXHJW6FOIP2YR86AOSGJTI","A30HUZHJBOX1LK","3RKHNXPHGWIRLJ219DNI80W3E6SKUF","","","null","","","","","","","","","",""
"581.8000000715256","","image-keyboard-response","22","144676","0.0-22.0","3EO896NRAXHJW6FOIP2YR86AOSGJTI","A30HUZHJBOX1LK","3RKHNXPHGWIRLJ219DNI80W3E6SKUF","","img/set1/S3.jpg","74","3","structured_load","72","structured_load,structured_incentive,random,structured_normal","","3,1,2,4","false","","",""
"null","","html-keyboard-response","23","145028","0.0-23.0","3EO896NRAXHJW6FOIP2YR86AOSGJTI","A30HUZHJBOX1LK","3RKHNXPHGWIRLJ219DNI80W3E6SKUF","","<img src=""img/set1/S3.jpg"" width=""540"" height = ""360"">","null","","","","","","","","","",""
"null","","html-keyboard-response","24","145229","0.0-24.0","3EO896NRAXHJW6FOIP2YR86AOSGJTI","A30HUZHJBOX1LK","3RKHNXPHGWIRLJ219DNI80W3E6SKUF","","","null","","","","","","","","","",""
"397.90000009536743","","image-keyboard-response","25","145628","0.0-25.0","3EO896NRAXHJW6FOIP2YR86AOSGJTI","A30HUZHJBOX1LK","3RKHNXPHGWIRLJ219DNI80W3E6SKUF","","img/set1/S3.jpg","72","3","structured_load","72","structured_load,structured_incentive,random,structured_normal","","3,1,2,4","true","","",""
"null","","html-keyboard-response","26","145979","0.0-26.0","3EO896NRAXHJW6FOIP2YR86AOSGJTI","A30HUZHJBOX1LK","3RKHNXPHGWIRLJ219DNI80W3E6SKUF","","<img src=""img/set1/S3.jpg"" width=""540"" height = ""360"" style=""border:16px solid orange"">","null","","","","","","","","","",""
"null","","html-keyboard-response","27","146181","0.0-27.0","3EO896NRAXHJW6FOIP2YR86AOSGJTI","A30HUZHJBOX1LK","3RKHNXPHGWIRLJ219DNI80W3E6SKUF","","","null","","","","","","","","","",""
"534.2000000476837","","image-keyboard-response","28","146716","0.0-28.0","3EO896NRAXHJW6FOIP2YR86AOSGJTI","A30HUZHJBOX1LK","3RKHNXPHGWIRLJ219DNI80W3E6SKUF","","img/set1/S3.jpg","72","3","structured_load","72","structured_load,structured_incentive,random,structured_normal","","3,1,2,4","true","","",""
"null","","html-keyboard-response","29","147067","0.0-29.0","3EO896NRAXHJW6FOIP2YR86AOSGJTI","A30HUZHJBOX1LK","3RKHNXPHGWIRLJ219DNI80W3E6SKUF","","<img src=""img/set1/S3.jpg"" width=""540"" height = ""360"" style=""border:16px solid orange"">","null","","","","","","","","","",""
"null","","html-keyboard-response","30","147269","0.0-30.0","3EO896NRAXHJW6FOIP2YR86AOSGJTI","A30HUZHJBOX1LK","3RKHNXPHGWIRLJ219DNI80W3E6SKUF","","","null","","","","","","","","","",""
"830.2999999523163","","image-keyboard-response","31","148100","0.0-31.0","3EO896NRAXHJW6FOIP2YR86AOSGJTI","A30HUZHJBOX1LK","3RKHNXPHGWIRLJ219DNI80W3E6SKUF","","img/set1/S1.jpg","68","1","structured_load","83","structured_load,structured_incentive,random,structured_normal","","3,1,2,4","false","","",""
"null","","html-keyboard-response","32","148453","0.0-32.0","3EO896NRAXHJW6FOIP2YR86AOSGJTI","A30HUZHJBOX1LK","3RKHNXPHGWIRLJ219DNI80W3E6SKUF","","<img src=""img/set1/S1.jpg"" width=""540"" height = ""360"">","null","","","","","","","","","",""
"null","","html-keyboard-response","33","148654","0.0-33.0","3EO896NRAXHJW6FOIP2YR86AOSGJTI","A30HUZHJBOX1LK","3RKHNXPHGWIRLJ219DNI80W3E6SKUF","","","null","","","","","","","","","",""
"885.3999999761581","","image-keyboard-response","34","149540","0.0-34.0","3EO896NRAXHJW6FOIP2YR86AOSGJTI","A30HUZHJBOX1LK","3RKHNXPHGWIRLJ219DNI80W3E6SKUF","","img/set1/S4.jpg","72","4","structured_load","74","structured_load,structured_incentive,random,structured_normal","","3,1,2,4","false","","",""
"null","","html-keyboard-response","35","149893","0.0-35.0","3EO896NRAXHJW6FOIP2YR86AOSGJTI","A30HUZHJBOX1LK","3RKHNXPHGWIRLJ219DNI80W3E6SKUF","","<img src=""img/set1/S4.jpg"" width=""540"" height = ""360"">","null","","","","","","","","","",""
"null","","html-keyboard-response","36","150094","0.0-36.0","3EO896NRAXHJW6FOIP2YR86AOSGJTI","A30HUZHJBOX1LK","3RKHNXPHGWIRLJ219DNI80W3E6SKUF","","","null","","","","","","","","","",""
"797","","image-keyboard-response","37","150893","0.0-37.0","3EO896NRAXHJW6FOIP2YR86AOSGJTI","A30HUZHJBOX1LK","3RKHNXPHGWIRLJ219DNI80W3E6SKUF","","img/set1/S2.jpg","74","2","structured_load","68","structured_load,structured_incentive,random,structured_normal","","3,1,2,4","false","","",""
"null","","html-keyboard-response","38","151244","0.0-38.0","3EO896NRAXHJW6FOIP2YR86AOSGJTI","A30HUZHJBOX1LK","3RKHNXPHGWIRLJ219DNI80W3E6SKUF","","<img src=""img/set1/S2.jpg"" width=""540"" height = ""360"">","null","","","","","","","","","",""
"null","","html-keyboard-response","39","151445","0.0-39.0","3EO896NRAXHJW6FOIP2YR86AOSGJTI","A30HUZHJBOX1LK","3RKHNXPHGWIRLJ219DNI80W3E6SKUF","","","null","","","","","","","","","",""
"797.1999999284744","","image-keyboard-response","40","152244","0.0-40.0","3EO896NRAXHJW6FOIP2YR86AOSGJTI","A30HUZHJBOX1LK","3RKHNXPHGWIRLJ219DNI80W3E6SKUF","","img/set1/S1.jpg","72","1","structured_load","83","structured_load,structured_incentive,random,structured_normal","","3,1,2,4","false","","",""
"null","","html-keyboard-response","41","152595","0.0-41.0","3EO896NRAXHJW6FOIP2YR86AOSGJTI","A30HUZHJBOX1LK","3RKHNXPHGWIRLJ219DNI80W3E6SKUF","","<img src=""img/set1/S1.jpg"" width=""540"" height = ""360"">","null","","","","","","","","","",""
"null","","html-keyboard-response","42","152797","0.0-42.0","3EO896NRAXHJW6FOIP2YR86AOSGJTI","A30HUZHJBOX1LK","3RKHNXPHGWIRLJ219DNI80W3E6SKUF","","","null","","","","","","","","","",""
"901.8999999761581","","image-keyboard-response","43","153701","0.0-43.0","3EO896NRAXHJW6FOIP2YR86AOSGJTI","A30HUZHJBOX1LK","3RKHNXPHGWIRLJ219DNI80W3E6SKUF","","img/set1/S4.jpg","68","4","structured_load","74","structured_load,structured_incentive,random,structured_normal","","3,1,2,4","false","","",""
"null","","html-keyboard-response","44","154052","0.0-44.0","3EO896NRAXHJW6FOIP2YR86AOSGJTI","A30HUZHJBOX1LK","3RKHNXPHGWIRLJ219DNI80W3E6SKUF","","<img src=""img/set1/S4.jpg"" width=""540"" height = ""360"">","null","","","","","","","","","",""
"null","","html-keyboard-response","45","154253","0.0-45.0","3EO896NRAXHJW6FOIP2YR86AOSGJTI","A30HUZHJBOX1LK","3RKHNXPHGWIRLJ219DNI80W3E6SKUF","","","null","","","","","","","","","",""
"614.1000000238419","","image-keyboard-response","46","154869","0.0-46.0","3EO896NRAXHJW6FOIP2YR86AOSGJTI","A30HUZHJBOX1LK","3RKHNXPHGWIRLJ219DNI80W3E6SKUF","","img/set1/S3.jpg","72","3","structured_load","72","structured_load,structured_incentive,random,structured_normal","","3,1,2,4","true","","",""
"null","","html-keyboard-response","47","155221","0.0-47.0","3EO896NRAXHJW6FOIP2YR86AOSGJTI","A30HUZHJBOX1LK","3RKHNXPHGWIRLJ219DNI80W3E6SKUF","","<img src=""img/set1/S3.jpg"" width=""540"" height = ""360"" style=""border:16px solid orange"">","null","","","","","","","","","",""
"null","","html-keyboard-response","48","155422","0.0-48.0","3EO896NRAXHJW6FOIP2YR86AOSGJTI","A30HUZHJBOX1LK","3RKHNXPHGWIRLJ219DNI80W3E6SKUF","","","null","","","","","","","","","",""
"812.3000000715256","","image-keyboard-response","49","156236","0.0-49.0","3EO896NRAXHJW6FOIP2YR86AOSGJTI","A30HUZHJBOX1LK","3RKHNXPHGWIRLJ219DNI80W3E6SKUF","","img/set1/S1.jpg","72","1","structured_load","83","structured_load,structured_incentive,random,structured_normal","","3,1,2,4","false","","",""
"null","","html-keyboard-response","50","156588","0.0-50.0","3EO896NRAXHJW6FOIP2YR86AOSGJTI","A30HUZHJBOX1LK","3RKHNXPHGWIRLJ219DNI80W3E6SKUF","","<img src=""img/set1/S1.jpg"" width=""540"" height = ""360"">","null","","","","","","","","","",""
"null","","html-keyboard-response","51","156790","0.0-51.0","3EO896NRAXHJW6FOIP2YR86AOSGJTI","A30HUZHJBOX1LK","3RKHNXPHGWIRLJ219DNI80W3E6SKUF","","","null","","","","","","","","","",""
"1348.3999999761581","","image-keyboard-response","52","158140","0.0-52.0","3EO896NRAXHJW6FOIP2YR86AOSGJTI","A30HUZHJBOX1LK","3RKHNXPHGWIRLJ219DNI80W3E6SKUF","","img/set1/S4.jpg","72","4","structured_load","74","structured_load,structured_incentive,random,structured_normal","","3,1,2,4","false","","",""
"null","","html-keyboard-response","53","158493","0.0-53.0","3EO896NRAXHJW6FOIP2YR86AOSGJTI","A30HUZHJBOX1LK","3RKHNXPHGWIRLJ219DNI80W3E6SKUF","","<img src=""img/set1/S4.jpg"" width=""540"" height = ""360"">","null","","","","","","","","","",""
"null","","html-keyboard-response","54","158694","0.0-54.0","3EO896NRAXHJW6FOIP2YR86AOSGJTI","A30HUZHJBOX1LK","3RKHNXPHGWIRLJ219DNI80W3E6SKUF","","","null","","","","","","","","","",""
"876.3999999761581","","image-keyboard-response","55","159572","0.0-55.0","3EO896NRAXHJW6FOIP2YR86AOSGJTI","A30HUZHJBOX1LK","3RKHNXPHGWIRLJ219DNI80W3E6SKUF","","img/set1/S2.jpg","72","2","structured_load","68","structured_load,structured_incentive,random,structured_normal","","3,1,2,4","false","","",""
"null","","html-keyboard-response","56","159924","0.0-56.0","3EO896NRAXHJW6FOIP2YR86AOSGJTI","A30HUZHJBOX1LK","3RKHNXPHGWIRLJ219DNI80W3E6SKUF","","<img src=""img/set1/S2.jpg"" width=""540"" height = ""360"">","null","","","","","","","","","",""
"null","","html-keyboard-response","57","160125","0.0-57.0","3EO896NRAXHJW6FOIP2YR86AOSGJTI","A30HUZHJBOX1LK","3RKHNXPHGWIRLJ219DNI80W3E6SKUF","","","null","","","","","","","","","",""
"549.9000000953674","","image-keyboard-response","58","160676","0.0-58.0","3EO896NRAXHJW6FOIP2YR86AOSGJTI","A30HUZHJBOX1LK","3RKHNXPHGWIRLJ219DNI80W3E6SKUF","","img/set1/S3.jpg","68","3","structured_load","72","structured_load,structured_incentive,random,structured_normal","","3,1,2,4","false","","",""
"null","","html-keyboard-response","59","161027","0.0-59.0","3EO896NRAXHJW6FOIP2YR86AOSGJTI","A30HUZHJBOX1LK","3RKHNXPHGWIRLJ219DNI80W3E6SKUF","","<img src=""img/set1/S3.jpg"" width=""540"" height = ""360"">","null","","","","","","","","","",""
"null","","html-keyboard-response","60","161229","0.0-60.0","3EO896NRAXHJW6FOIP2YR86AOSGJTI","A30HUZHJBOX1LK","3RKHNXPHGWIRLJ219DNI80W3E6SKUF","","","null","","","","","","","","","",""
"469.7999999523163","","image-keyboard-response","61","161701","0.0-61.0","3EO896NRAXHJW6FOIP2YR86AOSGJTI","A30HUZHJBOX1LK","3RKHNXPHGWIRLJ219DNI80W3E6SKUF","","img/set1/S2.jpg","83","2","structured_load","68","structured_load,structured_incentive,random,structured_normal","","3,1,2,4","false","","",""
"null","","html-keyboard-response","62","162052","0.0-62.0","3EO896NRAXHJW6FOIP2YR86AOSGJTI","A30HUZHJBOX1LK","3RKHNXPHGWIRLJ219DNI80W3E6SKUF","","<img src=""img/set1/S2.jpg"" width=""540"" height = ""360"">","null","","","","","","","","","",""
"null","","html-keyboard-response","63","162253","0.0-63.0","3EO896NRAXHJW6FOIP2YR86AOSGJTI","A30HUZHJBOX1LK","3RKHNXPHGWIRLJ219DNI80W3E6SKUF","","","null","","","","","","","","","",""
"557.3000000715256","","image-keyboard-response","64","162812","0.0-64.0","3EO896NRAXHJW6FOIP2YR86AOSGJTI","A30HUZHJBOX1LK","3RKHNXPHGWIRLJ219DNI80W3E6SKUF","","img/set1/S1.jpg","68","1","structured_load","83","structured_load,structured_incentive,random,structured_normal","","3,1,2,4","false","","",""
"null","","html-keyboard-response","65","163164","0.0-65.0","3EO896NRAXHJW6FOIP2YR86AOSGJTI","A30HUZHJBOX1LK","3RKHNXPHGWIRLJ219DNI80W3E6SKUF","","<img src=""img/set1/S1.jpg"" width=""540"" height = ""360"">","null","","","","","","","","","",""
"null","","html-keyboard-response","66","163365","0.0-66.0","3EO896NRAXHJW6FOIP2YR86AOSGJTI","A30HUZHJBOX1LK","3RKHNXPHGWIRLJ219DNI80W3E6SKUF","","","null","","","","","","","","","",""
"981.2999999523163","","image-keyboard-response","67","164348","0.0-67.0","3EO896NRAXHJW6FOIP2YR86AOSGJTI","A30HUZHJBOX1LK","3RKHNXPHGWIRLJ219DNI80W3E6SKUF","","img/set1/S4.jpg","72","4","structured_load","74","structured_load,structured_incentive,random,structured_normal","","3,1,2,4","false","","",""
"null","","html-keyboard-response","68","164700","0.0-68.0","3EO896NRAXHJW6FOIP2YR86AOSGJTI","A30HUZHJBOX1LK","3RKHNXPHGWIRLJ219DNI80W3E6SKUF","","<img src=""img/set1/S4.jpg"" width=""540"" height = ""360"">","null","","","","","","","","","",""
"null","","html-keyboard-response","69","164902","0.0-69.0","3EO896NRAXHJW6FOIP2YR86AOSGJTI","A30HUZHJBOX1LK","3RKHNXPHGWIRLJ219DNI80W3E6SKUF","","","null","","","","","","","","","",""
"705.8999999761581","","image-keyboard-response","70","165612","0.0-70.0","3EO896NRAXHJW6FOIP2YR86AOSGJTI","A30HUZHJBOX1LK","3RKHNXPHGWIRLJ219DNI80W3E6SKUF","","img/set1/S2.jpg","74","2","structured_load","68","structured_load,structured_incentive,random,structured_normal","","3,1,2,4","false","","",""
"null","","html-keyboard-response","71","165966","0.0-71.0","3EO896NRAXHJW6FOIP2YR86AOSGJTI","A30HUZHJBOX1LK","3RKHNXPHGWIRLJ219DNI80W3E6SKUF","","<img src=""img/set1/S2.jpg"" width=""540"" height = ""360"">","null","","","","","","","","","",""
"null","","html-keyboard-response","72","166167","0.0-72.0","3EO896NRAXHJW6FOIP2YR86AOSGJTI","A30HUZHJBOX1LK","3RKHNXPHGWIRLJ219DNI80W3E6SKUF","","","null","","","","","","","","","",""
"876","","image-keyboard-response","73","167045","0.0-73.0","3EO896NRAXHJW6FOIP2YR86AOSGJTI","A30HUZHJBOX1LK","3RKHNXPHGWIRLJ219DNI80W3E6SKUF","","img/set1/S4.jpg","74","4","structured_load","74","structured_load,structured_incentive,random,structured_normal","","3,1,2,4","true","","",""
"null","","html-keyboard-response","74","167397","0.0-74.0","3EO896NRAXHJW6FOIP2YR86AOSGJTI","A30HUZHJBOX1LK","3RKHNXPHGWIRLJ219DNI80W3E6SKUF","","<img src=""img/set1/S4.jpg"" width=""540"" height = ""360"" style=""border:16px solid orange"">","null","","","","","","","","","",""
"null","","html-keyboard-response","75","167598","0.0-75.0","3EO896NRAXHJW6FOIP2YR86AOSGJTI","A30HUZHJBOX1LK","3RKHNXPHGWIRLJ219DNI80W3E6SKUF","","","null","","","","","","","","","",""
"972.3000000715256","","image-keyboard-response","76","168571","0.0-76.0","3EO896NRAXHJW6FOIP2YR86AOSGJTI","A30HUZHJBOX1LK","3RKHNXPHGWIRLJ219DNI80W3E6SKUF","","img/set1/S2.jpg","72","2","structured_load","68","structured_load,structured_incentive,random,structured_normal","","3,1,2,4","false","","",""
"null","","html-keyboard-response","77","168922","0.0-77.0","3EO896NRAXHJW6FOIP2YR86AOSGJTI","A30HUZHJBOX1LK","3RKHNXPHGWIRLJ219DNI80W3E6SKUF","","<img src=""img/set1/S2.jpg"" width=""540"" height = ""360"">","null","","","","","","","","","",""
"null","","html-keyboard-response","78","169123","0.0-78.0","3EO896NRAXHJW6FOIP2YR86AOSGJTI","A30HUZHJBOX1LK","3RKHNXPHGWIRLJ219DNI80W3E6SKUF","","","null","","","","","","","","","",""
"823.7000000476837","","image-keyboard-response","79","169949","0.0-79.0","3EO896NRAXHJW6FOIP2YR86AOSGJTI","A30HUZHJBOX1LK","3RKHNXPHGWIRLJ219DNI80W3E6SKUF","","img/set1/S2.jpg","68","2","structured_load","68","structured_load,structured_incentive,random,structured_normal","","3,1,2,4","true","","",""
"null","","html-keyboard-response","80","170301","0.0-80.0","3EO896NRAXHJW6FOIP2YR86AOSGJTI","A30HUZHJBOX1LK","3RKHNXPHGWIRLJ219DNI80W3E6SKUF","","<img src=""img/set1/S2.jpg"" width=""540"" height = ""360"" style=""border:16px solid orange"">","null","","","","","","","","","",""
"null","","html-keyboard-response","81","170504","0.0-81.0","3EO896NRAXHJW6FOIP2YR86AOSGJTI","A30HUZHJBOX1LK","3RKHNXPHGWIRLJ219DNI80W3E6SKUF","","","null","","","","","","","","","",""
"882.6000000238419","","image-keyboard-response","82","171388","0.0-82.0","3EO896NRAXHJW6FOIP2YR86AOSGJTI","A30HUZHJBOX1LK","3RKHNXPHGWIRLJ219DNI80W3E6SKUF","","img/set1/S1.jpg","72","1","structured_load","83","structured_load,structured_incentive,random,structured_normal","","3,1,2,4","false","","",""
"null","","html-keyboard-response","83","171741","0.0-83.0","3EO896NRAXHJW6FOIP2YR86AOSGJTI","A30HUZHJBOX1LK","3RKHNXPHGWIRLJ219DNI80W3E6SKUF","","<img src=""img/set1/S1.jpg"" width=""540"" height = ""360"">","null","","","","","","","","","",""
"null","","html-keyboard-response","84","171944","0.0-84.0","3EO896NRAXHJW6FOIP2YR86AOSGJTI","A30HUZHJBOX1LK","3RKHNXPHGWIRLJ219DNI80W3E6SKUF","","","null","","","","","","","","","",""
"614.4000000953674","","image-keyboard-response","85","172560","0.0-85.0","3EO896NRAXHJW6FOIP2YR86AOSGJTI","A30HUZHJBOX1LK","3RKHNXPHGWIRLJ219DNI80W3E6SKUF","","img/set1/S1.jpg","74","1","structured_load","83","structured_load,structured_incentive,random,structured_normal","","3,1,2,4","false","","",""
"null","","html-keyboard-response","86","172915","0.0-86.0","3EO896NRAXHJW6FOIP2YR86AOSGJTI","A30HUZHJBOX1LK","3RKHNXPHGWIRLJ219DNI80W3E6SKUF","","<img src=""img/set1/S1.jpg"" width=""540"" height = ""360"">","null","","","","","","","","","",""
"null","","html-keyboard-response","87","173116","0.0-87.0","3EO896NRAXHJW6FOIP2YR86AOSGJTI","A30HUZHJBOX1LK","3RKHNXPHGWIRLJ219DNI80W3E6SKUF","","","null","","","","","","","","","",""
"478.6999999284744","","image-keyboard-response","88","173595","0.0-88.0","3EO896NRAXHJW6FOIP2YR86AOSGJTI","A30HUZHJBOX1LK","3RKHNXPHGWIRLJ219DNI80W3E6SKUF","","img/set1/S1.jpg","83","1","structured_load","83","structured_load,structured_incentive,random,structured_normal","","3,1,2,4","true","","",""
"null","","html-keyboard-response","89","173948","0.0-89.0","3EO896NRAXHJW6FOIP2YR86AOSGJTI","A30HUZHJBOX1LK","3RKHNXPHGWIRLJ219DNI80W3E6SKUF","","<img src=""img/set1/S1.jpg"" width=""540"" height = ""360"" style=""border:16px solid orange"">","null","","","","","","","","","",""
"null","","html-keyboard-response","90","174150","0.0-90.0","3EO896NRAXHJW6FOIP2YR86AOSGJTI","A30HUZHJBOX1LK","3RKHNXPHGWIRLJ219DNI80W3E6SKUF","","","null","","","","","","","","","",""
"876.6999999284744","","image-keyboard-response","91","175027","0.0-91.0","3EO896NRAXHJW6FOIP2YR86AOSGJTI","A30HUZHJBOX1LK","3RKHNXPHGWIRLJ219DNI80W3E6SKUF","","img/set1/S3.jpg","72","3","structured_load","72","structured_load,structured_incentive,random,structured_normal","","3,1,2,4","true","","",""
"null","","html-keyboard-response","92","175380","0.0-92.0","3EO896NRAXHJW6FOIP2YR86AOSGJTI","A30HUZHJBOX1LK","3RKHNXPHGWIRLJ219DNI80W3E6SKUF","","<img src=""img/set1/S3.jpg"" width=""540"" height = ""360"" style=""border:16px solid orange"">","null","","","","","","","","","",""
"null","","html-keyboard-response","93","175581","0.0-93.0","3EO896NRAXHJW6FOIP2YR86AOSGJTI","A30HUZHJBOX1LK","3RKHNXPHGWIRLJ219DNI80W3E6SKUF","","","null","","","","","","","","","",""
"1029.2999999523163","","image-keyboard-response","94","176613","0.0-94.0","3EO896NRAXHJW6FOIP2YR86AOSGJTI","A30HUZHJBOX1LK","3RKHNXPHGWIRLJ219DNI80W3E6SKUF","","img/set1/S4.jpg","74","4","structured_load","74","structured_load,structured_incentive,random,structured_normal","","3,1,2,4","true","","",""
"null","","html-keyboard-response","95","176965","0.0-95.0","3EO896NRAXHJW6FOIP2YR86AOSGJTI","A30HUZHJBOX1LK","3RKHNXPHGWIRLJ219DNI80W3E6SKUF","","<img src=""img/set1/S4.jpg"" width=""540"" height = ""360"" style=""border:16px solid orange"">","null","","","","","","","","","",""
"null","","html-keyboard-response","96","177167","0.0-96.0","3EO896NRAXHJW6FOIP2YR86AOSGJTI","A30HUZHJBOX1LK","3RKHNXPHGWIRLJ219DNI80W3E6SKUF","","","null","","","","","","","","","",""
"1093.3999999761581","","image-keyboard-response","97","178261","0.0-97.0","3EO896NRAXHJW6FOIP2YR86AOSGJTI","A30HUZHJBOX1LK","3RKHNXPHGWIRLJ219DNI80W3E6SKUF","","img/set1/S2.jpg","68","2","structured_load","68","structured_load,structured_incentive,random,structured_normal","","3,1,2,4","true","","",""
"null","","html-keyboard-response","98","178614","0.0-98.0","3EO896NRAXHJW6FOIP2YR86AOSGJTI","A30HUZHJBOX1LK","3RKHNXPHGWIRLJ219DNI80W3E6SKUF","","<img src=""img/set1/S2.jpg"" width=""540"" height = ""360"" style=""border:16px solid orange"">","null","","","","","","","","","",""
"null","","html-keyboard-response","99","178815","0.0-99.0","3EO896NRAXHJW6FOIP2YR86AOSGJTI","A30HUZHJBOX1LK","3RKHNXPHGWIRLJ219DNI80W3E6SKUF","","","null","","","","","","","","","",""
"804.5","","image-keyboard-response","100","179622","0.0-100.0","3EO896NRAXHJW6FOIP2YR86AOSGJTI","A30HUZHJBOX1LK","3RKHNXPHGWIRLJ219DNI80W3E6SKUF","","img/set1/S3.jpg","74","3","structured_load","72","structured_load,structured_incentive,random,structured_normal","","3,1,2,4","false","","",""
"null","","html-keyboard-response","101","179975","0.0-101.0","3EO896NRAXHJW6FOIP2YR86AOSGJTI","A30HUZHJBOX1LK","3RKHNXPHGWIRLJ219DNI80W3E6SKUF","","<img src=""img/set1/S3.jpg"" width=""540"" height = ""360"">","null","","","","","","","","","",""
"null","","html-keyboard-response","102","180176","0.0-102.0","3EO896NRAXHJW6FOIP2YR86AOSGJTI","A30HUZHJBOX1LK","3RKHNXPHGWIRLJ219DNI80W3E6SKUF","","","null","","","","","","","","","",""
"749","","image-keyboard-response","103","180926","0.0-103.0","3EO896NRAXHJW6FOIP2YR86AOSGJTI","A30HUZHJBOX1LK","3RKHNXPHGWIRLJ219DNI80W3E6SKUF","","img/set1/S3.jpg","68","3","structured_load","72","structured_load,structured_incentive,random,structured_normal","","3,1,2,4","false","","",""
"null","","html-keyboard-response","104","181279","0.0-104.0","3EO896NRAXHJW6FOIP2YR86AOSGJTI","A30HUZHJBOX1LK","3RKHNXPHGWIRLJ219DNI80W3E6SKUF","","<img src=""img/set1/S3.jpg"" width=""540"" height = ""360"">","null","","","","","","","","","",""
"null","","html-keyboard-response","105","181481","0.0-105.0","3EO896NRAXHJW6FOIP2YR86AOSGJTI","A30HUZHJBOX1LK","3RKHNXPHGWIRLJ219DNI80W3E6SKUF","","","null","","","","","","","","","",""
"794.8000000715256","","image-keyboard-response","106","182277","0.0-106.0","3EO896NRAXHJW6FOIP2YR86AOSGJTI","A30HUZHJBOX1LK","3RKHNXPHGWIRLJ219DNI80W3E6SKUF","","img/set1/S2.jpg","68","2","structured_load","68","structured_load,structured_incentive,random,structured_normal","","3,1,2,4","true","","",""
"null","","html-keyboard-response","107","182630","0.0-107.0","3EO896NRAXHJW6FOIP2YR86AOSGJTI","A30HUZHJBOX1LK","3RKHNXPHGWIRLJ219DNI80W3E6SKUF","","<img src=""img/set1/S2.jpg"" width=""540"" height = ""360"" style=""border:16px solid orange"">","null","","","","","","","","","",""
"null","","html-keyboard-response","108","182832","0.0-108.0","3EO896NRAXHJW6FOIP2YR86AOSGJTI","A30HUZHJBOX1LK","3RKHNXPHGWIRLJ219DNI80W3E6SKUF","","","null","","","","","","","","","",""
"836.8999999761581","","image-keyboard-response","109","183671","0.0-109.0","3EO896NRAXHJW6FOIP2YR86AOSGJTI","A30HUZHJBOX1LK","3RKHNXPHGWIRLJ219DNI80W3E6SKUF","","img/set1/S1.jpg","72","1","structured_load","83","structured_load,structured_incentive,random,structured_normal","","3,1,2,4","false","","",""
"null","","html-keyboard-response","110","184023","0.0-110.0","3EO896NRAXHJW6FOIP2YR86AOSGJTI","A30HUZHJBOX1LK","3RKHNXPHGWIRLJ219DNI80W3E6SKUF","","<img src=""img/set1/S1.jpg"" width=""540"" height = ""360"">","null","","","","","","","","","",""
"null","","html-keyboard-response","111","184224","0.0-111.0","3EO896NRAXHJW6FOIP2YR86AOSGJTI","A30HUZHJBOX1LK","3RKHNXPHGWIRLJ219DNI80W3E6SKUF","","","null","","","","","","","","","",""
"523.9000000953674","","image-keyboard-response","112","184749","0.0-112.0","3EO896NRAXHJW6FOIP2YR86AOSGJTI","A30HUZHJBOX1LK","3RKHNXPHGWIRLJ219DNI80W3E6SKUF","","img/set1/S1.jpg","74","1","structured_load","83","structured_load,structured_incentive,random,structured_normal","","3,1,2,4","false","","",""
"null","","html-keyboard-response","113","185102","0.0-113.0","3EO896NRAXHJW6FOIP2YR86AOSGJTI","A30HUZHJBOX1LK","3RKHNXPHGWIRLJ219DNI80W3E6SKUF","","<img src=""img/set1/S1.jpg"" width=""540"" height = ""360"">","null","","","","","","","","","",""
"null","","html-keyboard-response","114","185303","0.0-114.0","3EO896NRAXHJW6FOIP2YR86AOSGJTI","A30HUZHJBOX1LK","3RKHNXPHGWIRLJ219DNI80W3E6SKUF","","","null","","","","","","","","","",""
"363.7000000476837","","image-keyboard-response","115","185669","0.0-115.0","3EO896NRAXHJW6FOIP2YR86AOSGJTI","A30HUZHJBOX1LK","3RKHNXPHGWIRLJ219DNI80W3E6SKUF","","img/set1/S4.jpg","83","4","structured_load","74","structured_load,structured_incentive,random,structured_normal","","3,1,2,4","false","","",""
"null","","html-keyboard-response","116","186021","0.0-116.0","3EO896NRAXHJW6FOIP2YR86AOSGJTI","A30HUZHJBOX1LK","3RKHNXPHGWIRLJ219DNI80W3E6SKUF","","<img src=""img/set1/S4.jpg"" width=""540"" height = ""360"">","null","","","","","","","","","",""
"null","","html-keyboard-response","117","186223","0.0-117.0","3EO896NRAXHJW6FOIP2YR86AOSGJTI","A30HUZHJBOX1LK","3RKHNXPHGWIRLJ219DNI80W3E6SKUF","","","null","","","","","","","","","",""
"863.1999999284744","","image-keyboard-response","118","187089","0.0-118.0","3EO896NRAXHJW6FOIP2YR86AOSGJTI","A30HUZHJBOX1LK","3RKHNXPHGWIRLJ219DNI80W3E6SKUF","","img/set1/S3.jpg","68","3","structured_load","72","structured_load,structured_incentive,random,structured_normal","","3,1,2,4","false","","",""
"null","","html-keyboard-response","119","187442","0.0-119.0","3EO896NRAXHJW6FOIP2YR86AOSGJTI","A30HUZHJBOX1LK","3RKHNXPHGWIRLJ219DNI80W3E6SKUF","","<img src=""img/set1/S3.jpg"" width=""540"" height = ""360"">","null","","","","","","","","","",""
"null","","html-keyboard-response","120","187646","0.0-120.0","3EO896NRAXHJW6FOIP2YR86AOSGJTI","A30HUZHJBOX1LK","3RKHNXPHGWIRLJ219DNI80W3E6SKUF","","","null","","","","","","","","","",""
"741.8999999761581","","image-keyboard-response","121","188389","0.0-121.0","3EO896NRAXHJW6FOIP2YR86AOSGJTI","A30HUZHJBOX1LK","3RKHNXPHGWIRLJ219DNI80W3E6SKUF","","img/set1/S4.jpg","83","4","structured_load","74","structured_load,structured_incentive,random,structured_normal","","3,1,2,4","false","","",""
"null","","html-keyboard-response","122","188741","0.0-122.0","3EO896NRAXHJW6FOIP2YR86AOSGJTI","A30HUZHJBOX1LK","3RKHNXPHGWIRLJ219DNI80W3E6SKUF","","<img src=""img/set1/S4.jpg"" width=""540"" height = ""360"">","null","","","","","","","","","",""
"null","","html-keyboard-response","123","188943","0.0-123.0","3EO896NRAXHJW6FOIP2YR86AOSGJTI","A30HUZHJBOX1LK","3RKHNXPHGWIRLJ219DNI80W3E6SKUF","","","null","","","","","","","","","",""
"1004.7999999523163","","image-keyboard-response","124","189950","0.0-124.0","3EO896NRAXHJW6FOIP2YR86AOSGJTI","A30HUZHJBOX1LK","3RKHNXPHGWIRLJ219DNI80W3E6SKUF","","img/set1/S2.jpg","68","2","structured_load","68","structured_load,structured_incentive,random,structured_normal","","3,1,2,4","true","","",""
"null","","html-keyboard-response","125","190302","0.0-125.0","3EO896NRAXHJW6FOIP2YR86AOSGJTI","A30HUZHJBOX1LK","3RKHNXPHGWIRLJ219DNI80W3E6SKUF","","<img src=""img/set1/S2.jpg"" width=""540"" height = ""360"" style=""border:16px solid orange"">","null","","","","","","","","","",""
"null","","html-keyboard-response","126","190503","0.0-126.0","3EO896NRAXHJW6FOIP2YR86AOSGJTI","A30HUZHJBOX1LK","3RKHNXPHGWIRLJ219DNI80W3E6SKUF","","","null","","","","","","","","","",""
"1203.7000000476837","","image-keyboard-response","127","191709","0.0-127.0","3EO896NRAXHJW6FOIP2YR86AOSGJTI","A30HUZHJBOX1LK","3RKHNXPHGWIRLJ219DNI80W3E6SKUF","","img/set1/S1.jpg","83","1","structured_load","83","structured_load,structured_incentive,random,structured_normal","","3,1,2,4","true","","",""
"null","","html-keyboard-response","128","192061","0.0-128.0","3EO896NRAXHJW6FOIP2YR86AOSGJTI","A30HUZHJBOX1LK","3RKHNXPHGWIRLJ219DNI80W3E6SKUF","","<img src=""img/set1/S1.jpg"" width=""540"" height = ""360"" style=""border:16px solid orange"">","null","","","","","","","","","",""
"null","","html-keyboard-response","129","192263","0.0-129.0","3EO896NRAXHJW6FOIP2YR86AOSGJTI","A30HUZHJBOX1LK","3RKHNXPHGWIRLJ219DNI80W3E6SKUF","","","null","","","","","","","","","",""
"645.1999999284744","","image-keyboard-response","130","192909","0.0-130.0","3EO896NRAXHJW6FOIP2YR86AOSGJTI","A30HUZHJBOX1LK","3RKHNXPHGWIRLJ219DNI80W3E6SKUF","","img/set1/S1.jpg","83","1","structured_load","83","structured_load,structured_incentive,random,structured_normal","","3,1,2,4","true","","",""
"null","","html-keyboard-response","131","193261","0.0-131.0","3EO896NRAXHJW6FOIP2YR86AOSGJTI","A30HUZHJBOX1LK","3RKHNXPHGWIRLJ219DNI80W3E6SKUF","","<img src=""img/set1/S1.jpg"" width=""540"" height = ""360"" style=""border:16px solid orange"">","null","","","","","","","","","",""
"null","","html-keyboard-response","132","193462","0.0-132.0","3EO896NRAXHJW6FOIP2YR86AOSGJTI","A30HUZHJBOX1LK","3RKHNXPHGWIRLJ219DNI80W3E6SKUF","","","null","","","","","","","","","",""
"629.5","","image-keyboard-response","133","194093","0.0-133.0","3EO896NRAXHJW6FOIP2YR86AOSGJTI","A30HUZHJBOX1LK","3RKHNXPHGWIRLJ219DNI80W3E6SKUF","","img/set1/S1.jpg","83","1","structured_load","83","structured_load,structured_incentive,random,structured_normal","","3,1,2,4","true","","",""
"null","","html-keyboard-response","134","194445","0.0-134.0","3EO896NRAXHJW6FOIP2YR86AOSGJTI","A30HUZHJBOX1LK","3RKHNXPHGWIRLJ219DNI80W3E6SKUF","","<img src=""img/set1/S1.jpg"" width=""540"" height = ""360"" style=""border:16px solid orange"">","null","","","","","","","","","",""
"null","","html-keyboard-response","135","194646","0.0-135.0","3EO896NRAXHJW6FOIP2YR86AOSGJTI","A30HUZHJBOX1LK","3RKHNXPHGWIRLJ219DNI80W3E6SKUF","","","null","","","","","","","","","",""
"885.5","","image-keyboard-response","136","195533","0.0-136.0","3EO896NRAXHJW6FOIP2YR86AOSGJTI","A30HUZHJBOX1LK","3RKHNXPHGWIRLJ219DNI80W3E6SKUF","","img/set1/S3.jpg","68","3","structured_load","72","structured_load,structured_incentive,random,structured_normal","","3,1,2,4","false","","",""
"null","","html-keyboard-response","137","195885","0.0-137.0","3EO896NRAXHJW6FOIP2YR86AOSGJTI","A30HUZHJBOX1LK","3RKHNXPHGWIRLJ219DNI80W3E6SKUF","","<img src=""img/set1/S3.jpg"" width=""540"" height = ""360"">","null","","","","","","","","","",""
"null","","html-keyboard-response","138","196086","0.0-138.0","3EO896NRAXHJW6FOIP2YR86AOSGJTI","A30HUZHJBOX1LK","3RKHNXPHGWIRLJ219DNI80W3E6SKUF","","","null","","","","","","","","","",""
"589.6000000238419","","image-keyboard-response","139","196677","0.0-139.0","3EO896NRAXHJW6FOIP2YR86AOSGJTI","A30HUZHJBOX1LK","3RKHNXPHGWIRLJ219DNI80W3E6SKUF","","img/set1/S1.jpg","83","1","structured_load","83","structured_load,structured_incentive,random,structured_normal","","3,1,2,4","true","","",""
"null","","html-keyboard-response","140","197029","0.0-140.0","3EO896NRAXHJW6FOIP2YR86AOSGJTI","A30HUZHJBOX1LK","3RKHNXPHGWIRLJ219DNI80W3E6SKUF","","<img src=""img/set1/S1.jpg"" width=""540"" height = ""360"" style=""border:16px solid orange"">","null","","","","","","","","","",""
"null","","html-keyboard-response","141","197230","0.0-141.0","3EO896NRAXHJW6FOIP2YR86AOSGJTI","A30HUZHJBOX1LK","3RKHNXPHGWIRLJ219DNI80W3E6SKUF","","","null","","","","","","","","","",""
"917.1000000238419","","image-keyboard-response","142","198149","0.0-142.0","3EO896NRAXHJW6FOIP2YR86AOSGJTI","A30HUZHJBOX1LK","3RKHNXPHGWIRLJ219DNI80W3E6SKUF","","img/set1/S1.jpg","72","1","structured_load","83","structured_load,structured_incentive,random,structured_normal","","3,1,2,4","false","","",""
"null","","html-keyboard-response","143","198501","0.0-143.0","3EO896NRAXHJW6FOIP2YR86AOSGJTI","A30HUZHJBOX1LK","3RKHNXPHGWIRLJ219DNI80W3E6SKUF","","<img src=""img/set1/S1.jpg"" width=""540"" height = ""360"">","null","","","","","","","","","",""
"null","","html-keyboard-response","144","198702","0.0-144.0","3EO896NRAXHJW6FOIP2YR86AOSGJTI","A30HUZHJBOX1LK","3RKHNXPHGWIRLJ219DNI80W3E6SKUF","","","null","","","","","","","","","",""
"509.10000002384186","","image-keyboard-response","145","199213","0.0-145.0","3EO896NRAXHJW6FOIP2YR86AOSGJTI","A30HUZHJBOX1LK","3RKHNXPHGWIRLJ219DNI80W3E6SKUF","","img/set1/S1.jpg","74","1","structured_load","83","structured_load,structured_incentive,random,structured_normal","","3,1,2,4","false","","",""
"null","","html-keyboard-response","146","199565","0.0-146.0","3EO896NRAXHJW6FOIP2YR86AOSGJTI","A30HUZHJBOX1LK","3RKHNXPHGWIRLJ219DNI80W3E6SKUF","","<img src=""img/set1/S1.jpg"" width=""540"" height = ""360"">","null","","","","","","","","","",""
"null","","html-keyboard-response","147","199766","0.0-147.0","3EO896NRAXHJW6FOIP2YR86AOSGJTI","A30HUZHJBOX1LK","3RKHNXPHGWIRLJ219DNI80W3E6SKUF","","","null","","","","","","","","","",""
"1029.0999999046326","","image-keyboard-response","148","200797","0.0-148.0","3EO896NRAXHJW6FOIP2YR86AOSGJTI","A30HUZHJBOX1LK","3RKHNXPHGWIRLJ219DNI80W3E6SKUF","","img/set1/S4.jpg","72","4","structured_load","74","structured_load,structured_incentive,random,structured_normal","","3,1,2,4","false","","",""
"null","","html-keyboard-response","149","201149","0.0-149.0","3EO896NRAXHJW6FOIP2YR86AOSGJTI","A30HUZHJBOX1LK","3RKHNXPHGWIRLJ219DNI80W3E6SKUF","","<img src=""img/set1/S4.jpg"" width=""540"" height = ""360"">","null","","","","","","","","","",""
"null","","html-keyboard-response","150","201350","0.0-150.0","3EO896NRAXHJW6FOIP2YR86AOSGJTI","A30HUZHJBOX1LK","3RKHNXPHGWIRLJ219DNI80W3E6SKUF","","","null","","","","","","","","","",""
"1021.1000000238419","","image-keyboard-response","151","202372","0.0-151.0","3EO896NRAXHJW6FOIP2YR86AOSGJTI","A30HUZHJBOX1LK","3RKHNXPHGWIRLJ219DNI80W3E6SKUF","","img/set1/S2.jpg","68","2","structured_load","68","structured_load,structured_incentive,random,structured_normal","","3,1,2,4","true","","",""
"null","","html-keyboard-response","152","202725","0.0-152.0","3EO896NRAXHJW6FOIP2YR86AOSGJTI","A30HUZHJBOX1LK","3RKHNXPHGWIRLJ219DNI80W3E6SKUF","","<img src=""img/set1/S2.jpg"" width=""540"" height = ""360"" style=""border:16px solid orange"">","null","","","","","","","","","",""
"null","","html-keyboard-response","153","202926","0.0-153.0","3EO896NRAXHJW6FOIP2YR86AOSGJTI","A30HUZHJBOX1LK","3RKHNXPHGWIRLJ219DNI80W3E6SKUF","","","null","","","","","","","","","",""
"829.2000000476837","","image-keyboard-response","154","203756","0.0-154.0","3EO896NRAXHJW6FOIP2YR86AOSGJTI","A30HUZHJBOX1LK","3RKHNXPHGWIRLJ219DNI80W3E6SKUF","","img/set1/S4.jpg","72","4","structured_load","74","structured_load,structured_incentive,random,structured_normal","","3,1,2,4","false","","",""
"null","","html-keyboard-response","155","204110","0.0-155.0","3EO896NRAXHJW6FOIP2YR86AOSGJTI","A30HUZHJBOX1LK","3RKHNXPHGWIRLJ219DNI80W3E6SKUF","","<img src=""img/set1/S4.jpg"" width=""540"" height = ""360"">","null","","","","","","","","","",""
"null","","html-keyboard-response","156","204311","0.0-156.0","3EO896NRAXHJW6FOIP2YR86AOSGJTI","A30HUZHJBOX1LK","3RKHNXPHGWIRLJ219DNI80W3E6SKUF","","","null","","","","","","","","","",""
"741.1000000238419","","image-keyboard-response","157","205054","0.0-157.0","3EO896NRAXHJW6FOIP2YR86AOSGJTI","A30HUZHJBOX1LK","3RKHNXPHGWIRLJ219DNI80W3E6SKUF","","img/set1/S2.jpg","68","2","structured_load","68","structured_load,structured_incentive,random,structured_normal","","3,1,2,4","true","","",""
"null","","html-keyboard-response","158","205406","0.0-158.0","3EO896NRAXHJW6FOIP2YR86AOSGJTI","A30HUZHJBOX1LK","3RKHNXPHGWIRLJ219DNI80W3E6SKUF","","<img src=""img/set1/S2.jpg"" width=""540"" height = ""360"" style=""border:16px solid orange"">","null","","","","","","","","","",""
"null","","html-keyboard-response","159","205607","0.0-159.0","3EO896NRAXHJW6FOIP2YR86AOSGJTI","A30HUZHJBOX1LK","3RKHNXPHGWIRLJ219DNI80W3E6SKUF","","","null","","","","","","","","","",""
"644.5","","image-keyboard-response","160","206252","0.0-160.0","3EO896NRAXHJW6FOIP2YR86AOSGJTI","A30HUZHJBOX1LK","3RKHNXPHGWIRLJ219DNI80W3E6SKUF","","img/set1/S1.jpg","83","1","structured_load","83","structured_load,structured_incentive,random,structured_normal","","3,1,2,4","true","","",""
"null","","html-keyboard-response","161","206605","0.0-161.0","3EO896NRAXHJW6FOIP2YR86AOSGJTI","A30HUZHJBOX1LK","3RKHNXPHGWIRLJ219DNI80W3E6SKUF","","<img src=""img/set1/S1.jpg"" width=""540"" height = ""360"" style=""border:16px solid orange"">","null","","","","","","","","","",""
"null","","html-keyboard-response","162","206806","0.0-162.0","3EO896NRAXHJW6FOIP2YR86AOSGJTI","A30HUZHJBOX1LK","3RKHNXPHGWIRLJ219DNI80W3E6SKUF","","","null","","","","","","","","","",""
"1013.3000000715256","","image-keyboard-response","163","207821","0.0-163.0","3EO896NRAXHJW6FOIP2YR86AOSGJTI","A30HUZHJBOX1LK","3RKHNXPHGWIRLJ219DNI80W3E6SKUF","","img/set1/S4.jpg","74","4","structured_load","74","structured_load,structured_incentive,random,structured_normal","","3,1,2,4","true","","",""
"null","","html-keyboard-response","164","208174","0.0-164.0","3EO896NRAXHJW6FOIP2YR86AOSGJTI","A30HUZHJBOX1LK","3RKHNXPHGWIRLJ219DNI80W3E6SKUF","","<img src=""img/set1/S4.jpg"" width=""540"" height = ""360"" style=""border:16px solid orange"">","null","","","","","","","","","",""
"null","","html-keyboard-response","165","208376","0.0-165.0","3EO896NRAXHJW6FOIP2YR86AOSGJTI","A30HUZHJBOX1LK","3RKHNXPHGWIRLJ219DNI80W3E6SKUF","","","null","","","","","","","","","",""
"892.1000000238419","","image-keyboard-response","166","209269","0.0-166.0","3EO896NRAXHJW6FOIP2YR86AOSGJTI","A30HUZHJBOX1LK","3RKHNXPHGWIRLJ219DNI80W3E6SKUF","","img/set1/S2.jpg","68","2","structured_load","68","structured_load,structured_incentive,random,structured_normal","","3,1,2,4","true","","",""
"null","","html-keyboard-response","167","209622","0.0-167.0","3EO896NRAXHJW6FOIP2YR86AOSGJTI","A30HUZHJBOX1LK","3RKHNXPHGWIRLJ219DNI80W3E6SKUF","","<img src=""img/set1/S2.jpg"" width=""540"" height = ""360"" style=""border:16px solid orange"">","null","","","","","","","","","",""
"null","","html-keyboard-response","168","209823","0.0-168.0","3EO896NRAXHJW6FOIP2YR86AOSGJTI","A30HUZHJBOX1LK","3RKHNXPHGWIRLJ219DNI80W3E6SKUF","","","null","","","","","","","","","",""
"652","","image-keyboard-response","169","210477","0.0-169.0","3EO896NRAXHJW6FOIP2YR86AOSGJTI","A30HUZHJBOX1LK","3RKHNXPHGWIRLJ219DNI80W3E6SKUF","","img/set1/S3.jpg","74","3","structured_load","72","structured_load,structured_incentive,random,structured_normal","","3,1,2,4","false","","",""
"null","","html-keyboard-response","170","210829","0.0-170.0","3EO896NRAXHJW6FOIP2YR86AOSGJTI","A30HUZHJBOX1LK","3RKHNXPHGWIRLJ219DNI80W3E6SKUF","","<img src=""img/set1/S3.jpg"" width=""540"" height = ""360"">","null","","","","","","","","","",""
"null","","html-keyboard-response","171","211031","0.0-171.0","3EO896NRAXHJW6FOIP2YR86AOSGJTI","A30HUZHJBOX1LK","3RKHNXPHGWIRLJ219DNI80W3E6SKUF","","","null","","","","","","","","","",""
"932.3999999761581","","image-keyboard-response","172","211964","0.0-172.0","3EO896NRAXHJW6FOIP2YR86AOSGJTI","A30HUZHJBOX1LK","3RKHNXPHGWIRLJ219DNI80W3E6SKUF","","img/set1/S1.jpg","83","1","structured_load","83","structured_load,structured_incentive,random,structured_normal","","3,1,2,4","true","","",""
"null","","html-keyboard-response","173","212316","0.0-173.0","3EO896NRAXHJW6FOIP2YR86AOSGJTI","A30HUZHJBOX1LK","3RKHNXPHGWIRLJ219DNI80W3E6SKUF","","<img src=""img/set1/S1.jpg"" width=""540"" height = ""360"" style=""border:16px solid orange"">","null","","","","","","","","","",""
"null","","html-keyboard-response","174","212518","0.0-174.0","3EO896NRAXHJW6FOIP2YR86AOSGJTI","A30HUZHJBOX1LK","3RKHNXPHGWIRLJ219DNI80W3E6SKUF","","","null","","","","","","","","","",""
"589.3999999761581","","image-keyboard-response","175","213109","0.0-175.0","3EO896NRAXHJW6FOIP2YR86AOSGJTI","A30HUZHJBOX1LK","3RKHNXPHGWIRLJ219DNI80W3E6SKUF","","img/set1/S4.jpg","74","4","structured_load","74","structured_load,structured_incentive,random,structured_normal","","3,1,2,4","true","","",""
"null","","html-keyboard-response","176","213461","0.0-176.0","3EO896NRAXHJW6FOIP2YR86AOSGJTI","A30HUZHJBOX1LK","3RKHNXPHGWIRLJ219DNI80W3E6SKUF","","<img src=""img/set1/S4.jpg"" width=""540"" height = ""360"" style=""border:16px solid orange"">","null","","","","","","","","","",""
"null","","html-keyboard-response","177","213663","0.0-177.0","3EO896NRAXHJW6FOIP2YR86AOSGJTI","A30HUZHJBOX1LK","3RKHNXPHGWIRLJ219DNI80W3E6SKUF","","","null","","","","","","","","","",""
"803.7000000476837","","image-keyboard-response","178","214469","0.0-178.0","3EO896NRAXHJW6FOIP2YR86AOSGJTI","A30HUZHJBOX1LK","3RKHNXPHGWIRLJ219DNI80W3E6SKUF","","img/set1/S2.jpg","68","2","structured_load","68","structured_load,structured_incentive,random,structured_normal","","3,1,2,4","true","","",""
"null","","html-keyboard-response","179","214821","0.0-179.0","3EO896NRAXHJW6FOIP2YR86AOSGJTI","A30HUZHJBOX1LK","3RKHNXPHGWIRLJ219DNI80W3E6SKUF","","<img src=""img/set1/S2.jpg"" width=""540"" height = ""360"" style=""border:16px solid orange"">","null","","","","","","","","","",""
"null","","html-keyboard-response","180","215023","0.0-180.0","3EO896NRAXHJW6FOIP2YR86AOSGJTI","A30HUZHJBOX1LK","3RKHNXPHGWIRLJ219DNI80W3E6SKUF","","","null","","","","","","","","","",""
"701.3999999761581","","image-keyboard-response","181","215725","0.0-181.0","3EO896NRAXHJW6FOIP2YR86AOSGJTI","A30HUZHJBOX1LK","3RKHNXPHGWIRLJ219DNI80W3E6SKUF","","img/set1/S2.jpg","68","2","structured_load","68","structured_load,structured_incentive,random,structured_normal","","3,1,2,4","true","","",""
"null","","html-keyboard-response","182","216078","0.0-182.0","3EO896NRAXHJW6FOIP2YR86AOSGJTI","A30HUZHJBOX1LK","3RKHNXPHGWIRLJ219DNI80W3E6SKUF","","<img src=""img/set1/S2.jpg"" width=""540"" height = ""360"" style=""border:16px solid orange"">","null","","","","","","","","","",""
"null","","html-keyboard-response","183","216279","0.0-183.0","3EO896NRAXHJW6FOIP2YR86AOSGJTI","A30HUZHJBOX1LK","3RKHNXPHGWIRLJ219DNI80W3E6SKUF","","","null","","","","","","","","","",""
"867.9000000953674","","image-keyboard-response","184","217148","0.0-184.0","3EO896NRAXHJW6FOIP2YR86AOSGJTI","A30HUZHJBOX1LK","3RKHNXPHGWIRLJ219DNI80W3E6SKUF","","img/set1/S4.jpg","72","4","structured_load","74","structured_load,structured_incentive,random,structured_normal","","3,1,2,4","false","","",""
"null","","html-keyboard-response","185","217501","0.0-185.0","3EO896NRAXHJW6FOIP2YR86AOSGJTI","A30HUZHJBOX1LK","3RKHNXPHGWIRLJ219DNI80W3E6SKUF","","<img src=""img/set1/S4.jpg"" width=""540"" height = ""360"">","null","","","","","","","","","",""
"null","","html-keyboard-response","186","217702","0.0-186.0","3EO896NRAXHJW6FOIP2YR86AOSGJTI","A30HUZHJBOX1LK","3RKHNXPHGWIRLJ219DNI80W3E6SKUF","","","null","","","","","","","","","",""
"997.4000000953674","","image-keyboard-response","187","218700","0.0-187.0","3EO896NRAXHJW6FOIP2YR86AOSGJTI","A30HUZHJBOX1LK","3RKHNXPHGWIRLJ219DNI80W3E6SKUF","","img/set1/S2.jpg","68","2","structured_load","68","structured_load,structured_incentive,random,structured_normal","","3,1,2,4","true","","",""
"null","","html-keyboard-response","188","219052","0.0-188.0","3EO896NRAXHJW6FOIP2YR86AOSGJTI","A30HUZHJBOX1LK","3RKHNXPHGWIRLJ219DNI80W3E6SKUF","","<img src=""img/set1/S2.jpg"" width=""540"" height = ""360"" style=""border:16px solid orange"">","null","","","","","","","","","",""
"null","","html-keyboard-response","189","219254","0.0-189.0","3EO896NRAXHJW6FOIP2YR86AOSGJTI","A30HUZHJBOX1LK","3RKHNXPHGWIRLJ219DNI80W3E6SKUF","","","null","","","","","","","","","",""
"1244.5","","image-keyboard-response","190","220501","0.0-190.0","3EO896NRAXHJW6FOIP2YR86AOSGJTI","A30HUZHJBOX1LK","3RKHNXPHGWIRLJ219DNI80W3E6SKUF","","img/set1/S4.jpg","83","4","structured_load","74","structured_load,structured_incentive,random,structured_normal","","3,1,2,4","false","","",""
"null","","html-keyboard-response","191","220853","0.0-191.0","3EO896NRAXHJW6FOIP2YR86AOSGJTI","A30HUZHJBOX1LK","3RKHNXPHGWIRLJ219DNI80W3E6SKUF","","<img src=""img/set1/S4.jpg"" width=""540"" height = ""360"">","null","","","","","","","","","",""
"null","","html-keyboard-response","192","221054","0.0-192.0","3EO896NRAXHJW6FOIP2YR86AOSGJTI","A30HUZHJBOX1LK","3RKHNXPHGWIRLJ219DNI80W3E6SKUF","","","null","","","","","","","","","",""
"836.3999999761581","","image-keyboard-response","193","221892","0.0-193.0","3EO896NRAXHJW6FOIP2YR86AOSGJTI","A30HUZHJBOX1LK","3RKHNXPHGWIRLJ219DNI80W3E6SKUF","","img/set1/S2.jpg","68","2","structured_load","68","structured_load,structured_incentive,random,structured_normal","","3,1,2,4","true","","",""
"null","","html-keyboard-response","194","222244","0.0-194.0","3EO896NRAXHJW6FOIP2YR86AOSGJTI","A30HUZHJBOX1LK","3RKHNXPHGWIRLJ219DNI80W3E6SKUF","","<img src=""img/set1/S2.jpg"" width=""540"" height = ""360"" style=""border:16px solid orange"">","null","","","","","","","","","",""
"null","","html-keyboard-response","195","222445","0.0-195.0","3EO896NRAXHJW6FOIP2YR86AOSGJTI","A30HUZHJBOX1LK","3RKHNXPHGWIRLJ219DNI80W3E6SKUF","","","null","","","","","","","","","",""
"1261.6000000238419","","image-keyboard-response","196","223708","0.0-196.0","3EO896NRAXHJW6FOIP2YR86AOSGJTI","A30HUZHJBOX1LK","3RKHNXPHGWIRLJ219DNI80W3E6SKUF","","img/set1/S3.jpg","74","3","structured_load","72","structured_load,structured_incentive,random,structured_normal","","3,1,2,4","false","","",""
"null","","html-keyboard-response","197","224061","0.0-197.0","3EO896NRAXHJW6FOIP2YR86AOSGJTI","A30HUZHJBOX1LK","3RKHNXPHGWIRLJ219DNI80W3E6SKUF","","<img src=""img/set1/S3.jpg"" width=""540"" height = ""360"">","null","","","","","","","","","",""
"null","","html-keyboard-response","198","224263","0.0-198.0","3EO896NRAXHJW6FOIP2YR86AOSGJTI","A30HUZHJBOX1LK","3RKHNXPHGWIRLJ219DNI80W3E6SKUF","","","null","","","","","","","","","",""
"867.5","","image-keyboard-response","199","225132","0.0-199.0","3EO896NRAXHJW6FOIP2YR86AOSGJTI","A30HUZHJBOX1LK","3RKHNXPHGWIRLJ219DNI80W3E6SKUF","","img/set1/S1.jpg","83","1","structured_load","83","structured_load,structured_incentive,random,structured_normal","","3,1,2,4","true","","",""
"null","","html-keyboard-response","200","225485","0.0-200.0","3EO896NRAXHJW6FOIP2YR86AOSGJTI","A30HUZHJBOX1LK","3RKHNXPHGWIRLJ219DNI80W3E6SKUF","","<img src=""img/set1/S1.jpg"" width=""540"" height = ""360"" style=""border:16px solid orange"">","null","","","","","","","","","",""
"null","","html-keyboard-response","201","225686","0.0-201.0","3EO896NRAXHJW6FOIP2YR86AOSGJTI","A30HUZHJBOX1LK","3RKHNXPHGWIRLJ219DNI80W3E6SKUF","","","null","","","","","","","","","",""
"693","","image-keyboard-response","202","226381","0.0-202.0","3EO896NRAXHJW6FOIP2YR86AOSGJTI","A30HUZHJBOX1LK","3RKHNXPHGWIRLJ219DNI80W3E6SKUF","","img/set1/S1.jpg","83","1","structured_load","83","structured_load,structured_incentive,random,structured_normal","","3,1,2,4","true","","",""
"null","","html-keyboard-response","203","226732","0.0-203.0","3EO896NRAXHJW6FOIP2YR86AOSGJTI","A30HUZHJBOX1LK","3RKHNXPHGWIRLJ219DNI80W3E6SKUF","","<img src=""img/set1/S1.jpg"" width=""540"" height = ""360"" style=""border:16px solid orange"">","null","","","","","","","","","",""
"null","","html-keyboard-response","204","226933","0.0-204.0","3EO896NRAXHJW6FOIP2YR86AOSGJTI","A30HUZHJBOX1LK","3RKHNXPHGWIRLJ219DNI80W3E6SKUF","","","null","","","","","","","","","",""
"1533.6000000238419","","image-keyboard-response","205","228468","0.0-205.0","3EO896NRAXHJW6FOIP2YR86AOSGJTI","A30HUZHJBOX1LK","3RKHNXPHGWIRLJ219DNI80W3E6SKUF","","img/set1/S3.jpg","74","3","structured_load","72","structured_load,structured_incentive,random,structured_normal","","3,1,2,4","false","","",""
"null","","html-keyboard-response","206","228820","0.0-206.0","3EO896NRAXHJW6FOIP2YR86AOSGJTI","A30HUZHJBOX1LK","3RKHNXPHGWIRLJ219DNI80W3E6SKUF","","<img src=""img/set1/S3.jpg"" width=""540"" height = ""360"">","null","","","","","","","","","",""
"null","","html-keyboard-response","207","229021","0.0-207.0","3EO896NRAXHJW6FOIP2YR86AOSGJTI","A30HUZHJBOX1LK","3RKHNXPHGWIRLJ219DNI80W3E6SKUF","","","null","","","","","","","","","",""
"853.3999999761581","","image-keyboard-response","208","229876","0.0-208.0","3EO896NRAXHJW6FOIP2YR86AOSGJTI","A30HUZHJBOX1LK","3RKHNXPHGWIRLJ219DNI80W3E6SKUF","","img/set1/S4.jpg","72","4","structured_load","74","structured_load,structured_incentive,random,structured_normal","","3,1,2,4","false","","",""
"null","","html-keyboard-response","209","230230","0.0-209.0","3EO896NRAXHJW6FOIP2YR86AOSGJTI","A30HUZHJBOX1LK","3RKHNXPHGWIRLJ219DNI80W3E6SKUF","","<img src=""img/set1/S4.jpg"" width=""540"" height = ""360"">","null","","","","","","","","","",""
"null","","html-keyboard-response","210","230431","0.0-210.0","3EO896NRAXHJW6FOIP2YR86AOSGJTI","A30HUZHJBOX1LK","3RKHNXPHGWIRLJ219DNI80W3E6SKUF","","","null","","","","","","","","","",""
"843.7000000476837","","image-keyboard-response","211","231277","0.0-211.0","3EO896NRAXHJW6FOIP2YR86AOSGJTI","A30HUZHJBOX1LK","3RKHNXPHGWIRLJ219DNI80W3E6SKUF","","img/set1/S2.jpg","68","2","structured_load","68","structured_load,structured_incentive,random,structured_normal","","3,1,2,4","true","","",""
"null","","html-keyboard-response","212","231628","0.0-212.0","3EO896NRAXHJW6FOIP2YR86AOSGJTI","A30HUZHJBOX1LK","3RKHNXPHGWIRLJ219DNI80W3E6SKUF","","<img src=""img/set1/S2.jpg"" width=""540"" height = ""360"" style=""border:16px solid orange"">","null","","","","","","","","","",""
"null","","html-keyboard-response","213","231829","0.0-213.0","3EO896NRAXHJW6FOIP2YR86AOSGJTI","A30HUZHJBOX1LK","3RKHNXPHGWIRLJ219DNI80W3E6SKUF","","","null","","","","","","","","","",""
"724.8999999761581","","image-keyboard-response","214","232556","0.0-214.0","3EO896NRAXHJW6FOIP2YR86AOSGJTI","A30HUZHJBOX1LK","3RKHNXPHGWIRLJ219DNI80W3E6SKUF","","img/set1/S1.jpg","83","1","structured_load","83","structured_load,structured_incentive,random,structured_normal","","3,1,2,4","true","","",""
"null","","html-keyboard-response","215","232908","0.0-215.0","3EO896NRAXHJW6FOIP2YR86AOSGJTI","A30HUZHJBOX1LK","3RKHNXPHGWIRLJ219DNI80W3E6SKUF","","<img src=""img/set1/S1.jpg"" width=""540"" height = ""360"" style=""border:16px solid orange"">","null","","","","","","","","","",""
"null","","html-keyboard-response","216","233109","0.0-216.0","3EO896NRAXHJW6FOIP2YR86AOSGJTI","A30HUZHJBOX1LK","3RKHNXPHGWIRLJ219DNI80W3E6SKUF","","","null","","","","","","","","","",""
"894.1000000238419","","image-keyboard-response","217","234005","0.0-217.0","3EO896NRAXHJW6FOIP2YR86AOSGJTI","A30HUZHJBOX1LK","3RKHNXPHGWIRLJ219DNI80W3E6SKUF","","img/set1/S2.jpg","68","2","structured_load","68","structured_load,structured_incentive,random,structured_normal","","3,1,2,4","true","","",""
"null","","html-keyboard-response","218","234356","0.0-218.0","3EO896NRAXHJW6FOIP2YR86AOSGJTI","A30HUZHJBOX1LK","3RKHNXPHGWIRLJ219DNI80W3E6SKUF","","<img src=""img/set1/S2.jpg"" width=""540"" height = ""360"" style=""border:16px solid orange"">","null","","","","","","","","","",""
"null","","html-keyboard-response","219","234558","0.0-219.0","3EO896NRAXHJW6FOIP2YR86AOSGJTI","A30HUZHJBOX1LK","3RKHNXPHGWIRLJ219DNI80W3E6SKUF","","","null","","","","","","","","","",""
"1012.3999999761581","","image-keyboard-response","220","235572","0.0-220.0","3EO896NRAXHJW6FOIP2YR86AOSGJTI","A30HUZHJBOX1LK","3RKHNXPHGWIRLJ219DNI80W3E6SKUF","","img/set1/S4.jpg","74","4","structured_load","74","structured_load,structured_incentive,random,structured_normal","","3,1,2,4","true","","",""
"null","","html-keyboard-response","221","235925","0.0-221.0","3EO896NRAXHJW6FOIP2YR86AOSGJTI","A30HUZHJBOX1LK","3RKHNXPHGWIRLJ219DNI80W3E6SKUF","","<img src=""img/set1/S4.jpg"" width=""540"" height = ""360"" style=""border:16px solid orange"">","null","","","","","","","","","",""
"null","","html-keyboard-response","222","236126","0.0-222.0","3EO896NRAXHJW6FOIP2YR86AOSGJTI","A30HUZHJBOX1LK","3RKHNXPHGWIRLJ219DNI80W3E6SKUF","","","null","","","","","","","","","",""
"804.6000000238419","","image-keyboard-response","223","236933","0.0-223.0","3EO896NRAXHJW6FOIP2YR86AOSGJTI","A30HUZHJBOX1LK","3RKHNXPHGWIRLJ219DNI80W3E6SKUF","","img/set1/S2.jpg","68","2","structured_load","68","structured_load,structured_incentive,random,structured_normal","","3,1,2,4","true","","",""
"null","","html-keyboard-response","224","237285","0.0-224.0","3EO896NRAXHJW6FOIP2YR86AOSGJTI","A30HUZHJBOX1LK","3RKHNXPHGWIRLJ219DNI80W3E6SKUF","","<img src=""img/set1/S2.jpg"" width=""540"" height = ""360"" style=""border:16px solid orange"">","null","","","","","","","","","",""
"null","","html-keyboard-response","225","237486","0.0-225.0","3EO896NRAXHJW6FOIP2YR86AOSGJTI","A30HUZHJBOX1LK","3RKHNXPHGWIRLJ219DNI80W3E6SKUF","","","null","","","","","","","","","",""
"605.6000000238419","","image-keyboard-response","226","238093","0.0-226.0","3EO896NRAXHJW6FOIP2YR86AOSGJTI","A30HUZHJBOX1LK","3RKHNXPHGWIRLJ219DNI80W3E6SKUF","","img/set1/S4.jpg","74","4","structured_load","74","structured_load,structured_incentive,random,structured_normal","","3,1,2,4","true","","",""
"null","","html-keyboard-response","227","238445","0.0-227.0","3EO896NRAXHJW6FOIP2YR86AOSGJTI","A30HUZHJBOX1LK","3RKHNXPHGWIRLJ219DNI80W3E6SKUF","","<img src=""img/set1/S4.jpg"" width=""540"" height = ""360"" style=""border:16px solid orange"">","null","","","","","","","","","",""
"null","","html-keyboard-response","228","238646","0.0-228.0","3EO896NRAXHJW6FOIP2YR86AOSGJTI","A30HUZHJBOX1LK","3RKHNXPHGWIRLJ219DNI80W3E6SKUF","","","null","","","","","","","","","",""
"813.5","","image-keyboard-response","229","239461","0.0-229.0","3EO896NRAXHJW6FOIP2YR86AOSGJTI","A30HUZHJBOX1LK","3RKHNXPHGWIRLJ219DNI80W3E6SKUF","","img/set1/S3.jpg","72","3","structured_load","72","structured_load,structured_incentive,random,structured_normal","","3,1,2,4","true","","",""
"null","","html-keyboard-response","230","239813","0.0-230.0","3EO896NRAXHJW6FOIP2YR86AOSGJTI","A30HUZHJBOX1LK","3RKHNXPHGWIRLJ219DNI80W3E6SKUF","","<img src=""img/set1/S3.jpg"" width=""540"" height = ""360"" style=""border:16px solid orange"">","null","","","","","","","","","",""
"null","","html-keyboard-response","231","240014","0.0-231.0","3EO896NRAXHJW6FOIP2YR86AOSGJTI","A30HUZHJBOX1LK","3RKHNXPHGWIRLJ219DNI80W3E6SKUF","","","null","","","","","","","","","",""
"677.6999999284744","","image-keyboard-response","232","240693","0.0-232.0","3EO896NRAXHJW6FOIP2YR86AOSGJTI","A30HUZHJBOX1LK","3RKHNXPHGWIRLJ219DNI80W3E6SKUF","","img/set1/S3.jpg","72","3","structured_load","72","structured_load,structured_incentive,random,structured_normal","","3,1,2,4","true","","",""
"null","","html-keyboard-response","233","241045","0.0-233.0","3EO896NRAXHJW6FOIP2YR86AOSGJTI","A30HUZHJBOX1LK","3RKHNXPHGWIRLJ219DNI80W3E6SKUF","","<img src=""img/set1/S3.jpg"" width=""540"" height = ""360"" style=""border:16px solid orange"">","null","","","","","","","","","",""
"null","","html-keyboard-response","234","241246","0.0-234.0","3EO896NRAXHJW6FOIP2YR86AOSGJTI","A30HUZHJBOX1LK","3RKHNXPHGWIRLJ219DNI80W3E6SKUF","","","null","","","","","","","","","",""
"733.1999999284744","","image-keyboard-response","235","241981","0.0-235.0","3EO896NRAXHJW6FOIP2YR86AOSGJTI","A30HUZHJBOX1LK","3RKHNXPHGWIRLJ219DNI80W3E6SKUF","","img/set1/S1.jpg","83","1","structured_load","83","structured_load,structured_incentive,random,structured_normal","","3,1,2,4","true","","",""
"null","","html-keyboard-response","236","242333","0.0-236.0","3EO896NRAXHJW6FOIP2YR86AOSGJTI","A30HUZHJBOX1LK","3RKHNXPHGWIRLJ219DNI80W3E6SKUF","","<img src=""img/set1/S1.jpg"" width=""540"" height = ""360"" style=""border:16px solid orange"">","null","","","","","","","","","",""
"null","","html-keyboard-response","237","242534","0.0-237.0","3EO896NRAXHJW6FOIP2YR86AOSGJTI","A30HUZHJBOX1LK","3RKHNXPHGWIRLJ219DNI80W3E6SKUF","","","null","","","","","","","","","",""
"1150.1999999284744","","image-keyboard-response","238","243686","0.0-238.0","3EO896NRAXHJW6FOIP2YR86AOSGJTI","A30HUZHJBOX1LK","3RKHNXPHGWIRLJ219DNI80W3E6SKUF","","img/set1/S4.jpg","74","4","structured_load","74","structured_load,structured_incentive,random,structured_normal","","3,1,2,4","true","","",""
"null","","html-keyboard-response","239","244038","0.0-239.0","3EO896NRAXHJW6FOIP2YR86AOSGJTI","A30HUZHJBOX1LK","3RKHNXPHGWIRLJ219DNI80W3E6SKUF","","<img src=""img/set1/S4.jpg"" width=""540"" height = ""360"" style=""border:16px solid orange"">","null","","","","","","","","","",""
"null","","html-keyboard-response","240","244240","0.0-240.0","3EO896NRAXHJW6FOIP2YR86AOSGJTI","A30HUZHJBOX1LK","3RKHNXPHGWIRLJ219DNI80W3E6SKUF","","","null","","","","","","","","","",""
"739.1000000238419","","image-keyboard-response","241","244980","0.0-241.0","3EO896NRAXHJW6FOIP2YR86AOSGJTI","A30HUZHJBOX1LK","3RKHNXPHGWIRLJ219DNI80W3E6SKUF","","img/set1/S2.jpg","68","2","structured_load","68","structured_load,structured_incentive,random,structured_normal","","3,1,2,4","true","","",""
"null","","html-keyboard-response","242","245332","0.0-242.0","3EO896NRAXHJW6FOIP2YR86AOSGJTI","A30HUZHJBOX1LK","3RKHNXPHGWIRLJ219DNI80W3E6SKUF","","<img src=""img/set1/S2.jpg"" width=""540"" height = ""360"" style=""border:16px solid orange"">","null","","","","","","","","","",""
"null","","html-keyboard-response","243","245542","0.0-243.0","3EO896NRAXHJW6FOIP2YR86AOSGJTI","A30HUZHJBOX1LK","3RKHNXPHGWIRLJ219DNI80W3E6SKUF","","","null","","","","","","","","","",""
"805.1999999284744","","image-keyboard-response","244","246348","0.0-244.0","3EO896NRAXHJW6FOIP2YR86AOSGJTI","A30HUZHJBOX1LK","3RKHNXPHGWIRLJ219DNI80W3E6SKUF","","img/set1/S3.jpg","74","3","structured_load","72","structured_load,structured_incentive,random,structured_normal","","3,1,2,4","false","","",""
"null","","html-keyboard-response","245","246700","0.0-245.0","3EO896NRAXHJW6FOIP2YR86AOSGJTI","A30HUZHJBOX1LK","3RKHNXPHGWIRLJ219DNI80W3E6SKUF","","<img src=""img/set1/S3.jpg"" width=""540"" height = ""360"">","null","","","","","","","","","",""
"null","","html-keyboard-response","246","246901","0.0-246.0","3EO896NRAXHJW6FOIP2YR86AOSGJTI","A30HUZHJBOX1LK","3RKHNXPHGWIRLJ219DNI80W3E6SKUF","","","null","","","","","","","","","",""
"774.7000000476837","","image-keyboard-response","247","247676","0.0-247.0","3EO896NRAXHJW6FOIP2YR86AOSGJTI","A30HUZHJBOX1LK","3RKHNXPHGWIRLJ219DNI80W3E6SKUF","","img/set1/S1.jpg","83","1","structured_load","83","structured_load,structured_incentive,random,structured_normal","","3,1,2,4","true","","",""
"null","","html-keyboard-response","248","248028","0.0-248.0","3EO896NRAXHJW6FOIP2YR86AOSGJTI","A30HUZHJBOX1LK","3RKHNXPHGWIRLJ219DNI80W3E6SKUF","","<img src=""img/set1/S1.jpg"" width=""540"" height = ""360"" style=""border:16px solid orange"">","null","","","","","","","","","",""
"null","","html-keyboard-response","249","248230","0.0-249.0","3EO896NRAXHJW6FOIP2YR86AOSGJTI","A30HUZHJBOX1LK","3RKHNXPHGWIRLJ219DNI80W3E6SKUF","","","null","","","","","","","","","",""
"821.1999999284744","","image-keyboard-response","250","249053","0.0-250.0","3EO896NRAXHJW6FOIP2YR86AOSGJTI","A30HUZHJBOX1LK","3RKHNXPHGWIRLJ219DNI80W3E6SKUF","","img/set1/S4.jpg","74","4","structured_load","74","structured_load,structured_incentive,random,structured_normal","","3,1,2,4","true","","",""
"null","","html-keyboard-response","251","249405","0.0-251.0","3EO896NRAXHJW6FOIP2YR86AOSGJTI","A30HUZHJBOX1LK","3RKHNXPHGWIRLJ219DNI80W3E6SKUF","","<img src=""img/set1/S4.jpg"" width=""540"" height = ""360"" style=""border:16px solid orange"">","null","","","","","","","","","",""
"null","","html-keyboard-response","252","249608","0.0-252.0","3EO896NRAXHJW6FOIP2YR86AOSGJTI","A30HUZHJBOX1LK","3RKHNXPHGWIRLJ219DNI80W3E6SKUF","","","null","","","","","","","","","",""
"779.1000000238419","","image-keyboard-response","253","250389","0.0-253.0","3EO896NRAXHJW6FOIP2YR86AOSGJTI","A30HUZHJBOX1LK","3RKHNXPHGWIRLJ219DNI80W3E6SKUF","","img/set1/S2.jpg","68","2","structured_load","68","structured_load,structured_incentive,random,structured_normal","","3,1,2,4","true","","",""
"null","","html-keyboard-response","254","250741","0.0-254.0","3EO896NRAXHJW6FOIP2YR86AOSGJTI","A30HUZHJBOX1LK","3RKHNXPHGWIRLJ219DNI80W3E6SKUF","","<img src=""img/set1/S2.jpg"" width=""540"" height = ""360"" style=""border:16px solid orange"">","null","","","","","","","","","",""
"null","","html-keyboard-response","255","250942","0.0-255.0","3EO896NRAXHJW6FOIP2YR86AOSGJTI","A30HUZHJBOX1LK","3RKHNXPHGWIRLJ219DNI80W3E6SKUF","","","null","","","","","","","","","",""
"1172.6000000238419","","image-keyboard-response","256","252116","0.0-256.0","3EO896NRAXHJW6FOIP2YR86AOSGJTI","A30HUZHJBOX1LK","3RKHNXPHGWIRLJ219DNI80W3E6SKUF","","img/set1/S3.jpg","72","3","structured_load","72","structured_load,structured_incentive,random,structured_normal","","3,1,2,4","true","","",""
"null","","html-keyboard-response","257","252468","0.0-257.0","3EO896NRAXHJW6FOIP2YR86AOSGJTI","A30HUZHJBOX1LK","3RKHNXPHGWIRLJ219DNI80W3E6SKUF","","<img src=""img/set1/S3.jpg"" width=""540"" height = ""360"" style=""border:16px solid orange"">","null","","","","","","","","","",""
"null","","html-keyboard-response","258","252669","0.0-258.0","3EO896NRAXHJW6FOIP2YR86AOSGJTI","A30HUZHJBOX1LK","3RKHNXPHGWIRLJ219DNI80W3E6SKUF","","","null","","","","","","","","","",""
"654.5","","image-keyboard-response","259","253324","0.0-259.0","3EO896NRAXHJW6FOIP2YR86AOSGJTI","A30HUZHJBOX1LK","3RKHNXPHGWIRLJ219DNI80W3E6SKUF","","img/set1/S3.jpg","72","3","structured_load","72","structured_load,structured_incentive,random,structured_normal","","3,1,2,4","true","","",""
"null","","html-keyboard-response","260","253676","0.0-260.0","3EO896NRAXHJW6FOIP2YR86AOSGJTI","A30HUZHJBOX1LK","3RKHNXPHGWIRLJ219DNI80W3E6SKUF","","<img src=""img/set1/S3.jpg"" width=""540"" height = ""360"" style=""border:16px solid orange"">","null","","","","","","","","","",""
"null","","html-keyboard-response","261","253877","0.0-261.0","3EO896NRAXHJW6FOIP2YR86AOSGJTI","A30HUZHJBOX1LK","3RKHNXPHGWIRLJ219DNI80W3E6SKUF","","","null","","","","","","","","","",""
"758","","image-keyboard-response","262","254636","0.0-262.0","3EO896NRAXHJW6FOIP2YR86AOSGJTI","A30HUZHJBOX1LK","3RKHNXPHGWIRLJ219DNI80W3E6SKUF","","img/set1/S1.jpg","83","1","structured_load","83","structured_load,structured_incentive,random,structured_normal","","3,1,2,4","true","","",""
"null","","html-keyboard-response","263","254988","0.0-263.0","3EO896NRAXHJW6FOIP2YR86AOSGJTI","A30HUZHJBOX1LK","3RKHNXPHGWIRLJ219DNI80W3E6SKUF","","<img src=""img/set1/S1.jpg"" width=""540"" height = ""360"" style=""border:16px solid orange"">","null","","","","","","","","","",""
"null","","html-keyboard-response","264","255190","0.0-264.0","3EO896NRAXHJW6FOIP2YR86AOSGJTI","A30HUZHJBOX1LK","3RKHNXPHGWIRLJ219DNI80W3E6SKUF","","","null","","","","","","","","","",""
"668.7999999523163","","image-keyboard-response","265","255861","0.0-265.0","3EO896NRAXHJW6FOIP2YR86AOSGJTI","A30HUZHJBOX1LK","3RKHNXPHGWIRLJ219DNI80W3E6SKUF","","img/set1/S1.jpg","83","1","structured_load","83","structured_load,structured_incentive,random,structured_normal","","3,1,2,4","true","","",""
"null","","html-keyboard-response","266","256213","0.0-266.0","3EO896NRAXHJW6FOIP2YR86AOSGJTI","A30HUZHJBOX1LK","3RKHNXPHGWIRLJ219DNI80W3E6SKUF","","<img src=""img/set1/S1.jpg"" width=""540"" height = ""360"" style=""border:16px solid orange"">","null","","","","","","","","","",""
"null","","html-keyboard-response","267","256415","0.0-267.0","3EO896NRAXHJW6FOIP2YR86AOSGJTI","A30HUZHJBOX1LK","3RKHNXPHGWIRLJ219DNI80W3E6SKUF","","","null","","","","","","","","","",""
"749.3999999761581","","image-keyboard-response","268","257165","0.0-268.0","3EO896NRAXHJW6FOIP2YR86AOSGJTI","A30HUZHJBOX1LK","3RKHNXPHGWIRLJ219DNI80W3E6SKUF","","img/set1/S3.jpg","72","3","structured_load","72","structured_load,structured_incentive,random,structured_normal","","3,1,2,4","true","","",""
"null","","html-keyboard-response","269","257517","0.0-269.0","3EO896NRAXHJW6FOIP2YR86AOSGJTI","A30HUZHJBOX1LK","3RKHNXPHGWIRLJ219DNI80W3E6SKUF","","<img src=""img/set1/S3.jpg"" width=""540"" height = ""360"" style=""border:16px solid orange"">","null","","","","","","","","","",""
"null","","html-keyboard-response","270","257718","0.0-270.0","3EO896NRAXHJW6FOIP2YR86AOSGJTI","A30HUZHJBOX1LK","3RKHNXPHGWIRLJ219DNI80W3E6SKUF","","","null","","","","","","","","","",""
"781.7999999523163","","image-keyboard-response","271","258501","0.0-271.0","3EO896NRAXHJW6FOIP2YR86AOSGJTI","A30HUZHJBOX1LK","3RKHNXPHGWIRLJ219DNI80W3E6SKUF","","img/set1/S1.jpg","83","1","structured_load","83","structured_load,structured_incentive,random,structured_normal","","3,1,2,4","true","","",""
"null","","html-keyboard-response","272","258853","0.0-272.0","3EO896NRAXHJW6FOIP2YR86AOSGJTI","A30HUZHJBOX1LK","3RKHNXPHGWIRLJ219DNI80W3E6SKUF","","<img src=""img/set1/S1.jpg"" width=""540"" height = ""360"" style=""border:16px solid orange"">","null","","","","","","","","","",""
"null","","html-keyboard-response","273","259055","0.0-273.0","3EO896NRAXHJW6FOIP2YR86AOSGJTI","A30HUZHJBOX1LK","3RKHNXPHGWIRLJ219DNI80W3E6SKUF","","","null","","","","","","","","","",""
"836.2999999523163","","image-keyboard-response","274","259893","0.0-274.0","3EO896NRAXHJW6FOIP2YR86AOSGJTI","A30HUZHJBOX1LK","3RKHNXPHGWIRLJ219DNI80W3E6SKUF","","img/set1/S4.jpg","74","4","structured_load","74","structured_load,structured_incentive,random,structured_normal","","3,1,2,4","true","","",""
"null","","html-keyboard-response","275","260245","0.0-275.0","3EO896NRAXHJW6FOIP2YR86AOSGJTI","A30HUZHJBOX1LK","3RKHNXPHGWIRLJ219DNI80W3E6SKUF","","<img src=""img/set1/S4.jpg"" width=""540"" height = ""360"" style=""border:16px solid orange"">","null","","","","","","","","","",""
"null","","html-keyboard-response","276","260446","0.0-276.0","3EO896NRAXHJW6FOIP2YR86AOSGJTI","A30HUZHJBOX1LK","3RKHNXPHGWIRLJ219DNI80W3E6SKUF","","","null","","","","","","","","","",""
"645.1000000238419","","image-keyboard-response","277","261093","0.0-277.0","3EO896NRAXHJW6FOIP2YR86AOSGJTI","A30HUZHJBOX1LK","3RKHNXPHGWIRLJ219DNI80W3E6SKUF","","img/set1/S2.jpg","68","2","structured_load","68","structured_load,structured_incentive,random,structured_normal","","3,1,2,4","true","","",""
"null","","html-keyboard-response","278","261445","0.0-278.0","3EO896NRAXHJW6FOIP2YR86AOSGJTI","A30HUZHJBOX1LK","3RKHNXPHGWIRLJ219DNI80W3E6SKUF","","<img src=""img/set1/S2.jpg"" width=""540"" height = ""360"" style=""border:16px solid orange"">","null","","","","","","","","","",""
"null","","html-keyboard-response","279","261645","0.0-279.0","3EO896NRAXHJW6FOIP2YR86AOSGJTI","A30HUZHJBOX1LK","3RKHNXPHGWIRLJ219DNI80W3E6SKUF","","","null","","","","","","","","","",""
"1165.6000000238419","","image-keyboard-response","280","262813","0.0-280.0","3EO896NRAXHJW6FOIP2YR86AOSGJTI","A30HUZHJBOX1LK","3RKHNXPHGWIRLJ219DNI80W3E6SKUF","","img/set1/S3.jpg","74","3","structured_load","72","structured_load,structured_incentive,random,structured_normal","","3,1,2,4","false","","",""
"null","","html-keyboard-response","281","263165","0.0-281.0","3EO896NRAXHJW6FOIP2YR86AOSGJTI","A30HUZHJBOX1LK","3RKHNXPHGWIRLJ219DNI80W3E6SKUF","","<img src=""img/set1/S3.jpg"" width=""540"" height = ""360"">","null","","","","","","","","","",""
"null","","html-keyboard-response","282","263366","0.0-282.0","3EO896NRAXHJW6FOIP2YR86AOSGJTI","A30HUZHJBOX1LK","3RKHNXPHGWIRLJ219DNI80W3E6SKUF","","","null","","","","","","","","","",""
"1181.6999999284744","","image-keyboard-response","283","264549","0.0-283.0","3EO896NRAXHJW6FOIP2YR86AOSGJTI","A30HUZHJBOX1LK","3RKHNXPHGWIRLJ219DNI80W3E6SKUF","","img/set1/S4.jpg","74","4","structured_load","74","structured_load,structured_incentive,random,structured_normal","","3,1,2,4","true","","",""
"null","","html-keyboard-response","284","264901","0.0-284.0","3EO896NRAXHJW6FOIP2YR86AOSGJTI","A30HUZHJBOX1LK","3RKHNXPHGWIRLJ219DNI80W3E6SKUF","","<img src=""img/set1/S4.jpg"" width=""540"" height = ""360"" style=""border:16px solid orange"">","null","","","","","","","","","",""
"null","","html-keyboard-response","285","265103","0.0-285.0","3EO896NRAXHJW6FOIP2YR86AOSGJTI","A30HUZHJBOX1LK","3RKHNXPHGWIRLJ219DNI80W3E6SKUF","","","null","","","","","","","","","",""
"668.3999999761581","","image-keyboard-response","286","265773","0.0-286.0","3EO896NRAXHJW6FOIP2YR86AOSGJTI","A30HUZHJBOX1LK","3RKHNXPHGWIRLJ219DNI80W3E6SKUF","","img/set1/S2.jpg","68","2","structured_load","68","structured_load,structured_incentive,random,structured_normal","","3,1,2,4","true","","",""
"null","","html-keyboard-response","287","266125","0.0-287.0","3EO896NRAXHJW6FOIP2YR86AOSGJTI","A30HUZHJBOX1LK","3RKHNXPHGWIRLJ219DNI80W3E6SKUF","","<img src=""img/set1/S2.jpg"" width=""540"" height = ""360"" style=""border:16px solid orange"">","null","","","","","","","","","",""
"null","","html-keyboard-response","288","266327","0.0-288.0","3EO896NRAXHJW6FOIP2YR86AOSGJTI","A30HUZHJBOX1LK","3RKHNXPHGWIRLJ219DNI80W3E6SKUF","","","null","","","","","","","","","",""
"828.7999999523163","","image-keyboard-response","289","267157","0.0-289.0","3EO896NRAXHJW6FOIP2YR86AOSGJTI","A30HUZHJBOX1LK","3RKHNXPHGWIRLJ219DNI80W3E6SKUF","","img/set1/S4.jpg","74","4","structured_load","74","structured_load,structured_incentive,random,structured_normal","","3,1,2,4","true","","",""
"null","","html-keyboard-response","290","267509","0.0-290.0","3EO896NRAXHJW6FOIP2YR86AOSGJTI","A30HUZHJBOX1LK","3RKHNXPHGWIRLJ219DNI80W3E6SKUF","","<img src=""img/set1/S4.jpg"" width=""540"" height = ""360"" style=""border:16px solid orange"">","null","","","","","","","","","",""
"null","","html-keyboard-response","291","267710","0.0-291.0","3EO896NRAXHJW6FOIP2YR86AOSGJTI","A30HUZHJBOX1LK","3RKHNXPHGWIRLJ219DNI80W3E6SKUF","","","null","","","","","","","","","",""
"685.1000000238419","","image-keyboard-response","292","268396","0.0-292.0","3EO896NRAXHJW6FOIP2YR86AOSGJTI","A30HUZHJBOX1LK","3RKHNXPHGWIRLJ219DNI80W3E6SKUF","","img/set1/S2.jpg","68","2","structured_load","68","structured_load,structured_incentive,random,structured_normal","","3,1,2,4","true","","",""
"null","","html-keyboard-response","293","268748","0.0-293.0","3EO896NRAXHJW6FOIP2YR86AOSGJTI","A30HUZHJBOX1LK","3RKHNXPHGWIRLJ219DNI80W3E6SKUF","","<img src=""img/set1/S2.jpg"" width=""540"" height = ""360"" style=""border:16px solid orange"">","null","","","","","","","","","",""
"null","","html-keyboard-response","294","268950","0.0-294.0","3EO896NRAXHJW6FOIP2YR86AOSGJTI","A30HUZHJBOX1LK","3RKHNXPHGWIRLJ219DNI80W3E6SKUF","","","null","","","","","","","","","",""
"629.6000000238419","","image-keyboard-response","295","269580","0.0-295.0","3EO896NRAXHJW6FOIP2YR86AOSGJTI","A30HUZHJBOX1LK","3RKHNXPHGWIRLJ219DNI80W3E6SKUF","","img/set1/S3.jpg","72","3","structured_load","72","structured_load,structured_incentive,random,structured_normal","","3,1,2,4","true","","",""
"null","","html-keyboard-response","296","269933","0.0-296.0","3EO896NRAXHJW6FOIP2YR86AOSGJTI","A30HUZHJBOX1LK","3RKHNXPHGWIRLJ219DNI80W3E6SKUF","","<img src=""img/set1/S3.jpg"" width=""540"" height = ""360"" style=""border:16px solid orange"">","null","","","","","","","","","",""
"null","","html-keyboard-response","297","270134","0.0-297.0","3EO896NRAXHJW6FOIP2YR86AOSGJTI","A30HUZHJBOX1LK","3RKHNXPHGWIRLJ219DNI80W3E6SKUF","","","null","","","","","","","","","",""
"541.1000000238419","","image-keyboard-response","298","270677","0.0-298.0","3EO896NRAXHJW6FOIP2YR86AOSGJTI","A30HUZHJBOX1LK","3RKHNXPHGWIRLJ219DNI80W3E6SKUF","","img/set1/S3.jpg","72","3","structured_load","72","structured_load,structured_incentive,random,structured_normal","","3,1,2,4","true","","",""
"null","","html-keyboard-response","299","271028","0.0-299.0","3EO896NRAXHJW6FOIP2YR86AOSGJTI","A30HUZHJBOX1LK","3RKHNXPHGWIRLJ219DNI80W3E6SKUF","","<img src=""img/set1/S3.jpg"" width=""540"" height = ""360"" style=""border:16px solid orange"">","null","","","","","","","","","",""
"null","","html-keyboard-response","300","271230","0.0-300.0","3EO896NRAXHJW6FOIP2YR86AOSGJTI","A30HUZHJBOX1LK","3RKHNXPHGWIRLJ219DNI80W3E6SKUF","","","null","","","","","","","","","",""
"557.3000000715256","","image-keyboard-response","301","271788","0.0-301.0","3EO896NRAXHJW6FOIP2YR86AOSGJTI","A30HUZHJBOX1LK","3RKHNXPHGWIRLJ219DNI80W3E6SKUF","","img/set1/S3.jpg","72","3","structured_load","72","structured_load,structured_incentive,random,structured_normal","","3,1,2,4","true","","",""
"null","","html-keyboard-response","302","272140","0.0-302.0","3EO896NRAXHJW6FOIP2YR86AOSGJTI","A30HUZHJBOX1LK","3RKHNXPHGWIRLJ219DNI80W3E6SKUF","","<img src=""img/set1/S3.jpg"" width=""540"" height = ""360"" style=""border:16px solid orange"">","null","","","","","","","","","",""
"null","","html-keyboard-response","303","272340","0.0-303.0","3EO896NRAXHJW6FOIP2YR86AOSGJTI","A30HUZHJBOX1LK","3RKHNXPHGWIRLJ219DNI80W3E6SKUF","","","null","","","","","","","","","",""
"966.3000000715256","","image-keyboard-response","304","273308","0.0-304.0","3EO896NRAXHJW6FOIP2YR86AOSGJTI","A30HUZHJBOX1LK","3RKHNXPHGWIRLJ219DNI80W3E6SKUF","","img/set1/S4.jpg","74","4","structured_load","74","structured_load,structured_incentive,random,structured_normal","","3,1,2,4","true","","",""
"null","","html-keyboard-response","305","273660","0.0-305.0","3EO896NRAXHJW6FOIP2YR86AOSGJTI","A30HUZHJBOX1LK","3RKHNXPHGWIRLJ219DNI80W3E6SKUF","","<img src=""img/set1/S4.jpg"" width=""540"" height = ""360"" style=""border:16px solid orange"">","null","","","","","","","","","",""
"null","","html-keyboard-response","306","273861","0.0-306.0","3EO896NRAXHJW6FOIP2YR86AOSGJTI","A30HUZHJBOX1LK","3RKHNXPHGWIRLJ219DNI80W3E6SKUF","","","null","","","","","","","","","",""
"637.7000000476837","","image-keyboard-response","307","274501","0.0-307.0","3EO896NRAXHJW6FOIP2YR86AOSGJTI","A30HUZHJBOX1LK","3RKHNXPHGWIRLJ219DNI80W3E6SKUF","","img/set1/S2.jpg","68","2","structured_load","68","structured_load,structured_incentive,random,structured_normal","","3,1,2,4","true","","",""
"null","","html-keyboard-response","308","274852","0.0-308.0","3EO896NRAXHJW6FOIP2YR86AOSGJTI","A30HUZHJBOX1LK","3RKHNXPHGWIRLJ219DNI80W3E6SKUF","","<img src=""img/set1/S2.jpg"" width=""540"" height = ""360"" style=""border:16px solid orange"">","null","","","","","","","","","",""
"null","","html-keyboard-response","309","275054","0.0-309.0","3EO896NRAXHJW6FOIP2YR86AOSGJTI","A30HUZHJBOX1LK","3RKHNXPHGWIRLJ219DNI80W3E6SKUF","","","null","","","","","","","","","",""
"852.5","","image-keyboard-response","310","275908","0.0-310.0","3EO896NRAXHJW6FOIP2YR86AOSGJTI","A30HUZHJBOX1LK","3RKHNXPHGWIRLJ219DNI80W3E6SKUF","","img/set1/S4.jpg","74","4","structured_load","74","structured_load,structured_incentive,random,structured_normal","","3,1,2,4","true","","",""
"null","","html-keyboard-response","311","276261","0.0-311.0","3EO896NRAXHJW6FOIP2YR86AOSGJTI","A30HUZHJBOX1LK","3RKHNXPHGWIRLJ219DNI80W3E6SKUF","","<img src=""img/set1/S4.jpg"" width=""540"" height = ""360"" style=""border:16px solid orange"">","null","","","","","","","","","",""
"null","","html-keyboard-response","312","276462","0.0-312.0","3EO896NRAXHJW6FOIP2YR86AOSGJTI","A30HUZHJBOX1LK","3RKHNXPHGWIRLJ219DNI80W3E6SKUF","","","null","","","","","","","","","",""
"676.1000000238419","","image-keyboard-response","313","277140","0.0-313.0","3EO896NRAXHJW6FOIP2YR86AOSGJTI","A30HUZHJBOX1LK","3RKHNXPHGWIRLJ219DNI80W3E6SKUF","","img/set1/S2.jpg","68","2","structured_load","68","structured_load,structured_incentive,random,structured_normal","","3,1,2,4","true","","",""
"null","","html-keyboard-response","314","277493","0.0-314.0","3EO896NRAXHJW6FOIP2YR86AOSGJTI","A30HUZHJBOX1LK","3RKHNXPHGWIRLJ219DNI80W3E6SKUF","","<img src=""img/set1/S2.jpg"" width=""540"" height = ""360"" style=""border:16px solid orange"">","null","","","","","","","","","",""
"null","","html-keyboard-response","315","277697","0.0-315.0","3EO896NRAXHJW6FOIP2YR86AOSGJTI","A30HUZHJBOX1LK","3RKHNXPHGWIRLJ219DNI80W3E6SKUF","","","null","","","","","","","","","",""
"569.3000000715256","","image-keyboard-response","316","278268","0.0-316.0","3EO896NRAXHJW6FOIP2YR86AOSGJTI","A30HUZHJBOX1LK","3RKHNXPHGWIRLJ219DNI80W3E6SKUF","","img/set1/S3.jpg","72","3","structured_load","72","structured_load,structured_incentive,random,structured_normal","","3,1,2,4","true","","",""
"null","","html-keyboard-response","317","278620","0.0-317.0","3EO896NRAXHJW6FOIP2YR86AOSGJTI","A30HUZHJBOX1LK","3RKHNXPHGWIRLJ219DNI80W3E6SKUF","","<img src=""img/set1/S3.jpg"" width=""540"" height = ""360"" style=""border:16px solid orange"">","null","","","","","","","","","",""
"null","","html-keyboard-response","318","278821","0.0-318.0","3EO896NRAXHJW6FOIP2YR86AOSGJTI","A30HUZHJBOX1LK","3RKHNXPHGWIRLJ219DNI80W3E6SKUF","","","null","","","","","","","","","",""
"757.7000000476837","","image-keyboard-response","319","279581","0.0-319.0","3EO896NRAXHJW6FOIP2YR86AOSGJTI","A30HUZHJBOX1LK","3RKHNXPHGWIRLJ219DNI80W3E6SKUF","","img/set1/S1.jpg","83","1","structured_load","83","structured_load,structured_incentive,random,structured_normal","","3,1,2,4","true","","",""
"null","","html-keyboard-response","320","279932","0.0-320.0","3EO896NRAXHJW6FOIP2YR86AOSGJTI","A30HUZHJBOX1LK","3RKHNXPHGWIRLJ219DNI80W3E6SKUF","","<img src=""img/set1/S1.jpg"" width=""540"" height = ""360"" style=""border:16px solid orange"">","null","","","","","","","","","",""
"null","","html-keyboard-response","321","280134","0.0-321.0","3EO896NRAXHJW6FOIP2YR86AOSGJTI","A30HUZHJBOX1LK","3RKHNXPHGWIRLJ219DNI80W3E6SKUF","","","null","","","","","","","","","",""
"684.6999999284744","","image-keyboard-response","322","280820","0.0-322.0","3EO896NRAXHJW6FOIP2YR86AOSGJTI","A30HUZHJBOX1LK","3RKHNXPHGWIRLJ219DNI80W3E6SKUF","","img/set1/S1.jpg","83","1","structured_load","83","structured_load,structured_incentive,random,structured_normal","","3,1,2,4","true","","",""
"null","","html-keyboard-response","323","281173","0.0-323.0","3EO896NRAXHJW6FOIP2YR86AOSGJTI","A30HUZHJBOX1LK","3RKHNXPHGWIRLJ219DNI80W3E6SKUF","","<img src=""img/set1/S1.jpg"" width=""540"" height = ""360"" style=""border:16px solid orange"">","null","","","","","","","","","",""
"null","","html-keyboard-response","324","281374","0.0-324.0","3EO896NRAXHJW6FOIP2YR86AOSGJTI","A30HUZHJBOX1LK","3RKHNXPHGWIRLJ219DNI80W3E6SKUF","","","null","","","","","","","","","",""
"989.3999999761581","","image-keyboard-response","325","282364","0.0-325.0","3EO896NRAXHJW6FOIP2YR86AOSGJTI","A30HUZHJBOX1LK","3RKHNXPHGWIRLJ219DNI80W3E6SKUF","","img/set1/S3.jpg","74","3","structured_load","72","structured_load,structured_incentive,random,structured_normal","","3,1,2,4","false","","",""
"null","","html-keyboard-response","326","282717","0.0-326.0","3EO896NRAXHJW6FOIP2YR86AOSGJTI","A30HUZHJBOX1LK","3RKHNXPHGWIRLJ219DNI80W3E6SKUF","","<img src=""img/set1/S3.jpg"" width=""540"" height = ""360"">","null","","","","","","","","","",""
"null","","html-keyboard-response","327","282918","0.0-327.0","3EO896NRAXHJW6FOIP2YR86AOSGJTI","A30HUZHJBOX1LK","3RKHNXPHGWIRLJ219DNI80W3E6SKUF","","","null","","","","","","","","","",""
"765.0999999046326","","image-keyboard-response","328","283685","0.0-328.0","3EO896NRAXHJW6FOIP2YR86AOSGJTI","A30HUZHJBOX1LK","3RKHNXPHGWIRLJ219DNI80W3E6SKUF","","img/set1/S1.jpg","83","1","structured_load","83","structured_load,structured_incentive,random,structured_normal","","3,1,2,4","true","","",""
"null","","html-keyboard-response","329","284036","0.0-329.0","3EO896NRAXHJW6FOIP2YR86AOSGJTI","A30HUZHJBOX1LK","3RKHNXPHGWIRLJ219DNI80W3E6SKUF","","<img src=""img/set1/S1.jpg"" width=""540"" height = ""360"" style=""border:16px solid orange"">","null","","","","","","","","","",""
"null","","html-keyboard-response","330","284240","0.0-330.0","3EO896NRAXHJW6FOIP2YR86AOSGJTI","A30HUZHJBOX1LK","3RKHNXPHGWIRLJ219DNI80W3E6SKUF","","","null","","","","","","","","","",""
"776.7999999523163","","image-keyboard-response","331","285020","0.0-331.0","3EO896NRAXHJW6FOIP2YR86AOSGJTI","A30HUZHJBOX1LK","3RKHNXPHGWIRLJ219DNI80W3E6SKUF","","img/set1/S4.jpg","74","4","structured_load","74","structured_load,structured_incentive,random,structured_normal","","3,1,2,4","true","","",""
"null","","html-keyboard-response","332","285372","0.0-332.0","3EO896NRAXHJW6FOIP2YR86AOSGJTI","A30HUZHJBOX1LK","3RKHNXPHGWIRLJ219DNI80W3E6SKUF","","<img src=""img/set1/S4.jpg"" width=""540"" height = ""360"" style=""border:16px solid orange"">","null","","","","","","","","","",""
"null","","html-keyboard-response","333","285574","0.0-333.0","3EO896NRAXHJW6FOIP2YR86AOSGJTI","A30HUZHJBOX1LK","3RKHNXPHGWIRLJ219DNI80W3E6SKUF","","","null","","","","","","","","","",""
"828.1000000238419","","image-keyboard-response","334","286404","0.0-334.0","3EO896NRAXHJW6FOIP2YR86AOSGJTI","A30HUZHJBOX1LK","3RKHNXPHGWIRLJ219DNI80W3E6SKUF","","img/set1/S2.jpg","68","2","structured_load","68","structured_load,structured_incentive,random,structured_normal","","3,1,2,4","true","","",""
"null","","html-keyboard-response","335","286755","0.0-335.0","3EO896NRAXHJW6FOIP2YR86AOSGJTI","A30HUZHJBOX1LK","3RKHNXPHGWIRLJ219DNI80W3E6SKUF","","<img src=""img/set1/S2.jpg"" width=""540"" height = ""360"" style=""border:16px solid orange"">","null","","","","","","","","","",""
"null","","html-keyboard-response","336","286956","0.0-336.0","3EO896NRAXHJW6FOIP2YR86AOSGJTI","A30HUZHJBOX1LK","3RKHNXPHGWIRLJ219DNI80W3E6SKUF","","","null","","","","","","","","","",""
"590.2999999523163","","image-keyboard-response","337","287548","0.0-337.0","3EO896NRAXHJW6FOIP2YR86AOSGJTI","A30HUZHJBOX1LK","3RKHNXPHGWIRLJ219DNI80W3E6SKUF","","img/set1/S3.jpg","72","3","structured_load","72","structured_load,structured_incentive,random,structured_normal","","3,1,2,4","true","","",""
"null","","html-keyboard-response","338","287900","0.0-338.0","3EO896NRAXHJW6FOIP2YR86AOSGJTI","A30HUZHJBOX1LK","3RKHNXPHGWIRLJ219DNI80W3E6SKUF","","<img src=""img/set1/S3.jpg"" width=""540"" height = ""360"" style=""border:16px solid orange"">","null","","","","","","","","","",""
"null","","html-keyboard-response","339","288102","0.0-339.0","3EO896NRAXHJW6FOIP2YR86AOSGJTI","A30HUZHJBOX1LK","3RKHNXPHGWIRLJ219DNI80W3E6SKUF","","","null","","","","","","","","","",""
"556.1000000238419","","image-keyboard-response","340","288659","0.0-340.0","3EO896NRAXHJW6FOIP2YR86AOSGJTI","A30HUZHJBOX1LK","3RKHNXPHGWIRLJ219DNI80W3E6SKUF","","img/set1/S3.jpg","72","3","structured_load","72","structured_load,structured_incentive,random,structured_normal","","3,1,2,4","true","","",""
"null","","html-keyboard-response","341","289011","0.0-341.0","3EO896NRAXHJW6FOIP2YR86AOSGJTI","A30HUZHJBOX1LK","3RKHNXPHGWIRLJ219DNI80W3E6SKUF","","<img src=""img/set1/S3.jpg"" width=""540"" height = ""360"" style=""border:16px solid orange"">","null","","","","","","","","","",""
"null","","html-keyboard-response","342","289213","0.0-342.0","3EO896NRAXHJW6FOIP2YR86AOSGJTI","A30HUZHJBOX1LK","3RKHNXPHGWIRLJ219DNI80W3E6SKUF","","","null","","","","","","","","","",""
"885.5","","image-keyboard-response","343","290100","0.0-343.0","3EO896NRAXHJW6FOIP2YR86AOSGJTI","A30HUZHJBOX1LK","3RKHNXPHGWIRLJ219DNI80W3E6SKUF","","img/set1/S1.jpg","83","1","structured_load","83","structured_load,structured_incentive,random,structured_normal","","3,1,2,4","true","","",""
"null","","html-keyboard-response","344","290453","0.0-344.0","3EO896NRAXHJW6FOIP2YR86AOSGJTI","A30HUZHJBOX1LK","3RKHNXPHGWIRLJ219DNI80W3E6SKUF","","<img src=""img/set1/S1.jpg"" width=""540"" height = ""360"" style=""border:16px solid orange"">","null","","","","","","","","","",""
"null","","html-keyboard-response","345","290656","0.0-345.0","3EO896NRAXHJW6FOIP2YR86AOSGJTI","A30HUZHJBOX1LK","3RKHNXPHGWIRLJ219DNI80W3E6SKUF","","","null","","","","","","","","","",""
"699.1999999284744","","image-keyboard-response","346","291356","0.0-346.0","3EO896NRAXHJW6FOIP2YR86AOSGJTI","A30HUZHJBOX1LK","3RKHNXPHGWIRLJ219DNI80W3E6SKUF","","img/set1/S4.jpg","74","4","structured_load","74","structured_load,structured_incentive,random,structured_normal","","3,1,2,4","true","","",""
"null","","html-keyboard-response","347","291708","0.0-347.0","3EO896NRAXHJW6FOIP2YR86AOSGJTI","A30HUZHJBOX1LK","3RKHNXPHGWIRLJ219DNI80W3E6SKUF","","<img src=""img/set1/S4.jpg"" width=""540"" height = ""360"" style=""border:16px solid orange"">","null","","","","","","","","","",""
"null","","html-keyboard-response","348","291910","0.0-348.0","3EO896NRAXHJW6FOIP2YR86AOSGJTI","A30HUZHJBOX1LK","3RKHNXPHGWIRLJ219DNI80W3E6SKUF","","","null","","","","","","","","","",""
"645.0999999046326","","image-keyboard-response","349","292556","0.0-349.0","3EO896NRAXHJW6FOIP2YR86AOSGJTI","A30HUZHJBOX1LK","3RKHNXPHGWIRLJ219DNI80W3E6SKUF","","img/set1/S2.jpg","68","2","structured_load","68","structured_load,structured_incentive,random,structured_normal","","3,1,2,4","true","","",""
"null","","html-keyboard-response","350","292908","0.0-350.0","3EO896NRAXHJW6FOIP2YR86AOSGJTI","A30HUZHJBOX1LK","3RKHNXPHGWIRLJ219DNI80W3E6SKUF","","<img src=""img/set1/S2.jpg"" width=""540"" height = ""360"" style=""border:16px solid orange"">","null","","","","","","","","","",""
"null","","html-keyboard-response","351","293109","0.0-351.0","3EO896NRAXHJW6FOIP2YR86AOSGJTI","A30HUZHJBOX1LK","3RKHNXPHGWIRLJ219DNI80W3E6SKUF","","","null","","","","","","","","","",""
"653","","image-keyboard-response","352","293763","0.0-352.0","3EO896NRAXHJW6FOIP2YR86AOSGJTI","A30HUZHJBOX1LK","3RKHNXPHGWIRLJ219DNI80W3E6SKUF","","img/set1/S4.jpg","74","4","structured_load","74","structured_load,structured_incentive,random,structured_normal","","3,1,2,4","true","","",""
"null","","html-keyboard-response","353","294115","0.0-353.0","3EO896NRAXHJW6FOIP2YR86AOSGJTI","A30HUZHJBOX1LK","3RKHNXPHGWIRLJ219DNI80W3E6SKUF","","<img src=""img/set1/S4.jpg"" width=""540"" height = ""360"" style=""border:16px solid orange"">","null","","","","","","","","","",""
"null","","html-keyboard-response","354","294316","0.0-354.0","3EO896NRAXHJW6FOIP2YR86AOSGJTI","A30HUZHJBOX1LK","3RKHNXPHGWIRLJ219DNI80W3E6SKUF","","","null","","","","","","","","","",""
"950.2000000476837","","image-keyboard-response","355","295268","0.0-355.0","3EO896NRAXHJW6FOIP2YR86AOSGJTI","A30HUZHJBOX1LK","3RKHNXPHGWIRLJ219DNI80W3E6SKUF","","img/set1/S2.jpg","83","2","structured_load","68","structured_load,structured_incentive,random,structured_normal","","3,1,2,4","false","","",""
"null","","html-keyboard-response","356","295620","0.0-356.0","3EO896NRAXHJW6FOIP2YR86AOSGJTI","A30HUZHJBOX1LK","3RKHNXPHGWIRLJ219DNI80W3E6SKUF","","<img src=""img/set1/S2.jpg"" width=""540"" height = ""360"">","null","","","","","","","","","",""
"null","","html-keyboard-response","357","295822","0.0-357.0","3EO896NRAXHJW6FOIP2YR86AOSGJTI","A30HUZHJBOX1LK","3RKHNXPHGWIRLJ219DNI80W3E6SKUF","","","null","","","","","","","","","",""
"572.7000000476837","","image-keyboard-response","358","296396","0.0-358.0","3EO896NRAXHJW6FOIP2YR86AOSGJTI","A30HUZHJBOX1LK","3RKHNXPHGWIRLJ219DNI80W3E6SKUF","","img/set1/S3.jpg","72","3","structured_load","72","structured_load,structured_incentive,random,structured_normal","","3,1,2,4","true","","",""
"null","","html-keyboard-response","359","296748","0.0-359.0","3EO896NRAXHJW6FOIP2YR86AOSGJTI","A30HUZHJBOX1LK","3RKHNXPHGWIRLJ219DNI80W3E6SKUF","","<img src=""img/set1/S3.jpg"" width=""540"" height = ""360"" style=""border:16px solid orange"">","null","","","","","","","","","",""
"null","","html-keyboard-response","360","296951","0.0-360.0","3EO896NRAXHJW6FOIP2YR86AOSGJTI","A30HUZHJBOX1LK","3RKHNXPHGWIRLJ219DNI80W3E6SKUF","","","null","","","","","","","","","",""
"796.1000000238419","","image-keyboard-response","361","297749","0.0-361.0","3EO896NRAXHJW6FOIP2YR86AOSGJTI","A30HUZHJBOX1LK","3RKHNXPHGWIRLJ219DNI80W3E6SKUF","","img/set1/S1.jpg","83","1","structured_load","83","structured_load,structured_incentive,random,structured_normal","","3,1,2,4","true","","",""
"null","","html-keyboard-response","362","298101","0.0-362.0","3EO896NRAXHJW6FOIP2YR86AOSGJTI","A30HUZHJBOX1LK","3RKHNXPHGWIRLJ219DNI80W3E6SKUF","","<img src=""img/set1/S1.jpg"" width=""540"" height = ""360"" style=""border:16px solid orange"">","null","","","","","","","","","",""
"null","","html-keyboard-response","363","298303","0.0-363.0","3EO896NRAXHJW6FOIP2YR86AOSGJTI","A30HUZHJBOX1LK","3RKHNXPHGWIRLJ219DNI80W3E6SKUF","","","null","","","","","","","","","",""
"1027.2000000476837","","image-keyboard-response","364","299333","0.0-364.0","3EO896NRAXHJW6FOIP2YR86AOSGJTI","A30HUZHJBOX1LK","3RKHNXPHGWIRLJ219DNI80W3E6SKUF","","img/set1/S3.jpg","72","3","structured_load","72","structured_load,structured_incentive,random,structured_normal","","3,1,2,4","true","","",""
"null","","html-keyboard-response","365","299686","0.0-365.0","3EO896NRAXHJW6FOIP2YR86AOSGJTI","A30HUZHJBOX1LK","3RKHNXPHGWIRLJ219DNI80W3E6SKUF","","<img src=""img/set1/S3.jpg"" width=""540"" height = ""360"" style=""border:16px solid orange"">","null","","","","","","","","","",""
"null","","html-keyboard-response","366","299887","0.0-366.0","3EO896NRAXHJW6FOIP2YR86AOSGJTI","A30HUZHJBOX1LK","3RKHNXPHGWIRLJ219DNI80W3E6SKUF","","","null","","","","","","","","","",""
"548.0999999046326","","image-keyboard-response","367","300436","0.0-367.0","3EO896NRAXHJW6FOIP2YR86AOSGJTI","A30HUZHJBOX1LK","3RKHNXPHGWIRLJ219DNI80W3E6SKUF","","img/set1/S4.jpg","74","4","structured_load","74","structured_load,structured_incentive,random,structured_normal","","3,1,2,4","true","","",""
"null","","html-keyboard-response","368","300789","0.0-368.0","3EO896NRAXHJW6FOIP2YR86AOSGJTI","A30HUZHJBOX1LK","3RKHNXPHGWIRLJ219DNI80W3E6SKUF","","<img src=""img/set1/S4.jpg"" width=""540"" height = ""360"" style=""border:16px solid orange"">","null","","","","","","","","","",""
"null","","html-keyboard-response","369","300991","0.0-369.0","3EO896NRAXHJW6FOIP2YR86AOSGJTI","A30HUZHJBOX1LK","3RKHNXPHGWIRLJ219DNI80W3E6SKUF","","","null","","","","","","","","","",""
"669.2999999523163","","image-keyboard-response","370","301661","0.0-370.0","3EO896NRAXHJW6FOIP2YR86AOSGJTI","A30HUZHJBOX1LK","3RKHNXPHGWIRLJ219DNI80W3E6SKUF","","img/set1/S2.jpg","68","2","structured_load","68","structured_load,structured_incentive,random,structured_normal","","3,1,2,4","true","","",""
"null","","html-keyboard-response","371","302015","0.0-371.0","3EO896NRAXHJW6FOIP2YR86AOSGJTI","A30HUZHJBOX1LK","3RKHNXPHGWIRLJ219DNI80W3E6SKUF","","<img src=""img/set1/S2.jpg"" width=""540"" height = ""360"" style=""border:16px solid orange"">","null","","","","","","","","","",""
"null","","html-keyboard-response","372","302216","0.0-372.0","3EO896NRAXHJW6FOIP2YR86AOSGJTI","A30HUZHJBOX1LK","3RKHNXPHGWIRLJ219DNI80W3E6SKUF","","","null","","","","","","","","","",""
"595.5999999046326","","image-keyboard-response","373","302813","0.0-373.0","3EO896NRAXHJW6FOIP2YR86AOSGJTI","A30HUZHJBOX1LK","3RKHNXPHGWIRLJ219DNI80W3E6SKUF","","img/set1/S3.jpg","74","3","structured_load","72","structured_load,structured_incentive,random,structured_normal","","3,1,2,4","false","","",""
"null","","html-keyboard-response","374","303166","0.0-374.0","3EO896NRAXHJW6FOIP2YR86AOSGJTI","A30HUZHJBOX1LK","3RKHNXPHGWIRLJ219DNI80W3E6SKUF","","<img src=""img/set1/S3.jpg"" width=""540"" height = ""360"">","null","","","","","","","","","",""
"null","","html-keyboard-response","375","303367","0.0-375.0","3EO896NRAXHJW6FOIP2YR86AOSGJTI","A30HUZHJBOX1LK","3RKHNXPHGWIRLJ219DNI80W3E6SKUF","","","null","","","","","","","","","",""
"877.5999999046326","","image-keyboard-response","376","304246","0.0-376.0","3EO896NRAXHJW6FOIP2YR86AOSGJTI","A30HUZHJBOX1LK","3RKHNXPHGWIRLJ219DNI80W3E6SKUF","","img/set1/S4.jpg","74","4","structured_load","74","structured_load,structured_incentive,random,structured_normal","","3,1,2,4","true","","",""
"null","","html-keyboard-response","377","304598","0.0-377.0","3EO896NRAXHJW6FOIP2YR86AOSGJTI","A30HUZHJBOX1LK","3RKHNXPHGWIRLJ219DNI80W3E6SKUF","","<img src=""img/set1/S4.jpg"" width=""540"" height = ""360"" style=""border:16px solid orange"">","null","","","","","","","","","",""
"null","","html-keyboard-response","378","304800","0.0-378.0","3EO896NRAXHJW6FOIP2YR86AOSGJTI","A30HUZHJBOX1LK","3RKHNXPHGWIRLJ219DNI80W3E6SKUF","","","null","","","","","","","","","",""
"604.1999999284744","","image-keyboard-response","379","305405","0.0-379.0","3EO896NRAXHJW6FOIP2YR86AOSGJTI","A30HUZHJBOX1LK","3RKHNXPHGWIRLJ219DNI80W3E6SKUF","","img/set1/S2.jpg","68","2","structured_load","68","structured_load,structured_incentive,random,structured_normal","","3,1,2,4","true","","",""
"null","","html-keyboard-response","380","305757","0.0-380.0","3EO896NRAXHJW6FOIP2YR86AOSGJTI","A30HUZHJBOX1LK","3RKHNXPHGWIRLJ219DNI80W3E6SKUF","","<img src=""img/set1/S2.jpg"" width=""540"" height = ""360"" style=""border:16px solid orange"">","null","","","","","","","","","",""
"null","","html-keyboard-response","381","305958","0.0-381.0","3EO896NRAXHJW6FOIP2YR86AOSGJTI","A30HUZHJBOX1LK","3RKHNXPHGWIRLJ219DNI80W3E6SKUF","","","null","","","","","","","","","",""
"701.8999999761581","","image-keyboard-response","382","306661","0.0-382.0","3EO896NRAXHJW6FOIP2YR86AOSGJTI","A30HUZHJBOX1LK","3RKHNXPHGWIRLJ219DNI80W3E6SKUF","","img/set1/S1.jpg","83","1","structured_load","83","structured_load,structured_incentive,random,structured_normal","","3,1,2,4","true","","",""
"null","","html-keyboard-response","383","307013","0.0-383.0","3EO896NRAXHJW6FOIP2YR86AOSGJTI","A30HUZHJBOX1LK","3RKHNXPHGWIRLJ219DNI80W3E6SKUF","","<img src=""img/set1/S1.jpg"" width=""540"" height = ""360"" style=""border:16px solid orange"">","null","","","","","","","","","",""
"null","","html-keyboard-response","384","307215","0.0-384.0","3EO896NRAXHJW6FOIP2YR86AOSGJTI","A30HUZHJBOX1LK","3RKHNXPHGWIRLJ219DNI80W3E6SKUF","","","null","","","","","","","","","",""
"691.7999999523163","","image-keyboard-response","385","307908","0.0-385.0","3EO896NRAXHJW6FOIP2YR86AOSGJTI","A30HUZHJBOX1LK","3RKHNXPHGWIRLJ219DNI80W3E6SKUF","","img/set1/S4.jpg","74","4","structured_load","74","structured_load,structured_incentive,random,structured_normal","","3,1,2,4","true","","",""
"null","","html-keyboard-response","386","308261","0.0-386.0","3EO896NRAXHJW6FOIP2YR86AOSGJTI","A30HUZHJBOX1LK","3RKHNXPHGWIRLJ219DNI80W3E6SKUF","","<img src=""img/set1/S4.jpg"" width=""540"" height = ""360"" style=""border:16px solid orange"">","null","","","","","","","","","",""
"null","","html-keyboard-response","387","308463","0.0-387.0","3EO896NRAXHJW6FOIP2YR86AOSGJTI","A30HUZHJBOX1LK","3RKHNXPHGWIRLJ219DNI80W3E6SKUF","","","null","","","","","","","","","",""
"636.1999999284744","","image-keyboard-response","388","309101","0.0-388.0","3EO896NRAXHJW6FOIP2YR86AOSGJTI","A30HUZHJBOX1LK","3RKHNXPHGWIRLJ219DNI80W3E6SKUF","","img/set1/S2.jpg","68","2","structured_load","68","structured_load,structured_incentive,random,structured_normal","","3,1,2,4","true","","",""
"null","","html-keyboard-response","389","309453","0.0-389.0","3EO896NRAXHJW6FOIP2YR86AOSGJTI","A30HUZHJBOX1LK","3RKHNXPHGWIRLJ219DNI80W3E6SKUF","","<img src=""img/set1/S2.jpg"" width=""540"" height = ""360"" style=""border:16px solid orange"">","null","","","","","","","","","",""
