"rt","url","trial_type","trial_index","time_elapsed","internal_node_id","assignmentID","mturkID","hitID","view_history","stimulus","key_press","state","test_part","correct_response","order_block","order_chunk","order_freq","correct","responses","question_order","bonus"
"14593.599999904633","consent.html","external-html","0","14690","0.0-0.0","30OG32W0SVXDQDOC7S5VLTNQUBHNE1","A30RAYNDOWQ61S","3RSBJ6YZECCLSSQQCGKCTHC9OPAFOK","","","","","","","","","","","","",""
"195522","","instructions","1","210219","0.0-1.0","30OG32W0SVXDQDOC7S5VLTNQUBHNE1","A30RAYNDOWQ61S","3RSBJ6YZECCLSSQQCGKCTHC9OPAFOK","[{""page_index"":0,""viewing_time"":75379.59999990463},{""page_index"":1,""viewing_time"":9927.300000190735},{""page_index"":2,""viewing_time"":7879.799999713898},{""page_index"":3,""viewing_time"":64718.800000190735},{""page_index"":4,""viewing_time"":6057},{""page_index"":5,""viewing_time"":21711},{""page_index"":6,""viewing_time"":9847.900000095367}]","","","","","","","","","","","",""
"19477.5","","instructions","2","229697","0.0-2.0","30OG32W0SVXDQDOC7S5VLTNQUBHNE1","A30RAYNDOWQ61S","3RSBJ6YZECCLSSQQCGKCTHC9OPAFOK","[{""page_index"":0,""viewing_time"":19477.300000190735}]","","","","","","","","","","","",""
"13190.60000038147","","instructions","3","242890","0.0-3.0","30OG32W0SVXDQDOC7S5VLTNQUBHNE1","A30RAYNDOWQ61S","3RSBJ6YZECCLSSQQCGKCTHC9OPAFOK","[{""page_index"":0,""viewing_time"":13190.400000095367}]","","","","","","","","","","","",""
"1839.0999999046326","","image-keyboard-response","4","244731","0.0-4.0","30OG32W0SVXDQDOC7S5VLTNQUBHNE1","A30RAYNDOWQ61S","3RSBJ6YZECCLSSQQCGKCTHC9OPAFOK","","img/set1/S3.jpg","83","3","random","72","random,structured_incentive,structured_load,structured_normal","4,2,1,2,2,3","1,2,4,3","false","","",""
"null","","html-keyboard-response","5","245083","0.0-5.0","30OG32W0SVXDQDOC7S5VLTNQUBHNE1","A30RAYNDOWQ61S","3RSBJ6YZECCLSSQQCGKCTHC9OPAFOK","","<img src=""img/set1/S3.jpg"" width=""540"" height = ""360"">","null","","","","","","","","","",""
"null","","html-keyboard-response","6","245284","0.0-6.0","30OG32W0SVXDQDOC7S5VLTNQUBHNE1","A30RAYNDOWQ61S","3RSBJ6YZECCLSSQQCGKCTHC9OPAFOK","","","null","","","","","","","","","",""
"164.89999961853027","","image-keyboard-response","7","245451","0.0-7.0","30OG32W0SVXDQDOC7S5VLTNQUBHNE1","A30RAYNDOWQ61S","3RSBJ6YZECCLSSQQCGKCTHC9OPAFOK","","img/set1/S4.jpg","83","4","random","74","random,structured_incentive,structured_load,structured_normal","4,2,1,2,2,3","1,2,4,3","false","","",""
"null","","html-keyboard-response","8","245803","0.0-8.0","30OG32W0SVXDQDOC7S5VLTNQUBHNE1","A30RAYNDOWQ61S","3RSBJ6YZECCLSSQQCGKCTHC9OPAFOK","","<img src=""img/set1/S4.jpg"" width=""540"" height = ""360"">","null","","","","","","","","","",""
"null","","html-keyboard-response","9","246004","0.0-9.0","30OG32W0SVXDQDOC7S5VLTNQUBHNE1","A30RAYNDOWQ61S","3RSBJ6YZECCLSSQQCGKCTHC9OPAFOK","","","null","","","","","","","","","",""
"218.5","","image-keyboard-response","10","246223","0.0-10.0","30OG32W0SVXDQDOC7S5VLTNQUBHNE1","A30RAYNDOWQ61S","3RSBJ6YZECCLSSQQCGKCTHC9OPAFOK","","img/set1/S3.jpg","72","3","random","72","random,structured_incentive,structured_load,structured_normal","4,2,1,2,2,3","1,2,4,3","true","","",""
"null","","html-keyboard-response","11","246575","0.0-11.0","30OG32W0SVXDQDOC7S5VLTNQUBHNE1","A30RAYNDOWQ61S","3RSBJ6YZECCLSSQQCGKCTHC9OPAFOK","","<img src=""img/set1/S3.jpg"" width=""540"" height = ""360"" style=""border:16px solid orange"">","null","","","","","","","","","",""
"null","","html-keyboard-response","12","246776","0.0-12.0","30OG32W0SVXDQDOC7S5VLTNQUBHNE1","A30RAYNDOWQ61S","3RSBJ6YZECCLSSQQCGKCTHC9OPAFOK","","","null","","","","","","","","","",""
"664.8000001907349","","image-keyboard-response","13","247441","0.0-13.0","30OG32W0SVXDQDOC7S5VLTNQUBHNE1","A30RAYNDOWQ61S","3RSBJ6YZECCLSSQQCGKCTHC9OPAFOK","","img/set1/S2.jpg","74","2","random","68","random,structured_incentive,structured_load,structured_normal","4,2,1,2,2,3","1,2,4,3","false","","",""
"null","","html-keyboard-response","14","247793","0.0-14.0","30OG32W0SVXDQDOC7S5VLTNQUBHNE1","A30RAYNDOWQ61S","3RSBJ6YZECCLSSQQCGKCTHC9OPAFOK","","<img src=""img/set1/S2.jpg"" width=""540"" height = ""360"">","null","","","","","","","","","",""
"null","","html-keyboard-response","15","247994","0.0-15.0","30OG32W0SVXDQDOC7S5VLTNQUBHNE1","A30RAYNDOWQ61S","3RSBJ6YZECCLSSQQCGKCTHC9OPAFOK","","","null","","","","","","","","","",""
"679.5999999046326","","image-keyboard-response","16","248674","0.0-16.0","30OG32W0SVXDQDOC7S5VLTNQUBHNE1","A30RAYNDOWQ61S","3RSBJ6YZECCLSSQQCGKCTHC9OPAFOK","","img/set1/S3.jpg","68","3","random","72","random,structured_incentive,structured_load,structured_normal","4,2,1,2,2,3","1,2,4,3","false","","",""
"null","","html-keyboard-response","17","249026","0.0-17.0","30OG32W0SVXDQDOC7S5VLTNQUBHNE1","A30RAYNDOWQ61S","3RSBJ6YZECCLSSQQCGKCTHC9OPAFOK","","<img src=""img/set1/S3.jpg"" width=""540"" height = ""360"">","null","","","","","","","","","",""
"null","","html-keyboard-response","18","249227","0.0-18.0","30OG32W0SVXDQDOC7S5VLTNQUBHNE1","A30RAYNDOWQ61S","3RSBJ6YZECCLSSQQCGKCTHC9OPAFOK","","","null","","","","","","","","","",""
"533.6999998092651","","image-keyboard-response","19","249762","0.0-19.0","30OG32W0SVXDQDOC7S5VLTNQUBHNE1","A30RAYNDOWQ61S","3RSBJ6YZECCLSSQQCGKCTHC9OPAFOK","","img/set1/S3.jpg","72","3","random","72","random,structured_incentive,structured_load,structured_normal","4,2,1,2,2,3","1,2,4,3","true","","",""
"null","","html-keyboard-response","20","250113","0.0-20.0","30OG32W0SVXDQDOC7S5VLTNQUBHNE1","A30RAYNDOWQ61S","3RSBJ6YZECCLSSQQCGKCTHC9OPAFOK","","<img src=""img/set1/S3.jpg"" width=""540"" height = ""360"" style=""border:16px solid orange"">","null","","","","","","","","","",""
"null","","html-keyboard-response","21","250314","0.0-21.0","30OG32W0SVXDQDOC7S5VLTNQUBHNE1","A30RAYNDOWQ61S","3RSBJ6YZECCLSSQQCGKCTHC9OPAFOK","","","null","","","","","","","","","",""
"622.8999996185303","","image-keyboard-response","22","250938","0.0-22.0","30OG32W0SVXDQDOC7S5VLTNQUBHNE1","A30RAYNDOWQ61S","3RSBJ6YZECCLSSQQCGKCTHC9OPAFOK","","img/set1/S4.jpg","68","4","random","74","random,structured_incentive,structured_load,structured_normal","4,2,1,2,2,3","1,2,4,3","false","","",""
"null","","html-keyboard-response","23","251289","0.0-23.0","30OG32W0SVXDQDOC7S5VLTNQUBHNE1","A30RAYNDOWQ61S","3RSBJ6YZECCLSSQQCGKCTHC9OPAFOK","","<img src=""img/set1/S4.jpg"" width=""540"" height = ""360"">","null","","","","","","","","","",""
"null","","html-keyboard-response","24","251490","0.0-24.0","30OG32W0SVXDQDOC7S5VLTNQUBHNE1","A30RAYNDOWQ61S","3RSBJ6YZECCLSSQQCGKCTHC9OPAFOK","","","null","","","","","","","","","",""
"799.6000003814697","","image-keyboard-response","25","252290","0.0-25.0","30OG32W0SVXDQDOC7S5VLTNQUBHNE1","A30RAYNDOWQ61S","3RSBJ6YZECCLSSQQCGKCTHC9OPAFOK","","img/set1/S4.jpg","83","4","random","74","random,structured_incentive,structured_load,structured_normal","4,2,1,2,2,3","1,2,4,3","false","","",""
"null","","html-keyboard-response","26","252642","0.0-26.0","30OG32W0SVXDQDOC7S5VLTNQUBHNE1","A30RAYNDOWQ61S","3RSBJ6YZECCLSSQQCGKCTHC9OPAFOK","","<img src=""img/set1/S4.jpg"" width=""540"" height = ""360"">","null","","","","","","","","","",""
"null","","html-keyboard-response","27","252848","0.0-27.0","30OG32W0SVXDQDOC7S5VLTNQUBHNE1","A30RAYNDOWQ61S","3RSBJ6YZECCLSSQQCGKCTHC9OPAFOK","","","null","","","","","","","","","",""
"417","","image-keyboard-response","28","253266","0.0-28.0","30OG32W0SVXDQDOC7S5VLTNQUBHNE1","A30RAYNDOWQ61S","3RSBJ6YZECCLSSQQCGKCTHC9OPAFOK","","img/set1/S4.jpg","74","4","random","74","random,structured_incentive,structured_load,structured_normal","4,2,1,2,2,3","1,2,4,3","true","","",""
"null","","html-keyboard-response","29","253617","0.0-29.0","30OG32W0SVXDQDOC7S5VLTNQUBHNE1","A30RAYNDOWQ61S","3RSBJ6YZECCLSSQQCGKCTHC9OPAFOK","","<img src=""img/set1/S4.jpg"" width=""540"" height = ""360"" style=""border:16px solid orange"">","null","","","","","","","","","",""
"null","","html-keyboard-response","30","253818","0.0-30.0","30OG32W0SVXDQDOC7S5VLTNQUBHNE1","A30RAYNDOWQ61S","3RSBJ6YZECCLSSQQCGKCTHC9OPAFOK","","","null","","","","","","","","","",""
"950.5","","image-keyboard-response","31","254769","0.0-31.0","30OG32W0SVXDQDOC7S5VLTNQUBHNE1","A30RAYNDOWQ61S","3RSBJ6YZECCLSSQQCGKCTHC9OPAFOK","","img/set1/S2.jpg","72","2","random","68","random,structured_incentive,structured_load,structured_normal","4,2,1,2,2,3","1,2,4,3","false","","",""
"null","","html-keyboard-response","32","255121","0.0-32.0","30OG32W0SVXDQDOC7S5VLTNQUBHNE1","A30RAYNDOWQ61S","3RSBJ6YZECCLSSQQCGKCTHC9OPAFOK","","<img src=""img/set1/S2.jpg"" width=""540"" height = ""360"">","null","","","","","","","","","",""
"null","","html-keyboard-response","33","255322","0.0-33.0","30OG32W0SVXDQDOC7S5VLTNQUBHNE1","A30RAYNDOWQ61S","3RSBJ6YZECCLSSQQCGKCTHC9OPAFOK","","","null","","","","","","","","","",""
"942.9000000953674","","image-keyboard-response","34","256266","0.0-34.0","30OG32W0SVXDQDOC7S5VLTNQUBHNE1","A30RAYNDOWQ61S","3RSBJ6YZECCLSSQQCGKCTHC9OPAFOK","","img/set1/S3.jpg","72","3","random","72","random,structured_incentive,structured_load,structured_normal","4,2,1,2,2,3","1,2,4,3","true","","",""
"null","","html-keyboard-response","35","256617","0.0-35.0","30OG32W0SVXDQDOC7S5VLTNQUBHNE1","A30RAYNDOWQ61S","3RSBJ6YZECCLSSQQCGKCTHC9OPAFOK","","<img src=""img/set1/S3.jpg"" width=""540"" height = ""360"" style=""border:16px solid orange"">","null","","","","","","","","","",""
"null","","html-keyboard-response","36","256818","0.0-36.0","30OG32W0SVXDQDOC7S5VLTNQUBHNE1","A30RAYNDOWQ61S","3RSBJ6YZECCLSSQQCGKCTHC9OPAFOK","","","null","","","","","","","","","",""
"686.4000000953674","","image-keyboard-response","37","257506","0.0-37.0","30OG32W0SVXDQDOC7S5VLTNQUBHNE1","A30RAYNDOWQ61S","3RSBJ6YZECCLSSQQCGKCTHC9OPAFOK","","img/set1/S4.jpg","74","4","random","74","random,structured_incentive,structured_load,structured_normal","4,2,1,2,2,3","1,2,4,3","true","","",""
"null","","html-keyboard-response","38","257857","0.0-38.0","30OG32W0SVXDQDOC7S5VLTNQUBHNE1","A30RAYNDOWQ61S","3RSBJ6YZECCLSSQQCGKCTHC9OPAFOK","","<img src=""img/set1/S4.jpg"" width=""540"" height = ""360"" style=""border:16px solid orange"">","null","","","","","","","","","",""
"null","","html-keyboard-response","39","258058","0.0-39.0","30OG32W0SVXDQDOC7S5VLTNQUBHNE1","A30RAYNDOWQ61S","3RSBJ6YZECCLSSQQCGKCTHC9OPAFOK","","","null","","","","","","","","","",""
"718.3000001907349","","image-keyboard-response","40","258777","0.0-40.0","30OG32W0SVXDQDOC7S5VLTNQUBHNE1","A30RAYNDOWQ61S","3RSBJ6YZECCLSSQQCGKCTHC9OPAFOK","","img/set1/S3.jpg","72","3","random","72","random,structured_incentive,structured_load,structured_normal","4,2,1,2,2,3","1,2,4,3","true","","",""
"null","","html-keyboard-response","41","259129","0.0-41.0","30OG32W0SVXDQDOC7S5VLTNQUBHNE1","A30RAYNDOWQ61S","3RSBJ6YZECCLSSQQCGKCTHC9OPAFOK","","<img src=""img/set1/S3.jpg"" width=""540"" height = ""360"" style=""border:16px solid orange"">","null","","","","","","","","","",""
"null","","html-keyboard-response","42","259330","0.0-42.0","30OG32W0SVXDQDOC7S5VLTNQUBHNE1","A30RAYNDOWQ61S","3RSBJ6YZECCLSSQQCGKCTHC9OPAFOK","","","null","","","","","","","","","",""
"654.4000000953674","","image-keyboard-response","43","259986","0.0-43.0","30OG32W0SVXDQDOC7S5VLTNQUBHNE1","A30RAYNDOWQ61S","3RSBJ6YZECCLSSQQCGKCTHC9OPAFOK","","img/set1/S3.jpg","72","3","random","72","random,structured_incentive,structured_load,structured_normal","4,2,1,2,2,3","1,2,4,3","true","","",""
"null","","html-keyboard-response","44","260337","0.0-44.0","30OG32W0SVXDQDOC7S5VLTNQUBHNE1","A30RAYNDOWQ61S","3RSBJ6YZECCLSSQQCGKCTHC9OPAFOK","","<img src=""img/set1/S3.jpg"" width=""540"" height = ""360"" style=""border:16px solid orange"">","null","","","","","","","","","",""
"null","","html-keyboard-response","45","260538","0.0-45.0","30OG32W0SVXDQDOC7S5VLTNQUBHNE1","A30RAYNDOWQ61S","3RSBJ6YZECCLSSQQCGKCTHC9OPAFOK","","","null","","","","","","","","","",""
"446.2999997138977","","image-keyboard-response","46","260986","0.0-46.0","30OG32W0SVXDQDOC7S5VLTNQUBHNE1","A30RAYNDOWQ61S","3RSBJ6YZECCLSSQQCGKCTHC9OPAFOK","","img/set1/S3.jpg","72","3","random","72","random,structured_incentive,structured_load,structured_normal","4,2,1,2,2,3","1,2,4,3","true","","",""
"null","","html-keyboard-response","47","261337","0.0-47.0","30OG32W0SVXDQDOC7S5VLTNQUBHNE1","A30RAYNDOWQ61S","3RSBJ6YZECCLSSQQCGKCTHC9OPAFOK","","<img src=""img/set1/S3.jpg"" width=""540"" height = ""360"" style=""border:16px solid orange"">","null","","","","","","","","","",""
"null","","html-keyboard-response","48","261540","0.0-48.0","30OG32W0SVXDQDOC7S5VLTNQUBHNE1","A30RAYNDOWQ61S","3RSBJ6YZECCLSSQQCGKCTHC9OPAFOK","","","null","","","","","","","","","",""
"836.5","","image-keyboard-response","49","262378","0.0-49.0","30OG32W0SVXDQDOC7S5VLTNQUBHNE1","A30RAYNDOWQ61S","3RSBJ6YZECCLSSQQCGKCTHC9OPAFOK","","img/set1/S2.jpg","68","2","random","68","random,structured_incentive,structured_load,structured_normal","4,2,1,2,2,3","1,2,4,3","true","","",""
"null","","html-keyboard-response","50","262729","0.0-50.0","30OG32W0SVXDQDOC7S5VLTNQUBHNE1","A30RAYNDOWQ61S","3RSBJ6YZECCLSSQQCGKCTHC9OPAFOK","","<img src=""img/set1/S2.jpg"" width=""540"" height = ""360"" style=""border:16px solid orange"">","null","","","","","","","","","",""
"null","","html-keyboard-response","51","262931","0.0-51.0","30OG32W0SVXDQDOC7S5VLTNQUBHNE1","A30RAYNDOWQ61S","3RSBJ6YZECCLSSQQCGKCTHC9OPAFOK","","","null","","","","","","","","","",""
"902.3999996185303","","image-keyboard-response","52","263834","0.0-52.0","30OG32W0SVXDQDOC7S5VLTNQUBHNE1","A30RAYNDOWQ61S","3RSBJ6YZECCLSSQQCGKCTHC9OPAFOK","","img/set1/S2.jpg","74","2","random","68","random,structured_incentive,structured_load,structured_normal","4,2,1,2,2,3","1,2,4,3","false","","",""
"null","","html-keyboard-response","53","264186","0.0-53.0","30OG32W0SVXDQDOC7S5VLTNQUBHNE1","A30RAYNDOWQ61S","3RSBJ6YZECCLSSQQCGKCTHC9OPAFOK","","<img src=""img/set1/S2.jpg"" width=""540"" height = ""360"">","null","","","","","","","","","",""
"null","","html-keyboard-response","54","264387","0.0-54.0","30OG32W0SVXDQDOC7S5VLTNQUBHNE1","A30RAYNDOWQ61S","3RSBJ6YZECCLSSQQCGKCTHC9OPAFOK","","","null","","","","","","","","","",""
"533.9000000953674","","image-keyboard-response","55","264921","0.0-55.0","30OG32W0SVXDQDOC7S5VLTNQUBHNE1","A30RAYNDOWQ61S","3RSBJ6YZECCLSSQQCGKCTHC9OPAFOK","","img/set1/S2.jpg","68","2","random","68","random,structured_incentive,structured_load,structured_normal","4,2,1,2,2,3","1,2,4,3","true","","",""
"null","","html-keyboard-response","56","265273","0.0-56.0","30OG32W0SVXDQDOC7S5VLTNQUBHNE1","A30RAYNDOWQ61S","3RSBJ6YZECCLSSQQCGKCTHC9OPAFOK","","<img src=""img/set1/S2.jpg"" width=""540"" height = ""360"" style=""border:16px solid orange"">","null","","","","","","","","","",""
"null","","html-keyboard-response","57","265473","0.0-57.0","30OG32W0SVXDQDOC7S5VLTNQUBHNE1","A30RAYNDOWQ61S","3RSBJ6YZECCLSSQQCGKCTHC9OPAFOK","","","null","","","","","","","","","",""
"471","","image-keyboard-response","58","265945","0.0-58.0","30OG32W0SVXDQDOC7S5VLTNQUBHNE1","A30RAYNDOWQ61S","3RSBJ6YZECCLSSQQCGKCTHC9OPAFOK","","img/set1/S2.jpg","68","2","random","68","random,structured_incentive,structured_load,structured_normal","4,2,1,2,2,3","1,2,4,3","true","","",""
"null","","html-keyboard-response","59","266297","0.0-59.0","30OG32W0SVXDQDOC7S5VLTNQUBHNE1","A30RAYNDOWQ61S","3RSBJ6YZECCLSSQQCGKCTHC9OPAFOK","","<img src=""img/set1/S2.jpg"" width=""540"" height = ""360"" style=""border:16px solid orange"">","null","","","","","","","","","",""
"null","","html-keyboard-response","60","266498","0.0-60.0","30OG32W0SVXDQDOC7S5VLTNQUBHNE1","A30RAYNDOWQ61S","3RSBJ6YZECCLSSQQCGKCTHC9OPAFOK","","","null","","","","","","","","","",""
"887","","image-keyboard-response","61","267385","0.0-61.0","30OG32W0SVXDQDOC7S5VLTNQUBHNE1","A30RAYNDOWQ61S","3RSBJ6YZECCLSSQQCGKCTHC9OPAFOK","","img/set1/S4.jpg","72","4","random","74","random,structured_incentive,structured_load,structured_normal","4,2,1,2,2,3","1,2,4,3","false","","",""
"null","","html-keyboard-response","62","267737","0.0-62.0","30OG32W0SVXDQDOC7S5VLTNQUBHNE1","A30RAYNDOWQ61S","3RSBJ6YZECCLSSQQCGKCTHC9OPAFOK","","<img src=""img/set1/S4.jpg"" width=""540"" height = ""360"">","null","","","","","","","","","",""
"null","","html-keyboard-response","63","267938","0.0-63.0","30OG32W0SVXDQDOC7S5VLTNQUBHNE1","A30RAYNDOWQ61S","3RSBJ6YZECCLSSQQCGKCTHC9OPAFOK","","","null","","","","","","","","","",""
"1046.6999998092651","","image-keyboard-response","64","268985","0.0-64.0","30OG32W0SVXDQDOC7S5VLTNQUBHNE1","A30RAYNDOWQ61S","3RSBJ6YZECCLSSQQCGKCTHC9OPAFOK","","img/set1/S2.jpg","68","2","random","68","random,structured_incentive,structured_load,structured_normal","4,2,1,2,2,3","1,2,4,3","true","","",""
"null","","html-keyboard-response","65","269337","0.0-65.0","30OG32W0SVXDQDOC7S5VLTNQUBHNE1","A30RAYNDOWQ61S","3RSBJ6YZECCLSSQQCGKCTHC9OPAFOK","","<img src=""img/set1/S2.jpg"" width=""540"" height = ""360"" style=""border:16px solid orange"">","null","","","","","","","","","",""
"null","","html-keyboard-response","66","269538","0.0-66.0","30OG32W0SVXDQDOC7S5VLTNQUBHNE1","A30RAYNDOWQ61S","3RSBJ6YZECCLSSQQCGKCTHC9OPAFOK","","","null","","","","","","","","","",""
"752.7999997138977","","image-keyboard-response","67","270291","0.0-67.0","30OG32W0SVXDQDOC7S5VLTNQUBHNE1","A30RAYNDOWQ61S","3RSBJ6YZECCLSSQQCGKCTHC9OPAFOK","","img/set1/S1.jpg","83","1","random","83","random,structured_incentive,structured_load,structured_normal","4,2,1,2,2,3","1,2,4,3","true","","",""
"null","","html-keyboard-response","68","270643","0.0-68.0","30OG32W0SVXDQDOC7S5VLTNQUBHNE1","A30RAYNDOWQ61S","3RSBJ6YZECCLSSQQCGKCTHC9OPAFOK","","<img src=""img/set1/S1.jpg"" width=""540"" height = ""360"" style=""border:16px solid orange"">","null","","","","","","","","","",""
"null","","html-keyboard-response","69","270844","0.0-69.0","30OG32W0SVXDQDOC7S5VLTNQUBHNE1","A30RAYNDOWQ61S","3RSBJ6YZECCLSSQQCGKCTHC9OPAFOK","","","null","","","","","","","","","",""
"715.2999997138977","","image-keyboard-response","70","271561","0.0-70.0","30OG32W0SVXDQDOC7S5VLTNQUBHNE1","A30RAYNDOWQ61S","3RSBJ6YZECCLSSQQCGKCTHC9OPAFOK","","img/set1/S3.jpg","72","3","random","72","random,structured_incentive,structured_load,structured_normal","4,2,1,2,2,3","1,2,4,3","true","","",""
"null","","html-keyboard-response","71","271913","0.0-71.0","30OG32W0SVXDQDOC7S5VLTNQUBHNE1","A30RAYNDOWQ61S","3RSBJ6YZECCLSSQQCGKCTHC9OPAFOK","","<img src=""img/set1/S3.jpg"" width=""540"" height = ""360"" style=""border:16px solid orange"">","null","","","","","","","","","",""
"null","","html-keyboard-response","72","272114","0.0-72.0","30OG32W0SVXDQDOC7S5VLTNQUBHNE1","A30RAYNDOWQ61S","3RSBJ6YZECCLSSQQCGKCTHC9OPAFOK","","","null","","","","","","","","","",""
"910.9000000953674","","image-keyboard-response","73","273025","0.0-73.0","30OG32W0SVXDQDOC7S5VLTNQUBHNE1","A30RAYNDOWQ61S","3RSBJ6YZECCLSSQQCGKCTHC9OPAFOK","","img/set1/S3.jpg","72","3","random","72","random,structured_incentive,structured_load,structured_normal","4,2,1,2,2,3","1,2,4,3","true","","",""
"null","","html-keyboard-response","74","273377","0.0-74.0","30OG32W0SVXDQDOC7S5VLTNQUBHNE1","A30RAYNDOWQ61S","3RSBJ6YZECCLSSQQCGKCTHC9OPAFOK","","<img src=""img/set1/S3.jpg"" width=""540"" height = ""360"" style=""border:16px solid orange"">","null","","","","","","","","","",""
"null","","html-keyboard-response","75","273578","0.0-75.0","30OG32W0SVXDQDOC7S5VLTNQUBHNE1","A30RAYNDOWQ61S","3RSBJ6YZECCLSSQQCGKCTHC9OPAFOK","","","null","","","","","","","","","",""
"806.9000000953674","","image-keyboard-response","76","274386","0.0-76.0","30OG32W0SVXDQDOC7S5VLTNQUBHNE1","A30RAYNDOWQ61S","3RSBJ6YZECCLSSQQCGKCTHC9OPAFOK","","img/set1/S4.jpg","74","4","random","74","random,structured_incentive,structured_load,structured_normal","4,2,1,2,2,3","1,2,4,3","true","","",""
"null","","html-keyboard-response","77","274737","0.0-77.0","30OG32W0SVXDQDOC7S5VLTNQUBHNE1","A30RAYNDOWQ61S","3RSBJ6YZECCLSSQQCGKCTHC9OPAFOK","","<img src=""img/set1/S4.jpg"" width=""540"" height = ""360"" style=""border:16px solid orange"">","null","","","","","","","","","",""
"null","","html-keyboard-response","78","274938","0.0-78.0","30OG32W0SVXDQDOC7S5VLTNQUBHNE1","A30RAYNDOWQ61S","3RSBJ6YZECCLSSQQCGKCTHC9OPAFOK","","","null","","","","","","","","","",""
"670.5","","image-keyboard-response","79","275609","0.0-79.0","30OG32W0SVXDQDOC7S5VLTNQUBHNE1","A30RAYNDOWQ61S","3RSBJ6YZECCLSSQQCGKCTHC9OPAFOK","","img/set1/S3.jpg","72","3","random","72","random,structured_incentive,structured_load,structured_normal","4,2,1,2,2,3","1,2,4,3","true","","",""
"null","","html-keyboard-response","80","275961","0.0-80.0","30OG32W0SVXDQDOC7S5VLTNQUBHNE1","A30RAYNDOWQ61S","3RSBJ6YZECCLSSQQCGKCTHC9OPAFOK","","<img src=""img/set1/S3.jpg"" width=""540"" height = ""360"" style=""border:16px solid orange"">","null","","","","","","","","","",""
"null","","html-keyboard-response","81","276162","0.0-81.0","30OG32W0SVXDQDOC7S5VLTNQUBHNE1","A30RAYNDOWQ61S","3RSBJ6YZECCLSSQQCGKCTHC9OPAFOK","","","null","","","","","","","","","",""
"782.3000001907349","","image-keyboard-response","82","276945","0.0-82.0","30OG32W0SVXDQDOC7S5VLTNQUBHNE1","A30RAYNDOWQ61S","3RSBJ6YZECCLSSQQCGKCTHC9OPAFOK","","img/set1/S2.jpg","72","2","random","68","random,structured_incentive,structured_load,structured_normal","4,2,1,2,2,3","1,2,4,3","false","","",""
"null","","html-keyboard-response","83","277296","0.0-83.0","30OG32W0SVXDQDOC7S5VLTNQUBHNE1","A30RAYNDOWQ61S","3RSBJ6YZECCLSSQQCGKCTHC9OPAFOK","","<img src=""img/set1/S2.jpg"" width=""540"" height = ""360"">","null","","","","","","","","","",""
"null","","html-keyboard-response","84","277497","0.0-84.0","30OG32W0SVXDQDOC7S5VLTNQUBHNE1","A30RAYNDOWQ61S","3RSBJ6YZECCLSSQQCGKCTHC9OPAFOK","","","null","","","","","","","","","",""
"751.2000002861023","","image-keyboard-response","85","278249","0.0-85.0","30OG32W0SVXDQDOC7S5VLTNQUBHNE1","A30RAYNDOWQ61S","3RSBJ6YZECCLSSQQCGKCTHC9OPAFOK","","img/set1/S4.jpg","72","4","random","74","random,structured_incentive,structured_load,structured_normal","4,2,1,2,2,3","1,2,4,3","false","","",""
"null","","html-keyboard-response","86","278600","0.0-86.0","30OG32W0SVXDQDOC7S5VLTNQUBHNE1","A30RAYNDOWQ61S","3RSBJ6YZECCLSSQQCGKCTHC9OPAFOK","","<img src=""img/set1/S4.jpg"" width=""540"" height = ""360"">","null","","","","","","","","","",""
"null","","html-keyboard-response","87","278801","0.0-87.0","30OG32W0SVXDQDOC7S5VLTNQUBHNE1","A30RAYNDOWQ61S","3RSBJ6YZECCLSSQQCGKCTHC9OPAFOK","","","null","","","","","","","","","",""
"807.0999999046326","","image-keyboard-response","88","279609","0.0-88.0","30OG32W0SVXDQDOC7S5VLTNQUBHNE1","A30RAYNDOWQ61S","3RSBJ6YZECCLSSQQCGKCTHC9OPAFOK","","img/set1/S2.jpg","68","2","random","68","random,structured_incentive,structured_load,structured_normal","4,2,1,2,2,3","1,2,4,3","true","","",""
"null","","html-keyboard-response","89","279961","0.0-89.0","30OG32W0SVXDQDOC7S5VLTNQUBHNE1","A30RAYNDOWQ61S","3RSBJ6YZECCLSSQQCGKCTHC9OPAFOK","","<img src=""img/set1/S2.jpg"" width=""540"" height = ""360"" style=""border:16px solid orange"">","null","","","","","","","","","",""
"null","","html-keyboard-response","90","280162","0.0-90.0","30OG32W0SVXDQDOC7S5VLTNQUBHNE1","A30RAYNDOWQ61S","3RSBJ6YZECCLSSQQCGKCTHC9OPAFOK","","","null","","","","","","","","","",""
"654.0999999046326","","image-keyboard-response","91","280817","0.0-91.0","30OG32W0SVXDQDOC7S5VLTNQUBHNE1","A30RAYNDOWQ61S","3RSBJ6YZECCLSSQQCGKCTHC9OPAFOK","","img/set1/S1.jpg","83","1","random","83","random,structured_incentive,structured_load,structured_normal","4,2,1,2,2,3","1,2,4,3","true","","",""
"null","","html-keyboard-response","92","281168","0.0-92.0","30OG32W0SVXDQDOC7S5VLTNQUBHNE1","A30RAYNDOWQ61S","3RSBJ6YZECCLSSQQCGKCTHC9OPAFOK","","<img src=""img/set1/S1.jpg"" width=""540"" height = ""360"" style=""border:16px solid orange"">","null","","","","","","","","","",""
"null","","html-keyboard-response","93","281369","0.0-93.0","30OG32W0SVXDQDOC7S5VLTNQUBHNE1","A30RAYNDOWQ61S","3RSBJ6YZECCLSSQQCGKCTHC9OPAFOK","","","null","","","","","","","","","",""
"831.3000001907349","","image-keyboard-response","94","282201","0.0-94.0","30OG32W0SVXDQDOC7S5VLTNQUBHNE1","A30RAYNDOWQ61S","3RSBJ6YZECCLSSQQCGKCTHC9OPAFOK","","img/set1/S4.jpg","74","4","random","74","random,structured_incentive,structured_load,structured_normal","4,2,1,2,2,3","1,2,4,3","true","","",""
"null","","html-keyboard-response","95","282553","0.0-95.0","30OG32W0SVXDQDOC7S5VLTNQUBHNE1","A30RAYNDOWQ61S","3RSBJ6YZECCLSSQQCGKCTHC9OPAFOK","","<img src=""img/set1/S4.jpg"" width=""540"" height = ""360"" style=""border:16px solid orange"">","null","","","","","","","","","",""
"null","","html-keyboard-response","96","282754","0.0-96.0","30OG32W0SVXDQDOC7S5VLTNQUBHNE1","A30RAYNDOWQ61S","3RSBJ6YZECCLSSQQCGKCTHC9OPAFOK","","","null","","","","","","","","","",""
"573.7000002861023","","image-keyboard-response","97","283329","0.0-97.0","30OG32W0SVXDQDOC7S5VLTNQUBHNE1","A30RAYNDOWQ61S","3RSBJ6YZECCLSSQQCGKCTHC9OPAFOK","","img/set1/S3.jpg","72","3","random","72","random,structured_incentive,structured_load,structured_normal","4,2,1,2,2,3","1,2,4,3","true","","",""
"null","","html-keyboard-response","98","283680","0.0-98.0","30OG32W0SVXDQDOC7S5VLTNQUBHNE1","A30RAYNDOWQ61S","3RSBJ6YZECCLSSQQCGKCTHC9OPAFOK","","<img src=""img/set1/S3.jpg"" width=""540"" height = ""360"" style=""border:16px solid orange"">","null","","","","","","","","","",""
"null","","html-keyboard-response","99","283881","0.0-99.0","30OG32W0SVXDQDOC7S5VLTNQUBHNE1","A30RAYNDOWQ61S","3RSBJ6YZECCLSSQQCGKCTHC9OPAFOK","","","null","","","","","","","","","",""
"655.1000003814697","","image-keyboard-response","100","284537","0.0-100.0","30OG32W0SVXDQDOC7S5VLTNQUBHNE1","A30RAYNDOWQ61S","3RSBJ6YZECCLSSQQCGKCTHC9OPAFOK","","img/set1/S4.jpg","74","4","random","74","random,structured_incentive,structured_load,structured_normal","4,2,1,2,2,3","1,2,4,3","true","","",""
"null","","html-keyboard-response","101","284889","0.0-101.0","30OG32W0SVXDQDOC7S5VLTNQUBHNE1","A30RAYNDOWQ61S","3RSBJ6YZECCLSSQQCGKCTHC9OPAFOK","","<img src=""img/set1/S4.jpg"" width=""540"" height = ""360"" style=""border:16px solid orange"">","null","","","","","","","","","",""
"null","","html-keyboard-response","102","285090","0.0-102.0","30OG32W0SVXDQDOC7S5VLTNQUBHNE1","A30RAYNDOWQ61S","3RSBJ6YZECCLSSQQCGKCTHC9OPAFOK","","","null","","","","","","","","","",""
"797.9000000953674","","image-keyboard-response","103","285889","0.0-103.0","30OG32W0SVXDQDOC7S5VLTNQUBHNE1","A30RAYNDOWQ61S","3RSBJ6YZECCLSSQQCGKCTHC9OPAFOK","","img/set1/S4.jpg","74","4","random","74","random,structured_incentive,structured_load,structured_normal","4,2,1,2,2,3","1,2,4,3","true","","",""
"null","","html-keyboard-response","104","286240","0.0-104.0","30OG32W0SVXDQDOC7S5VLTNQUBHNE1","A30RAYNDOWQ61S","3RSBJ6YZECCLSSQQCGKCTHC9OPAFOK","","<img src=""img/set1/S4.jpg"" width=""540"" height = ""360"" style=""border:16px solid orange"">","null","","","","","","","","","",""
"null","","html-keyboard-response","105","286441","0.0-105.0","30OG32W0SVXDQDOC7S5VLTNQUBHNE1","A30RAYNDOWQ61S","3RSBJ6YZECCLSSQQCGKCTHC9OPAFOK","","","null","","","","","","","","","",""
"702.7000002861023","","image-keyboard-response","106","287145","0.0-106.0","30OG32W0SVXDQDOC7S5VLTNQUBHNE1","A30RAYNDOWQ61S","3RSBJ6YZECCLSSQQCGKCTHC9OPAFOK","","img/set1/S2.jpg","83","2","random","68","random,structured_incentive,structured_load,structured_normal","4,2,1,2,2,3","1,2,4,3","false","","",""
"null","","html-keyboard-response","107","287496","0.0-107.0","30OG32W0SVXDQDOC7S5VLTNQUBHNE1","A30RAYNDOWQ61S","3RSBJ6YZECCLSSQQCGKCTHC9OPAFOK","","<img src=""img/set1/S2.jpg"" width=""540"" height = ""360"">","null","","","","","","","","","",""
"null","","html-keyboard-response","108","287697","0.0-108.0","30OG32W0SVXDQDOC7S5VLTNQUBHNE1","A30RAYNDOWQ61S","3RSBJ6YZECCLSSQQCGKCTHC9OPAFOK","","","null","","","","","","","","","",""
"838.9000000953674","","image-keyboard-response","109","288537","0.0-109.0","30OG32W0SVXDQDOC7S5VLTNQUBHNE1","A30RAYNDOWQ61S","3RSBJ6YZECCLSSQQCGKCTHC9OPAFOK","","img/set1/S2.jpg","68","2","random","68","random,structured_incentive,structured_load,structured_normal","4,2,1,2,2,3","1,2,4,3","true","","",""
"null","","html-keyboard-response","110","288888","0.0-110.0","30OG32W0SVXDQDOC7S5VLTNQUBHNE1","A30RAYNDOWQ61S","3RSBJ6YZECCLSSQQCGKCTHC9OPAFOK","","<img src=""img/set1/S2.jpg"" width=""540"" height = ""360"" style=""border:16px solid orange"">","null","","","","","","","","","",""
"null","","html-keyboard-response","111","289089","0.0-111.0","30OG32W0SVXDQDOC7S5VLTNQUBHNE1","A30RAYNDOWQ61S","3RSBJ6YZECCLSSQQCGKCTHC9OPAFOK","","","null","","","","","","","","","",""
"566.5","","image-keyboard-response","112","289657","0.0-112.0","30OG32W0SVXDQDOC7S5VLTNQUBHNE1","A30RAYNDOWQ61S","3RSBJ6YZECCLSSQQCGKCTHC9OPAFOK","","img/set1/S3.jpg","72","3","random","72","random,structured_incentive,structured_load,structured_normal","4,2,1,2,2,3","1,2,4,3","true","","",""
"null","","html-keyboard-response","113","290008","0.0-113.0","30OG32W0SVXDQDOC7S5VLTNQUBHNE1","A30RAYNDOWQ61S","3RSBJ6YZECCLSSQQCGKCTHC9OPAFOK","","<img src=""img/set1/S3.jpg"" width=""540"" height = ""360"" style=""border:16px solid orange"">","null","","","","","","","","","",""
"null","","html-keyboard-response","114","290209","0.0-114.0","30OG32W0SVXDQDOC7S5VLTNQUBHNE1","A30RAYNDOWQ61S","3RSBJ6YZECCLSSQQCGKCTHC9OPAFOK","","","null","","","","","","","","","",""
"718.7000002861023","","image-keyboard-response","115","290929","0.0-115.0","30OG32W0SVXDQDOC7S5VLTNQUBHNE1","A30RAYNDOWQ61S","3RSBJ6YZECCLSSQQCGKCTHC9OPAFOK","","img/set1/S2.jpg","68","2","random","68","random,structured_incentive,structured_load,structured_normal","4,2,1,2,2,3","1,2,4,3","true","","",""
"null","","html-keyboard-response","116","291283","0.0-116.0","30OG32W0SVXDQDOC7S5VLTNQUBHNE1","A30RAYNDOWQ61S","3RSBJ6YZECCLSSQQCGKCTHC9OPAFOK","","<img src=""img/set1/S2.jpg"" width=""540"" height = ""360"" style=""border:16px solid orange"">","null","","","","","","","","","",""
"null","","html-keyboard-response","117","291485","0.0-117.0","30OG32W0SVXDQDOC7S5VLTNQUBHNE1","A30RAYNDOWQ61S","3RSBJ6YZECCLSSQQCGKCTHC9OPAFOK","","","null","","","","","","","","","",""
"611.5999999046326","","image-keyboard-response","118","292097","0.0-118.0","30OG32W0SVXDQDOC7S5VLTNQUBHNE1","A30RAYNDOWQ61S","3RSBJ6YZECCLSSQQCGKCTHC9OPAFOK","","img/set1/S4.jpg","74","4","random","74","random,structured_incentive,structured_load,structured_normal","4,2,1,2,2,3","1,2,4,3","true","","",""
"null","","html-keyboard-response","119","292449","0.0-119.0","30OG32W0SVXDQDOC7S5VLTNQUBHNE1","A30RAYNDOWQ61S","3RSBJ6YZECCLSSQQCGKCTHC9OPAFOK","","<img src=""img/set1/S4.jpg"" width=""540"" height = ""360"" style=""border:16px solid orange"">","null","","","","","","","","","",""
"null","","html-keyboard-response","120","292650","0.0-120.0","30OG32W0SVXDQDOC7S5VLTNQUBHNE1","A30RAYNDOWQ61S","3RSBJ6YZECCLSSQQCGKCTHC9OPAFOK","","","null","","","","","","","","","",""
"799.7999997138977","","image-keyboard-response","121","293450","0.0-121.0","30OG32W0SVXDQDOC7S5VLTNQUBHNE1","A30RAYNDOWQ61S","3RSBJ6YZECCLSSQQCGKCTHC9OPAFOK","","img/set1/S2.jpg","68","2","random","68","random,structured_incentive,structured_load,structured_normal","4,2,1,2,2,3","1,2,4,3","true","","",""
"null","","html-keyboard-response","122","293802","0.0-122.0","30OG32W0SVXDQDOC7S5VLTNQUBHNE1","A30RAYNDOWQ61S","3RSBJ6YZECCLSSQQCGKCTHC9OPAFOK","","<img src=""img/set1/S2.jpg"" width=""540"" height = ""360"" style=""border:16px solid orange"">","null","","","","","","","","","",""
"null","","html-keyboard-response","123","294003","0.0-123.0","30OG32W0SVXDQDOC7S5VLTNQUBHNE1","A30RAYNDOWQ61S","3RSBJ6YZECCLSSQQCGKCTHC9OPAFOK","","","null","","","","","","","","","",""
"629.5999999046326","","image-keyboard-response","124","294633","0.0-124.0","30OG32W0SVXDQDOC7S5VLTNQUBHNE1","A30RAYNDOWQ61S","3RSBJ6YZECCLSSQQCGKCTHC9OPAFOK","","img/set1/S4.jpg","72","4","random","74","random,structured_incentive,structured_load,structured_normal","4,2,1,2,2,3","1,2,4,3","false","","",""
"null","","html-keyboard-response","125","294985","0.0-125.0","30OG32W0SVXDQDOC7S5VLTNQUBHNE1","A30RAYNDOWQ61S","3RSBJ6YZECCLSSQQCGKCTHC9OPAFOK","","<img src=""img/set1/S4.jpg"" width=""540"" height = ""360"">","null","","","","","","","","","",""
"null","","html-keyboard-response","126","295186","0.0-126.0","30OG32W0SVXDQDOC7S5VLTNQUBHNE1","A30RAYNDOWQ61S","3RSBJ6YZECCLSSQQCGKCTHC9OPAFOK","","","null","","","","","","","","","",""
"686.0999999046326","","image-keyboard-response","127","295874","0.0-127.0","30OG32W0SVXDQDOC7S5VLTNQUBHNE1","A30RAYNDOWQ61S","3RSBJ6YZECCLSSQQCGKCTHC9OPAFOK","","img/set1/S2.jpg","68","2","random","68","random,structured_incentive,structured_load,structured_normal","4,2,1,2,2,3","1,2,4,3","true","","",""
"null","","html-keyboard-response","128","296226","0.0-128.0","30OG32W0SVXDQDOC7S5VLTNQUBHNE1","A30RAYNDOWQ61S","3RSBJ6YZECCLSSQQCGKCTHC9OPAFOK","","<img src=""img/set1/S2.jpg"" width=""540"" height = ""360"" style=""border:16px solid orange"">","null","","","","","","","","","",""
"null","","html-keyboard-response","129","296427","0.0-129.0","30OG32W0SVXDQDOC7S5VLTNQUBHNE1","A30RAYNDOWQ61S","3RSBJ6YZECCLSSQQCGKCTHC9OPAFOK","","","null","","","","","","","","","",""
"558.4000000953674","","image-keyboard-response","130","296986","0.0-130.0","30OG32W0SVXDQDOC7S5VLTNQUBHNE1","A30RAYNDOWQ61S","3RSBJ6YZECCLSSQQCGKCTHC9OPAFOK","","img/set1/S1.jpg","83","1","random","83","random,structured_incentive,structured_load,structured_normal","4,2,1,2,2,3","1,2,4,3","true","","",""
"null","","html-keyboard-response","131","297338","0.0-131.0","30OG32W0SVXDQDOC7S5VLTNQUBHNE1","A30RAYNDOWQ61S","3RSBJ6YZECCLSSQQCGKCTHC9OPAFOK","","<img src=""img/set1/S1.jpg"" width=""540"" height = ""360"" style=""border:16px solid orange"">","null","","","","","","","","","",""
"null","","html-keyboard-response","132","297539","0.0-132.0","30OG32W0SVXDQDOC7S5VLTNQUBHNE1","A30RAYNDOWQ61S","3RSBJ6YZECCLSSQQCGKCTHC9OPAFOK","","","null","","","","","","","","","",""
"628.9000000953674","","image-keyboard-response","133","298170","0.0-133.0","30OG32W0SVXDQDOC7S5VLTNQUBHNE1","A30RAYNDOWQ61S","3RSBJ6YZECCLSSQQCGKCTHC9OPAFOK","","img/set1/S3.jpg","72","3","random","72","random,structured_incentive,structured_load,structured_normal","4,2,1,2,2,3","1,2,4,3","true","","",""
"null","","html-keyboard-response","134","298521","0.0-134.0","30OG32W0SVXDQDOC7S5VLTNQUBHNE1","A30RAYNDOWQ61S","3RSBJ6YZECCLSSQQCGKCTHC9OPAFOK","","<img src=""img/set1/S3.jpg"" width=""540"" height = ""360"" style=""border:16px solid orange"">","null","","","","","","","","","",""
"null","","html-keyboard-response","135","298722","0.0-135.0","30OG32W0SVXDQDOC7S5VLTNQUBHNE1","A30RAYNDOWQ61S","3RSBJ6YZECCLSSQQCGKCTHC9OPAFOK","","","null","","","","","","","","","",""
"655.0999999046326","","image-keyboard-response","136","299378","0.0-136.0","30OG32W0SVXDQDOC7S5VLTNQUBHNE1","A30RAYNDOWQ61S","3RSBJ6YZECCLSSQQCGKCTHC9OPAFOK","","img/set1/S4.jpg","74","4","random","74","random,structured_incentive,structured_load,structured_normal","4,2,1,2,2,3","1,2,4,3","true","","",""
"null","","html-keyboard-response","137","299729","0.0-137.0","30OG32W0SVXDQDOC7S5VLTNQUBHNE1","A30RAYNDOWQ61S","3RSBJ6YZECCLSSQQCGKCTHC9OPAFOK","","<img src=""img/set1/S4.jpg"" width=""540"" height = ""360"" style=""border:16px solid orange"">","null","","","","","","","","","",""
"null","","html-keyboard-response","138","299930","0.0-138.0","30OG32W0SVXDQDOC7S5VLTNQUBHNE1","A30RAYNDOWQ61S","3RSBJ6YZECCLSSQQCGKCTHC9OPAFOK","","","null","","","","","","","","","",""
"647.0999999046326","","image-keyboard-response","139","300578","0.0-139.0","30OG32W0SVXDQDOC7S5VLTNQUBHNE1","A30RAYNDOWQ61S","3RSBJ6YZECCLSSQQCGKCTHC9OPAFOK","","img/set1/S3.jpg","72","3","random","72","random,structured_incentive,structured_load,structured_normal","4,2,1,2,2,3","1,2,4,3","true","","",""
"null","","html-keyboard-response","140","300929","0.0-140.0","30OG32W0SVXDQDOC7S5VLTNQUBHNE1","A30RAYNDOWQ61S","3RSBJ6YZECCLSSQQCGKCTHC9OPAFOK","","<img src=""img/set1/S3.jpg"" width=""540"" height = ""360"" style=""border:16px solid orange"">","null","","","","","","","","","",""
"null","","html-keyboard-response","141","301130","0.0-141.0","30OG32W0SVXDQDOC7S5VLTNQUBHNE1","A30RAYNDOWQ61S","3RSBJ6YZECCLSSQQCGKCTHC9OPAFOK","","","null","","","","","","","","","",""
"702.5999999046326","","image-keyboard-response","142","301834","0.0-142.0","30OG32W0SVXDQDOC7S5VLTNQUBHNE1","A30RAYNDOWQ61S","3RSBJ6YZECCLSSQQCGKCTHC9OPAFOK","","img/set1/S2.jpg","68","2","random","68","random,structured_incentive,structured_load,structured_normal","4,2,1,2,2,3","1,2,4,3","true","","",""
"null","","html-keyboard-response","143","302185","0.0-143.0","30OG32W0SVXDQDOC7S5VLTNQUBHNE1","A30RAYNDOWQ61S","3RSBJ6YZECCLSSQQCGKCTHC9OPAFOK","","<img src=""img/set1/S2.jpg"" width=""540"" height = ""360"" style=""border:16px solid orange"">","null","","","","","","","","","",""
"null","","html-keyboard-response","144","302386","0.0-144.0","30OG32W0SVXDQDOC7S5VLTNQUBHNE1","A30RAYNDOWQ61S","3RSBJ6YZECCLSSQQCGKCTHC9OPAFOK","","","null","","","","","","","","","",""
"655.1000003814697","","image-keyboard-response","145","303042","0.0-145.0","30OG32W0SVXDQDOC7S5VLTNQUBHNE1","A30RAYNDOWQ61S","3RSBJ6YZECCLSSQQCGKCTHC9OPAFOK","","img/set1/S4.jpg","74","4","random","74","random,structured_incentive,structured_load,structured_normal","4,2,1,2,2,3","1,2,4,3","true","","",""
"null","","html-keyboard-response","146","303393","0.0-146.0","30OG32W0SVXDQDOC7S5VLTNQUBHNE1","A30RAYNDOWQ61S","3RSBJ6YZECCLSSQQCGKCTHC9OPAFOK","","<img src=""img/set1/S4.jpg"" width=""540"" height = ""360"" style=""border:16px solid orange"">","null","","","","","","","","","",""
"null","","html-keyboard-response","147","303594","0.0-147.0","30OG32W0SVXDQDOC7S5VLTNQUBHNE1","A30RAYNDOWQ61S","3RSBJ6YZECCLSSQQCGKCTHC9OPAFOK","","","null","","","","","","","","","",""
"662.1999998092651","","image-keyboard-response","148","304257","0.0-148.0","30OG32W0SVXDQDOC7S5VLTNQUBHNE1","A30RAYNDOWQ61S","3RSBJ6YZECCLSSQQCGKCTHC9OPAFOK","","img/set1/S4.jpg","74","4","random","74","random,structured_incentive,structured_load,structured_normal","4,2,1,2,2,3","1,2,4,3","true","","",""
"null","","html-keyboard-response","149","304609","0.0-149.0","30OG32W0SVXDQDOC7S5VLTNQUBHNE1","A30RAYNDOWQ61S","3RSBJ6YZECCLSSQQCGKCTHC9OPAFOK","","<img src=""img/set1/S4.jpg"" width=""540"" height = ""360"" style=""border:16px solid orange"">","null","","","","","","","","","",""
"null","","html-keyboard-response","150","304810","0.0-150.0","30OG32W0SVXDQDOC7S5VLTNQUBHNE1","A30RAYNDOWQ61S","3RSBJ6YZECCLSSQQCGKCTHC9OPAFOK","","","null","","","","","","","","","",""
"655","","image-keyboard-response","151","305466","0.0-151.0","30OG32W0SVXDQDOC7S5VLTNQUBHNE1","A30RAYNDOWQ61S","3RSBJ6YZECCLSSQQCGKCTHC9OPAFOK","","img/set1/S3.jpg","72","3","random","72","random,structured_incentive,structured_load,structured_normal","4,2,1,2,2,3","1,2,4,3","true","","",""
"null","","html-keyboard-response","152","305817","0.0-152.0","30OG32W0SVXDQDOC7S5VLTNQUBHNE1","A30RAYNDOWQ61S","3RSBJ6YZECCLSSQQCGKCTHC9OPAFOK","","<img src=""img/set1/S3.jpg"" width=""540"" height = ""360"" style=""border:16px solid orange"">","null","","","","","","","","","",""
"null","","html-keyboard-response","153","306018","0.0-153.0","30OG32W0SVXDQDOC7S5VLTNQUBHNE1","A30RAYNDOWQ61S","3RSBJ6YZECCLSSQQCGKCTHC9OPAFOK","","","null","","","","","","","","","",""
"630.5999999046326","","image-keyboard-response","154","306650","0.0-154.0","30OG32W0SVXDQDOC7S5VLTNQUBHNE1","A30RAYNDOWQ61S","3RSBJ6YZECCLSSQQCGKCTHC9OPAFOK","","img/set1/S4.jpg","74","4","random","74","random,structured_incentive,structured_load,structured_normal","4,2,1,2,2,3","1,2,4,3","true","","",""
"null","","html-keyboard-response","155","307001","0.0-155.0","30OG32W0SVXDQDOC7S5VLTNQUBHNE1","A30RAYNDOWQ61S","3RSBJ6YZECCLSSQQCGKCTHC9OPAFOK","","<img src=""img/set1/S4.jpg"" width=""540"" height = ""360"" style=""border:16px solid orange"">","null","","","","","","","","","",""
"null","","html-keyboard-response","156","307204","0.0-156.0","30OG32W0SVXDQDOC7S5VLTNQUBHNE1","A30RAYNDOWQ61S","3RSBJ6YZECCLSSQQCGKCTHC9OPAFOK","","","null","","","","","","","","","",""
"700.7000002861023","","image-keyboard-response","157","307905","0.0-157.0","30OG32W0SVXDQDOC7S5VLTNQUBHNE1","A30RAYNDOWQ61S","3RSBJ6YZECCLSSQQCGKCTHC9OPAFOK","","img/set1/S4.jpg","74","4","random","74","random,structured_incentive,structured_load,structured_normal","4,2,1,2,2,3","1,2,4,3","true","","",""
"null","","html-keyboard-response","158","308257","0.0-158.0","30OG32W0SVXDQDOC7S5VLTNQUBHNE1","A30RAYNDOWQ61S","3RSBJ6YZECCLSSQQCGKCTHC9OPAFOK","","<img src=""img/set1/S4.jpg"" width=""540"" height = ""360"" style=""border:16px solid orange"">","null","","","","","","","","","",""
"null","","html-keyboard-response","159","308458","0.0-159.0","30OG32W0SVXDQDOC7S5VLTNQUBHNE1","A30RAYNDOWQ61S","3RSBJ6YZECCLSSQQCGKCTHC9OPAFOK","","","null","","","","","","","","","",""
"630.5","","image-keyboard-response","160","309090","0.0-160.0","30OG32W0SVXDQDOC7S5VLTNQUBHNE1","A30RAYNDOWQ61S","3RSBJ6YZECCLSSQQCGKCTHC9OPAFOK","","img/set1/S3.jpg","72","3","random","72","random,structured_incentive,structured_load,structured_normal","4,2,1,2,2,3","1,2,4,3","true","","",""
"null","","html-keyboard-response","161","309441","0.0-161.0","30OG32W0SVXDQDOC7S5VLTNQUBHNE1","A30RAYNDOWQ61S","3RSBJ6YZECCLSSQQCGKCTHC9OPAFOK","","<img src=""img/set1/S3.jpg"" width=""540"" height = ""360"" style=""border:16px solid orange"">","null","","","","","","","","","",""
"null","","html-keyboard-response","162","309642","0.0-162.0","30OG32W0SVXDQDOC7S5VLTNQUBHNE1","A30RAYNDOWQ61S","3RSBJ6YZECCLSSQQCGKCTHC9OPAFOK","","","null","","","","","","","","","",""
"638.5999999046326","","image-keyboard-response","163","310282","0.0-163.0","30OG32W0SVXDQDOC7S5VLTNQUBHNE1","A30RAYNDOWQ61S","3RSBJ6YZECCLSSQQCGKCTHC9OPAFOK","","img/set1/S1.jpg","83","1","random","83","random,structured_incentive,structured_load,structured_normal","4,2,1,2,2,3","1,2,4,3","true","","",""
"null","","html-keyboard-response","164","310633","0.0-164.0","30OG32W0SVXDQDOC7S5VLTNQUBHNE1","A30RAYNDOWQ61S","3RSBJ6YZECCLSSQQCGKCTHC9OPAFOK","","<img src=""img/set1/S1.jpg"" width=""540"" height = ""360"" style=""border:16px solid orange"">","null","","","","","","","","","",""
"null","","html-keyboard-response","165","310834","0.0-165.0","30OG32W0SVXDQDOC7S5VLTNQUBHNE1","A30RAYNDOWQ61S","3RSBJ6YZECCLSSQQCGKCTHC9OPAFOK","","","null","","","","","","","","","",""
"654","","image-keyboard-response","166","311489","0.0-166.0","30OG32W0SVXDQDOC7S5VLTNQUBHNE1","A30RAYNDOWQ61S","3RSBJ6YZECCLSSQQCGKCTHC9OPAFOK","","img/set1/S1.jpg","83","1","random","83","random,structured_incentive,structured_load,structured_normal","4,2,1,2,2,3","1,2,4,3","true","","",""
"null","","html-keyboard-response","167","311841","0.0-167.0","30OG32W0SVXDQDOC7S5VLTNQUBHNE1","A30RAYNDOWQ61S","3RSBJ6YZECCLSSQQCGKCTHC9OPAFOK","","<img src=""img/set1/S1.jpg"" width=""540"" height = ""360"" style=""border:16px solid orange"">","null","","","","","","","","","",""
"null","","html-keyboard-response","168","312042","0.0-168.0","30OG32W0SVXDQDOC7S5VLTNQUBHNE1","A30RAYNDOWQ61S","3RSBJ6YZECCLSSQQCGKCTHC9OPAFOK","","","null","","","","","","","","","",""
"750.4000000953674","","image-keyboard-response","169","312793","0.0-169.0","30OG32W0SVXDQDOC7S5VLTNQUBHNE1","A30RAYNDOWQ61S","3RSBJ6YZECCLSSQQCGKCTHC9OPAFOK","","img/set1/S2.jpg","68","2","random","68","random,structured_incentive,structured_load,structured_normal","4,2,1,2,2,3","1,2,4,3","true","","",""
"null","","html-keyboard-response","170","313145","0.0-170.0","30OG32W0SVXDQDOC7S5VLTNQUBHNE1","A30RAYNDOWQ61S","3RSBJ6YZECCLSSQQCGKCTHC9OPAFOK","","<img src=""img/set1/S2.jpg"" width=""540"" height = ""360"" style=""border:16px solid orange"">","null","","","","","","","","","",""
"null","","html-keyboard-response","171","313346","0.0-171.0","30OG32W0SVXDQDOC7S5VLTNQUBHNE1","A30RAYNDOWQ61S","3RSBJ6YZECCLSSQQCGKCTHC9OPAFOK","","","null","","","","","","","","","",""
"581.8000001907349","","image-keyboard-response","172","313929","0.0-172.0","30OG32W0SVXDQDOC7S5VLTNQUBHNE1","A30RAYNDOWQ61S","3RSBJ6YZECCLSSQQCGKCTHC9OPAFOK","","img/set1/S3.jpg","72","3","random","72","random,structured_incentive,structured_load,structured_normal","4,2,1,2,2,3","1,2,4,3","true","","",""
"null","","html-keyboard-response","173","314280","0.0-173.0","30OG32W0SVXDQDOC7S5VLTNQUBHNE1","A30RAYNDOWQ61S","3RSBJ6YZECCLSSQQCGKCTHC9OPAFOK","","<img src=""img/set1/S3.jpg"" width=""540"" height = ""360"" style=""border:16px solid orange"">","null","","","","","","","","","",""
"null","","html-keyboard-response","174","314482","0.0-174.0","30OG32W0SVXDQDOC7S5VLTNQUBHNE1","A30RAYNDOWQ61S","3RSBJ6YZECCLSSQQCGKCTHC9OPAFOK","","","null","","","","","","","","","",""
"462.2999997138977","","image-keyboard-response","175","314946","0.0-175.0","30OG32W0SVXDQDOC7S5VLTNQUBHNE1","A30RAYNDOWQ61S","3RSBJ6YZECCLSSQQCGKCTHC9OPAFOK","","img/set1/S3.jpg","72","3","random","72","random,structured_incentive,structured_load,structured_normal","4,2,1,2,2,3","1,2,4,3","true","","",""
"null","","html-keyboard-response","176","315298","0.0-176.0","30OG32W0SVXDQDOC7S5VLTNQUBHNE1","A30RAYNDOWQ61S","3RSBJ6YZECCLSSQQCGKCTHC9OPAFOK","","<img src=""img/set1/S3.jpg"" width=""540"" height = ""360"" style=""border:16px solid orange"">","null","","","","","","","","","",""
"null","","html-keyboard-response","177","315499","0.0-177.0","30OG32W0SVXDQDOC7S5VLTNQUBHNE1","A30RAYNDOWQ61S","3RSBJ6YZECCLSSQQCGKCTHC9OPAFOK","","","null","","","","","","","","","",""
"582.8000001907349","","image-keyboard-response","178","316082","0.0-178.0","30OG32W0SVXDQDOC7S5VLTNQUBHNE1","A30RAYNDOWQ61S","3RSBJ6YZECCLSSQQCGKCTHC9OPAFOK","","img/set1/S4.jpg","74","4","random","74","random,structured_incentive,structured_load,structured_normal","4,2,1,2,2,3","1,2,4,3","true","","",""
"null","","html-keyboard-response","179","316434","0.0-179.0","30OG32W0SVXDQDOC7S5VLTNQUBHNE1","A30RAYNDOWQ61S","3RSBJ6YZECCLSSQQCGKCTHC9OPAFOK","","<img src=""img/set1/S4.jpg"" width=""540"" height = ""360"" style=""border:16px solid orange"">","null","","","","","","","","","",""
"null","","html-keyboard-response","180","316638","0.0-180.0","30OG32W0SVXDQDOC7S5VLTNQUBHNE1","A30RAYNDOWQ61S","3RSBJ6YZECCLSSQQCGKCTHC9OPAFOK","","","null","","","","","","","","","",""
"618.1999998092651","","image-keyboard-response","181","317257","0.0-181.0","30OG32W0SVXDQDOC7S5VLTNQUBHNE1","A30RAYNDOWQ61S","3RSBJ6YZECCLSSQQCGKCTHC9OPAFOK","","img/set1/S2.jpg","83","2","random","68","random,structured_incentive,structured_load,structured_normal","4,2,1,2,2,3","1,2,4,3","false","","",""
"null","","html-keyboard-response","182","317609","0.0-182.0","30OG32W0SVXDQDOC7S5VLTNQUBHNE1","A30RAYNDOWQ61S","3RSBJ6YZECCLSSQQCGKCTHC9OPAFOK","","<img src=""img/set1/S2.jpg"" width=""540"" height = ""360"">","null","","","","","","","","","",""
"null","","html-keyboard-response","183","317810","0.0-183.0","30OG32W0SVXDQDOC7S5VLTNQUBHNE1","A30RAYNDOWQ61S","3RSBJ6YZECCLSSQQCGKCTHC9OPAFOK","","","null","","","","","","","","","",""
"702.7999997138977","","image-keyboard-response","184","318513","0.0-184.0","30OG32W0SVXDQDOC7S5VLTNQUBHNE1","A30RAYNDOWQ61S","3RSBJ6YZECCLSSQQCGKCTHC9OPAFOK","","img/set1/S1.jpg","83","1","random","83","random,structured_incentive,structured_load,structured_normal","4,2,1,2,2,3","1,2,4,3","true","","",""
"null","","html-keyboard-response","185","318865","0.0-185.0","30OG32W0SVXDQDOC7S5VLTNQUBHNE1","A30RAYNDOWQ61S","3RSBJ6YZECCLSSQQCGKCTHC9OPAFOK","","<img src=""img/set1/S1.jpg"" width=""540"" height = ""360"" style=""border:16px solid orange"">","null","","","","","","","","","",""
"null","","html-keyboard-response","186","319066","0.0-186.0","30OG32W0SVXDQDOC7S5VLTNQUBHNE1","A30RAYNDOWQ61S","3RSBJ6YZECCLSSQQCGKCTHC9OPAFOK","","","null","","","","","","","","","",""
"422.90000009536743","","image-keyboard-response","187","319489","0.0-187.0","30OG32W0SVXDQDOC7S5VLTNQUBHNE1","A30RAYNDOWQ61S","3RSBJ6YZECCLSSQQCGKCTHC9OPAFOK","","img/set1/S2.jpg","68","2","random","68","random,structured_incentive,structured_load,structured_normal","4,2,1,2,2,3","1,2,4,3","true","","",""
"null","","html-keyboard-response","188","319841","0.0-188.0","30OG32W0SVXDQDOC7S5VLTNQUBHNE1","A30RAYNDOWQ61S","3RSBJ6YZECCLSSQQCGKCTHC9OPAFOK","","<img src=""img/set1/S2.jpg"" width=""540"" height = ""360"" style=""border:16px solid orange"">","null","","","","","","","","","",""
"null","","html-keyboard-response","189","320042","0.0-189.0","30OG32W0SVXDQDOC7S5VLTNQUBHNE1","A30RAYNDOWQ61S","3RSBJ6YZECCLSSQQCGKCTHC9OPAFOK","","","null","","","","","","","","","",""
"655.0999999046326","","image-keyboard-response","190","320698","0.0-190.0","30OG32W0SVXDQDOC7S5VLTNQUBHNE1","A30RAYNDOWQ61S","3RSBJ6YZECCLSSQQCGKCTHC9OPAFOK","","img/set1/S2.jpg","68","2","random","68","random,structured_incentive,structured_load,structured_normal","4,2,1,2,2,3","1,2,4,3","true","","",""
"null","","html-keyboard-response","191","321049","0.0-191.0","30OG32W0SVXDQDOC7S5VLTNQUBHNE1","A30RAYNDOWQ61S","3RSBJ6YZECCLSSQQCGKCTHC9OPAFOK","","<img src=""img/set1/S2.jpg"" width=""540"" height = ""360"" style=""border:16px solid orange"">","null","","","","","","","","","",""
"null","","html-keyboard-response","192","321250","0.0-192.0","30OG32W0SVXDQDOC7S5VLTNQUBHNE1","A30RAYNDOWQ61S","3RSBJ6YZECCLSSQQCGKCTHC9OPAFOK","","","null","","","","","","","","","",""
"574.7999997138977","","image-keyboard-response","193","321825","0.0-193.0","30OG32W0SVXDQDOC7S5VLTNQUBHNE1","A30RAYNDOWQ61S","3RSBJ6YZECCLSSQQCGKCTHC9OPAFOK","","img/set1/S3.jpg","72","3","random","72","random,structured_incentive,structured_load,structured_normal","4,2,1,2,2,3","1,2,4,3","true","","",""
"null","","html-keyboard-response","194","322177","0.0-194.0","30OG32W0SVXDQDOC7S5VLTNQUBHNE1","A30RAYNDOWQ61S","3RSBJ6YZECCLSSQQCGKCTHC9OPAFOK","","<img src=""img/set1/S3.jpg"" width=""540"" height = ""360"" style=""border:16px solid orange"">","null","","","","","","","","","",""
"null","","html-keyboard-response","195","322378","0.0-195.0","30OG32W0SVXDQDOC7S5VLTNQUBHNE1","A30RAYNDOWQ61S","3RSBJ6YZECCLSSQQCGKCTHC9OPAFOK","","","null","","","","","","","","","",""
"598.9000000953674","","image-keyboard-response","196","322977","0.0-196.0","30OG32W0SVXDQDOC7S5VLTNQUBHNE1","A30RAYNDOWQ61S","3RSBJ6YZECCLSSQQCGKCTHC9OPAFOK","","img/set1/S1.jpg","83","1","random","83","random,structured_incentive,structured_load,structured_normal","4,2,1,2,2,3","1,2,4,3","true","","",""
"null","","html-keyboard-response","197","323329","0.0-197.0","30OG32W0SVXDQDOC7S5VLTNQUBHNE1","A30RAYNDOWQ61S","3RSBJ6YZECCLSSQQCGKCTHC9OPAFOK","","<img src=""img/set1/S1.jpg"" width=""540"" height = ""360"" style=""border:16px solid orange"">","null","","","","","","","","","",""
"null","","html-keyboard-response","198","323530","0.0-198.0","30OG32W0SVXDQDOC7S5VLTNQUBHNE1","A30RAYNDOWQ61S","3RSBJ6YZECCLSSQQCGKCTHC9OPAFOK","","","null","","","","","","","","","",""
"590.4000000953674","","image-keyboard-response","199","324121","0.0-199.0","30OG32W0SVXDQDOC7S5VLTNQUBHNE1","A30RAYNDOWQ61S","3RSBJ6YZECCLSSQQCGKCTHC9OPAFOK","","img/set1/S2.jpg","68","2","random","68","random,structured_incentive,structured_load,structured_normal","4,2,1,2,2,3","1,2,4,3","true","","",""
"null","","html-keyboard-response","200","324473","0.0-200.0","30OG32W0SVXDQDOC7S5VLTNQUBHNE1","A30RAYNDOWQ61S","3RSBJ6YZECCLSSQQCGKCTHC9OPAFOK","","<img src=""img/set1/S2.jpg"" width=""540"" height = ""360"" style=""border:16px solid orange"">","null","","","","","","","","","",""
"null","","html-keyboard-response","201","324674","0.0-201.0","30OG32W0SVXDQDOC7S5VLTNQUBHNE1","A30RAYNDOWQ61S","3RSBJ6YZECCLSSQQCGKCTHC9OPAFOK","","","null","","","","","","","","","",""
"502.5","","image-keyboard-response","202","325177","0.0-202.0","30OG32W0SVXDQDOC7S5VLTNQUBHNE1","A30RAYNDOWQ61S","3RSBJ6YZECCLSSQQCGKCTHC9OPAFOK","","img/set1/S2.jpg","68","2","random","68","random,structured_incentive,structured_load,structured_normal","4,2,1,2,2,3","1,2,4,3","true","","",""
"null","","html-keyboard-response","203","325529","0.0-203.0","30OG32W0SVXDQDOC7S5VLTNQUBHNE1","A30RAYNDOWQ61S","3RSBJ6YZECCLSSQQCGKCTHC9OPAFOK","","<img src=""img/set1/S2.jpg"" width=""540"" height = ""360"" style=""border:16px solid orange"">","null","","","","","","","","","",""
"null","","html-keyboard-response","204","325730","0.0-204.0","30OG32W0SVXDQDOC7S5VLTNQUBHNE1","A30RAYNDOWQ61S","3RSBJ6YZECCLSSQQCGKCTHC9OPAFOK","","","null","","","","","","","","","",""
"792.6000003814697","","image-keyboard-response","205","326523","0.0-205.0","30OG32W0SVXDQDOC7S5VLTNQUBHNE1","A30RAYNDOWQ61S","3RSBJ6YZECCLSSQQCGKCTHC9OPAFOK","","img/set1/S2.jpg","68","2","random","68","random,structured_incentive,structured_load,structured_normal","4,2,1,2,2,3","1,2,4,3","true","","",""
"null","","html-keyboard-response","206","326875","0.0-206.0","30OG32W0SVXDQDOC7S5VLTNQUBHNE1","A30RAYNDOWQ61S","3RSBJ6YZECCLSSQQCGKCTHC9OPAFOK","","<img src=""img/set1/S2.jpg"" width=""540"" height = ""360"" style=""border:16px solid orange"">","null","","","","","","","","","",""
"null","","html-keyboard-response","207","327076","0.0-207.0","30OG32W0SVXDQDOC7S5VLTNQUBHNE1","A30RAYNDOWQ61S","3RSBJ6YZECCLSSQQCGKCTHC9OPAFOK","","","null","","","","","","","","","",""
"596.0999999046326","","image-keyboard-response","208","327673","0.0-208.0","30OG32W0SVXDQDOC7S5VLTNQUBHNE1","A30RAYNDOWQ61S","3RSBJ6YZECCLSSQQCGKCTHC9OPAFOK","","img/set1/S1.jpg","83","1","random","83","random,structured_incentive,structured_load,structured_normal","4,2,1,2,2,3","1,2,4,3","true","","",""
"null","","html-keyboard-response","209","328025","0.0-209.0","30OG32W0SVXDQDOC7S5VLTNQUBHNE1","A30RAYNDOWQ61S","3RSBJ6YZECCLSSQQCGKCTHC9OPAFOK","","<img src=""img/set1/S1.jpg"" width=""540"" height = ""360"" style=""border:16px solid orange"">","null","","","","","","","","","",""
"null","","html-keyboard-response","210","328226","0.0-210.0","30OG32W0SVXDQDOC7S5VLTNQUBHNE1","A30RAYNDOWQ61S","3RSBJ6YZECCLSSQQCGKCTHC9OPAFOK","","","null","","","","","","","","","",""
"606.1999998092651","","image-keyboard-response","211","328833","0.0-211.0","30OG32W0SVXDQDOC7S5VLTNQUBHNE1","A30RAYNDOWQ61S","3RSBJ6YZECCLSSQQCGKCTHC9OPAFOK","","img/set1/S1.jpg","68","1","random","83","random,structured_incentive,structured_load,structured_normal","4,2,1,2,2,3","1,2,4,3","false","","",""
"null","","html-keyboard-response","212","329185","0.0-212.0","30OG32W0SVXDQDOC7S5VLTNQUBHNE1","A30RAYNDOWQ61S","3RSBJ6YZECCLSSQQCGKCTHC9OPAFOK","","<img src=""img/set1/S1.jpg"" width=""540"" height = ""360"">","null","","","","","","","","","",""
"null","","html-keyboard-response","213","329386","0.0-213.0","30OG32W0SVXDQDOC7S5VLTNQUBHNE1","A30RAYNDOWQ61S","3RSBJ6YZECCLSSQQCGKCTHC9OPAFOK","","","null","","","","","","","","","",""
"638.5999999046326","","image-keyboard-response","214","330025","0.0-214.0","30OG32W0SVXDQDOC7S5VLTNQUBHNE1","A30RAYNDOWQ61S","3RSBJ6YZECCLSSQQCGKCTHC9OPAFOK","","img/set1/S4.jpg","74","4","random","74","random,structured_incentive,structured_load,structured_normal","4,2,1,2,2,3","1,2,4,3","true","","",""
"null","","html-keyboard-response","215","330377","0.0-215.0","30OG32W0SVXDQDOC7S5VLTNQUBHNE1","A30RAYNDOWQ61S","3RSBJ6YZECCLSSQQCGKCTHC9OPAFOK","","<img src=""img/set1/S4.jpg"" width=""540"" height = ""360"" style=""border:16px solid orange"">","null","","","","","","","","","",""
"null","","html-keyboard-response","216","330578","0.0-216.0","30OG32W0SVXDQDOC7S5VLTNQUBHNE1","A30RAYNDOWQ61S","3RSBJ6YZECCLSSQQCGKCTHC9OPAFOK","","","null","","","","","","","","","",""
"606.1999998092651","","image-keyboard-response","217","331185","0.0-217.0","30OG32W0SVXDQDOC7S5VLTNQUBHNE1","A30RAYNDOWQ61S","3RSBJ6YZECCLSSQQCGKCTHC9OPAFOK","","img/set1/S2.jpg","68","2","random","68","random,structured_incentive,structured_load,structured_normal","4,2,1,2,2,3","1,2,4,3","true","","",""
"null","","html-keyboard-response","218","331537","0.0-218.0","30OG32W0SVXDQDOC7S5VLTNQUBHNE1","A30RAYNDOWQ61S","3RSBJ6YZECCLSSQQCGKCTHC9OPAFOK","","<img src=""img/set1/S2.jpg"" width=""540"" height = ""360"" style=""border:16px solid orange"">","null","","","","","","","","","",""
"null","","html-keyboard-response","219","331738","0.0-219.0","30OG32W0SVXDQDOC7S5VLTNQUBHNE1","A30RAYNDOWQ61S","3RSBJ6YZECCLSSQQCGKCTHC9OPAFOK","","","null","","","","","","","","","",""
"638.5999999046326","","image-keyboard-response","220","332377","0.0-220.0","30OG32W0SVXDQDOC7S5VLTNQUBHNE1","A30RAYNDOWQ61S","3RSBJ6YZECCLSSQQCGKCTHC9OPAFOK","","img/set1/S1.jpg","83","1","random","83","random,structured_incentive,structured_load,structured_normal","4,2,1,2,2,3","1,2,4,3","true","","",""
"null","","html-keyboard-response","221","332729","0.0-221.0","30OG32W0SVXDQDOC7S5VLTNQUBHNE1","A30RAYNDOWQ61S","3RSBJ6YZECCLSSQQCGKCTHC9OPAFOK","","<img src=""img/set1/S1.jpg"" width=""540"" height = ""360"" style=""border:16px solid orange"">","null","","","","","","","","","",""
"null","","html-keyboard-response","222","332930","0.0-222.0","30OG32W0SVXDQDOC7S5VLTNQUBHNE1","A30RAYNDOWQ61S","3RSBJ6YZECCLSSQQCGKCTHC9OPAFOK","","","null","","","","","","","","","",""
"526.1999998092651","","image-keyboard-response","223","333457","0.0-223.0","30OG32W0SVXDQDOC7S5VLTNQUBHNE1","A30RAYNDOWQ61S","3RSBJ6YZECCLSSQQCGKCTHC9OPAFOK","","img/set1/S2.jpg","68","2","random","68","random,structured_incentive,structured_load,structured_normal","4,2,1,2,2,3","1,2,4,3","true","","",""
"null","","html-keyboard-response","224","333813","0.0-224.0","30OG32W0SVXDQDOC7S5VLTNQUBHNE1","A30RAYNDOWQ61S","3RSBJ6YZECCLSSQQCGKCTHC9OPAFOK","","<img src=""img/set1/S2.jpg"" width=""540"" height = ""360"" style=""border:16px solid orange"">","null","","","","","","","","","",""
"null","","html-keyboard-response","225","334014","0.0-225.0","30OG32W0SVXDQDOC7S5VLTNQUBHNE1","A30RAYNDOWQ61S","3RSBJ6YZECCLSSQQCGKCTHC9OPAFOK","","","null","","","","","","","","","",""
"594.0999999046326","","image-keyboard-response","226","334609","0.0-226.0","30OG32W0SVXDQDOC7S5VLTNQUBHNE1","A30RAYNDOWQ61S","3RSBJ6YZECCLSSQQCGKCTHC9OPAFOK","","img/set1/S4.jpg","74","4","random","74","random,structured_incentive,structured_load,structured_normal","4,2,1,2,2,3","1,2,4,3","true","","",""
"null","","html-keyboard-response","227","334960","0.0-227.0","30OG32W0SVXDQDOC7S5VLTNQUBHNE1","A30RAYNDOWQ61S","3RSBJ6YZECCLSSQQCGKCTHC9OPAFOK","","<img src=""img/set1/S4.jpg"" width=""540"" height = ""360"" style=""border:16px solid orange"">","null","","","","","","","","","",""
"null","","html-keyboard-response","228","335161","0.0-228.0","30OG32W0SVXDQDOC7S5VLTNQUBHNE1","A30RAYNDOWQ61S","3RSBJ6YZECCLSSQQCGKCTHC9OPAFOK","","","null","","","","","","","","","",""
"615.1999998092651","","image-keyboard-response","229","335777","0.0-229.0","30OG32W0SVXDQDOC7S5VLTNQUBHNE1","A30RAYNDOWQ61S","3RSBJ6YZECCLSSQQCGKCTHC9OPAFOK","","img/set1/S2.jpg","68","2","random","68","random,structured_incentive,structured_load,structured_normal","4,2,1,2,2,3","1,2,4,3","true","","",""
"null","","html-keyboard-response","230","336130","0.0-230.0","30OG32W0SVXDQDOC7S5VLTNQUBHNE1","A30RAYNDOWQ61S","3RSBJ6YZECCLSSQQCGKCTHC9OPAFOK","","<img src=""img/set1/S2.jpg"" width=""540"" height = ""360"" style=""border:16px solid orange"">","null","","","","","","","","","",""
"null","","html-keyboard-response","231","336331","0.0-231.0","30OG32W0SVXDQDOC7S5VLTNQUBHNE1","A30RAYNDOWQ61S","3RSBJ6YZECCLSSQQCGKCTHC9OPAFOK","","","null","","","","","","","","","",""
"613.3000001907349","","image-keyboard-response","232","336946","0.0-232.0","30OG32W0SVXDQDOC7S5VLTNQUBHNE1","A30RAYNDOWQ61S","3RSBJ6YZECCLSSQQCGKCTHC9OPAFOK","","img/set1/S1.jpg","83","1","random","83","random,structured_incentive,structured_load,structured_normal","4,2,1,2,2,3","1,2,4,3","true","","",""
"null","","html-keyboard-response","233","337297","0.0-233.0","30OG32W0SVXDQDOC7S5VLTNQUBHNE1","A30RAYNDOWQ61S","3RSBJ6YZECCLSSQQCGKCTHC9OPAFOK","","<img src=""img/set1/S1.jpg"" width=""540"" height = ""360"" style=""border:16px solid orange"">","null","","","","","","","","","",""
"null","","html-keyboard-response","234","337498","0.0-234.0","30OG32W0SVXDQDOC7S5VLTNQUBHNE1","A30RAYNDOWQ61S","3RSBJ6YZECCLSSQQCGKCTHC9OPAFOK","","","null","","","","","","","","","",""
"576","","image-keyboard-response","235","338075","0.0-235.0","30OG32W0SVXDQDOC7S5VLTNQUBHNE1","A30RAYNDOWQ61S","3RSBJ6YZECCLSSQQCGKCTHC9OPAFOK","","img/set1/S1.jpg","83","1","random","83","random,structured_incentive,structured_load,structured_normal","4,2,1,2,2,3","1,2,4,3","true","","",""
"null","","html-keyboard-response","236","338428","0.0-236.0","30OG32W0SVXDQDOC7S5VLTNQUBHNE1","A30RAYNDOWQ61S","3RSBJ6YZECCLSSQQCGKCTHC9OPAFOK","","<img src=""img/set1/S1.jpg"" width=""540"" height = ""360"" style=""border:16px solid orange"">","null","","","","","","","","","",""
"null","","html-keyboard-response","237","338630","0.0-237.0","30OG32W0SVXDQDOC7S5VLTNQUBHNE1","A30RAYNDOWQ61S","3RSBJ6YZECCLSSQQCGKCTHC9OPAFOK","","","null","","","","","","","","","",""
"553.7000002861023","","image-keyboard-response","238","339185","0.0-238.0","30OG32W0SVXDQDOC7S5VLTNQUBHNE1","A30RAYNDOWQ61S","3RSBJ6YZECCLSSQQCGKCTHC9OPAFOK","","img/set1/S1.jpg","83","1","random","83","random,structured_incentive,structured_load,structured_normal","4,2,1,2,2,3","1,2,4,3","true","","",""
"null","","html-keyboard-response","239","339536","0.0-239.0","30OG32W0SVXDQDOC7S5VLTNQUBHNE1","A30RAYNDOWQ61S","3RSBJ6YZECCLSSQQCGKCTHC9OPAFOK","","<img src=""img/set1/S1.jpg"" width=""540"" height = ""360"" style=""border:16px solid orange"">","null","","","","","","","","","",""
"null","","html-keyboard-response","240","339737","0.0-240.0","30OG32W0SVXDQDOC7S5VLTNQUBHNE1","A30RAYNDOWQ61S","3RSBJ6YZECCLSSQQCGKCTHC9OPAFOK","","","null","","","","","","","","","",""
"542.5","","image-keyboard-response","241","340281","0.0-241.0","30OG32W0SVXDQDOC7S5VLTNQUBHNE1","A30RAYNDOWQ61S","3RSBJ6YZECCLSSQQCGKCTHC9OPAFOK","","img/set1/S4.jpg","74","4","random","74","random,structured_incentive,structured_load,structured_normal","4,2,1,2,2,3","1,2,4,3","true","","",""
"null","","html-keyboard-response","242","340633","0.0-242.0","30OG32W0SVXDQDOC7S5VLTNQUBHNE1","A30RAYNDOWQ61S","3RSBJ6YZECCLSSQQCGKCTHC9OPAFOK","","<img src=""img/set1/S4.jpg"" width=""540"" height = ""360"" style=""border:16px solid orange"">","null","","","","","","","","","",""
"null","","html-keyboard-response","243","340834","0.0-243.0","30OG32W0SVXDQDOC7S5VLTNQUBHNE1","A30RAYNDOWQ61S","3RSBJ6YZECCLSSQQCGKCTHC9OPAFOK","","","null","","","","","","","","","",""
"654.6000003814697","","image-keyboard-response","244","341489","0.0-244.0","30OG32W0SVXDQDOC7S5VLTNQUBHNE1","A30RAYNDOWQ61S","3RSBJ6YZECCLSSQQCGKCTHC9OPAFOK","","img/set1/S2.jpg","68","2","random","68","random,structured_incentive,structured_load,structured_normal","4,2,1,2,2,3","1,2,4,3","true","","",""
"null","","html-keyboard-response","245","341841","0.0-245.0","30OG32W0SVXDQDOC7S5VLTNQUBHNE1","A30RAYNDOWQ61S","3RSBJ6YZECCLSSQQCGKCTHC9OPAFOK","","<img src=""img/set1/S2.jpg"" width=""540"" height = ""360"" style=""border:16px solid orange"">","null","","","","","","","","","",""
"null","","html-keyboard-response","246","342042","0.0-246.0","30OG32W0SVXDQDOC7S5VLTNQUBHNE1","A30RAYNDOWQ61S","3RSBJ6YZECCLSSQQCGKCTHC9OPAFOK","","","null","","","","","","","","","",""
"775.3999996185303","","image-keyboard-response","247","342818","0.0-247.0","30OG32W0SVXDQDOC7S5VLTNQUBHNE1","A30RAYNDOWQ61S","3RSBJ6YZECCLSSQQCGKCTHC9OPAFOK","","img/set1/S4.jpg","74","4","random","74","random,structured_incentive,structured_load,structured_normal","4,2,1,2,2,3","1,2,4,3","true","","",""
"null","","html-keyboard-response","248","343170","0.0-248.0","30OG32W0SVXDQDOC7S5VLTNQUBHNE1","A30RAYNDOWQ61S","3RSBJ6YZECCLSSQQCGKCTHC9OPAFOK","","<img src=""img/set1/S4.jpg"" width=""540"" height = ""360"" style=""border:16px solid orange"">","null","","","","","","","","","",""
"null","","html-keyboard-response","249","343371","0.0-249.0","30OG32W0SVXDQDOC7S5VLTNQUBHNE1","A30RAYNDOWQ61S","3RSBJ6YZECCLSSQQCGKCTHC9OPAFOK","","","null","","","","","","","","","",""
"693.7999997138977","","image-keyboard-response","250","344065","0.0-250.0","30OG32W0SVXDQDOC7S5VLTNQUBHNE1","A30RAYNDOWQ61S","3RSBJ6YZECCLSSQQCGKCTHC9OPAFOK","","img/set1/S2.jpg","68","2","random","68","random,structured_incentive,structured_load,structured_normal","4,2,1,2,2,3","1,2,4,3","true","","",""
"null","","html-keyboard-response","251","344417","0.0-251.0","30OG32W0SVXDQDOC7S5VLTNQUBHNE1","A30RAYNDOWQ61S","3RSBJ6YZECCLSSQQCGKCTHC9OPAFOK","","<img src=""img/set1/S2.jpg"" width=""540"" height = ""360"" style=""border:16px solid orange"">","null","","","","","","","","","",""
"null","","html-keyboard-response","252","344618","0.0-252.0","30OG32W0SVXDQDOC7S5VLTNQUBHNE1","A30RAYNDOWQ61S","3RSBJ6YZECCLSSQQCGKCTHC9OPAFOK","","","null","","","","","","","","","",""
"582.5","","image-keyboard-response","253","345201","0.0-253.0","30OG32W0SVXDQDOC7S5VLTNQUBHNE1","A30RAYNDOWQ61S","3RSBJ6YZECCLSSQQCGKCTHC9OPAFOK","","img/set1/S1.jpg","83","1","random","83","random,structured_incentive,structured_load,structured_normal","4,2,1,2,2,3","1,2,4,3","true","","",""
"null","","html-keyboard-response","254","345553","0.0-254.0","30OG32W0SVXDQDOC7S5VLTNQUBHNE1","A30RAYNDOWQ61S","3RSBJ6YZECCLSSQQCGKCTHC9OPAFOK","","<img src=""img/set1/S1.jpg"" width=""540"" height = ""360"" style=""border:16px solid orange"">","null","","","","","","","","","",""
"null","","html-keyboard-response","255","345754","0.0-255.0","30OG32W0SVXDQDOC7S5VLTNQUBHNE1","A30RAYNDOWQ61S","3RSBJ6YZECCLSSQQCGKCTHC9OPAFOK","","","null","","","","","","","","","",""
"688.3000001907349","","image-keyboard-response","256","346443","0.0-256.0","30OG32W0SVXDQDOC7S5VLTNQUBHNE1","A30RAYNDOWQ61S","3RSBJ6YZECCLSSQQCGKCTHC9OPAFOK","","img/set1/S2.jpg","68","2","random","68","random,structured_incentive,structured_load,structured_normal","4,2,1,2,2,3","1,2,4,3","true","","",""
"null","","html-keyboard-response","257","346795","0.0-257.0","30OG32W0SVXDQDOC7S5VLTNQUBHNE1","A30RAYNDOWQ61S","3RSBJ6YZECCLSSQQCGKCTHC9OPAFOK","","<img src=""img/set1/S2.jpg"" width=""540"" height = ""360"" style=""border:16px solid orange"">","null","","","","","","","","","",""
"null","","html-keyboard-response","258","346996","0.0-258.0","30OG32W0SVXDQDOC7S5VLTNQUBHNE1","A30RAYNDOWQ61S","3RSBJ6YZECCLSSQQCGKCTHC9OPAFOK","","","null","","","","","","","","","",""
"742.3000001907349","","image-keyboard-response","259","347739","0.0-259.0","30OG32W0SVXDQDOC7S5VLTNQUBHNE1","A30RAYNDOWQ61S","3RSBJ6YZECCLSSQQCGKCTHC9OPAFOK","","img/set1/S1.jpg","83","1","random","83","random,structured_incentive,structured_load,structured_normal","4,2,1,2,2,3","1,2,4,3","true","","",""
"null","","html-keyboard-response","260","348091","0.0-260.0","30OG32W0SVXDQDOC7S5VLTNQUBHNE1","A30RAYNDOWQ61S","3RSBJ6YZECCLSSQQCGKCTHC9OPAFOK","","<img src=""img/set1/S1.jpg"" width=""540"" height = ""360"" style=""border:16px solid orange"">","null","","","","","","","","","",""
"null","","html-keyboard-response","261","348292","0.0-261.0","30OG32W0SVXDQDOC7S5VLTNQUBHNE1","A30RAYNDOWQ61S","3RSBJ6YZECCLSSQQCGKCTHC9OPAFOK","","","null","","","","","","","","","",""
"589.4000000953674","","image-keyboard-response","262","348883","0.0-262.0","30OG32W0SVXDQDOC7S5VLTNQUBHNE1","A30RAYNDOWQ61S","3RSBJ6YZECCLSSQQCGKCTHC9OPAFOK","","img/set1/S2.jpg","68","2","random","68","random,structured_incentive,structured_load,structured_normal","4,2,1,2,2,3","1,2,4,3","true","","",""
"null","","html-keyboard-response","263","349235","0.0-263.0","30OG32W0SVXDQDOC7S5VLTNQUBHNE1","A30RAYNDOWQ61S","3RSBJ6YZECCLSSQQCGKCTHC9OPAFOK","","<img src=""img/set1/S2.jpg"" width=""540"" height = ""360"" style=""border:16px solid orange"">","null","","","","","","","","","",""
"null","","html-keyboard-response","264","349436","0.0-264.0","30OG32W0SVXDQDOC7S5VLTNQUBHNE1","A30RAYNDOWQ61S","3RSBJ6YZECCLSSQQCGKCTHC9OPAFOK","","","null","","","","","","","","","",""
"661.4000000953674","","image-keyboard-response","265","350098","0.0-265.0","30OG32W0SVXDQDOC7S5VLTNQUBHNE1","A30RAYNDOWQ61S","3RSBJ6YZECCLSSQQCGKCTHC9OPAFOK","","img/set1/S2.jpg","68","2","random","68","random,structured_incentive,structured_load,structured_normal","4,2,1,2,2,3","1,2,4,3","true","","",""
"null","","html-keyboard-response","266","350450","0.0-266.0","30OG32W0SVXDQDOC7S5VLTNQUBHNE1","A30RAYNDOWQ61S","3RSBJ6YZECCLSSQQCGKCTHC9OPAFOK","","<img src=""img/set1/S2.jpg"" width=""540"" height = ""360"" style=""border:16px solid orange"">","null","","","","","","","","","",""
"null","","html-keyboard-response","267","350651","0.0-267.0","30OG32W0SVXDQDOC7S5VLTNQUBHNE1","A30RAYNDOWQ61S","3RSBJ6YZECCLSSQQCGKCTHC9OPAFOK","","","null","","","","","","","","","",""
"629.5999999046326","","image-keyboard-response","268","351282","0.0-268.0","30OG32W0SVXDQDOC7S5VLTNQUBHNE1","A30RAYNDOWQ61S","3RSBJ6YZECCLSSQQCGKCTHC9OPAFOK","","img/set1/S3.jpg","72","3","random","72","random,structured_incentive,structured_load,structured_normal","4,2,1,2,2,3","1,2,4,3","true","","",""
"null","","html-keyboard-response","269","351634","0.0-269.0","30OG32W0SVXDQDOC7S5VLTNQUBHNE1","A30RAYNDOWQ61S","3RSBJ6YZECCLSSQQCGKCTHC9OPAFOK","","<img src=""img/set1/S3.jpg"" width=""540"" height = ""360"" style=""border:16px solid orange"">","null","","","","","","","","","",""
"null","","html-keyboard-response","270","351835","0.0-270.0","30OG32W0SVXDQDOC7S5VLTNQUBHNE1","A30RAYNDOWQ61S","3RSBJ6YZECCLSSQQCGKCTHC9OPAFOK","","","null","","","","","","","","","",""
"620.9000000953674","","image-keyboard-response","271","352457","0.0-271.0","30OG32W0SVXDQDOC7S5VLTNQUBHNE1","A30RAYNDOWQ61S","3RSBJ6YZECCLSSQQCGKCTHC9OPAFOK","","img/set1/S1.jpg","83","1","random","83","random,structured_incentive,structured_load,structured_normal","4,2,1,2,2,3","1,2,4,3","true","","",""
"null","","html-keyboard-response","272","352808","0.0-272.0","30OG32W0SVXDQDOC7S5VLTNQUBHNE1","A30RAYNDOWQ61S","3RSBJ6YZECCLSSQQCGKCTHC9OPAFOK","","<img src=""img/set1/S1.jpg"" width=""540"" height = ""360"" style=""border:16px solid orange"">","null","","","","","","","","","",""
"null","","html-keyboard-response","273","353009","0.0-273.0","30OG32W0SVXDQDOC7S5VLTNQUBHNE1","A30RAYNDOWQ61S","3RSBJ6YZECCLSSQQCGKCTHC9OPAFOK","","","null","","","","","","","","","",""
"622.9000000953674","","image-keyboard-response","274","353633","0.0-274.0","30OG32W0SVXDQDOC7S5VLTNQUBHNE1","A30RAYNDOWQ61S","3RSBJ6YZECCLSSQQCGKCTHC9OPAFOK","","img/set1/S1.jpg","68","1","random","83","random,structured_incentive,structured_load,structured_normal","4,2,1,2,2,3","1,2,4,3","false","","",""
"null","","html-keyboard-response","275","353985","0.0-275.0","30OG32W0SVXDQDOC7S5VLTNQUBHNE1","A30RAYNDOWQ61S","3RSBJ6YZECCLSSQQCGKCTHC9OPAFOK","","<img src=""img/set1/S1.jpg"" width=""540"" height = ""360"">","null","","","","","","","","","",""
"null","","html-keyboard-response","276","354186","0.0-276.0","30OG32W0SVXDQDOC7S5VLTNQUBHNE1","A30RAYNDOWQ61S","3RSBJ6YZECCLSSQQCGKCTHC9OPAFOK","","","null","","","","","","","","","",""
"742","","image-keyboard-response","277","354929","0.0-277.0","30OG32W0SVXDQDOC7S5VLTNQUBHNE1","A30RAYNDOWQ61S","3RSBJ6YZECCLSSQQCGKCTHC9OPAFOK","","img/set1/S3.jpg","72","3","random","72","random,structured_incentive,structured_load,structured_normal","4,2,1,2,2,3","1,2,4,3","true","","",""
"null","","html-keyboard-response","278","355280","0.0-278.0","30OG32W0SVXDQDOC7S5VLTNQUBHNE1","A30RAYNDOWQ61S","3RSBJ6YZECCLSSQQCGKCTHC9OPAFOK","","<img src=""img/set1/S3.jpg"" width=""540"" height = ""360"" style=""border:16px solid orange"">","null","","","","","","","","","",""
"null","","html-keyboard-response","279","355494","0.0-279.0","30OG32W0SVXDQDOC7S5VLTNQUBHNE1","A30RAYNDOWQ61S","3RSBJ6YZECCLSSQQCGKCTHC9OPAFOK","","","null","","","","","","","","","",""
"641.1999998092651","","image-keyboard-response","280","356137","0.0-280.0","30OG32W0SVXDQDOC7S5VLTNQUBHNE1","A30RAYNDOWQ61S","3RSBJ6YZECCLSSQQCGKCTHC9OPAFOK","","img/set1/S1.jpg","83","1","random","83","random,structured_incentive,structured_load,structured_normal","4,2,1,2,2,3","1,2,4,3","true","","",""
"null","","html-keyboard-response","281","356489","0.0-281.0","30OG32W0SVXDQDOC7S5VLTNQUBHNE1","A30RAYNDOWQ61S","3RSBJ6YZECCLSSQQCGKCTHC9OPAFOK","","<img src=""img/set1/S1.jpg"" width=""540"" height = ""360"" style=""border:16px solid orange"">","null","","","","","","","","","",""
"null","","html-keyboard-response","282","356690","0.0-282.0","30OG32W0SVXDQDOC7S5VLTNQUBHNE1","A30RAYNDOWQ61S","3RSBJ6YZECCLSSQQCGKCTHC9OPAFOK","","","null","","","","","","","","","",""
"646.9000000953674","","image-keyboard-response","283","357337","0.0-283.0","30OG32W0SVXDQDOC7S5VLTNQUBHNE1","A30RAYNDOWQ61S","3RSBJ6YZECCLSSQQCGKCTHC9OPAFOK","","img/set1/S1.jpg","83","1","random","83","random,structured_incentive,structured_load,structured_normal","4,2,1,2,2,3","1,2,4,3","true","","",""
"null","","html-keyboard-response","284","357689","0.0-284.0","30OG32W0SVXDQDOC7S5VLTNQUBHNE1","A30RAYNDOWQ61S","3RSBJ6YZECCLSSQQCGKCTHC9OPAFOK","","<img src=""img/set1/S1.jpg"" width=""540"" height = ""360"" style=""border:16px solid orange"">","null","","","","","","","","","",""
"null","","html-keyboard-response","285","357890","0.0-285.0","30OG32W0SVXDQDOC7S5VLTNQUBHNE1","A30RAYNDOWQ61S","3RSBJ6YZECCLSSQQCGKCTHC9OPAFOK","","","null","","","","","","","","","",""
"543.5","","image-keyboard-response","286","358434","0.0-286.0","30OG32W0SVXDQDOC7S5VLTNQUBHNE1","A30RAYNDOWQ61S","3RSBJ6YZECCLSSQQCGKCTHC9OPAFOK","","img/set1/S1.jpg","83","1","random","83","random,structured_incentive,structured_load,structured_normal","4,2,1,2,2,3","1,2,4,3","true","","",""
"null","","html-keyboard-response","287","358786","0.0-287.0","30OG32W0SVXDQDOC7S5VLTNQUBHNE1","A30RAYNDOWQ61S","3RSBJ6YZECCLSSQQCGKCTHC9OPAFOK","","<img src=""img/set1/S1.jpg"" width=""540"" height = ""360"" style=""border:16px solid orange"">","null","","","","","","","","","",""
"null","","html-keyboard-response","288","358987","0.0-288.0","30OG32W0SVXDQDOC7S5VLTNQUBHNE1","A30RAYNDOWQ61S","3RSBJ6YZECCLSSQQCGKCTHC9OPAFOK","","","null","","","","","","","","","",""
"613","","image-keyboard-response","289","359601","0.0-289.0","30OG32W0SVXDQDOC7S5VLTNQUBHNE1","A30RAYNDOWQ61S","3RSBJ6YZECCLSSQQCGKCTHC9OPAFOK","","img/set1/S3.jpg","72","3","random","72","random,structured_incentive,structured_load,structured_normal","4,2,1,2,2,3","1,2,4,3","true","","",""
"null","","html-keyboard-response","290","359953","0.0-290.0","30OG32W0SVXDQDOC7S5VLTNQUBHNE1","A30RAYNDOWQ61S","3RSBJ6YZECCLSSQQCGKCTHC9OPAFOK","","<img src=""img/set1/S3.jpg"" width=""540"" height = ""360"" style=""border:16px solid orange"">","null","","","","","","","","","",""
"null","","html-keyboard-response","291","360154","0.0-291.0","30OG32W0SVXDQDOC7S5VLTNQUBHNE1","A30RAYNDOWQ61S","3RSBJ6YZECCLSSQQCGKCTHC9OPAFOK","","","null","","","","","","","","","",""
"670.9000000953674","","image-keyboard-response","292","360825","0.0-292.0","30OG32W0SVXDQDOC7S5VLTNQUBHNE1","A30RAYNDOWQ61S","3RSBJ6YZECCLSSQQCGKCTHC9OPAFOK","","img/set1/S2.jpg","68","2","random","68","random,structured_incentive,structured_load,structured_normal","4,2,1,2,2,3","1,2,4,3","true","","",""
"null","","html-keyboard-response","293","361177","0.0-293.0","30OG32W0SVXDQDOC7S5VLTNQUBHNE1","A30RAYNDOWQ61S","3RSBJ6YZECCLSSQQCGKCTHC9OPAFOK","","<img src=""img/set1/S2.jpg"" width=""540"" height = ""360"" style=""border:16px solid orange"">","null","","","","","","","","","",""
"null","","html-keyboard-response","294","361378","0.0-294.0","30OG32W0SVXDQDOC7S5VLTNQUBHNE1","A30RAYNDOWQ61S","3RSBJ6YZECCLSSQQCGKCTHC9OPAFOK","","","null","","","","","","","","","",""
"558.5999999046326","","image-keyboard-response","295","361937","0.0-295.0","30OG32W0SVXDQDOC7S5VLTNQUBHNE1","A30RAYNDOWQ61S","3RSBJ6YZECCLSSQQCGKCTHC9OPAFOK","","img/set1/S4.jpg","74","4","random","74","random,structured_incentive,structured_load,structured_normal","4,2,1,2,2,3","1,2,4,3","true","","",""
"null","","html-keyboard-response","296","362289","0.0-296.0","30OG32W0SVXDQDOC7S5VLTNQUBHNE1","A30RAYNDOWQ61S","3RSBJ6YZECCLSSQQCGKCTHC9OPAFOK","","<img src=""img/set1/S4.jpg"" width=""540"" height = ""360"" style=""border:16px solid orange"">","null","","","","","","","","","",""
"null","","html-keyboard-response","297","362490","0.0-297.0","30OG32W0SVXDQDOC7S5VLTNQUBHNE1","A30RAYNDOWQ61S","3RSBJ6YZECCLSSQQCGKCTHC9OPAFOK","","","null","","","","","","","","","",""
"638.2999997138977","","image-keyboard-response","298","363129","0.0-298.0","30OG32W0SVXDQDOC7S5VLTNQUBHNE1","A30RAYNDOWQ61S","3RSBJ6YZECCLSSQQCGKCTHC9OPAFOK","","img/set1/S1.jpg","83","1","random","83","random,structured_incentive,structured_load,structured_normal","4,2,1,2,2,3","1,2,4,3","true","","",""
"null","","html-keyboard-response","299","363481","0.0-299.0","30OG32W0SVXDQDOC7S5VLTNQUBHNE1","A30RAYNDOWQ61S","3RSBJ6YZECCLSSQQCGKCTHC9OPAFOK","","<img src=""img/set1/S1.jpg"" width=""540"" height = ""360"" style=""border:16px solid orange"">","null","","","","","","","","","",""
"null","","html-keyboard-response","300","363682","0.0-300.0","30OG32W0SVXDQDOC7S5VLTNQUBHNE1","A30RAYNDOWQ61S","3RSBJ6YZECCLSSQQCGKCTHC9OPAFOK","","","null","","","","","","","","","",""
"590.3000001907349","","image-keyboard-response","301","364273","0.0-301.0","30OG32W0SVXDQDOC7S5VLTNQUBHNE1","A30RAYNDOWQ61S","3RSBJ6YZECCLSSQQCGKCTHC9OPAFOK","","img/set1/S4.jpg","74","4","random","74","random,structured_incentive,structured_load,structured_normal","4,2,1,2,2,3","1,2,4,3","true","","",""
"null","","html-keyboard-response","302","364624","0.0-302.0","30OG32W0SVXDQDOC7S5VLTNQUBHNE1","A30RAYNDOWQ61S","3RSBJ6YZECCLSSQQCGKCTHC9OPAFOK","","<img src=""img/set1/S4.jpg"" width=""540"" height = ""360"" style=""border:16px solid orange"">","null","","","","","","","","","",""
"null","","html-keyboard-response","303","364825","0.0-303.0","30OG32W0SVXDQDOC7S5VLTNQUBHNE1","A30RAYNDOWQ61S","3RSBJ6YZECCLSSQQCGKCTHC9OPAFOK","","","null","","","","","","","","","",""
"499","","image-keyboard-response","304","365325","0.0-304.0","30OG32W0SVXDQDOC7S5VLTNQUBHNE1","A30RAYNDOWQ61S","3RSBJ6YZECCLSSQQCGKCTHC9OPAFOK","","img/set1/S4.jpg","74","4","random","74","random,structured_incentive,structured_load,structured_normal","4,2,1,2,2,3","1,2,4,3","true","","",""
"null","","html-keyboard-response","305","365679","0.0-305.0","30OG32W0SVXDQDOC7S5VLTNQUBHNE1","A30RAYNDOWQ61S","3RSBJ6YZECCLSSQQCGKCTHC9OPAFOK","","<img src=""img/set1/S4.jpg"" width=""540"" height = ""360"" style=""border:16px solid orange"">","null","","","","","","","","","",""
"null","","html-keyboard-response","306","365880","0.0-306.0","30OG32W0SVXDQDOC7S5VLTNQUBHNE1","A30RAYNDOWQ61S","3RSBJ6YZECCLSSQQCGKCTHC9OPAFOK","","","null","","","","","","","","","",""
"656.1999998092651","","image-keyboard-response","307","366537","0.0-307.0","30OG32W0SVXDQDOC7S5VLTNQUBHNE1","A30RAYNDOWQ61S","3RSBJ6YZECCLSSQQCGKCTHC9OPAFOK","","img/set1/S1.jpg","83","1","random","83","random,structured_incentive,structured_load,structured_normal","4,2,1,2,2,3","1,2,4,3","true","","",""
"null","","html-keyboard-response","308","366889","0.0-308.0","30OG32W0SVXDQDOC7S5VLTNQUBHNE1","A30RAYNDOWQ61S","3RSBJ6YZECCLSSQQCGKCTHC9OPAFOK","","<img src=""img/set1/S1.jpg"" width=""540"" height = ""360"" style=""border:16px solid orange"">","null","","","","","","","","","",""
"null","","html-keyboard-response","309","367090","0.0-309.0","30OG32W0SVXDQDOC7S5VLTNQUBHNE1","A30RAYNDOWQ61S","3RSBJ6YZECCLSSQQCGKCTHC9OPAFOK","","","null","","","","","","","","","",""
"606","","image-keyboard-response","310","367697","0.0-310.0","30OG32W0SVXDQDOC7S5VLTNQUBHNE1","A30RAYNDOWQ61S","3RSBJ6YZECCLSSQQCGKCTHC9OPAFOK","","img/set1/S3.jpg","72","3","random","72","random,structured_incentive,structured_load,structured_normal","4,2,1,2,2,3","1,2,4,3","true","","",""
"null","","html-keyboard-response","311","368049","0.0-311.0","30OG32W0SVXDQDOC7S5VLTNQUBHNE1","A30RAYNDOWQ61S","3RSBJ6YZECCLSSQQCGKCTHC9OPAFOK","","<img src=""img/set1/S3.jpg"" width=""540"" height = ""360"" style=""border:16px solid orange"">","null","","","","","","","","","",""
"null","","html-keyboard-response","312","368250","0.0-312.0","30OG32W0SVXDQDOC7S5VLTNQUBHNE1","A30RAYNDOWQ61S","3RSBJ6YZECCLSSQQCGKCTHC9OPAFOK","","","null","","","","","","","","","",""
"702.3999996185303","","image-keyboard-response","313","368953","0.0-313.0","30OG32W0SVXDQDOC7S5VLTNQUBHNE1","A30RAYNDOWQ61S","3RSBJ6YZECCLSSQQCGKCTHC9OPAFOK","","img/set1/S2.jpg","68","2","random","68","random,structured_incentive,structured_load,structured_normal","4,2,1,2,2,3","1,2,4,3","true","","",""
"null","","html-keyboard-response","314","369305","0.0-314.0","30OG32W0SVXDQDOC7S5VLTNQUBHNE1","A30RAYNDOWQ61S","3RSBJ6YZECCLSSQQCGKCTHC9OPAFOK","","<img src=""img/set1/S2.jpg"" width=""540"" height = ""360"" style=""border:16px solid orange"">","null","","","","","","","","","",""
"null","","html-keyboard-response","315","369506","0.0-315.0","30OG32W0SVXDQDOC7S5VLTNQUBHNE1","A30RAYNDOWQ61S","3RSBJ6YZECCLSSQQCGKCTHC9OPAFOK","","","null","","","","","","","","","",""
"725.6999998092651","","image-keyboard-response","316","370233","0.0-316.0","30OG32W0SVXDQDOC7S5VLTNQUBHNE1","A30RAYNDOWQ61S","3RSBJ6YZECCLSSQQCGKCTHC9OPAFOK","","img/set1/S3.jpg","74","3","random","72","random,structured_incentive,structured_load,structured_normal","4,2,1,2,2,3","1,2,4,3","false","","",""
"null","","html-keyboard-response","317","370584","0.0-317.0","30OG32W0SVXDQDOC7S5VLTNQUBHNE1","A30RAYNDOWQ61S","3RSBJ6YZECCLSSQQCGKCTHC9OPAFOK","","<img src=""img/set1/S3.jpg"" width=""540"" height = ""360"">","null","","","","","","","","","",""
"null","","html-keyboard-response","318","370785","0.0-318.0","30OG32W0SVXDQDOC7S5VLTNQUBHNE1","A30RAYNDOWQ61S","3RSBJ6YZECCLSSQQCGKCTHC9OPAFOK","","","null","","","","","","","","","",""
"662.8000001907349","","image-keyboard-response","319","371449","0.0-319.0","30OG32W0SVXDQDOC7S5VLTNQUBHNE1","A30RAYNDOWQ61S","3RSBJ6YZECCLSSQQCGKCTHC9OPAFOK","","img/set1/S1.jpg","83","1","random","83","random,structured_incentive,structured_load,structured_normal","4,2,1,2,2,3","1,2,4,3","true","","",""
"null","","html-keyboard-response","320","371801","0.0-320.0","30OG32W0SVXDQDOC7S5VLTNQUBHNE1","A30RAYNDOWQ61S","3RSBJ6YZECCLSSQQCGKCTHC9OPAFOK","","<img src=""img/set1/S1.jpg"" width=""540"" height = ""360"" style=""border:16px solid orange"">","null","","","","","","","","","",""
"null","","html-keyboard-response","321","372001","0.0-321.0","30OG32W0SVXDQDOC7S5VLTNQUBHNE1","A30RAYNDOWQ61S","3RSBJ6YZECCLSSQQCGKCTHC9OPAFOK","","","null","","","","","","","","","",""
"454.6000003814697","","image-keyboard-response","322","372457","0.0-322.0","30OG32W0SVXDQDOC7S5VLTNQUBHNE1","A30RAYNDOWQ61S","3RSBJ6YZECCLSSQQCGKCTHC9OPAFOK","","img/set1/S3.jpg","72","3","random","72","random,structured_incentive,structured_load,structured_normal","4,2,1,2,2,3","1,2,4,3","true","","",""
"null","","html-keyboard-response","323","372808","0.0-323.0","30OG32W0SVXDQDOC7S5VLTNQUBHNE1","A30RAYNDOWQ61S","3RSBJ6YZECCLSSQQCGKCTHC9OPAFOK","","<img src=""img/set1/S3.jpg"" width=""540"" height = ""360"" style=""border:16px solid orange"">","null","","","","","","","","","",""
"null","","html-keyboard-response","324","373009","0.0-324.0","30OG32W0SVXDQDOC7S5VLTNQUBHNE1","A30RAYNDOWQ61S","3RSBJ6YZECCLSSQQCGKCTHC9OPAFOK","","","null","","","","","","","","","",""
"662.7999997138977","","image-keyboard-response","325","373673","0.0-325.0","30OG32W0SVXDQDOC7S5VLTNQUBHNE1","A30RAYNDOWQ61S","3RSBJ6YZECCLSSQQCGKCTHC9OPAFOK","","img/set1/S1.jpg","83","1","random","83","random,structured_incentive,structured_load,structured_normal","4,2,1,2,2,3","1,2,4,3","true","","",""
"null","","html-keyboard-response","326","374025","0.0-326.0","30OG32W0SVXDQDOC7S5VLTNQUBHNE1","A30RAYNDOWQ61S","3RSBJ6YZECCLSSQQCGKCTHC9OPAFOK","","<img src=""img/set1/S1.jpg"" width=""540"" height = ""360"" style=""border:16px solid orange"">","null","","","","","","","","","",""
"null","","html-keyboard-response","327","374236","0.0-327.0","30OG32W0SVXDQDOC7S5VLTNQUBHNE1","A30RAYNDOWQ61S","3RSBJ6YZECCLSSQQCGKCTHC9OPAFOK","","","null","","","","","","","","","",""
"667.9000000953674","","image-keyboard-response","328","374905","0.0-328.0","30OG32W0SVXDQDOC7S5VLTNQUBHNE1","A30RAYNDOWQ61S","3RSBJ6YZECCLSSQQCGKCTHC9OPAFOK","","img/set1/S1.jpg","83","1","random","83","random,structured_incentive,structured_load,structured_normal","4,2,1,2,2,3","1,2,4,3","true","","",""
"null","","html-keyboard-response","329","375263","0.0-329.0","30OG32W0SVXDQDOC7S5VLTNQUBHNE1","A30RAYNDOWQ61S","3RSBJ6YZECCLSSQQCGKCTHC9OPAFOK","","<img src=""img/set1/S1.jpg"" width=""540"" height = ""360"" style=""border:16px solid orange"">","null","","","","","","","","","",""
"null","","html-keyboard-response","330","375465","0.0-330.0","30OG32W0SVXDQDOC7S5VLTNQUBHNE1","A30RAYNDOWQ61S","3RSBJ6YZECCLSSQQCGKCTHC9OPAFOK","","","null","","","","","","","","","",""
"527.8000001907349","","image-keyboard-response","331","375993","0.0-331.0","30OG32W0SVXDQDOC7S5VLTNQUBHNE1","A30RAYNDOWQ61S","3RSBJ6YZECCLSSQQCGKCTHC9OPAFOK","","img/set1/S3.jpg","72","3","random","72","random,structured_incentive,structured_load,structured_normal","4,2,1,2,2,3","1,2,4,3","true","","",""
"null","","html-keyboard-response","332","376345","0.0-332.0","30OG32W0SVXDQDOC7S5VLTNQUBHNE1","A30RAYNDOWQ61S","3RSBJ6YZECCLSSQQCGKCTHC9OPAFOK","","<img src=""img/set1/S3.jpg"" width=""540"" height = ""360"" style=""border:16px solid orange"">","null","","","","","","","","","",""
"null","","html-keyboard-response","333","376545","0.0-333.0","30OG32W0SVXDQDOC7S5VLTNQUBHNE1","A30RAYNDOWQ61S","3RSBJ6YZECCLSSQQCGKCTHC9OPAFOK","","","null","","","","","","","","","",""
"598.8000001907349","","image-keyboard-response","334","377145","0.0-334.0","30OG32W0SVXDQDOC7S5VLTNQUBHNE1","A30RAYNDOWQ61S","3RSBJ6YZECCLSSQQCGKCTHC9OPAFOK","","img/set1/S4.jpg","74","4","random","74","random,structured_incentive,structured_load,structured_normal","4,2,1,2,2,3","1,2,4,3","true","","",""
"null","","html-keyboard-response","335","377497","0.0-335.0","30OG32W0SVXDQDOC7S5VLTNQUBHNE1","A30RAYNDOWQ61S","3RSBJ6YZECCLSSQQCGKCTHC9OPAFOK","","<img src=""img/set1/S4.jpg"" width=""540"" height = ""360"" style=""border:16px solid orange"">","null","","","","","","","","","",""
"null","","html-keyboard-response","336","377698","0.0-336.0","30OG32W0SVXDQDOC7S5VLTNQUBHNE1","A30RAYNDOWQ61S","3RSBJ6YZECCLSSQQCGKCTHC9OPAFOK","","","null","","","","","","","","","",""
"958.6000003814697","","image-keyboard-response","337","378657","0.0-337.0","30OG32W0SVXDQDOC7S5VLTNQUBHNE1","A30RAYNDOWQ61S","3RSBJ6YZECCLSSQQCGKCTHC9OPAFOK","","img/set1/S1.jpg","83","1","random","83","random,structured_incentive,structured_load,structured_normal","4,2,1,2,2,3","1,2,4,3","true","","",""
"null","","html-keyboard-response","338","379009","0.0-338.0","30OG32W0SVXDQDOC7S5VLTNQUBHNE1","A30RAYNDOWQ61S","3RSBJ6YZECCLSSQQCGKCTHC9OPAFOK","","<img src=""img/set1/S1.jpg"" width=""540"" height = ""360"" style=""border:16px solid orange"">","null","","","","","","","","","",""
"null","","html-keyboard-response","339","379210","0.0-339.0","30OG32W0SVXDQDOC7S5VLTNQUBHNE1","A30RAYNDOWQ61S","3RSBJ6YZECCLSSQQCGKCTHC9OPAFOK","","","null","","","","","","","","","",""
"614.5999999046326","","image-keyboard-response","340","379825","0.0-340.0","30OG32W0SVXDQDOC7S5VLTNQUBHNE1","A30RAYNDOWQ61S","3RSBJ6YZECCLSSQQCGKCTHC9OPAFOK","","img/set1/S4.jpg","72","4","random","74","random,structured_incentive,structured_load,structured_normal","4,2,1,2,2,3","1,2,4,3","false","","",""
"null","","html-keyboard-response","341","380177","0.0-341.0","30OG32W0SVXDQDOC7S5VLTNQUBHNE1","A30RAYNDOWQ61S","3RSBJ6YZECCLSSQQCGKCTHC9OPAFOK","","<img src=""img/set1/S4.jpg"" width=""540"" height = ""360"">","null","","","","","","","","","",""
"null","","html-keyboard-response","342","380378","0.0-342.0","30OG32W0SVXDQDOC7S5VLTNQUBHNE1","A30RAYNDOWQ61S","3RSBJ6YZECCLSSQQCGKCTHC9OPAFOK","","","null","","","","","","","","","",""
"798.7999997138977","","image-keyboard-response","343","381177","0.0-343.0","30OG32W0SVXDQDOC7S5VLTNQUBHNE1","A30RAYNDOWQ61S","3RSBJ6YZECCLSSQQCGKCTHC9OPAFOK","","img/set1/S1.jpg","83","1","random","83","random,structured_incentive,structured_load,structured_normal","4,2,1,2,2,3","1,2,4,3","true","","",""
"null","","html-keyboard-response","344","381529","0.0-344.0","30OG32W0SVXDQDOC7S5VLTNQUBHNE1","A30RAYNDOWQ61S","3RSBJ6YZECCLSSQQCGKCTHC9OPAFOK","","<img src=""img/set1/S1.jpg"" width=""540"" height = ""360"" style=""border:16px solid orange"">","null","","","","","","","","","",""
"null","","html-keyboard-response","345","381730","0.0-345.0","30OG32W0SVXDQDOC7S5VLTNQUBHNE1","A30RAYNDOWQ61S","3RSBJ6YZECCLSSQQCGKCTHC9OPAFOK","","","null","","","","","","","","","",""
"630.5","","image-keyboard-response","346","382361","0.0-346.0","30OG32W0SVXDQDOC7S5VLTNQUBHNE1","A30RAYNDOWQ61S","3RSBJ6YZECCLSSQQCGKCTHC9OPAFOK","","img/set1/S4.jpg","74","4","random","74","random,structured_incentive,structured_load,structured_normal","4,2,1,2,2,3","1,2,4,3","true","","",""
"null","","html-keyboard-response","347","382713","0.0-347.0","30OG32W0SVXDQDOC7S5VLTNQUBHNE1","A30RAYNDOWQ61S","3RSBJ6YZECCLSSQQCGKCTHC9OPAFOK","","<img src=""img/set1/S4.jpg"" width=""540"" height = ""360"" style=""border:16px solid orange"">","null","","","","","","","","","",""
"null","","html-keyboard-response","348","382917","0.0-348.0","30OG32W0SVXDQDOC7S5VLTNQUBHNE1","A30RAYNDOWQ61S","3RSBJ6YZECCLSSQQCGKCTHC9OPAFOK","","","null","","","","","","","","","",""
"850.7999997138977","","image-keyboard-response","349","383769","0.0-349.0","30OG32W0SVXDQDOC7S5VLTNQUBHNE1","A30RAYNDOWQ61S","3RSBJ6YZECCLSSQQCGKCTHC9OPAFOK","","img/set1/S3.jpg","68","3","random","72","random,structured_incentive,structured_load,structured_normal","4,2,1,2,2,3","1,2,4,3","false","","",""
"null","","html-keyboard-response","350","384121","0.0-350.0","30OG32W0SVXDQDOC7S5VLTNQUBHNE1","A30RAYNDOWQ61S","3RSBJ6YZECCLSSQQCGKCTHC9OPAFOK","","<img src=""img/set1/S3.jpg"" width=""540"" height = ""360"">","null","","","","","","","","","",""
"null","","html-keyboard-response","351","384322","0.0-351.0","30OG32W0SVXDQDOC7S5VLTNQUBHNE1","A30RAYNDOWQ61S","3RSBJ6YZECCLSSQQCGKCTHC9OPAFOK","","","null","","","","","","","","","",""
"534.1999998092651","","image-keyboard-response","352","384857","0.0-352.0","30OG32W0SVXDQDOC7S5VLTNQUBHNE1","A30RAYNDOWQ61S","3RSBJ6YZECCLSSQQCGKCTHC9OPAFOK","","img/set1/S3.jpg","72","3","random","72","random,structured_incentive,structured_load,structured_normal","4,2,1,2,2,3","1,2,4,3","true","","",""
"null","","html-keyboard-response","353","385208","0.0-353.0","30OG32W0SVXDQDOC7S5VLTNQUBHNE1","A30RAYNDOWQ61S","3RSBJ6YZECCLSSQQCGKCTHC9OPAFOK","","<img src=""img/set1/S3.jpg"" width=""540"" height = ""360"" style=""border:16px solid orange"">","null","","","","","","","","","",""
"null","","html-keyboard-response","354","385409","0.0-354.0","30OG32W0SVXDQDOC7S5VLTNQUBHNE1","A30RAYNDOWQ61S","3RSBJ6YZECCLSSQQCGKCTHC9OPAFOK","","","null","","","","","","","","","",""
"407.19999980926514","","image-keyboard-response","355","385817","0.0-355.0","30OG32W0SVXDQDOC7S5VLTNQUBHNE1","A30RAYNDOWQ61S","3RSBJ6YZECCLSSQQCGKCTHC9OPAFOK","","img/set1/S3.jpg","72","3","random","72","random,structured_incentive,structured_load,structured_normal","4,2,1,2,2,3","1,2,4,3","true","","",""
"null","","html-keyboard-response","356","386168","0.0-356.0","30OG32W0SVXDQDOC7S5VLTNQUBHNE1","A30RAYNDOWQ61S","3RSBJ6YZECCLSSQQCGKCTHC9OPAFOK","","<img src=""img/set1/S3.jpg"" width=""540"" height = ""360"" style=""border:16px solid orange"">","null","","","","","","","","","",""
"null","","html-keyboard-response","357","386369","0.0-357.0","30OG32W0SVXDQDOC7S5VLTNQUBHNE1","A30RAYNDOWQ61S","3RSBJ6YZECCLSSQQCGKCTHC9OPAFOK","","","null","","","","","","","","","",""
"407","","image-keyboard-response","358","386777","0.0-358.0","30OG32W0SVXDQDOC7S5VLTNQUBHNE1","A30RAYNDOWQ61S","3RSBJ6YZECCLSSQQCGKCTHC9OPAFOK","","img/set1/S3.jpg","72","3","random","72","random,structured_incentive,structured_load,structured_normal","4,2,1,2,2,3","1,2,4,3","true","","",""
"null","","html-keyboard-response","359","387128","0.0-359.0","30OG32W0SVXDQDOC7S5VLTNQUBHNE1","A30RAYNDOWQ61S","3RSBJ6YZECCLSSQQCGKCTHC9OPAFOK","","<img src=""img/set1/S3.jpg"" width=""540"" height = ""360"" style=""border:16px solid orange"">","null","","","","","","","","","",""
"null","","html-keyboard-response","360","387329","0.0-360.0","30OG32W0SVXDQDOC7S5VLTNQUBHNE1","A30RAYNDOWQ61S","3RSBJ6YZECCLSSQQCGKCTHC9OPAFOK","","","null","","","","","","","","","",""
"438.90000009536743","","image-keyboard-response","361","387769","0.0-361.0","30OG32W0SVXDQDOC7S5VLTNQUBHNE1","A30RAYNDOWQ61S","3RSBJ6YZECCLSSQQCGKCTHC9OPAFOK","","img/set1/S3.jpg","72","3","random","72","random,structured_incentive,structured_load,structured_normal","4,2,1,2,2,3","1,2,4,3","true","","",""
"null","","html-keyboard-response","362","388121","0.0-362.0","30OG32W0SVXDQDOC7S5VLTNQUBHNE1","A30RAYNDOWQ61S","3RSBJ6YZECCLSSQQCGKCTHC9OPAFOK","","<img src=""img/set1/S3.jpg"" width=""540"" height = ""360"" style=""border:16px solid orange"">","null","","","","","","","","","",""
"null","","html-keyboard-response","363","388322","0.0-363.0","30OG32W0SVXDQDOC7S5VLTNQUBHNE1","A30RAYNDOWQ61S","3RSBJ6YZECCLSSQQCGKCTHC9OPAFOK","","","null","","","","","","","","","",""
"445.80000019073486","","image-keyboard-response","364","388769","0.0-364.0","30OG32W0SVXDQDOC7S5VLTNQUBHNE1","A30RAYNDOWQ61S","3RSBJ6YZECCLSSQQCGKCTHC9OPAFOK","","img/set1/S3.jpg","72","3","random","72","random,structured_incentive,structured_load,structured_normal","4,2,1,2,2,3","1,2,4,3","true","","",""
"null","","html-keyboard-response","365","389120","0.0-365.0","30OG32W0SVXDQDOC7S5VLTNQUBHNE1","A30RAYNDOWQ61S","3RSBJ6YZECCLSSQQCGKCTHC9OPAFOK","","<img src=""img/set1/S3.jpg"" width=""540"" height = ""360"" style=""border:16px solid orange"">","null","","","","","","","","","",""
"null","","html-keyboard-response","366","389321","0.0-366.0","30OG32W0SVXDQDOC7S5VLTNQUBHNE1","A30RAYNDOWQ61S","3RSBJ6YZECCLSSQQCGKCTHC9OPAFOK","","","null","","","","","","","","","",""
"607.0999999046326","","image-keyboard-response","367","389929","0.0-367.0","30OG32W0SVXDQDOC7S5VLTNQUBHNE1","A30RAYNDOWQ61S","3RSBJ6YZECCLSSQQCGKCTHC9OPAFOK","","img/set1/S1.jpg","83","1","random","83","random,structured_incentive,structured_load,structured_normal","4,2,1,2,2,3","1,2,4,3","true","","",""
"null","","html-keyboard-response","368","390280","0.0-368.0","30OG32W0SVXDQDOC7S5VLTNQUBHNE1","A30RAYNDOWQ61S","3RSBJ6YZECCLSSQQCGKCTHC9OPAFOK","","<img src=""img/set1/S1.jpg"" width=""540"" height = ""360"" style=""border:16px solid orange"">","null","","","","","","","","","",""
"null","","html-keyboard-response","369","390481","0.0-369.0","30OG32W0SVXDQDOC7S5VLTNQUBHNE1","A30RAYNDOWQ61S","3RSBJ6YZECCLSSQQCGKCTHC9OPAFOK","","","null","","","","","","","","","",""
"575.5","","image-keyboard-response","370","391057","0.0-370.0","30OG32W0SVXDQDOC7S5VLTNQUBHNE1","A30RAYNDOWQ61S","3RSBJ6YZECCLSSQQCGKCTHC9OPAFOK","","img/set1/S4.jpg","74","4","random","74","random,structured_incentive,structured_load,structured_normal","4,2,1,2,2,3","1,2,4,3","true","","",""
"null","","html-keyboard-response","371","391409","0.0-371.0","30OG32W0SVXDQDOC7S5VLTNQUBHNE1","A30RAYNDOWQ61S","3RSBJ6YZECCLSSQQCGKCTHC9OPAFOK","","<img src=""img/set1/S4.jpg"" width=""540"" height = ""360"" style=""border:16px solid orange"">","null","","","","","","","","","",""
"null","","html-keyboard-response","372","391610","0.0-372.0","30OG32W0SVXDQDOC7S5VLTNQUBHNE1","A30RAYNDOWQ61S","3RSBJ6YZECCLSSQQCGKCTHC9OPAFOK","","","null","","","","","","","","","",""
"557.8000001907349","","image-keyboard-response","373","392169","0.0-373.0","30OG32W0SVXDQDOC7S5VLTNQUBHNE1","A30RAYNDOWQ61S","3RSBJ6YZECCLSSQQCGKCTHC9OPAFOK","","img/set1/S3.jpg","72","3","random","72","random,structured_incentive,structured_load,structured_normal","4,2,1,2,2,3","1,2,4,3","true","","",""
"null","","html-keyboard-response","374","392523","0.0-374.0","30OG32W0SVXDQDOC7S5VLTNQUBHNE1","A30RAYNDOWQ61S","3RSBJ6YZECCLSSQQCGKCTHC9OPAFOK","","<img src=""img/set1/S3.jpg"" width=""540"" height = ""360"" style=""border:16px solid orange"">","null","","","","","","","","","",""
"null","","html-keyboard-response","375","392724","0.0-375.0","30OG32W0SVXDQDOC7S5VLTNQUBHNE1","A30RAYNDOWQ61S","3RSBJ6YZECCLSSQQCGKCTHC9OPAFOK","","","null","","","","","","","","","",""
"563.3000001907349","","image-keyboard-response","376","393289","0.0-376.0","30OG32W0SVXDQDOC7S5VLTNQUBHNE1","A30RAYNDOWQ61S","3RSBJ6YZECCLSSQQCGKCTHC9OPAFOK","","img/set1/S1.jpg","83","1","random","83","random,structured_incentive,structured_load,structured_normal","4,2,1,2,2,3","1,2,4,3","true","","",""
"null","","html-keyboard-response","377","393640","0.0-377.0","30OG32W0SVXDQDOC7S5VLTNQUBHNE1","A30RAYNDOWQ61S","3RSBJ6YZECCLSSQQCGKCTHC9OPAFOK","","<img src=""img/set1/S1.jpg"" width=""540"" height = ""360"" style=""border:16px solid orange"">","null","","","","","","","","","",""
"null","","html-keyboard-response","378","393841","0.0-378.0","30OG32W0SVXDQDOC7S5VLTNQUBHNE1","A30RAYNDOWQ61S","3RSBJ6YZECCLSSQQCGKCTHC9OPAFOK","","","null","","","","","","","","","",""
"486.69999980926514","","image-keyboard-response","379","394329","0.0-379.0","30OG32W0SVXDQDOC7S5VLTNQUBHNE1","A30RAYNDOWQ61S","3RSBJ6YZECCLSSQQCGKCTHC9OPAFOK","","img/set1/S1.jpg","83","1","random","83","random,structured_incentive,structured_load,structured_normal","4,2,1,2,2,3","1,2,4,3","true","","",""
"null","","html-keyboard-response","380","394681","0.0-380.0","30OG32W0SVXDQDOC7S5VLTNQUBHNE1","A30RAYNDOWQ61S","3RSBJ6YZECCLSSQQCGKCTHC9OPAFOK","","<img src=""img/set1/S1.jpg"" width=""540"" height = ""360"" style=""border:16px solid orange"">","null","","","","","","","","","",""
"null","","html-keyboard-response","381","394881","0.0-381.0","30OG32W0SVXDQDOC7S5VLTNQUBHNE1","A30RAYNDOWQ61S","3RSBJ6YZECCLSSQQCGKCTHC9OPAFOK","","","null","","","","","","","","","",""
"638.6999998092651","","image-keyboard-response","382","395521","0.0-382.0","30OG32W0SVXDQDOC7S5VLTNQUBHNE1","A30RAYNDOWQ61S","3RSBJ6YZECCLSSQQCGKCTHC9OPAFOK","","img/set1/S3.jpg","72","3","random","72","random,structured_incentive,structured_load,structured_normal","4,2,1,2,2,3","1,2,4,3","true","","",""
"null","","html-keyboard-response","383","395872","0.0-383.0","30OG32W0SVXDQDOC7S5VLTNQUBHNE1","A30RAYNDOWQ61S","3RSBJ6YZECCLSSQQCGKCTHC9OPAFOK","","<img src=""img/set1/S3.jpg"" width=""540"" height = ""360"" style=""border:16px solid orange"">","null","","","","","","","","","",""
"null","","html-keyboard-response","384","396074","0.0-384.0","30OG32W0SVXDQDOC7S5VLTNQUBHNE1","A30RAYNDOWQ61S","3RSBJ6YZECCLSSQQCGKCTHC9OPAFOK","","","null","","","","","","","","","",""
"581.9000000953674","","image-keyboard-response","385","396657","0.0-385.0","30OG32W0SVXDQDOC7S5VLTNQUBHNE1","A30RAYNDOWQ61S","3RSBJ6YZECCLSSQQCGKCTHC9OPAFOK","","img/set1/S2.jpg","68","2","random","68","random,structured_incentive,structured_load,structured_normal","4,2,1,2,2,3","1,2,4,3","true","","",""
