"rt","url","trial_type","trial_index","time_elapsed","internal_node_id","assignmentID","mturkID","hitID","view_history","stimulus","key_press","state","test_part","correct_response","order_block","order_chunk","order_freq","correct","responses","question_order","bonus"
"14225.699999988079","consent.html","external-html","0","14325","0.0-0.0","3TU5ZICBRENHK9RDAHBCXDM9PVN8QG","A311A0TCGNTFKK","3GVPRXWRPHGYHD0HW29VLS36FVC7I4","","","","","","","","","","","","",""
"191159.89999997616","","instructions","1","205486","0.0-1.0","3TU5ZICBRENHK9RDAHBCXDM9PVN8QG","A311A0TCGNTFKK","3GVPRXWRPHGYHD0HW29VLS36FVC7I4","[{""page_index"":0,""viewing_time"":5593},{""page_index"":1,""viewing_time"":78255.89999997616},{""page_index"":2,""viewing_time"":23339.900000035763},{""page_index"":3,""viewing_time"":25357.899999976158},{""page_index"":4,""viewing_time"":11996.199999988079},{""page_index"":5,""viewing_time"":25946.30000001192},{""page_index"":6,""viewing_time"":20669.80000001192}]","","","","","","","","","","","",""
"75936.59999996424","","instructions","2","281424","0.0-2.0","3TU5ZICBRENHK9RDAHBCXDM9PVN8QG","A311A0TCGNTFKK","3GVPRXWRPHGYHD0HW29VLS36FVC7I4","[{""page_index"":0,""viewing_time"":75936.19999998808}]","","","","","","","","","","","",""
"110443.10000002384","","instructions","3","391868","0.0-3.0","3TU5ZICBRENHK9RDAHBCXDM9PVN8QG","A311A0TCGNTFKK","3GVPRXWRPHGYHD0HW29VLS36FVC7I4","[{""page_index"":0,""viewing_time"":29589.5},{""page_index"":1,""viewing_time"":80853.19999998808}]","","","","","","","","","","","",""
"2192.300000011921","","image-keyboard-response","4","394063","0.0-4.0","3TU5ZICBRENHK9RDAHBCXDM9PVN8QG","A311A0TCGNTFKK","3GVPRXWRPHGYHD0HW29VLS36FVC7I4","","img/set1/S2.jpg","83","2","structured_incentive","68","structured_incentive,structured_normal,structured_load,random","2,3,1,2,4,2","4,1,3,2","false","","",""
"null","","html-keyboard-response","5","394425","0.0-5.0","3TU5ZICBRENHK9RDAHBCXDM9PVN8QG","A311A0TCGNTFKK","3GVPRXWRPHGYHD0HW29VLS36FVC7I4","","<img src=""img/set1/S2.jpg"" width=""540"" height = ""360"">","null","","","","","","","","","",""
"null","","html-keyboard-response","6","394646","0.0-6.0","3TU5ZICBRENHK9RDAHBCXDM9PVN8QG","A311A0TCGNTFKK","3GVPRXWRPHGYHD0HW29VLS36FVC7I4","","","null","","","","","","","","","",""
"1007.3000000119209","","image-keyboard-response","7","395656","0.0-7.0","3TU5ZICBRENHK9RDAHBCXDM9PVN8QG","A311A0TCGNTFKK","3GVPRXWRPHGYHD0HW29VLS36FVC7I4","","img/set1/S3.jpg","68","3","structured_incentive","72","structured_incentive,structured_normal,structured_load,random","2,3,1,2,4,2","4,1,3,2","false","","",""
"null","","html-keyboard-response","8","396023","0.0-8.0","3TU5ZICBRENHK9RDAHBCXDM9PVN8QG","A311A0TCGNTFKK","3GVPRXWRPHGYHD0HW29VLS36FVC7I4","","<img src=""img/set1/S3.jpg"" width=""540"" height = ""360"">","null","","","","","","","","","",""
"null","","html-keyboard-response","9","396225","0.0-9.0","3TU5ZICBRENHK9RDAHBCXDM9PVN8QG","A311A0TCGNTFKK","3GVPRXWRPHGYHD0HW29VLS36FVC7I4","","","null","","","","","","","","","",""
"1954.5","","image-keyboard-response","10","398182","0.0-10.0","3TU5ZICBRENHK9RDAHBCXDM9PVN8QG","A311A0TCGNTFKK","3GVPRXWRPHGYHD0HW29VLS36FVC7I4","","img/set1/S2.jpg","68","2","structured_incentive","68","structured_incentive,structured_normal,structured_load,random","2,3,1,2,4,2","4,1,3,2","true","","",""
"null","","html-keyboard-response","11","398547","0.0-11.0","3TU5ZICBRENHK9RDAHBCXDM9PVN8QG","A311A0TCGNTFKK","3GVPRXWRPHGYHD0HW29VLS36FVC7I4","","<img src=""img/set1/S2.jpg"" width=""540"" height = ""360"" style=""border:16px solid orange"">","null","","","","","","","","","",""
"null","","html-keyboard-response","12","398764","0.0-12.0","3TU5ZICBRENHK9RDAHBCXDM9PVN8QG","A311A0TCGNTFKK","3GVPRXWRPHGYHD0HW29VLS36FVC7I4","","","null","","","","","","","","","",""
"2373","","image-keyboard-response","13","401139","0.0-13.0","3TU5ZICBRENHK9RDAHBCXDM9PVN8QG","A311A0TCGNTFKK","3GVPRXWRPHGYHD0HW29VLS36FVC7I4","","img/set1/S4.jpg","68","4","structured_incentive","74","structured_incentive,structured_normal,structured_load,random","2,3,1,2,4,2","4,1,3,2","false","","",""
"null","","html-keyboard-response","14","401506","0.0-14.0","3TU5ZICBRENHK9RDAHBCXDM9PVN8QG","A311A0TCGNTFKK","3GVPRXWRPHGYHD0HW29VLS36FVC7I4","","<img src=""img/set1/S4.jpg"" width=""540"" height = ""360"">","null","","","","","","","","","",""
"null","","html-keyboard-response","15","401709","0.0-15.0","3TU5ZICBRENHK9RDAHBCXDM9PVN8QG","A311A0TCGNTFKK","3GVPRXWRPHGYHD0HW29VLS36FVC7I4","","","null","","","","","","","","","",""
"1327.800000011921","","image-keyboard-response","16","403039","0.0-16.0","3TU5ZICBRENHK9RDAHBCXDM9PVN8QG","A311A0TCGNTFKK","3GVPRXWRPHGYHD0HW29VLS36FVC7I4","","img/set1/S2.jpg","83","2","structured_incentive","68","structured_incentive,structured_normal,structured_load,random","2,3,1,2,4,2","4,1,3,2","false","","",""
"null","","html-keyboard-response","17","403405","0.0-17.0","3TU5ZICBRENHK9RDAHBCXDM9PVN8QG","A311A0TCGNTFKK","3GVPRXWRPHGYHD0HW29VLS36FVC7I4","","<img src=""img/set1/S2.jpg"" width=""540"" height = ""360"">","null","","","","","","","","","",""
"null","","html-keyboard-response","18","403608","0.0-18.0","3TU5ZICBRENHK9RDAHBCXDM9PVN8QG","A311A0TCGNTFKK","3GVPRXWRPHGYHD0HW29VLS36FVC7I4","","","null","","","","","","","","","",""
"1037.4000000357628","","image-keyboard-response","19","404647","0.0-19.0","3TU5ZICBRENHK9RDAHBCXDM9PVN8QG","A311A0TCGNTFKK","3GVPRXWRPHGYHD0HW29VLS36FVC7I4","","img/set1/S3.jpg","68","3","structured_incentive","72","structured_incentive,structured_normal,structured_load,random","2,3,1,2,4,2","4,1,3,2","false","","",""
"null","","html-keyboard-response","20","405011","0.0-20.0","3TU5ZICBRENHK9RDAHBCXDM9PVN8QG","A311A0TCGNTFKK","3GVPRXWRPHGYHD0HW29VLS36FVC7I4","","<img src=""img/set1/S3.jpg"" width=""540"" height = ""360"">","null","","","","","","","","","",""
"null","","html-keyboard-response","21","405214","0.0-21.0","3TU5ZICBRENHK9RDAHBCXDM9PVN8QG","A311A0TCGNTFKK","3GVPRXWRPHGYHD0HW29VLS36FVC7I4","","","null","","","","","","","","","",""
"1446.5","","image-keyboard-response","22","406662","0.0-22.0","3TU5ZICBRENHK9RDAHBCXDM9PVN8QG","A311A0TCGNTFKK","3GVPRXWRPHGYHD0HW29VLS36FVC7I4","","img/set1/S1.jpg","68","1","structured_incentive","83","structured_incentive,structured_normal,structured_load,random","2,3,1,2,4,2","4,1,3,2","false","","",""
"null","","html-keyboard-response","23","407016","0.0-23.0","3TU5ZICBRENHK9RDAHBCXDM9PVN8QG","A311A0TCGNTFKK","3GVPRXWRPHGYHD0HW29VLS36FVC7I4","","<img src=""img/set1/S1.jpg"" width=""540"" height = ""360"">","null","","","","","","","","","",""
"null","","html-keyboard-response","24","407225","0.0-24.0","3TU5ZICBRENHK9RDAHBCXDM9PVN8QG","A311A0TCGNTFKK","3GVPRXWRPHGYHD0HW29VLS36FVC7I4","","","null","","","","","","","","","",""
"1772.300000011921","","image-keyboard-response","25","408999","0.0-25.0","3TU5ZICBRENHK9RDAHBCXDM9PVN8QG","A311A0TCGNTFKK","3GVPRXWRPHGYHD0HW29VLS36FVC7I4","","img/set1/S2.jpg","74","2","structured_incentive","68","structured_incentive,structured_normal,structured_load,random","2,3,1,2,4,2","4,1,3,2","false","","",""
"null","","html-keyboard-response","26","409371","0.0-26.0","3TU5ZICBRENHK9RDAHBCXDM9PVN8QG","A311A0TCGNTFKK","3GVPRXWRPHGYHD0HW29VLS36FVC7I4","","<img src=""img/set1/S2.jpg"" width=""540"" height = ""360"">","null","","","","","","","","","",""
"null","","html-keyboard-response","27","409588","0.0-27.0","3TU5ZICBRENHK9RDAHBCXDM9PVN8QG","A311A0TCGNTFKK","3GVPRXWRPHGYHD0HW29VLS36FVC7I4","","","null","","","","","","","","","",""
"1783.5","","image-keyboard-response","28","411373","0.0-28.0","3TU5ZICBRENHK9RDAHBCXDM9PVN8QG","A311A0TCGNTFKK","3GVPRXWRPHGYHD0HW29VLS36FVC7I4","","img/set1/S4.jpg","68","4","structured_incentive","74","structured_incentive,structured_normal,structured_load,random","2,3,1,2,4,2","4,1,3,2","false","","",""
"null","","html-keyboard-response","29","411734","0.0-29.0","3TU5ZICBRENHK9RDAHBCXDM9PVN8QG","A311A0TCGNTFKK","3GVPRXWRPHGYHD0HW29VLS36FVC7I4","","<img src=""img/set1/S4.jpg"" width=""540"" height = ""360"">","null","","","","","","","","","",""
"null","","html-keyboard-response","30","411938","0.0-30.0","3TU5ZICBRENHK9RDAHBCXDM9PVN8QG","A311A0TCGNTFKK","3GVPRXWRPHGYHD0HW29VLS36FVC7I4","","","null","","","","","","","","","",""
"1218.800000011921","","image-keyboard-response","31","413159","0.0-31.0","3TU5ZICBRENHK9RDAHBCXDM9PVN8QG","A311A0TCGNTFKK","3GVPRXWRPHGYHD0HW29VLS36FVC7I4","","img/set1/S3.jpg","68","3","structured_incentive","72","structured_incentive,structured_normal,structured_load,random","2,3,1,2,4,2","4,1,3,2","false","","",""
"null","","html-keyboard-response","32","413513","0.0-32.0","3TU5ZICBRENHK9RDAHBCXDM9PVN8QG","A311A0TCGNTFKK","3GVPRXWRPHGYHD0HW29VLS36FVC7I4","","<img src=""img/set1/S3.jpg"" width=""540"" height = ""360"">","null","","","","","","","","","",""
"null","","html-keyboard-response","33","413726","0.0-33.0","3TU5ZICBRENHK9RDAHBCXDM9PVN8QG","A311A0TCGNTFKK","3GVPRXWRPHGYHD0HW29VLS36FVC7I4","","","null","","","","","","","","","",""
"562.5","","image-keyboard-response","34","414290","0.0-34.0","3TU5ZICBRENHK9RDAHBCXDM9PVN8QG","A311A0TCGNTFKK","3GVPRXWRPHGYHD0HW29VLS36FVC7I4","","img/set1/S1.jpg","83","1","structured_incentive","83","structured_incentive,structured_normal,structured_load,random","2,3,1,2,4,2","4,1,3,2","true","","",""
"null","","html-keyboard-response","35","414649","0.0-35.0","3TU5ZICBRENHK9RDAHBCXDM9PVN8QG","A311A0TCGNTFKK","3GVPRXWRPHGYHD0HW29VLS36FVC7I4","","<img src=""img/set1/S1.jpg"" width=""540"" height = ""360"" style=""border:16px solid orange"">","null","","","","","","","","","",""
"null","","html-keyboard-response","36","414854","0.0-36.0","3TU5ZICBRENHK9RDAHBCXDM9PVN8QG","A311A0TCGNTFKK","3GVPRXWRPHGYHD0HW29VLS36FVC7I4","","","null","","","","","","","","","",""
"1073.5","","image-keyboard-response","37","415930","0.0-37.0","3TU5ZICBRENHK9RDAHBCXDM9PVN8QG","A311A0TCGNTFKK","3GVPRXWRPHGYHD0HW29VLS36FVC7I4","","img/set1/S4.jpg","83","4","structured_incentive","74","structured_incentive,structured_normal,structured_load,random","2,3,1,2,4,2","4,1,3,2","false","","",""
"null","","html-keyboard-response","38","416291","0.0-38.0","3TU5ZICBRENHK9RDAHBCXDM9PVN8QG","A311A0TCGNTFKK","3GVPRXWRPHGYHD0HW29VLS36FVC7I4","","<img src=""img/set1/S4.jpg"" width=""540"" height = ""360"">","null","","","","","","","","","",""
"null","","html-keyboard-response","39","416502","0.0-39.0","3TU5ZICBRENHK9RDAHBCXDM9PVN8QG","A311A0TCGNTFKK","3GVPRXWRPHGYHD0HW29VLS36FVC7I4","","","null","","","","","","","","","",""
"528.5","","image-keyboard-response","40","417033","0.0-40.0","3TU5ZICBRENHK9RDAHBCXDM9PVN8QG","A311A0TCGNTFKK","3GVPRXWRPHGYHD0HW29VLS36FVC7I4","","img/set1/S4.jpg","74","4","structured_incentive","74","structured_incentive,structured_normal,structured_load,random","2,3,1,2,4,2","4,1,3,2","true","","",""
"null","","html-keyboard-response","41","417398","0.0-41.0","3TU5ZICBRENHK9RDAHBCXDM9PVN8QG","A311A0TCGNTFKK","3GVPRXWRPHGYHD0HW29VLS36FVC7I4","","<img src=""img/set1/S4.jpg"" width=""540"" height = ""360"" style=""border:16px solid Violet"">","null","","","","","","","","","",""
"null","","html-keyboard-response","42","417602","0.0-42.0","3TU5ZICBRENHK9RDAHBCXDM9PVN8QG","A311A0TCGNTFKK","3GVPRXWRPHGYHD0HW29VLS36FVC7I4","","","null","","","","","","","","","",""
"1819.5999999642372","","image-keyboard-response","43","419424","0.0-43.0","3TU5ZICBRENHK9RDAHBCXDM9PVN8QG","A311A0TCGNTFKK","3GVPRXWRPHGYHD0HW29VLS36FVC7I4","","img/set1/S2.jpg","68","2","structured_incentive","68","structured_incentive,structured_normal,structured_load,random","2,3,1,2,4,2","4,1,3,2","true","","",""
"null","","html-keyboard-response","44","419796","0.0-44.0","3TU5ZICBRENHK9RDAHBCXDM9PVN8QG","A311A0TCGNTFKK","3GVPRXWRPHGYHD0HW29VLS36FVC7I4","","<img src=""img/set1/S2.jpg"" width=""540"" height = ""360"" style=""border:16px solid orange"">","null","","","","","","","","","",""
"null","","html-keyboard-response","45","420006","0.0-45.0","3TU5ZICBRENHK9RDAHBCXDM9PVN8QG","A311A0TCGNTFKK","3GVPRXWRPHGYHD0HW29VLS36FVC7I4","","","null","","","","","","","","","",""
"1049.9000000357628","","image-keyboard-response","46","421058","0.0-46.0","3TU5ZICBRENHK9RDAHBCXDM9PVN8QG","A311A0TCGNTFKK","3GVPRXWRPHGYHD0HW29VLS36FVC7I4","","img/set1/S3.jpg","74","3","structured_incentive","72","structured_incentive,structured_normal,structured_load,random","2,3,1,2,4,2","4,1,3,2","false","","",""
"null","","html-keyboard-response","47","421415","0.0-47.0","3TU5ZICBRENHK9RDAHBCXDM9PVN8QG","A311A0TCGNTFKK","3GVPRXWRPHGYHD0HW29VLS36FVC7I4","","<img src=""img/set1/S3.jpg"" width=""540"" height = ""360"">","null","","","","","","","","","",""
"null","","html-keyboard-response","48","421619","0.0-48.0","3TU5ZICBRENHK9RDAHBCXDM9PVN8QG","A311A0TCGNTFKK","3GVPRXWRPHGYHD0HW29VLS36FVC7I4","","","null","","","","","","","","","",""
"1025","","image-keyboard-response","49","422646","0.0-49.0","3TU5ZICBRENHK9RDAHBCXDM9PVN8QG","A311A0TCGNTFKK","3GVPRXWRPHGYHD0HW29VLS36FVC7I4","","img/set1/S2.jpg","83","2","structured_incentive","68","structured_incentive,structured_normal,structured_load,random","2,3,1,2,4,2","4,1,3,2","false","","",""
"null","","html-keyboard-response","50","423001","0.0-50.0","3TU5ZICBRENHK9RDAHBCXDM9PVN8QG","A311A0TCGNTFKK","3GVPRXWRPHGYHD0HW29VLS36FVC7I4","","<img src=""img/set1/S2.jpg"" width=""540"" height = ""360"">","null","","","","","","","","","",""
"null","","html-keyboard-response","51","423204","0.0-51.0","3TU5ZICBRENHK9RDAHBCXDM9PVN8QG","A311A0TCGNTFKK","3GVPRXWRPHGYHD0HW29VLS36FVC7I4","","","null","","","","","","","","","",""
"448","","image-keyboard-response","52","423654","0.0-52.0","3TU5ZICBRENHK9RDAHBCXDM9PVN8QG","A311A0TCGNTFKK","3GVPRXWRPHGYHD0HW29VLS36FVC7I4","","img/set1/S3.jpg","74","3","structured_incentive","72","structured_incentive,structured_normal,structured_load,random","2,3,1,2,4,2","4,1,3,2","false","","",""
"null","","html-keyboard-response","53","424010","0.0-53.0","3TU5ZICBRENHK9RDAHBCXDM9PVN8QG","A311A0TCGNTFKK","3GVPRXWRPHGYHD0HW29VLS36FVC7I4","","<img src=""img/set1/S3.jpg"" width=""540"" height = ""360"">","null","","","","","","","","","",""
"null","","html-keyboard-response","54","424221","0.0-54.0","3TU5ZICBRENHK9RDAHBCXDM9PVN8QG","A311A0TCGNTFKK","3GVPRXWRPHGYHD0HW29VLS36FVC7I4","","","null","","","","","","","","","",""
"834","","image-keyboard-response","55","425057","0.0-55.0","3TU5ZICBRENHK9RDAHBCXDM9PVN8QG","A311A0TCGNTFKK","3GVPRXWRPHGYHD0HW29VLS36FVC7I4","","img/set1/S3.jpg","68","3","structured_incentive","72","structured_incentive,structured_normal,structured_load,random","2,3,1,2,4,2","4,1,3,2","false","","",""
"null","","html-keyboard-response","56","425412","0.0-56.0","3TU5ZICBRENHK9RDAHBCXDM9PVN8QG","A311A0TCGNTFKK","3GVPRXWRPHGYHD0HW29VLS36FVC7I4","","<img src=""img/set1/S3.jpg"" width=""540"" height = ""360"">","null","","","","","","","","","",""
"null","","html-keyboard-response","57","425623","0.0-57.0","3TU5ZICBRENHK9RDAHBCXDM9PVN8QG","A311A0TCGNTFKK","3GVPRXWRPHGYHD0HW29VLS36FVC7I4","","","null","","","","","","","","","",""
"1206","","image-keyboard-response","58","426831","0.0-58.0","3TU5ZICBRENHK9RDAHBCXDM9PVN8QG","A311A0TCGNTFKK","3GVPRXWRPHGYHD0HW29VLS36FVC7I4","","img/set1/S1.jpg","74","1","structured_incentive","83","structured_incentive,structured_normal,structured_load,random","2,3,1,2,4,2","4,1,3,2","false","","",""
"null","","html-keyboard-response","59","427190","0.0-59.0","3TU5ZICBRENHK9RDAHBCXDM9PVN8QG","A311A0TCGNTFKK","3GVPRXWRPHGYHD0HW29VLS36FVC7I4","","<img src=""img/set1/S1.jpg"" width=""540"" height = ""360"">","null","","","","","","","","","",""
"null","","html-keyboard-response","60","427412","0.0-60.0","3TU5ZICBRENHK9RDAHBCXDM9PVN8QG","A311A0TCGNTFKK","3GVPRXWRPHGYHD0HW29VLS36FVC7I4","","","null","","","","","","","","","",""
"1606.5","","image-keyboard-response","61","429021","0.0-61.0","3TU5ZICBRENHK9RDAHBCXDM9PVN8QG","A311A0TCGNTFKK","3GVPRXWRPHGYHD0HW29VLS36FVC7I4","","img/set1/S2.jpg","68","2","structured_incentive","68","structured_incentive,structured_normal,structured_load,random","2,3,1,2,4,2","4,1,3,2","true","","",""
"null","","html-keyboard-response","62","429386","0.0-62.0","3TU5ZICBRENHK9RDAHBCXDM9PVN8QG","A311A0TCGNTFKK","3GVPRXWRPHGYHD0HW29VLS36FVC7I4","","<img src=""img/set1/S2.jpg"" width=""540"" height = ""360"" style=""border:16px solid orange"">","null","","","","","","","","","",""
"null","","html-keyboard-response","63","429598","0.0-63.0","3TU5ZICBRENHK9RDAHBCXDM9PVN8QG","A311A0TCGNTFKK","3GVPRXWRPHGYHD0HW29VLS36FVC7I4","","","null","","","","","","","","","",""
"1835","","image-keyboard-response","64","431435","0.0-64.0","3TU5ZICBRENHK9RDAHBCXDM9PVN8QG","A311A0TCGNTFKK","3GVPRXWRPHGYHD0HW29VLS36FVC7I4","","img/set1/S3.jpg","83","3","structured_incentive","72","structured_incentive,structured_normal,structured_load,random","2,3,1,2,4,2","4,1,3,2","false","","",""
"null","","html-keyboard-response","65","431800","0.0-65.0","3TU5ZICBRENHK9RDAHBCXDM9PVN8QG","A311A0TCGNTFKK","3GVPRXWRPHGYHD0HW29VLS36FVC7I4","","<img src=""img/set1/S3.jpg"" width=""540"" height = ""360"">","null","","","","","","","","","",""
"null","","html-keyboard-response","66","432007","0.0-66.0","3TU5ZICBRENHK9RDAHBCXDM9PVN8QG","A311A0TCGNTFKK","3GVPRXWRPHGYHD0HW29VLS36FVC7I4","","","null","","","","","","","","","",""
"777.8000000119209","","image-keyboard-response","67","432787","0.0-67.0","3TU5ZICBRENHK9RDAHBCXDM9PVN8QG","A311A0TCGNTFKK","3GVPRXWRPHGYHD0HW29VLS36FVC7I4","","img/set1/S4.jpg","74","4","structured_incentive","74","structured_incentive,structured_normal,structured_load,random","2,3,1,2,4,2","4,1,3,2","true","","",""
"null","","html-keyboard-response","68","433159","0.0-68.0","3TU5ZICBRENHK9RDAHBCXDM9PVN8QG","A311A0TCGNTFKK","3GVPRXWRPHGYHD0HW29VLS36FVC7I4","","<img src=""img/set1/S4.jpg"" width=""540"" height = ""360"" style=""border:16px solid Violet"">","null","","","","","","","","","",""
"null","","html-keyboard-response","69","433369","0.0-69.0","3TU5ZICBRENHK9RDAHBCXDM9PVN8QG","A311A0TCGNTFKK","3GVPRXWRPHGYHD0HW29VLS36FVC7I4","","","null","","","","","","","","","",""
"769.1000000238419","","image-keyboard-response","70","434144","0.0-70.0","3TU5ZICBRENHK9RDAHBCXDM9PVN8QG","A311A0TCGNTFKK","3GVPRXWRPHGYHD0HW29VLS36FVC7I4","","img/set1/S2.jpg","68","2","structured_incentive","68","structured_incentive,structured_normal,structured_load,random","2,3,1,2,4,2","4,1,3,2","true","","",""
"null","","html-keyboard-response","71","434499","0.0-71.0","3TU5ZICBRENHK9RDAHBCXDM9PVN8QG","A311A0TCGNTFKK","3GVPRXWRPHGYHD0HW29VLS36FVC7I4","","<img src=""img/set1/S2.jpg"" width=""540"" height = ""360"" style=""border:16px solid orange"">","null","","","","","","","","","",""
"null","","html-keyboard-response","72","434703","0.0-72.0","3TU5ZICBRENHK9RDAHBCXDM9PVN8QG","A311A0TCGNTFKK","3GVPRXWRPHGYHD0HW29VLS36FVC7I4","","","null","","","","","","","","","",""
"1993.7999999523163","","image-keyboard-response","73","436699","0.0-73.0","3TU5ZICBRENHK9RDAHBCXDM9PVN8QG","A311A0TCGNTFKK","3GVPRXWRPHGYHD0HW29VLS36FVC7I4","","img/set1/S3.jpg","68","3","structured_incentive","72","structured_incentive,structured_normal,structured_load,random","2,3,1,2,4,2","4,1,3,2","false","","",""
"null","","html-keyboard-response","74","437060","0.0-74.0","3TU5ZICBRENHK9RDAHBCXDM9PVN8QG","A311A0TCGNTFKK","3GVPRXWRPHGYHD0HW29VLS36FVC7I4","","<img src=""img/set1/S3.jpg"" width=""540"" height = ""360"">","null","","","","","","","","","",""
"null","","html-keyboard-response","75","437268","0.0-75.0","3TU5ZICBRENHK9RDAHBCXDM9PVN8QG","A311A0TCGNTFKK","3GVPRXWRPHGYHD0HW29VLS36FVC7I4","","","null","","","","","","","","","",""
"882.4000000357628","","image-keyboard-response","76","438152","0.0-76.0","3TU5ZICBRENHK9RDAHBCXDM9PVN8QG","A311A0TCGNTFKK","3GVPRXWRPHGYHD0HW29VLS36FVC7I4","","img/set1/S4.jpg","68","4","structured_incentive","74","structured_incentive,structured_normal,structured_load,random","2,3,1,2,4,2","4,1,3,2","false","","",""
"null","","html-keyboard-response","77","438506","0.0-77.0","3TU5ZICBRENHK9RDAHBCXDM9PVN8QG","A311A0TCGNTFKK","3GVPRXWRPHGYHD0HW29VLS36FVC7I4","","<img src=""img/set1/S4.jpg"" width=""540"" height = ""360"">","null","","","","","","","","","",""
"null","","html-keyboard-response","78","438713","0.0-78.0","3TU5ZICBRENHK9RDAHBCXDM9PVN8QG","A311A0TCGNTFKK","3GVPRXWRPHGYHD0HW29VLS36FVC7I4","","","null","","","","","","","","","",""
"1758.5","","image-keyboard-response","79","440474","0.0-79.0","3TU5ZICBRENHK9RDAHBCXDM9PVN8QG","A311A0TCGNTFKK","3GVPRXWRPHGYHD0HW29VLS36FVC7I4","","img/set1/S2.jpg","74","2","structured_incentive","68","structured_incentive,structured_normal,structured_load,random","2,3,1,2,4,2","4,1,3,2","false","","",""
"null","","html-keyboard-response","80","440834","0.0-80.0","3TU5ZICBRENHK9RDAHBCXDM9PVN8QG","A311A0TCGNTFKK","3GVPRXWRPHGYHD0HW29VLS36FVC7I4","","<img src=""img/set1/S2.jpg"" width=""540"" height = ""360"">","null","","","","","","","","","",""
"null","","html-keyboard-response","81","441041","0.0-81.0","3TU5ZICBRENHK9RDAHBCXDM9PVN8QG","A311A0TCGNTFKK","3GVPRXWRPHGYHD0HW29VLS36FVC7I4","","","null","","","","","","","","","",""
"2336.699999988079","","image-keyboard-response","82","443380","0.0-82.0","3TU5ZICBRENHK9RDAHBCXDM9PVN8QG","A311A0TCGNTFKK","3GVPRXWRPHGYHD0HW29VLS36FVC7I4","","img/set1/S3.jpg","74","3","structured_incentive","72","structured_incentive,structured_normal,structured_load,random","2,3,1,2,4,2","4,1,3,2","false","","",""
"null","","html-keyboard-response","83","443734","0.0-83.0","3TU5ZICBRENHK9RDAHBCXDM9PVN8QG","A311A0TCGNTFKK","3GVPRXWRPHGYHD0HW29VLS36FVC7I4","","<img src=""img/set1/S3.jpg"" width=""540"" height = ""360"">","null","","","","","","","","","",""
"null","","html-keyboard-response","84","443944","0.0-84.0","3TU5ZICBRENHK9RDAHBCXDM9PVN8QG","A311A0TCGNTFKK","3GVPRXWRPHGYHD0HW29VLS36FVC7I4","","","null","","","","","","","","","",""
"1139","","image-keyboard-response","85","445085","0.0-85.0","3TU5ZICBRENHK9RDAHBCXDM9PVN8QG","A311A0TCGNTFKK","3GVPRXWRPHGYHD0HW29VLS36FVC7I4","","img/set1/S1.jpg","74","1","structured_incentive","83","structured_incentive,structured_normal,structured_load,random","2,3,1,2,4,2","4,1,3,2","false","","",""
"null","","html-keyboard-response","86","445454","0.0-86.0","3TU5ZICBRENHK9RDAHBCXDM9PVN8QG","A311A0TCGNTFKK","3GVPRXWRPHGYHD0HW29VLS36FVC7I4","","<img src=""img/set1/S1.jpg"" width=""540"" height = ""360"">","null","","","","","","","","","",""
"null","","html-keyboard-response","87","445676","0.0-87.0","3TU5ZICBRENHK9RDAHBCXDM9PVN8QG","A311A0TCGNTFKK","3GVPRXWRPHGYHD0HW29VLS36FVC7I4","","","null","","","","","","","","","",""
"1380.9000000357628","","image-keyboard-response","88","447059","0.0-88.0","3TU5ZICBRENHK9RDAHBCXDM9PVN8QG","A311A0TCGNTFKK","3GVPRXWRPHGYHD0HW29VLS36FVC7I4","","img/set1/S3.jpg","68","3","structured_incentive","72","structured_incentive,structured_normal,structured_load,random","2,3,1,2,4,2","4,1,3,2","false","","",""
"null","","html-keyboard-response","89","447428","0.0-89.0","3TU5ZICBRENHK9RDAHBCXDM9PVN8QG","A311A0TCGNTFKK","3GVPRXWRPHGYHD0HW29VLS36FVC7I4","","<img src=""img/set1/S3.jpg"" width=""540"" height = ""360"">","null","","","","","","","","","",""
"null","","html-keyboard-response","90","447632","0.0-90.0","3TU5ZICBRENHK9RDAHBCXDM9PVN8QG","A311A0TCGNTFKK","3GVPRXWRPHGYHD0HW29VLS36FVC7I4","","","null","","","","","","","","","",""
"657.6999999880791","","image-keyboard-response","91","448292","0.0-91.0","3TU5ZICBRENHK9RDAHBCXDM9PVN8QG","A311A0TCGNTFKK","3GVPRXWRPHGYHD0HW29VLS36FVC7I4","","img/set1/S1.jpg","83","1","structured_incentive","83","structured_incentive,structured_normal,structured_load,random","2,3,1,2,4,2","4,1,3,2","true","","",""
"null","","html-keyboard-response","92","448657","0.0-92.0","3TU5ZICBRENHK9RDAHBCXDM9PVN8QG","A311A0TCGNTFKK","3GVPRXWRPHGYHD0HW29VLS36FVC7I4","","<img src=""img/set1/S1.jpg"" width=""540"" height = ""360"" style=""border:16px solid orange"">","null","","","","","","","","","",""
"null","","html-keyboard-response","93","448869","0.0-93.0","3TU5ZICBRENHK9RDAHBCXDM9PVN8QG","A311A0TCGNTFKK","3GVPRXWRPHGYHD0HW29VLS36FVC7I4","","","null","","","","","","","","","",""
"1985.699999988079","","image-keyboard-response","94","450857","0.0-94.0","3TU5ZICBRENHK9RDAHBCXDM9PVN8QG","A311A0TCGNTFKK","3GVPRXWRPHGYHD0HW29VLS36FVC7I4","","img/set1/S2.jpg","68","2","structured_incentive","68","structured_incentive,structured_normal,structured_load,random","2,3,1,2,4,2","4,1,3,2","true","","",""
"null","","html-keyboard-response","95","451223","0.0-95.0","3TU5ZICBRENHK9RDAHBCXDM9PVN8QG","A311A0TCGNTFKK","3GVPRXWRPHGYHD0HW29VLS36FVC7I4","","<img src=""img/set1/S2.jpg"" width=""540"" height = ""360"" style=""border:16px solid orange"">","null","","","","","","","","","",""
"null","","html-keyboard-response","96","451433","0.0-96.0","3TU5ZICBRENHK9RDAHBCXDM9PVN8QG","A311A0TCGNTFKK","3GVPRXWRPHGYHD0HW29VLS36FVC7I4","","","null","","","","","","","","","",""
"1102.4000000357628","","image-keyboard-response","97","452538","0.0-97.0","3TU5ZICBRENHK9RDAHBCXDM9PVN8QG","A311A0TCGNTFKK","3GVPRXWRPHGYHD0HW29VLS36FVC7I4","","img/set1/S4.jpg","74","4","structured_incentive","74","structured_incentive,structured_normal,structured_load,random","2,3,1,2,4,2","4,1,3,2","true","","",""
"null","","html-keyboard-response","98","452910","0.0-98.0","3TU5ZICBRENHK9RDAHBCXDM9PVN8QG","A311A0TCGNTFKK","3GVPRXWRPHGYHD0HW29VLS36FVC7I4","","<img src=""img/set1/S4.jpg"" width=""540"" height = ""360"" style=""border:16px solid Violet"">","null","","","","","","","","","",""
"null","","html-keyboard-response","99","453118","0.0-99.0","3TU5ZICBRENHK9RDAHBCXDM9PVN8QG","A311A0TCGNTFKK","3GVPRXWRPHGYHD0HW29VLS36FVC7I4","","","null","","","","","","","","","",""
"959","","image-keyboard-response","100","454079","0.0-100.0","3TU5ZICBRENHK9RDAHBCXDM9PVN8QG","A311A0TCGNTFKK","3GVPRXWRPHGYHD0HW29VLS36FVC7I4","","img/set1/S3.jpg","83","3","structured_incentive","72","structured_incentive,structured_normal,structured_load,random","2,3,1,2,4,2","4,1,3,2","false","","",""
"null","","html-keyboard-response","101","454436","0.0-101.0","3TU5ZICBRENHK9RDAHBCXDM9PVN8QG","A311A0TCGNTFKK","3GVPRXWRPHGYHD0HW29VLS36FVC7I4","","<img src=""img/set1/S3.jpg"" width=""540"" height = ""360"">","null","","","","","","","","","",""
"null","","html-keyboard-response","102","454651","0.0-102.0","3TU5ZICBRENHK9RDAHBCXDM9PVN8QG","A311A0TCGNTFKK","3GVPRXWRPHGYHD0HW29VLS36FVC7I4","","","null","","","","","","","","","",""
"770.2000000476837","","image-keyboard-response","103","455424","0.0-103.0","3TU5ZICBRENHK9RDAHBCXDM9PVN8QG","A311A0TCGNTFKK","3GVPRXWRPHGYHD0HW29VLS36FVC7I4","","img/set1/S4.jpg","74","4","structured_incentive","74","structured_incentive,structured_normal,structured_load,random","2,3,1,2,4,2","4,1,3,2","true","","",""
"null","","html-keyboard-response","104","455786","0.0-104.0","3TU5ZICBRENHK9RDAHBCXDM9PVN8QG","A311A0TCGNTFKK","3GVPRXWRPHGYHD0HW29VLS36FVC7I4","","<img src=""img/set1/S4.jpg"" width=""540"" height = ""360"" style=""border:16px solid Violet"">","null","","","","","","","","","",""
"null","","html-keyboard-response","105","455991","0.0-105.0","3TU5ZICBRENHK9RDAHBCXDM9PVN8QG","A311A0TCGNTFKK","3GVPRXWRPHGYHD0HW29VLS36FVC7I4","","","null","","","","","","","","","",""
"653.6000000238419","","image-keyboard-response","106","456647","0.0-106.0","3TU5ZICBRENHK9RDAHBCXDM9PVN8QG","A311A0TCGNTFKK","3GVPRXWRPHGYHD0HW29VLS36FVC7I4","","img/set1/S4.jpg","68","4","structured_incentive","74","structured_incentive,structured_normal,structured_load,random","2,3,1,2,4,2","4,1,3,2","false","","",""
"null","","html-keyboard-response","107","457001","0.0-107.0","3TU5ZICBRENHK9RDAHBCXDM9PVN8QG","A311A0TCGNTFKK","3GVPRXWRPHGYHD0HW29VLS36FVC7I4","","<img src=""img/set1/S4.jpg"" width=""540"" height = ""360"">","null","","","","","","","","","",""
"null","","html-keyboard-response","108","457205","0.0-108.0","3TU5ZICBRENHK9RDAHBCXDM9PVN8QG","A311A0TCGNTFKK","3GVPRXWRPHGYHD0HW29VLS36FVC7I4","","","null","","","","","","","","","",""
"1443.9000000357628","","image-keyboard-response","109","458651","0.0-109.0","3TU5ZICBRENHK9RDAHBCXDM9PVN8QG","A311A0TCGNTFKK","3GVPRXWRPHGYHD0HW29VLS36FVC7I4","","img/set1/S2.jpg","74","2","structured_incentive","68","structured_incentive,structured_normal,structured_load,random","2,3,1,2,4,2","4,1,3,2","false","","",""
"null","","html-keyboard-response","110","459014","0.0-110.0","3TU5ZICBRENHK9RDAHBCXDM9PVN8QG","A311A0TCGNTFKK","3GVPRXWRPHGYHD0HW29VLS36FVC7I4","","<img src=""img/set1/S2.jpg"" width=""540"" height = ""360"">","null","","","","","","","","","",""
"null","","html-keyboard-response","111","459218","0.0-111.0","3TU5ZICBRENHK9RDAHBCXDM9PVN8QG","A311A0TCGNTFKK","3GVPRXWRPHGYHD0HW29VLS36FVC7I4","","","null","","","","","","","","","",""
"679.1000000238419","","image-keyboard-response","112","459899","0.0-112.0","3TU5ZICBRENHK9RDAHBCXDM9PVN8QG","A311A0TCGNTFKK","3GVPRXWRPHGYHD0HW29VLS36FVC7I4","","img/set1/S4.jpg","68","4","structured_incentive","74","structured_incentive,structured_normal,structured_load,random","2,3,1,2,4,2","4,1,3,2","false","","",""
"null","","html-keyboard-response","113","460263","0.0-113.0","3TU5ZICBRENHK9RDAHBCXDM9PVN8QG","A311A0TCGNTFKK","3GVPRXWRPHGYHD0HW29VLS36FVC7I4","","<img src=""img/set1/S4.jpg"" width=""540"" height = ""360"">","null","","","","","","","","","",""
"null","","html-keyboard-response","114","460467","0.0-114.0","3TU5ZICBRENHK9RDAHBCXDM9PVN8QG","A311A0TCGNTFKK","3GVPRXWRPHGYHD0HW29VLS36FVC7I4","","","null","","","","","","","","","",""
"838.2999999523163","","image-keyboard-response","115","461308","0.0-115.0","3TU5ZICBRENHK9RDAHBCXDM9PVN8QG","A311A0TCGNTFKK","3GVPRXWRPHGYHD0HW29VLS36FVC7I4","","img/set1/S2.jpg","68","2","structured_incentive","68","structured_incentive,structured_normal,structured_load,random","2,3,1,2,4,2","4,1,3,2","true","","",""
"null","","html-keyboard-response","116","461666","0.0-116.0","3TU5ZICBRENHK9RDAHBCXDM9PVN8QG","A311A0TCGNTFKK","3GVPRXWRPHGYHD0HW29VLS36FVC7I4","","<img src=""img/set1/S2.jpg"" width=""540"" height = ""360"" style=""border:16px solid orange"">","null","","","","","","","","","",""
"null","","html-keyboard-response","117","461883","0.0-117.0","3TU5ZICBRENHK9RDAHBCXDM9PVN8QG","A311A0TCGNTFKK","3GVPRXWRPHGYHD0HW29VLS36FVC7I4","","","null","","","","","","","","","",""
"2344.900000035763","","image-keyboard-response","118","464230","0.0-118.0","3TU5ZICBRENHK9RDAHBCXDM9PVN8QG","A311A0TCGNTFKK","3GVPRXWRPHGYHD0HW29VLS36FVC7I4","","img/set1/S3.jpg","74","3","structured_incentive","72","structured_incentive,structured_normal,structured_load,random","2,3,1,2,4,2","4,1,3,2","false","","",""
"null","","html-keyboard-response","119","464596","0.0-119.0","3TU5ZICBRENHK9RDAHBCXDM9PVN8QG","A311A0TCGNTFKK","3GVPRXWRPHGYHD0HW29VLS36FVC7I4","","<img src=""img/set1/S3.jpg"" width=""540"" height = ""360"">","null","","","","","","","","","",""
"null","","html-keyboard-response","120","464807","0.0-120.0","3TU5ZICBRENHK9RDAHBCXDM9PVN8QG","A311A0TCGNTFKK","3GVPRXWRPHGYHD0HW29VLS36FVC7I4","","","null","","","","","","","","","",""
"1225.300000011921","","image-keyboard-response","121","466035","0.0-121.0","3TU5ZICBRENHK9RDAHBCXDM9PVN8QG","A311A0TCGNTFKK","3GVPRXWRPHGYHD0HW29VLS36FVC7I4","","img/set1/S4.jpg","74","4","structured_incentive","74","structured_incentive,structured_normal,structured_load,random","2,3,1,2,4,2","4,1,3,2","true","","",""
"null","","html-keyboard-response","122","466391","0.0-122.0","3TU5ZICBRENHK9RDAHBCXDM9PVN8QG","A311A0TCGNTFKK","3GVPRXWRPHGYHD0HW29VLS36FVC7I4","","<img src=""img/set1/S4.jpg"" width=""540"" height = ""360"" style=""border:16px solid Violet"">","null","","","","","","","","","",""
"null","","html-keyboard-response","123","466609","0.0-123.0","3TU5ZICBRENHK9RDAHBCXDM9PVN8QG","A311A0TCGNTFKK","3GVPRXWRPHGYHD0HW29VLS36FVC7I4","","","null","","","","","","","","","",""
"730.9000000357628","","image-keyboard-response","124","467342","0.0-124.0","3TU5ZICBRENHK9RDAHBCXDM9PVN8QG","A311A0TCGNTFKK","3GVPRXWRPHGYHD0HW29VLS36FVC7I4","","img/set1/S2.jpg","68","2","structured_incentive","68","structured_incentive,structured_normal,structured_load,random","2,3,1,2,4,2","4,1,3,2","true","","",""
"null","","html-keyboard-response","125","467703","0.0-125.0","3TU5ZICBRENHK9RDAHBCXDM9PVN8QG","A311A0TCGNTFKK","3GVPRXWRPHGYHD0HW29VLS36FVC7I4","","<img src=""img/set1/S2.jpg"" width=""540"" height = ""360"" style=""border:16px solid orange"">","null","","","","","","","","","",""
"null","","html-keyboard-response","126","467907","0.0-126.0","3TU5ZICBRENHK9RDAHBCXDM9PVN8QG","A311A0TCGNTFKK","3GVPRXWRPHGYHD0HW29VLS36FVC7I4","","","null","","","","","","","","","",""
"2044","","image-keyboard-response","127","469953","0.0-127.0","3TU5ZICBRENHK9RDAHBCXDM9PVN8QG","A311A0TCGNTFKK","3GVPRXWRPHGYHD0HW29VLS36FVC7I4","","img/set1/S3.jpg","68","3","structured_incentive","72","structured_incentive,structured_normal,structured_load,random","2,3,1,2,4,2","4,1,3,2","false","","",""
"null","","html-keyboard-response","128","470311","0.0-128.0","3TU5ZICBRENHK9RDAHBCXDM9PVN8QG","A311A0TCGNTFKK","3GVPRXWRPHGYHD0HW29VLS36FVC7I4","","<img src=""img/set1/S3.jpg"" width=""540"" height = ""360"">","null","","","","","","","","","",""
"null","","html-keyboard-response","129","470516","0.0-129.0","3TU5ZICBRENHK9RDAHBCXDM9PVN8QG","A311A0TCGNTFKK","3GVPRXWRPHGYHD0HW29VLS36FVC7I4","","","null","","","","","","","","","",""
"974.9000000357628","","image-keyboard-response","130","471493","0.0-130.0","3TU5ZICBRENHK9RDAHBCXDM9PVN8QG","A311A0TCGNTFKK","3GVPRXWRPHGYHD0HW29VLS36FVC7I4","","img/set1/S2.jpg","68","2","structured_incentive","68","structured_incentive,structured_normal,structured_load,random","2,3,1,2,4,2","4,1,3,2","true","","",""
"null","","html-keyboard-response","131","471856","0.0-131.0","3TU5ZICBRENHK9RDAHBCXDM9PVN8QG","A311A0TCGNTFKK","3GVPRXWRPHGYHD0HW29VLS36FVC7I4","","<img src=""img/set1/S2.jpg"" width=""540"" height = ""360"" style=""border:16px solid orange"">","null","","","","","","","","","",""
"null","","html-keyboard-response","132","472059","0.0-132.0","3TU5ZICBRENHK9RDAHBCXDM9PVN8QG","A311A0TCGNTFKK","3GVPRXWRPHGYHD0HW29VLS36FVC7I4","","","null","","","","","","","","","",""
"1127.3999999761581","","image-keyboard-response","133","473188","0.0-133.0","3TU5ZICBRENHK9RDAHBCXDM9PVN8QG","A311A0TCGNTFKK","3GVPRXWRPHGYHD0HW29VLS36FVC7I4","","img/set1/S4.jpg","74","4","structured_incentive","74","structured_incentive,structured_normal,structured_load,random","2,3,1,2,4,2","4,1,3,2","true","","",""
"null","","html-keyboard-response","134","473546","0.0-134.0","3TU5ZICBRENHK9RDAHBCXDM9PVN8QG","A311A0TCGNTFKK","3GVPRXWRPHGYHD0HW29VLS36FVC7I4","","<img src=""img/set1/S4.jpg"" width=""540"" height = ""360"" style=""border:16px solid Violet"">","null","","","","","","","","","",""
"null","","html-keyboard-response","135","473763","0.0-135.0","3TU5ZICBRENHK9RDAHBCXDM9PVN8QG","A311A0TCGNTFKK","3GVPRXWRPHGYHD0HW29VLS36FVC7I4","","","null","","","","","","","","","",""
"1512.6000000238419","","image-keyboard-response","136","475277","0.0-136.0","3TU5ZICBRENHK9RDAHBCXDM9PVN8QG","A311A0TCGNTFKK","3GVPRXWRPHGYHD0HW29VLS36FVC7I4","","img/set1/S1.jpg","74","1","structured_incentive","83","structured_incentive,structured_normal,structured_load,random","2,3,1,2,4,2","4,1,3,2","false","","",""
"null","","html-keyboard-response","137","475633","0.0-137.0","3TU5ZICBRENHK9RDAHBCXDM9PVN8QG","A311A0TCGNTFKK","3GVPRXWRPHGYHD0HW29VLS36FVC7I4","","<img src=""img/set1/S1.jpg"" width=""540"" height = ""360"">","null","","","","","","","","","",""
"null","","html-keyboard-response","138","475839","0.0-138.0","3TU5ZICBRENHK9RDAHBCXDM9PVN8QG","A311A0TCGNTFKK","3GVPRXWRPHGYHD0HW29VLS36FVC7I4","","","null","","","","","","","","","",""
"1030.1000000238419","","image-keyboard-response","139","476871","0.0-139.0","3TU5ZICBRENHK9RDAHBCXDM9PVN8QG","A311A0TCGNTFKK","3GVPRXWRPHGYHD0HW29VLS36FVC7I4","","img/set1/S4.jpg","74","4","structured_incentive","74","structured_incentive,structured_normal,structured_load,random","2,3,1,2,4,2","4,1,3,2","true","","",""
"null","","html-keyboard-response","140","477241","0.0-140.0","3TU5ZICBRENHK9RDAHBCXDM9PVN8QG","A311A0TCGNTFKK","3GVPRXWRPHGYHD0HW29VLS36FVC7I4","","<img src=""img/set1/S4.jpg"" width=""540"" height = ""360"" style=""border:16px solid Violet"">","null","","","","","","","","","",""
"null","","html-keyboard-response","141","477443","0.0-141.0","3TU5ZICBRENHK9RDAHBCXDM9PVN8QG","A311A0TCGNTFKK","3GVPRXWRPHGYHD0HW29VLS36FVC7I4","","","null","","","","","","","","","",""
"929.1999999880791","","image-keyboard-response","142","478375","0.0-142.0","3TU5ZICBRENHK9RDAHBCXDM9PVN8QG","A311A0TCGNTFKK","3GVPRXWRPHGYHD0HW29VLS36FVC7I4","","img/set1/S2.jpg","68","2","structured_incentive","68","structured_incentive,structured_normal,structured_load,random","2,3,1,2,4,2","4,1,3,2","true","","",""
"null","","html-keyboard-response","143","478743","0.0-143.0","3TU5ZICBRENHK9RDAHBCXDM9PVN8QG","A311A0TCGNTFKK","3GVPRXWRPHGYHD0HW29VLS36FVC7I4","","<img src=""img/set1/S2.jpg"" width=""540"" height = ""360"" style=""border:16px solid orange"">","null","","","","","","","","","",""
"null","","html-keyboard-response","144","478954","0.0-144.0","3TU5ZICBRENHK9RDAHBCXDM9PVN8QG","A311A0TCGNTFKK","3GVPRXWRPHGYHD0HW29VLS36FVC7I4","","","null","","","","","","","","","",""
"null","","image-keyboard-response","145","481463","0.0-145.0","3TU5ZICBRENHK9RDAHBCXDM9PVN8QG","A311A0TCGNTFKK","3GVPRXWRPHGYHD0HW29VLS36FVC7I4","","img/set1/S3.jpg","null","3","structured_incentive","72","structured_incentive,structured_normal,structured_load,random","2,3,1,2,4,2","4,1,3,2","false","","",""
"null","","html-keyboard-response","146","481832","0.0-146.0","3TU5ZICBRENHK9RDAHBCXDM9PVN8QG","A311A0TCGNTFKK","3GVPRXWRPHGYHD0HW29VLS36FVC7I4","","<img src=""img/set1/S3.jpg"" width=""540"" height = ""360"">","null","","","","","","","","","",""
"null","","html-keyboard-response","147","482052","0.0-147.0","3TU5ZICBRENHK9RDAHBCXDM9PVN8QG","A311A0TCGNTFKK","3GVPRXWRPHGYHD0HW29VLS36FVC7I4","","","null","","","","","","","","","",""
"2455.600000023842","","image-keyboard-response","148","484510","0.0-148.0","3TU5ZICBRENHK9RDAHBCXDM9PVN8QG","A311A0TCGNTFKK","3GVPRXWRPHGYHD0HW29VLS36FVC7I4","","img/set1/S1.jpg","68","1","structured_incentive","83","structured_incentive,structured_normal,structured_load,random","2,3,1,2,4,2","4,1,3,2","false","","",""
"null","","html-keyboard-response","149","484865","0.0-149.0","3TU5ZICBRENHK9RDAHBCXDM9PVN8QG","A311A0TCGNTFKK","3GVPRXWRPHGYHD0HW29VLS36FVC7I4","","<img src=""img/set1/S1.jpg"" width=""540"" height = ""360"">","null","","","","","","","","","",""
"null","","html-keyboard-response","150","485076","0.0-150.0","3TU5ZICBRENHK9RDAHBCXDM9PVN8QG","A311A0TCGNTFKK","3GVPRXWRPHGYHD0HW29VLS36FVC7I4","","","null","","","","","","","","","",""
"1029.6000000238419","","image-keyboard-response","151","486107","0.0-151.0","3TU5ZICBRENHK9RDAHBCXDM9PVN8QG","A311A0TCGNTFKK","3GVPRXWRPHGYHD0HW29VLS36FVC7I4","","img/set1/S1.jpg","68","1","structured_incentive","83","structured_incentive,structured_normal,structured_load,random","2,3,1,2,4,2","4,1,3,2","false","","",""
"null","","html-keyboard-response","152","486477","0.0-152.0","3TU5ZICBRENHK9RDAHBCXDM9PVN8QG","A311A0TCGNTFKK","3GVPRXWRPHGYHD0HW29VLS36FVC7I4","","<img src=""img/set1/S1.jpg"" width=""540"" height = ""360"">","null","","","","","","","","","",""
"null","","html-keyboard-response","153","486695","0.0-153.0","3TU5ZICBRENHK9RDAHBCXDM9PVN8QG","A311A0TCGNTFKK","3GVPRXWRPHGYHD0HW29VLS36FVC7I4","","","null","","","","","","","","","",""
"1106","","image-keyboard-response","154","487803","0.0-154.0","3TU5ZICBRENHK9RDAHBCXDM9PVN8QG","A311A0TCGNTFKK","3GVPRXWRPHGYHD0HW29VLS36FVC7I4","","img/set1/S2.jpg","68","2","structured_incentive","68","structured_incentive,structured_normal,structured_load,random","2,3,1,2,4,2","4,1,3,2","true","","",""
"null","","html-keyboard-response","155","488161","0.0-155.0","3TU5ZICBRENHK9RDAHBCXDM9PVN8QG","A311A0TCGNTFKK","3GVPRXWRPHGYHD0HW29VLS36FVC7I4","","<img src=""img/set1/S2.jpg"" width=""540"" height = ""360"" style=""border:16px solid orange"">","null","","","","","","","","","",""
"null","","html-keyboard-response","156","488365","0.0-156.0","3TU5ZICBRENHK9RDAHBCXDM9PVN8QG","A311A0TCGNTFKK","3GVPRXWRPHGYHD0HW29VLS36FVC7I4","","","null","","","","","","","","","",""
"1724.5999999642372","","image-keyboard-response","157","490091","0.0-157.0","3TU5ZICBRENHK9RDAHBCXDM9PVN8QG","A311A0TCGNTFKK","3GVPRXWRPHGYHD0HW29VLS36FVC7I4","","img/set1/S3.jpg","74","3","structured_incentive","72","structured_incentive,structured_normal,structured_load,random","2,3,1,2,4,2","4,1,3,2","false","","",""
"null","","html-keyboard-response","158","490462","0.0-158.0","3TU5ZICBRENHK9RDAHBCXDM9PVN8QG","A311A0TCGNTFKK","3GVPRXWRPHGYHD0HW29VLS36FVC7I4","","<img src=""img/set1/S3.jpg"" width=""540"" height = ""360"">","null","","","","","","","","","",""
"null","","html-keyboard-response","159","490679","0.0-159.0","3TU5ZICBRENHK9RDAHBCXDM9PVN8QG","A311A0TCGNTFKK","3GVPRXWRPHGYHD0HW29VLS36FVC7I4","","","null","","","","","","","","","",""
"1522.699999988079","","image-keyboard-response","160","492203","0.0-160.0","3TU5ZICBRENHK9RDAHBCXDM9PVN8QG","A311A0TCGNTFKK","3GVPRXWRPHGYHD0HW29VLS36FVC7I4","","img/set1/S2.jpg","68","2","structured_incentive","68","structured_incentive,structured_normal,structured_load,random","2,3,1,2,4,2","4,1,3,2","true","","",""
"null","","html-keyboard-response","161","492560","0.0-161.0","3TU5ZICBRENHK9RDAHBCXDM9PVN8QG","A311A0TCGNTFKK","3GVPRXWRPHGYHD0HW29VLS36FVC7I4","","<img src=""img/set1/S2.jpg"" width=""540"" height = ""360"" style=""border:16px solid orange"">","null","","","","","","","","","",""
"null","","html-keyboard-response","162","492772","0.0-162.0","3TU5ZICBRENHK9RDAHBCXDM9PVN8QG","A311A0TCGNTFKK","3GVPRXWRPHGYHD0HW29VLS36FVC7I4","","","null","","","","","","","","","",""
"1124.7999999523163","","image-keyboard-response","163","493898","0.0-163.0","3TU5ZICBRENHK9RDAHBCXDM9PVN8QG","A311A0TCGNTFKK","3GVPRXWRPHGYHD0HW29VLS36FVC7I4","","img/set1/S4.jpg","74","4","structured_incentive","74","structured_incentive,structured_normal,structured_load,random","2,3,1,2,4,2","4,1,3,2","true","","",""
"null","","html-keyboard-response","164","494253","0.0-164.0","3TU5ZICBRENHK9RDAHBCXDM9PVN8QG","A311A0TCGNTFKK","3GVPRXWRPHGYHD0HW29VLS36FVC7I4","","<img src=""img/set1/S4.jpg"" width=""540"" height = ""360"" style=""border:16px solid Violet"">","null","","","","","","","","","",""
"null","","html-keyboard-response","165","494474","0.0-165.0","3TU5ZICBRENHK9RDAHBCXDM9PVN8QG","A311A0TCGNTFKK","3GVPRXWRPHGYHD0HW29VLS36FVC7I4","","","null","","","","","","","","","",""
"1146.8999999761581","","image-keyboard-response","166","495622","0.0-166.0","3TU5ZICBRENHK9RDAHBCXDM9PVN8QG","A311A0TCGNTFKK","3GVPRXWRPHGYHD0HW29VLS36FVC7I4","","img/set1/S4.jpg","74","4","structured_incentive","74","structured_incentive,structured_normal,structured_load,random","2,3,1,2,4,2","4,1,3,2","true","","",""
"null","","html-keyboard-response","167","495982","0.0-167.0","3TU5ZICBRENHK9RDAHBCXDM9PVN8QG","A311A0TCGNTFKK","3GVPRXWRPHGYHD0HW29VLS36FVC7I4","","<img src=""img/set1/S4.jpg"" width=""540"" height = ""360"" style=""border:16px solid Violet"">","null","","","","","","","","","",""
"null","","html-keyboard-response","168","496200","0.0-168.0","3TU5ZICBRENHK9RDAHBCXDM9PVN8QG","A311A0TCGNTFKK","3GVPRXWRPHGYHD0HW29VLS36FVC7I4","","","null","","","","","","","","","",""
"878.2999999523163","","image-keyboard-response","169","497080","0.0-169.0","3TU5ZICBRENHK9RDAHBCXDM9PVN8QG","A311A0TCGNTFKK","3GVPRXWRPHGYHD0HW29VLS36FVC7I4","","img/set1/S2.jpg","68","2","structured_incentive","68","structured_incentive,structured_normal,structured_load,random","2,3,1,2,4,2","4,1,3,2","true","","",""
"null","","html-keyboard-response","170","497435","0.0-170.0","3TU5ZICBRENHK9RDAHBCXDM9PVN8QG","A311A0TCGNTFKK","3GVPRXWRPHGYHD0HW29VLS36FVC7I4","","<img src=""img/set1/S2.jpg"" width=""540"" height = ""360"" style=""border:16px solid orange"">","null","","","","","","","","","",""
"null","","html-keyboard-response","171","497638","0.0-171.0","3TU5ZICBRENHK9RDAHBCXDM9PVN8QG","A311A0TCGNTFKK","3GVPRXWRPHGYHD0HW29VLS36FVC7I4","","","null","","","","","","","","","",""
"1379.699999988079","","image-keyboard-response","172","499020","0.0-172.0","3TU5ZICBRENHK9RDAHBCXDM9PVN8QG","A311A0TCGNTFKK","3GVPRXWRPHGYHD0HW29VLS36FVC7I4","","img/set1/S3.jpg","74","3","structured_incentive","72","structured_incentive,structured_normal,structured_load,random","2,3,1,2,4,2","4,1,3,2","false","","",""
"null","","html-keyboard-response","173","499376","0.0-173.0","3TU5ZICBRENHK9RDAHBCXDM9PVN8QG","A311A0TCGNTFKK","3GVPRXWRPHGYHD0HW29VLS36FVC7I4","","<img src=""img/set1/S3.jpg"" width=""540"" height = ""360"">","null","","","","","","","","","",""
"null","","html-keyboard-response","174","499582","0.0-174.0","3TU5ZICBRENHK9RDAHBCXDM9PVN8QG","A311A0TCGNTFKK","3GVPRXWRPHGYHD0HW29VLS36FVC7I4","","","null","","","","","","","","","",""
"1234.800000011921","","image-keyboard-response","175","500819","0.0-175.0","3TU5ZICBRENHK9RDAHBCXDM9PVN8QG","A311A0TCGNTFKK","3GVPRXWRPHGYHD0HW29VLS36FVC7I4","","img/set1/S3.jpg","68","3","structured_incentive","72","structured_incentive,structured_normal,structured_load,random","2,3,1,2,4,2","4,1,3,2","false","","",""
"null","","html-keyboard-response","176","501180","0.0-176.0","3TU5ZICBRENHK9RDAHBCXDM9PVN8QG","A311A0TCGNTFKK","3GVPRXWRPHGYHD0HW29VLS36FVC7I4","","<img src=""img/set1/S3.jpg"" width=""540"" height = ""360"">","null","","","","","","","","","",""
"null","","html-keyboard-response","177","501385","0.0-177.0","3TU5ZICBRENHK9RDAHBCXDM9PVN8QG","A311A0TCGNTFKK","3GVPRXWRPHGYHD0HW29VLS36FVC7I4","","","null","","","","","","","","","",""
"1496.5","","image-keyboard-response","178","502884","0.0-178.0","3TU5ZICBRENHK9RDAHBCXDM9PVN8QG","A311A0TCGNTFKK","3GVPRXWRPHGYHD0HW29VLS36FVC7I4","","img/set1/S1.jpg","68","1","structured_incentive","83","structured_incentive,structured_normal,structured_load,random","2,3,1,2,4,2","4,1,3,2","false","","",""
"null","","html-keyboard-response","179","503251","0.0-179.0","3TU5ZICBRENHK9RDAHBCXDM9PVN8QG","A311A0TCGNTFKK","3GVPRXWRPHGYHD0HW29VLS36FVC7I4","","<img src=""img/set1/S1.jpg"" width=""540"" height = ""360"">","null","","","","","","","","","",""
"null","","html-keyboard-response","180","503468","0.0-180.0","3TU5ZICBRENHK9RDAHBCXDM9PVN8QG","A311A0TCGNTFKK","3GVPRXWRPHGYHD0HW29VLS36FVC7I4","","","null","","","","","","","","","",""
"927.5","","image-keyboard-response","181","504397","0.0-181.0","3TU5ZICBRENHK9RDAHBCXDM9PVN8QG","A311A0TCGNTFKK","3GVPRXWRPHGYHD0HW29VLS36FVC7I4","","img/set1/S1.jpg","83","1","structured_incentive","83","structured_incentive,structured_normal,structured_load,random","2,3,1,2,4,2","4,1,3,2","true","","",""
"null","","html-keyboard-response","182","504753","0.0-182.0","3TU5ZICBRENHK9RDAHBCXDM9PVN8QG","A311A0TCGNTFKK","3GVPRXWRPHGYHD0HW29VLS36FVC7I4","","<img src=""img/set1/S1.jpg"" width=""540"" height = ""360"" style=""border:16px solid orange"">","null","","","","","","","","","",""
"null","","html-keyboard-response","183","504963","0.0-183.0","3TU5ZICBRENHK9RDAHBCXDM9PVN8QG","A311A0TCGNTFKK","3GVPRXWRPHGYHD0HW29VLS36FVC7I4","","","null","","","","","","","","","",""
"1021.2999999523163","","image-keyboard-response","184","505987","0.0-184.0","3TU5ZICBRENHK9RDAHBCXDM9PVN8QG","A311A0TCGNTFKK","3GVPRXWRPHGYHD0HW29VLS36FVC7I4","","img/set1/S4.jpg","74","4","structured_incentive","74","structured_incentive,structured_normal,structured_load,random","2,3,1,2,4,2","4,1,3,2","true","","",""
"null","","html-keyboard-response","185","506344","0.0-185.0","3TU5ZICBRENHK9RDAHBCXDM9PVN8QG","A311A0TCGNTFKK","3GVPRXWRPHGYHD0HW29VLS36FVC7I4","","<img src=""img/set1/S4.jpg"" width=""540"" height = ""360"" style=""border:16px solid Violet"">","null","","","","","","","","","",""
"null","","html-keyboard-response","186","506548","0.0-186.0","3TU5ZICBRENHK9RDAHBCXDM9PVN8QG","A311A0TCGNTFKK","3GVPRXWRPHGYHD0HW29VLS36FVC7I4","","","null","","","","","","","","","",""
"965.3000000119209","","image-keyboard-response","187","507516","0.0-187.0","3TU5ZICBRENHK9RDAHBCXDM9PVN8QG","A311A0TCGNTFKK","3GVPRXWRPHGYHD0HW29VLS36FVC7I4","","img/set1/S1.jpg","68","1","structured_incentive","83","structured_incentive,structured_normal,structured_load,random","2,3,1,2,4,2","4,1,3,2","false","","",""
"null","","html-keyboard-response","188","507880","0.0-188.0","3TU5ZICBRENHK9RDAHBCXDM9PVN8QG","A311A0TCGNTFKK","3GVPRXWRPHGYHD0HW29VLS36FVC7I4","","<img src=""img/set1/S1.jpg"" width=""540"" height = ""360"">","null","","","","","","","","","",""
"null","","html-keyboard-response","189","508097","0.0-189.0","3TU5ZICBRENHK9RDAHBCXDM9PVN8QG","A311A0TCGNTFKK","3GVPRXWRPHGYHD0HW29VLS36FVC7I4","","","null","","","","","","","","","",""
"1505.300000011921","","image-keyboard-response","190","509605","0.0-190.0","3TU5ZICBRENHK9RDAHBCXDM9PVN8QG","A311A0TCGNTFKK","3GVPRXWRPHGYHD0HW29VLS36FVC7I4","","img/set1/S3.jpg","83","3","structured_incentive","72","structured_incentive,structured_normal,structured_load,random","2,3,1,2,4,2","4,1,3,2","false","","",""
"null","","html-keyboard-response","191","509959","0.0-191.0","3TU5ZICBRENHK9RDAHBCXDM9PVN8QG","A311A0TCGNTFKK","3GVPRXWRPHGYHD0HW29VLS36FVC7I4","","<img src=""img/set1/S3.jpg"" width=""540"" height = ""360"">","null","","","","","","","","","",""
"null","","html-keyboard-response","192","510161","0.0-192.0","3TU5ZICBRENHK9RDAHBCXDM9PVN8QG","A311A0TCGNTFKK","3GVPRXWRPHGYHD0HW29VLS36FVC7I4","","","null","","","","","","","","","",""
"509.7000000476837","","image-keyboard-response","193","510673","0.0-193.0","3TU5ZICBRENHK9RDAHBCXDM9PVN8QG","A311A0TCGNTFKK","3GVPRXWRPHGYHD0HW29VLS36FVC7I4","","img/set1/S1.jpg","83","1","structured_incentive","83","structured_incentive,structured_normal,structured_load,random","2,3,1,2,4,2","4,1,3,2","true","","",""
"null","","html-keyboard-response","194","511036","0.0-194.0","3TU5ZICBRENHK9RDAHBCXDM9PVN8QG","A311A0TCGNTFKK","3GVPRXWRPHGYHD0HW29VLS36FVC7I4","","<img src=""img/set1/S1.jpg"" width=""540"" height = ""360"" style=""border:16px solid orange"">","null","","","","","","","","","",""
"null","","html-keyboard-response","195","511240","0.0-195.0","3TU5ZICBRENHK9RDAHBCXDM9PVN8QG","A311A0TCGNTFKK","3GVPRXWRPHGYHD0HW29VLS36FVC7I4","","","null","","","","","","","","","",""
"994.5","","image-keyboard-response","196","512237","0.0-196.0","3TU5ZICBRENHK9RDAHBCXDM9PVN8QG","A311A0TCGNTFKK","3GVPRXWRPHGYHD0HW29VLS36FVC7I4","","img/set1/S4.jpg","74","4","structured_incentive","74","structured_incentive,structured_normal,structured_load,random","2,3,1,2,4,2","4,1,3,2","true","","",""
"null","","html-keyboard-response","197","512611","0.0-197.0","3TU5ZICBRENHK9RDAHBCXDM9PVN8QG","A311A0TCGNTFKK","3GVPRXWRPHGYHD0HW29VLS36FVC7I4","","<img src=""img/set1/S4.jpg"" width=""540"" height = ""360"" style=""border:16px solid Violet"">","null","","","","","","","","","",""
"null","","html-keyboard-response","198","512826","0.0-198.0","3TU5ZICBRENHK9RDAHBCXDM9PVN8QG","A311A0TCGNTFKK","3GVPRXWRPHGYHD0HW29VLS36FVC7I4","","","null","","","","","","","","","",""
"995.8999999761581","","image-keyboard-response","199","513824","0.0-199.0","3TU5ZICBRENHK9RDAHBCXDM9PVN8QG","A311A0TCGNTFKK","3GVPRXWRPHGYHD0HW29VLS36FVC7I4","","img/set1/S2.jpg","68","2","structured_incentive","68","structured_incentive,structured_normal,structured_load,random","2,3,1,2,4,2","4,1,3,2","true","","",""
"null","","html-keyboard-response","200","514192","0.0-200.0","3TU5ZICBRENHK9RDAHBCXDM9PVN8QG","A311A0TCGNTFKK","3GVPRXWRPHGYHD0HW29VLS36FVC7I4","","<img src=""img/set1/S2.jpg"" width=""540"" height = ""360"" style=""border:16px solid orange"">","null","","","","","","","","","",""
"null","","html-keyboard-response","201","514397","0.0-201.0","3TU5ZICBRENHK9RDAHBCXDM9PVN8QG","A311A0TCGNTFKK","3GVPRXWRPHGYHD0HW29VLS36FVC7I4","","","null","","","","","","","","","",""
"1635.800000011921","","image-keyboard-response","202","516034","0.0-202.0","3TU5ZICBRENHK9RDAHBCXDM9PVN8QG","A311A0TCGNTFKK","3GVPRXWRPHGYHD0HW29VLS36FVC7I4","","img/set1/S3.jpg","74","3","structured_incentive","72","structured_incentive,structured_normal,structured_load,random","2,3,1,2,4,2","4,1,3,2","false","","",""
"null","","html-keyboard-response","203","516391","0.0-203.0","3TU5ZICBRENHK9RDAHBCXDM9PVN8QG","A311A0TCGNTFKK","3GVPRXWRPHGYHD0HW29VLS36FVC7I4","","<img src=""img/set1/S3.jpg"" width=""540"" height = ""360"">","null","","","","","","","","","",""
"null","","html-keyboard-response","204","516607","0.0-204.0","3TU5ZICBRENHK9RDAHBCXDM9PVN8QG","A311A0TCGNTFKK","3GVPRXWRPHGYHD0HW29VLS36FVC7I4","","","null","","","","","","","","","",""
"989.0999999642372","","image-keyboard-response","205","517598","0.0-205.0","3TU5ZICBRENHK9RDAHBCXDM9PVN8QG","A311A0TCGNTFKK","3GVPRXWRPHGYHD0HW29VLS36FVC7I4","","img/set1/S4.jpg","74","4","structured_incentive","74","structured_incentive,structured_normal,structured_load,random","2,3,1,2,4,2","4,1,3,2","true","","",""
"null","","html-keyboard-response","206","517955","0.0-206.0","3TU5ZICBRENHK9RDAHBCXDM9PVN8QG","A311A0TCGNTFKK","3GVPRXWRPHGYHD0HW29VLS36FVC7I4","","<img src=""img/set1/S4.jpg"" width=""540"" height = ""360"" style=""border:16px solid Violet"">","null","","","","","","","","","",""
"null","","html-keyboard-response","207","518171","0.0-207.0","3TU5ZICBRENHK9RDAHBCXDM9PVN8QG","A311A0TCGNTFKK","3GVPRXWRPHGYHD0HW29VLS36FVC7I4","","","null","","","","","","","","","",""
"1415.9000000357628","","image-keyboard-response","208","519589","0.0-208.0","3TU5ZICBRENHK9RDAHBCXDM9PVN8QG","A311A0TCGNTFKK","3GVPRXWRPHGYHD0HW29VLS36FVC7I4","","img/set1/S1.jpg","68","1","structured_incentive","83","structured_incentive,structured_normal,structured_load,random","2,3,1,2,4,2","4,1,3,2","false","","",""
"null","","html-keyboard-response","209","519944","0.0-209.0","3TU5ZICBRENHK9RDAHBCXDM9PVN8QG","A311A0TCGNTFKK","3GVPRXWRPHGYHD0HW29VLS36FVC7I4","","<img src=""img/set1/S1.jpg"" width=""540"" height = ""360"">","null","","","","","","","","","",""
"null","","html-keyboard-response","210","520156","0.0-210.0","3TU5ZICBRENHK9RDAHBCXDM9PVN8QG","A311A0TCGNTFKK","3GVPRXWRPHGYHD0HW29VLS36FVC7I4","","","null","","","","","","","","","",""
"779.8000000119209","","image-keyboard-response","211","520938","0.0-211.0","3TU5ZICBRENHK9RDAHBCXDM9PVN8QG","A311A0TCGNTFKK","3GVPRXWRPHGYHD0HW29VLS36FVC7I4","","img/set1/S4.jpg","74","4","structured_incentive","74","structured_incentive,structured_normal,structured_load,random","2,3,1,2,4,2","4,1,3,2","true","","",""
"null","","html-keyboard-response","212","521302","0.0-212.0","3TU5ZICBRENHK9RDAHBCXDM9PVN8QG","A311A0TCGNTFKK","3GVPRXWRPHGYHD0HW29VLS36FVC7I4","","<img src=""img/set1/S4.jpg"" width=""540"" height = ""360"" style=""border:16px solid Violet"">","null","","","","","","","","","",""
"null","","html-keyboard-response","213","521517","0.0-213.0","3TU5ZICBRENHK9RDAHBCXDM9PVN8QG","A311A0TCGNTFKK","3GVPRXWRPHGYHD0HW29VLS36FVC7I4","","","null","","","","","","","","","",""
"1141.3999999761581","","image-keyboard-response","214","522660","0.0-214.0","3TU5ZICBRENHK9RDAHBCXDM9PVN8QG","A311A0TCGNTFKK","3GVPRXWRPHGYHD0HW29VLS36FVC7I4","","img/set1/S3.jpg","83","3","structured_incentive","72","structured_incentive,structured_normal,structured_load,random","2,3,1,2,4,2","4,1,3,2","false","","",""
"null","","html-keyboard-response","215","523025","0.0-215.0","3TU5ZICBRENHK9RDAHBCXDM9PVN8QG","A311A0TCGNTFKK","3GVPRXWRPHGYHD0HW29VLS36FVC7I4","","<img src=""img/set1/S3.jpg"" width=""540"" height = ""360"">","null","","","","","","","","","",""
"null","","html-keyboard-response","216","523236","0.0-216.0","3TU5ZICBRENHK9RDAHBCXDM9PVN8QG","A311A0TCGNTFKK","3GVPRXWRPHGYHD0HW29VLS36FVC7I4","","","null","","","","","","","","","",""
"1868.199999988079","","image-keyboard-response","217","525106","0.0-217.0","3TU5ZICBRENHK9RDAHBCXDM9PVN8QG","A311A0TCGNTFKK","3GVPRXWRPHGYHD0HW29VLS36FVC7I4","","img/set1/S2.jpg","83","2","structured_incentive","68","structured_incentive,structured_normal,structured_load,random","2,3,1,2,4,2","4,1,3,2","false","","",""
"null","","html-keyboard-response","218","525475","0.0-218.0","3TU5ZICBRENHK9RDAHBCXDM9PVN8QG","A311A0TCGNTFKK","3GVPRXWRPHGYHD0HW29VLS36FVC7I4","","<img src=""img/set1/S2.jpg"" width=""540"" height = ""360"">","null","","","","","","","","","",""
"null","","html-keyboard-response","219","525691","0.0-219.0","3TU5ZICBRENHK9RDAHBCXDM9PVN8QG","A311A0TCGNTFKK","3GVPRXWRPHGYHD0HW29VLS36FVC7I4","","","null","","","","","","","","","",""
"1253.6000000238419","","image-keyboard-response","220","526947","0.0-220.0","3TU5ZICBRENHK9RDAHBCXDM9PVN8QG","A311A0TCGNTFKK","3GVPRXWRPHGYHD0HW29VLS36FVC7I4","","img/set1/S3.jpg","83","3","structured_incentive","72","structured_incentive,structured_normal,structured_load,random","2,3,1,2,4,2","4,1,3,2","false","","",""
"null","","html-keyboard-response","221","527305","0.0-221.0","3TU5ZICBRENHK9RDAHBCXDM9PVN8QG","A311A0TCGNTFKK","3GVPRXWRPHGYHD0HW29VLS36FVC7I4","","<img src=""img/set1/S3.jpg"" width=""540"" height = ""360"">","null","","","","","","","","","",""
"null","","html-keyboard-response","222","527515","0.0-222.0","3TU5ZICBRENHK9RDAHBCXDM9PVN8QG","A311A0TCGNTFKK","3GVPRXWRPHGYHD0HW29VLS36FVC7I4","","","null","","","","","","","","","",""
"1122.699999988079","","image-keyboard-response","223","528640","0.0-223.0","3TU5ZICBRENHK9RDAHBCXDM9PVN8QG","A311A0TCGNTFKK","3GVPRXWRPHGYHD0HW29VLS36FVC7I4","","img/set1/S1.jpg","83","1","structured_incentive","83","structured_incentive,structured_normal,structured_load,random","2,3,1,2,4,2","4,1,3,2","true","","",""
"null","","html-keyboard-response","224","529009","0.0-224.0","3TU5ZICBRENHK9RDAHBCXDM9PVN8QG","A311A0TCGNTFKK","3GVPRXWRPHGYHD0HW29VLS36FVC7I4","","<img src=""img/set1/S1.jpg"" width=""540"" height = ""360"" style=""border:16px solid orange"">","null","","","","","","","","","",""
"null","","html-keyboard-response","225","529219","0.0-225.0","3TU5ZICBRENHK9RDAHBCXDM9PVN8QG","A311A0TCGNTFKK","3GVPRXWRPHGYHD0HW29VLS36FVC7I4","","","null","","","","","","","","","",""
"1071.7999999523163","","image-keyboard-response","226","530293","0.0-226.0","3TU5ZICBRENHK9RDAHBCXDM9PVN8QG","A311A0TCGNTFKK","3GVPRXWRPHGYHD0HW29VLS36FVC7I4","","img/set1/S2.jpg","68","2","structured_incentive","68","structured_incentive,structured_normal,structured_load,random","2,3,1,2,4,2","4,1,3,2","true","","",""
"null","","html-keyboard-response","227","530664","0.0-227.0","3TU5ZICBRENHK9RDAHBCXDM9PVN8QG","A311A0TCGNTFKK","3GVPRXWRPHGYHD0HW29VLS36FVC7I4","","<img src=""img/set1/S2.jpg"" width=""540"" height = ""360"" style=""border:16px solid orange"">","null","","","","","","","","","",""
"null","","html-keyboard-response","228","530875","0.0-228.0","3TU5ZICBRENHK9RDAHBCXDM9PVN8QG","A311A0TCGNTFKK","3GVPRXWRPHGYHD0HW29VLS36FVC7I4","","","null","","","","","","","","","",""
"840.8999999761581","","image-keyboard-response","229","531718","0.0-229.0","3TU5ZICBRENHK9RDAHBCXDM9PVN8QG","A311A0TCGNTFKK","3GVPRXWRPHGYHD0HW29VLS36FVC7I4","","img/set1/S3.jpg","83","3","structured_incentive","72","structured_incentive,structured_normal,structured_load,random","2,3,1,2,4,2","4,1,3,2","false","","",""
"null","","html-keyboard-response","230","532082","0.0-230.0","3TU5ZICBRENHK9RDAHBCXDM9PVN8QG","A311A0TCGNTFKK","3GVPRXWRPHGYHD0HW29VLS36FVC7I4","","<img src=""img/set1/S3.jpg"" width=""540"" height = ""360"">","null","","","","","","","","","",""
"null","","html-keyboard-response","231","532292","0.0-231.0","3TU5ZICBRENHK9RDAHBCXDM9PVN8QG","A311A0TCGNTFKK","3GVPRXWRPHGYHD0HW29VLS36FVC7I4","","","null","","","","","","","","","",""
"766.3000000119209","","image-keyboard-response","232","533060","0.0-232.0","3TU5ZICBRENHK9RDAHBCXDM9PVN8QG","A311A0TCGNTFKK","3GVPRXWRPHGYHD0HW29VLS36FVC7I4","","img/set1/S4.jpg","74","4","structured_incentive","74","structured_incentive,structured_normal,structured_load,random","2,3,1,2,4,2","4,1,3,2","true","","",""
"null","","html-keyboard-response","233","533425","0.0-233.0","3TU5ZICBRENHK9RDAHBCXDM9PVN8QG","A311A0TCGNTFKK","3GVPRXWRPHGYHD0HW29VLS36FVC7I4","","<img src=""img/set1/S4.jpg"" width=""540"" height = ""360"" style=""border:16px solid Violet"">","null","","","","","","","","","",""
"null","","html-keyboard-response","234","533633","0.0-234.0","3TU5ZICBRENHK9RDAHBCXDM9PVN8QG","A311A0TCGNTFKK","3GVPRXWRPHGYHD0HW29VLS36FVC7I4","","","null","","","","","","","","","",""
"930","","image-keyboard-response","235","534565","0.0-235.0","3TU5ZICBRENHK9RDAHBCXDM9PVN8QG","A311A0TCGNTFKK","3GVPRXWRPHGYHD0HW29VLS36FVC7I4","","img/set1/S2.jpg","68","2","structured_incentive","68","structured_incentive,structured_normal,structured_load,random","2,3,1,2,4,2","4,1,3,2","true","","",""
"null","","html-keyboard-response","236","534923","0.0-236.0","3TU5ZICBRENHK9RDAHBCXDM9PVN8QG","A311A0TCGNTFKK","3GVPRXWRPHGYHD0HW29VLS36FVC7I4","","<img src=""img/set1/S2.jpg"" width=""540"" height = ""360"" style=""border:16px solid orange"">","null","","","","","","","","","",""
"null","","html-keyboard-response","237","535132","0.0-237.0","3TU5ZICBRENHK9RDAHBCXDM9PVN8QG","A311A0TCGNTFKK","3GVPRXWRPHGYHD0HW29VLS36FVC7I4","","","null","","","","","","","","","",""
"1439.7999999523163","","image-keyboard-response","238","536574","0.0-238.0","3TU5ZICBRENHK9RDAHBCXDM9PVN8QG","A311A0TCGNTFKK","3GVPRXWRPHGYHD0HW29VLS36FVC7I4","","img/set1/S3.jpg","68","3","structured_incentive","72","structured_incentive,structured_normal,structured_load,random","2,3,1,2,4,2","4,1,3,2","false","","",""
"null","","html-keyboard-response","239","536942","0.0-239.0","3TU5ZICBRENHK9RDAHBCXDM9PVN8QG","A311A0TCGNTFKK","3GVPRXWRPHGYHD0HW29VLS36FVC7I4","","<img src=""img/set1/S3.jpg"" width=""540"" height = ""360"">","null","","","","","","","","","",""
"null","","html-keyboard-response","240","537161","0.0-240.0","3TU5ZICBRENHK9RDAHBCXDM9PVN8QG","A311A0TCGNTFKK","3GVPRXWRPHGYHD0HW29VLS36FVC7I4","","","null","","","","","","","","","",""
"1655.6000000238419","","image-keyboard-response","241","538819","0.0-241.0","3TU5ZICBRENHK9RDAHBCXDM9PVN8QG","A311A0TCGNTFKK","3GVPRXWRPHGYHD0HW29VLS36FVC7I4","","img/set1/S1.jpg","68","1","structured_incentive","83","structured_incentive,structured_normal,structured_load,random","2,3,1,2,4,2","4,1,3,2","false","","",""
"null","","html-keyboard-response","242","539182","0.0-242.0","3TU5ZICBRENHK9RDAHBCXDM9PVN8QG","A311A0TCGNTFKK","3GVPRXWRPHGYHD0HW29VLS36FVC7I4","","<img src=""img/set1/S1.jpg"" width=""540"" height = ""360"">","null","","","","","","","","","",""
"null","","html-keyboard-response","243","539398","0.0-243.0","3TU5ZICBRENHK9RDAHBCXDM9PVN8QG","A311A0TCGNTFKK","3GVPRXWRPHGYHD0HW29VLS36FVC7I4","","","null","","","","","","","","","",""
"732.4000000357628","","image-keyboard-response","244","540133","0.0-244.0","3TU5ZICBRENHK9RDAHBCXDM9PVN8QG","A311A0TCGNTFKK","3GVPRXWRPHGYHD0HW29VLS36FVC7I4","","img/set1/S1.jpg","83","1","structured_incentive","83","structured_incentive,structured_normal,structured_load,random","2,3,1,2,4,2","4,1,3,2","true","","",""
"null","","html-keyboard-response","245","540487","0.0-245.0","3TU5ZICBRENHK9RDAHBCXDM9PVN8QG","A311A0TCGNTFKK","3GVPRXWRPHGYHD0HW29VLS36FVC7I4","","<img src=""img/set1/S1.jpg"" width=""540"" height = ""360"" style=""border:16px solid orange"">","null","","","","","","","","","",""
"null","","html-keyboard-response","246","540691","0.0-246.0","3TU5ZICBRENHK9RDAHBCXDM9PVN8QG","A311A0TCGNTFKK","3GVPRXWRPHGYHD0HW29VLS36FVC7I4","","","null","","","","","","","","","",""
"678.1999999880791","","image-keyboard-response","247","541371","0.0-247.0","3TU5ZICBRENHK9RDAHBCXDM9PVN8QG","A311A0TCGNTFKK","3GVPRXWRPHGYHD0HW29VLS36FVC7I4","","img/set1/S4.jpg","74","4","structured_incentive","74","structured_incentive,structured_normal,structured_load,random","2,3,1,2,4,2","4,1,3,2","true","","",""
"null","","html-keyboard-response","248","541735","0.0-248.0","3TU5ZICBRENHK9RDAHBCXDM9PVN8QG","A311A0TCGNTFKK","3GVPRXWRPHGYHD0HW29VLS36FVC7I4","","<img src=""img/set1/S4.jpg"" width=""540"" height = ""360"" style=""border:16px solid Violet"">","null","","","","","","","","","",""
"null","","html-keyboard-response","249","541938","0.0-249.0","3TU5ZICBRENHK9RDAHBCXDM9PVN8QG","A311A0TCGNTFKK","3GVPRXWRPHGYHD0HW29VLS36FVC7I4","","","null","","","","","","","","","",""
"879.2000000476837","","image-keyboard-response","250","542819","0.0-250.0","3TU5ZICBRENHK9RDAHBCXDM9PVN8QG","A311A0TCGNTFKK","3GVPRXWRPHGYHD0HW29VLS36FVC7I4","","img/set1/S2.jpg","74","2","structured_incentive","68","structured_incentive,structured_normal,structured_load,random","2,3,1,2,4,2","4,1,3,2","false","","",""
"null","","html-keyboard-response","251","543181","0.0-251.0","3TU5ZICBRENHK9RDAHBCXDM9PVN8QG","A311A0TCGNTFKK","3GVPRXWRPHGYHD0HW29VLS36FVC7I4","","<img src=""img/set1/S2.jpg"" width=""540"" height = ""360"">","null","","","","","","","","","",""
"null","","html-keyboard-response","252","543383","0.0-252.0","3TU5ZICBRENHK9RDAHBCXDM9PVN8QG","A311A0TCGNTFKK","3GVPRXWRPHGYHD0HW29VLS36FVC7I4","","","null","","","","","","","","","",""
"2171.199999988079","","image-keyboard-response","253","545556","0.0-253.0","3TU5ZICBRENHK9RDAHBCXDM9PVN8QG","A311A0TCGNTFKK","3GVPRXWRPHGYHD0HW29VLS36FVC7I4","","img/set1/S3.jpg","83","3","structured_incentive","72","structured_incentive,structured_normal,structured_load,random","2,3,1,2,4,2","4,1,3,2","false","","",""
"null","","html-keyboard-response","254","545930","0.0-254.0","3TU5ZICBRENHK9RDAHBCXDM9PVN8QG","A311A0TCGNTFKK","3GVPRXWRPHGYHD0HW29VLS36FVC7I4","","<img src=""img/set1/S3.jpg"" width=""540"" height = ""360"">","null","","","","","","","","","",""
"null","","html-keyboard-response","255","546147","0.0-255.0","3TU5ZICBRENHK9RDAHBCXDM9PVN8QG","A311A0TCGNTFKK","3GVPRXWRPHGYHD0HW29VLS36FVC7I4","","","null","","","","","","","","","",""
"1612.3999999761581","","image-keyboard-response","256","547762","0.0-256.0","3TU5ZICBRENHK9RDAHBCXDM9PVN8QG","A311A0TCGNTFKK","3GVPRXWRPHGYHD0HW29VLS36FVC7I4","","img/set1/S1.jpg","68","1","structured_incentive","83","structured_incentive,structured_normal,structured_load,random","2,3,1,2,4,2","4,1,3,2","false","","",""
"null","","html-keyboard-response","257","548119","0.0-257.0","3TU5ZICBRENHK9RDAHBCXDM9PVN8QG","A311A0TCGNTFKK","3GVPRXWRPHGYHD0HW29VLS36FVC7I4","","<img src=""img/set1/S1.jpg"" width=""540"" height = ""360"">","null","","","","","","","","","",""
"null","","html-keyboard-response","258","548329","0.0-258.0","3TU5ZICBRENHK9RDAHBCXDM9PVN8QG","A311A0TCGNTFKK","3GVPRXWRPHGYHD0HW29VLS36FVC7I4","","","null","","","","","","","","","",""
"1114.199999988079","","image-keyboard-response","259","549446","0.0-259.0","3TU5ZICBRENHK9RDAHBCXDM9PVN8QG","A311A0TCGNTFKK","3GVPRXWRPHGYHD0HW29VLS36FVC7I4","","img/set1/S2.jpg","68","2","structured_incentive","68","structured_incentive,structured_normal,structured_load,random","2,3,1,2,4,2","4,1,3,2","true","","",""
"null","","html-keyboard-response","260","549809","0.0-260.0","3TU5ZICBRENHK9RDAHBCXDM9PVN8QG","A311A0TCGNTFKK","3GVPRXWRPHGYHD0HW29VLS36FVC7I4","","<img src=""img/set1/S2.jpg"" width=""540"" height = ""360"" style=""border:16px solid orange"">","null","","","","","","","","","",""
"null","","html-keyboard-response","261","550027","0.0-261.0","3TU5ZICBRENHK9RDAHBCXDM9PVN8QG","A311A0TCGNTFKK","3GVPRXWRPHGYHD0HW29VLS36FVC7I4","","","null","","","","","","","","","",""
"1269.6000000238419","","image-keyboard-response","262","551299","0.0-262.0","3TU5ZICBRENHK9RDAHBCXDM9PVN8QG","A311A0TCGNTFKK","3GVPRXWRPHGYHD0HW29VLS36FVC7I4","","img/set1/S3.jpg","68","3","structured_incentive","72","structured_incentive,structured_normal,structured_load,random","2,3,1,2,4,2","4,1,3,2","false","","",""
"null","","html-keyboard-response","263","551661","0.0-263.0","3TU5ZICBRENHK9RDAHBCXDM9PVN8QG","A311A0TCGNTFKK","3GVPRXWRPHGYHD0HW29VLS36FVC7I4","","<img src=""img/set1/S3.jpg"" width=""540"" height = ""360"">","null","","","","","","","","","",""
"null","","html-keyboard-response","264","551869","0.0-264.0","3TU5ZICBRENHK9RDAHBCXDM9PVN8QG","A311A0TCGNTFKK","3GVPRXWRPHGYHD0HW29VLS36FVC7I4","","","null","","","","","","","","","",""
"1151.5","","image-keyboard-response","265","553023","0.0-265.0","3TU5ZICBRENHK9RDAHBCXDM9PVN8QG","A311A0TCGNTFKK","3GVPRXWRPHGYHD0HW29VLS36FVC7I4","","img/set1/S2.jpg","68","2","structured_incentive","68","structured_incentive,structured_normal,structured_load,random","2,3,1,2,4,2","4,1,3,2","true","","",""
"null","","html-keyboard-response","266","553388","0.0-266.0","3TU5ZICBRENHK9RDAHBCXDM9PVN8QG","A311A0TCGNTFKK","3GVPRXWRPHGYHD0HW29VLS36FVC7I4","","<img src=""img/set1/S2.jpg"" width=""540"" height = ""360"" style=""border:16px solid orange"">","null","","","","","","","","","",""
"null","","html-keyboard-response","267","553605","0.0-267.0","3TU5ZICBRENHK9RDAHBCXDM9PVN8QG","A311A0TCGNTFKK","3GVPRXWRPHGYHD0HW29VLS36FVC7I4","","","null","","","","","","","","","",""
"1471.1000000238419","","image-keyboard-response","268","555079","0.0-268.0","3TU5ZICBRENHK9RDAHBCXDM9PVN8QG","A311A0TCGNTFKK","3GVPRXWRPHGYHD0HW29VLS36FVC7I4","","img/set1/S3.jpg","74","3","structured_incentive","72","structured_incentive,structured_normal,structured_load,random","2,3,1,2,4,2","4,1,3,2","false","","",""
"null","","html-keyboard-response","269","555432","0.0-269.0","3TU5ZICBRENHK9RDAHBCXDM9PVN8QG","A311A0TCGNTFKK","3GVPRXWRPHGYHD0HW29VLS36FVC7I4","","<img src=""img/set1/S3.jpg"" width=""540"" height = ""360"">","null","","","","","","","","","",""
"null","","html-keyboard-response","270","555639","0.0-270.0","3TU5ZICBRENHK9RDAHBCXDM9PVN8QG","A311A0TCGNTFKK","3GVPRXWRPHGYHD0HW29VLS36FVC7I4","","","null","","","","","","","","","",""
"1703.199999988079","","image-keyboard-response","271","557345","0.0-271.0","3TU5ZICBRENHK9RDAHBCXDM9PVN8QG","A311A0TCGNTFKK","3GVPRXWRPHGYHD0HW29VLS36FVC7I4","","img/set1/S1.jpg","83","1","structured_incentive","83","structured_incentive,structured_normal,structured_load,random","2,3,1,2,4,2","4,1,3,2","true","","",""
"null","","html-keyboard-response","272","557709","0.0-272.0","3TU5ZICBRENHK9RDAHBCXDM9PVN8QG","A311A0TCGNTFKK","3GVPRXWRPHGYHD0HW29VLS36FVC7I4","","<img src=""img/set1/S1.jpg"" width=""540"" height = ""360"" style=""border:16px solid orange"">","null","","","","","","","","","",""
"null","","html-keyboard-response","273","557921","0.0-273.0","3TU5ZICBRENHK9RDAHBCXDM9PVN8QG","A311A0TCGNTFKK","3GVPRXWRPHGYHD0HW29VLS36FVC7I4","","","null","","","","","","","","","",""
"793.6000000238419","","image-keyboard-response","274","558716","0.0-274.0","3TU5ZICBRENHK9RDAHBCXDM9PVN8QG","A311A0TCGNTFKK","3GVPRXWRPHGYHD0HW29VLS36FVC7I4","","img/set1/S1.jpg","83","1","structured_incentive","83","structured_incentive,structured_normal,structured_load,random","2,3,1,2,4,2","4,1,3,2","true","","",""
"null","","html-keyboard-response","275","559070","0.0-275.0","3TU5ZICBRENHK9RDAHBCXDM9PVN8QG","A311A0TCGNTFKK","3GVPRXWRPHGYHD0HW29VLS36FVC7I4","","<img src=""img/set1/S1.jpg"" width=""540"" height = ""360"" style=""border:16px solid orange"">","null","","","","","","","","","",""
"null","","html-keyboard-response","276","559282","0.0-276.0","3TU5ZICBRENHK9RDAHBCXDM9PVN8QG","A311A0TCGNTFKK","3GVPRXWRPHGYHD0HW29VLS36FVC7I4","","","null","","","","","","","","","",""
"675.2000000476837","","image-keyboard-response","277","559960","0.0-277.0","3TU5ZICBRENHK9RDAHBCXDM9PVN8QG","A311A0TCGNTFKK","3GVPRXWRPHGYHD0HW29VLS36FVC7I4","","img/set1/S4.jpg","74","4","structured_incentive","74","structured_incentive,structured_normal,structured_load,random","2,3,1,2,4,2","4,1,3,2","true","","",""
"null","","html-keyboard-response","278","560319","0.0-278.0","3TU5ZICBRENHK9RDAHBCXDM9PVN8QG","A311A0TCGNTFKK","3GVPRXWRPHGYHD0HW29VLS36FVC7I4","","<img src=""img/set1/S4.jpg"" width=""540"" height = ""360"" style=""border:16px solid Violet"">","null","","","","","","","","","",""
"null","","html-keyboard-response","279","560537","0.0-279.0","3TU5ZICBRENHK9RDAHBCXDM9PVN8QG","A311A0TCGNTFKK","3GVPRXWRPHGYHD0HW29VLS36FVC7I4","","","null","","","","","","","","","",""
"750.0999999642372","","image-keyboard-response","280","561290","0.0-280.0","3TU5ZICBRENHK9RDAHBCXDM9PVN8QG","A311A0TCGNTFKK","3GVPRXWRPHGYHD0HW29VLS36FVC7I4","","img/set1/S1.jpg","83","1","structured_incentive","83","structured_incentive,structured_normal,structured_load,random","2,3,1,2,4,2","4,1,3,2","true","","",""
"null","","html-keyboard-response","281","561659","0.0-281.0","3TU5ZICBRENHK9RDAHBCXDM9PVN8QG","A311A0TCGNTFKK","3GVPRXWRPHGYHD0HW29VLS36FVC7I4","","<img src=""img/set1/S1.jpg"" width=""540"" height = ""360"" style=""border:16px solid orange"">","null","","","","","","","","","",""
"null","","html-keyboard-response","282","561863","0.0-282.0","3TU5ZICBRENHK9RDAHBCXDM9PVN8QG","A311A0TCGNTFKK","3GVPRXWRPHGYHD0HW29VLS36FVC7I4","","","null","","","","","","","","","",""
"601","","image-keyboard-response","283","562466","0.0-283.0","3TU5ZICBRENHK9RDAHBCXDM9PVN8QG","A311A0TCGNTFKK","3GVPRXWRPHGYHD0HW29VLS36FVC7I4","","img/set1/S1.jpg","83","1","structured_incentive","83","structured_incentive,structured_normal,structured_load,random","2,3,1,2,4,2","4,1,3,2","true","","",""
"null","","html-keyboard-response","284","562833","0.0-284.0","3TU5ZICBRENHK9RDAHBCXDM9PVN8QG","A311A0TCGNTFKK","3GVPRXWRPHGYHD0HW29VLS36FVC7I4","","<img src=""img/set1/S1.jpg"" width=""540"" height = ""360"" style=""border:16px solid orange"">","null","","","","","","","","","",""
"null","","html-keyboard-response","285","563043","0.0-285.0","3TU5ZICBRENHK9RDAHBCXDM9PVN8QG","A311A0TCGNTFKK","3GVPRXWRPHGYHD0HW29VLS36FVC7I4","","","null","","","","","","","","","",""
"654.1999999880791","","image-keyboard-response","286","563699","0.0-286.0","3TU5ZICBRENHK9RDAHBCXDM9PVN8QG","A311A0TCGNTFKK","3GVPRXWRPHGYHD0HW29VLS36FVC7I4","","img/set1/S4.jpg","74","4","structured_incentive","74","structured_incentive,structured_normal,structured_load,random","2,3,1,2,4,2","4,1,3,2","true","","",""
"null","","html-keyboard-response","287","564061","0.0-287.0","3TU5ZICBRENHK9RDAHBCXDM9PVN8QG","A311A0TCGNTFKK","3GVPRXWRPHGYHD0HW29VLS36FVC7I4","","<img src=""img/set1/S4.jpg"" width=""540"" height = ""360"" style=""border:16px solid Violet"">","null","","","","","","","","","",""
"null","","html-keyboard-response","288","564283","0.0-288.0","3TU5ZICBRENHK9RDAHBCXDM9PVN8QG","A311A0TCGNTFKK","3GVPRXWRPHGYHD0HW29VLS36FVC7I4","","","null","","","","","","","","","",""
"1027.3999999761581","","image-keyboard-response","289","565313","0.0-289.0","3TU5ZICBRENHK9RDAHBCXDM9PVN8QG","A311A0TCGNTFKK","3GVPRXWRPHGYHD0HW29VLS36FVC7I4","","img/set1/S2.jpg","83","2","structured_incentive","68","structured_incentive,structured_normal,structured_load,random","2,3,1,2,4,2","4,1,3,2","false","","",""
"null","","html-keyboard-response","290","565666","0.0-290.0","3TU5ZICBRENHK9RDAHBCXDM9PVN8QG","A311A0TCGNTFKK","3GVPRXWRPHGYHD0HW29VLS36FVC7I4","","<img src=""img/set1/S2.jpg"" width=""540"" height = ""360"">","null","","","","","","","","","",""
"null","","html-keyboard-response","291","565870","0.0-291.0","3TU5ZICBRENHK9RDAHBCXDM9PVN8QG","A311A0TCGNTFKK","3GVPRXWRPHGYHD0HW29VLS36FVC7I4","","","null","","","","","","","","","",""
"662.9000000357628","","image-keyboard-response","292","566535","0.0-292.0","3TU5ZICBRENHK9RDAHBCXDM9PVN8QG","A311A0TCGNTFKK","3GVPRXWRPHGYHD0HW29VLS36FVC7I4","","img/set1/S4.jpg","74","4","structured_incentive","74","structured_incentive,structured_normal,structured_load,random","2,3,1,2,4,2","4,1,3,2","true","","",""
"null","","html-keyboard-response","293","566894","0.0-293.0","3TU5ZICBRENHK9RDAHBCXDM9PVN8QG","A311A0TCGNTFKK","3GVPRXWRPHGYHD0HW29VLS36FVC7I4","","<img src=""img/set1/S4.jpg"" width=""540"" height = ""360"" style=""border:16px solid Violet"">","null","","","","","","","","","",""
"null","","html-keyboard-response","294","567098","0.0-294.0","3TU5ZICBRENHK9RDAHBCXDM9PVN8QG","A311A0TCGNTFKK","3GVPRXWRPHGYHD0HW29VLS36FVC7I4","","","null","","","","","","","","","",""
"883.5","","image-keyboard-response","295","567984","0.0-295.0","3TU5ZICBRENHK9RDAHBCXDM9PVN8QG","A311A0TCGNTFKK","3GVPRXWRPHGYHD0HW29VLS36FVC7I4","","img/set1/S1.jpg","83","1","structured_incentive","83","structured_incentive,structured_normal,structured_load,random","2,3,1,2,4,2","4,1,3,2","true","","",""
"null","","html-keyboard-response","296","568353","0.0-296.0","3TU5ZICBRENHK9RDAHBCXDM9PVN8QG","A311A0TCGNTFKK","3GVPRXWRPHGYHD0HW29VLS36FVC7I4","","<img src=""img/set1/S1.jpg"" width=""540"" height = ""360"" style=""border:16px solid orange"">","null","","","","","","","","","",""
"null","","html-keyboard-response","297","568558","0.0-297.0","3TU5ZICBRENHK9RDAHBCXDM9PVN8QG","A311A0TCGNTFKK","3GVPRXWRPHGYHD0HW29VLS36FVC7I4","","","null","","","","","","","","","",""
"677.8999999761581","","image-keyboard-response","298","569242","0.0-298.0","3TU5ZICBRENHK9RDAHBCXDM9PVN8QG","A311A0TCGNTFKK","3GVPRXWRPHGYHD0HW29VLS36FVC7I4","","img/set1/S1.jpg","83","1","structured_incentive","83","structured_incentive,structured_normal,structured_load,random","2,3,1,2,4,2","4,1,3,2","true","","",""
"null","","html-keyboard-response","299","569602","0.0-299.0","3TU5ZICBRENHK9RDAHBCXDM9PVN8QG","A311A0TCGNTFKK","3GVPRXWRPHGYHD0HW29VLS36FVC7I4","","<img src=""img/set1/S1.jpg"" width=""540"" height = ""360"" style=""border:16px solid orange"">","null","","","","","","","","","",""
"null","","html-keyboard-response","300","569806","0.0-300.0","3TU5ZICBRENHK9RDAHBCXDM9PVN8QG","A311A0TCGNTFKK","3GVPRXWRPHGYHD0HW29VLS36FVC7I4","","","null","","","","","","","","","",""
"736.5999999642372","","image-keyboard-response","301","570544","0.0-301.0","3TU5ZICBRENHK9RDAHBCXDM9PVN8QG","A311A0TCGNTFKK","3GVPRXWRPHGYHD0HW29VLS36FVC7I4","","img/set1/S2.jpg","68","2","structured_incentive","68","structured_incentive,structured_normal,structured_load,random","2,3,1,2,4,2","4,1,3,2","true","","",""
"null","","html-keyboard-response","302","570900","0.0-302.0","3TU5ZICBRENHK9RDAHBCXDM9PVN8QG","A311A0TCGNTFKK","3GVPRXWRPHGYHD0HW29VLS36FVC7I4","","<img src=""img/set1/S2.jpg"" width=""540"" height = ""360"" style=""border:16px solid orange"">","null","","","","","","","","","",""
"null","","html-keyboard-response","303","571110","0.0-303.0","3TU5ZICBRENHK9RDAHBCXDM9PVN8QG","A311A0TCGNTFKK","3GVPRXWRPHGYHD0HW29VLS36FVC7I4","","","null","","","","","","","","","",""
"1896.1000000238419","","image-keyboard-response","304","573008","0.0-304.0","3TU5ZICBRENHK9RDAHBCXDM9PVN8QG","A311A0TCGNTFKK","3GVPRXWRPHGYHD0HW29VLS36FVC7I4","","img/set1/S3.jpg","68","3","structured_incentive","72","structured_incentive,structured_normal,structured_load,random","2,3,1,2,4,2","4,1,3,2","false","","",""
"null","","html-keyboard-response","305","573371","0.0-305.0","3TU5ZICBRENHK9RDAHBCXDM9PVN8QG","A311A0TCGNTFKK","3GVPRXWRPHGYHD0HW29VLS36FVC7I4","","<img src=""img/set1/S3.jpg"" width=""540"" height = ""360"">","null","","","","","","","","","",""
"null","","html-keyboard-response","306","573587","0.0-306.0","3TU5ZICBRENHK9RDAHBCXDM9PVN8QG","A311A0TCGNTFKK","3GVPRXWRPHGYHD0HW29VLS36FVC7I4","","","null","","","","","","","","","",""
"898","","image-keyboard-response","307","574487","0.0-307.0","3TU5ZICBRENHK9RDAHBCXDM9PVN8QG","A311A0TCGNTFKK","3GVPRXWRPHGYHD0HW29VLS36FVC7I4","","img/set1/S2.jpg","83","2","structured_incentive","68","structured_incentive,structured_normal,structured_load,random","2,3,1,2,4,2","4,1,3,2","false","","",""
"null","","html-keyboard-response","308","574858","0.0-308.0","3TU5ZICBRENHK9RDAHBCXDM9PVN8QG","A311A0TCGNTFKK","3GVPRXWRPHGYHD0HW29VLS36FVC7I4","","<img src=""img/set1/S2.jpg"" width=""540"" height = ""360"">","null","","","","","","","","","",""
"null","","html-keyboard-response","309","575069","0.0-309.0","3TU5ZICBRENHK9RDAHBCXDM9PVN8QG","A311A0TCGNTFKK","3GVPRXWRPHGYHD0HW29VLS36FVC7I4","","","null","","","","","","","","","",""
"2222.399999976158","","image-keyboard-response","310","577294","0.0-310.0","3TU5ZICBRENHK9RDAHBCXDM9PVN8QG","A311A0TCGNTFKK","3GVPRXWRPHGYHD0HW29VLS36FVC7I4","","img/set1/S3.jpg","68","3","structured_incentive","72","structured_incentive,structured_normal,structured_load,random","2,3,1,2,4,2","4,1,3,2","false","","",""
"null","","html-keyboard-response","311","577656","0.0-311.0","3TU5ZICBRENHK9RDAHBCXDM9PVN8QG","A311A0TCGNTFKK","3GVPRXWRPHGYHD0HW29VLS36FVC7I4","","<img src=""img/set1/S3.jpg"" width=""540"" height = ""360"">","null","","","","","","","","","",""
"null","","html-keyboard-response","312","577867","0.0-312.0","3TU5ZICBRENHK9RDAHBCXDM9PVN8QG","A311A0TCGNTFKK","3GVPRXWRPHGYHD0HW29VLS36FVC7I4","","","null","","","","","","","","","",""
"1619.5","","image-keyboard-response","313","579489","0.0-313.0","3TU5ZICBRENHK9RDAHBCXDM9PVN8QG","A311A0TCGNTFKK","3GVPRXWRPHGYHD0HW29VLS36FVC7I4","","img/set1/S1.jpg","83","1","structured_incentive","83","structured_incentive,structured_normal,structured_load,random","2,3,1,2,4,2","4,1,3,2","true","","",""
"null","","html-keyboard-response","314","579860","0.0-314.0","3TU5ZICBRENHK9RDAHBCXDM9PVN8QG","A311A0TCGNTFKK","3GVPRXWRPHGYHD0HW29VLS36FVC7I4","","<img src=""img/set1/S1.jpg"" width=""540"" height = ""360"" style=""border:16px solid orange"">","null","","","","","","","","","",""
"null","","html-keyboard-response","315","580070","0.0-315.0","3TU5ZICBRENHK9RDAHBCXDM9PVN8QG","A311A0TCGNTFKK","3GVPRXWRPHGYHD0HW29VLS36FVC7I4","","","null","","","","","","","","","",""
"804.8999999761581","","image-keyboard-response","316","580878","0.0-316.0","3TU5ZICBRENHK9RDAHBCXDM9PVN8QG","A311A0TCGNTFKK","3GVPRXWRPHGYHD0HW29VLS36FVC7I4","","img/set1/S1.jpg","83","1","structured_incentive","83","structured_incentive,structured_normal,structured_load,random","2,3,1,2,4,2","4,1,3,2","true","","",""
"null","","html-keyboard-response","317","581248","0.0-317.0","3TU5ZICBRENHK9RDAHBCXDM9PVN8QG","A311A0TCGNTFKK","3GVPRXWRPHGYHD0HW29VLS36FVC7I4","","<img src=""img/set1/S1.jpg"" width=""540"" height = ""360"" style=""border:16px solid orange"">","null","","","","","","","","","",""
"null","","html-keyboard-response","318","581457","0.0-318.0","3TU5ZICBRENHK9RDAHBCXDM9PVN8QG","A311A0TCGNTFKK","3GVPRXWRPHGYHD0HW29VLS36FVC7I4","","","null","","","","","","","","","",""
"733.2000000476837","","image-keyboard-response","319","582193","0.0-319.0","3TU5ZICBRENHK9RDAHBCXDM9PVN8QG","A311A0TCGNTFKK","3GVPRXWRPHGYHD0HW29VLS36FVC7I4","","img/set1/S4.jpg","74","4","structured_incentive","74","structured_incentive,structured_normal,structured_load,random","2,3,1,2,4,2","4,1,3,2","true","","",""
"null","","html-keyboard-response","320","582553","0.0-320.0","3TU5ZICBRENHK9RDAHBCXDM9PVN8QG","A311A0TCGNTFKK","3GVPRXWRPHGYHD0HW29VLS36FVC7I4","","<img src=""img/set1/S4.jpg"" width=""540"" height = ""360"" style=""border:16px solid Violet"">","null","","","","","","","","","",""
"null","","html-keyboard-response","321","582759","0.0-321.0","3TU5ZICBRENHK9RDAHBCXDM9PVN8QG","A311A0TCGNTFKK","3GVPRXWRPHGYHD0HW29VLS36FVC7I4","","","null","","","","","","","","","",""
"1213.3999999761581","","image-keyboard-response","322","583975","0.0-322.0","3TU5ZICBRENHK9RDAHBCXDM9PVN8QG","A311A0TCGNTFKK","3GVPRXWRPHGYHD0HW29VLS36FVC7I4","","img/set1/S2.jpg","83","2","structured_incentive","68","structured_incentive,structured_normal,structured_load,random","2,3,1,2,4,2","4,1,3,2","false","","",""
"null","","html-keyboard-response","323","584331","0.0-323.0","3TU5ZICBRENHK9RDAHBCXDM9PVN8QG","A311A0TCGNTFKK","3GVPRXWRPHGYHD0HW29VLS36FVC7I4","","<img src=""img/set1/S2.jpg"" width=""540"" height = ""360"">","null","","","","","","","","","",""
"null","","html-keyboard-response","324","584547","0.0-324.0","3TU5ZICBRENHK9RDAHBCXDM9PVN8QG","A311A0TCGNTFKK","3GVPRXWRPHGYHD0HW29VLS36FVC7I4","","","null","","","","","","","","","",""
"1671.8999999761581","","image-keyboard-response","325","586222","0.0-325.0","3TU5ZICBRENHK9RDAHBCXDM9PVN8QG","A311A0TCGNTFKK","3GVPRXWRPHGYHD0HW29VLS36FVC7I4","","img/set1/S3.jpg","68","3","structured_incentive","72","structured_incentive,structured_normal,structured_load,random","2,3,1,2,4,2","4,1,3,2","false","","",""
"null","","html-keyboard-response","326","586583","0.0-326.0","3TU5ZICBRENHK9RDAHBCXDM9PVN8QG","A311A0TCGNTFKK","3GVPRXWRPHGYHD0HW29VLS36FVC7I4","","<img src=""img/set1/S3.jpg"" width=""540"" height = ""360"">","null","","","","","","","","","",""
"null","","html-keyboard-response","327","586795","0.0-327.0","3TU5ZICBRENHK9RDAHBCXDM9PVN8QG","A311A0TCGNTFKK","3GVPRXWRPHGYHD0HW29VLS36FVC7I4","","","null","","","","","","","","","",""
"480.30000001192093","","image-keyboard-response","328","587278","0.0-328.0","3TU5ZICBRENHK9RDAHBCXDM9PVN8QG","A311A0TCGNTFKK","3GVPRXWRPHGYHD0HW29VLS36FVC7I4","","img/set1/S1.jpg","83","1","structured_incentive","83","structured_incentive,structured_normal,structured_load,random","2,3,1,2,4,2","4,1,3,2","true","","",""
"null","","html-keyboard-response","329","587645","0.0-329.0","3TU5ZICBRENHK9RDAHBCXDM9PVN8QG","A311A0TCGNTFKK","3GVPRXWRPHGYHD0HW29VLS36FVC7I4","","<img src=""img/set1/S1.jpg"" width=""540"" height = ""360"" style=""border:16px solid orange"">","null","","","","","","","","","",""
"null","","html-keyboard-response","330","587854","0.0-330.0","3TU5ZICBRENHK9RDAHBCXDM9PVN8QG","A311A0TCGNTFKK","3GVPRXWRPHGYHD0HW29VLS36FVC7I4","","","null","","","","","","","","","",""
"449.10000002384186","","image-keyboard-response","331","588305","0.0-331.0","3TU5ZICBRENHK9RDAHBCXDM9PVN8QG","A311A0TCGNTFKK","3GVPRXWRPHGYHD0HW29VLS36FVC7I4","","img/set1/S1.jpg","83","1","structured_incentive","83","structured_incentive,structured_normal,structured_load,random","2,3,1,2,4,2","4,1,3,2","true","","",""
"null","","html-keyboard-response","332","588669","0.0-332.0","3TU5ZICBRENHK9RDAHBCXDM9PVN8QG","A311A0TCGNTFKK","3GVPRXWRPHGYHD0HW29VLS36FVC7I4","","<img src=""img/set1/S1.jpg"" width=""540"" height = ""360"" style=""border:16px solid orange"">","null","","","","","","","","","",""
"null","","html-keyboard-response","333","588879","0.0-333.0","3TU5ZICBRENHK9RDAHBCXDM9PVN8QG","A311A0TCGNTFKK","3GVPRXWRPHGYHD0HW29VLS36FVC7I4","","","null","","","","","","","","","",""
"437.60000002384186","","image-keyboard-response","334","589318","0.0-334.0","3TU5ZICBRENHK9RDAHBCXDM9PVN8QG","A311A0TCGNTFKK","3GVPRXWRPHGYHD0HW29VLS36FVC7I4","","img/set1/S1.jpg","83","1","structured_incentive","83","structured_incentive,structured_normal,structured_load,random","2,3,1,2,4,2","4,1,3,2","true","","",""
"null","","html-keyboard-response","335","589677","0.0-335.0","3TU5ZICBRENHK9RDAHBCXDM9PVN8QG","A311A0TCGNTFKK","3GVPRXWRPHGYHD0HW29VLS36FVC7I4","","<img src=""img/set1/S1.jpg"" width=""540"" height = ""360"" style=""border:16px solid orange"">","null","","","","","","","","","",""
"null","","html-keyboard-response","336","589887","0.0-336.0","3TU5ZICBRENHK9RDAHBCXDM9PVN8QG","A311A0TCGNTFKK","3GVPRXWRPHGYHD0HW29VLS36FVC7I4","","","null","","","","","","","","","",""
"953.5","","image-keyboard-response","337","590843","0.0-337.0","3TU5ZICBRENHK9RDAHBCXDM9PVN8QG","A311A0TCGNTFKK","3GVPRXWRPHGYHD0HW29VLS36FVC7I4","","img/set1/S2.jpg","83","2","structured_incentive","68","structured_incentive,structured_normal,structured_load,random","2,3,1,2,4,2","4,1,3,2","false","","",""
"null","","html-keyboard-response","338","591199","0.0-338.0","3TU5ZICBRENHK9RDAHBCXDM9PVN8QG","A311A0TCGNTFKK","3GVPRXWRPHGYHD0HW29VLS36FVC7I4","","<img src=""img/set1/S2.jpg"" width=""540"" height = ""360"">","null","","","","","","","","","",""
"null","","html-keyboard-response","339","591402","0.0-339.0","3TU5ZICBRENHK9RDAHBCXDM9PVN8QG","A311A0TCGNTFKK","3GVPRXWRPHGYHD0HW29VLS36FVC7I4","","","null","","","","","","","","","",""
"1186.4000000357628","","image-keyboard-response","340","592590","0.0-340.0","3TU5ZICBRENHK9RDAHBCXDM9PVN8QG","A311A0TCGNTFKK","3GVPRXWRPHGYHD0HW29VLS36FVC7I4","","img/set1/S3.jpg","68","3","structured_incentive","72","structured_incentive,structured_normal,structured_load,random","2,3,1,2,4,2","4,1,3,2","false","","",""
"null","","html-keyboard-response","341","592954","0.0-341.0","3TU5ZICBRENHK9RDAHBCXDM9PVN8QG","A311A0TCGNTFKK","3GVPRXWRPHGYHD0HW29VLS36FVC7I4","","<img src=""img/set1/S3.jpg"" width=""540"" height = ""360"">","null","","","","","","","","","",""
"null","","html-keyboard-response","342","593163","0.0-342.0","3TU5ZICBRENHK9RDAHBCXDM9PVN8QG","A311A0TCGNTFKK","3GVPRXWRPHGYHD0HW29VLS36FVC7I4","","","null","","","","","","","","","",""
"767.7999999523163","","image-keyboard-response","343","593934","0.0-343.0","3TU5ZICBRENHK9RDAHBCXDM9PVN8QG","A311A0TCGNTFKK","3GVPRXWRPHGYHD0HW29VLS36FVC7I4","","img/set1/S4.jpg","74","4","structured_incentive","74","structured_incentive,structured_normal,structured_load,random","2,3,1,2,4,2","4,1,3,2","true","","",""
"null","","html-keyboard-response","344","594299","0.0-344.0","3TU5ZICBRENHK9RDAHBCXDM9PVN8QG","A311A0TCGNTFKK","3GVPRXWRPHGYHD0HW29VLS36FVC7I4","","<img src=""img/set1/S4.jpg"" width=""540"" height = ""360"" style=""border:16px solid Violet"">","null","","","","","","","","","",""
"null","","html-keyboard-response","345","594512","0.0-345.0","3TU5ZICBRENHK9RDAHBCXDM9PVN8QG","A311A0TCGNTFKK","3GVPRXWRPHGYHD0HW29VLS36FVC7I4","","","null","","","","","","","","","",""
"999.0999999642372","","image-keyboard-response","346","595513","0.0-346.0","3TU5ZICBRENHK9RDAHBCXDM9PVN8QG","A311A0TCGNTFKK","3GVPRXWRPHGYHD0HW29VLS36FVC7I4","","img/set1/S2.jpg","83","2","structured_incentive","68","structured_incentive,structured_normal,structured_load,random","2,3,1,2,4,2","4,1,3,2","false","","",""
"null","","html-keyboard-response","347","595884","0.0-347.0","3TU5ZICBRENHK9RDAHBCXDM9PVN8QG","A311A0TCGNTFKK","3GVPRXWRPHGYHD0HW29VLS36FVC7I4","","<img src=""img/set1/S2.jpg"" width=""540"" height = ""360"">","null","","","","","","","","","",""
"null","","html-keyboard-response","348","596102","0.0-348.0","3TU5ZICBRENHK9RDAHBCXDM9PVN8QG","A311A0TCGNTFKK","3GVPRXWRPHGYHD0HW29VLS36FVC7I4","","","null","","","","","","","","","",""
"1271.0999999642372","","image-keyboard-response","349","597375","0.0-349.0","3TU5ZICBRENHK9RDAHBCXDM9PVN8QG","A311A0TCGNTFKK","3GVPRXWRPHGYHD0HW29VLS36FVC7I4","","img/set1/S3.jpg","68","3","structured_incentive","72","structured_incentive,structured_normal,structured_load,random","2,3,1,2,4,2","4,1,3,2","false","","",""
"null","","html-keyboard-response","350","597739","0.0-350.0","3TU5ZICBRENHK9RDAHBCXDM9PVN8QG","A311A0TCGNTFKK","3GVPRXWRPHGYHD0HW29VLS36FVC7I4","","<img src=""img/set1/S3.jpg"" width=""540"" height = ""360"">","null","","","","","","","","","",""
"null","","html-keyboard-response","351","597948","0.0-351.0","3TU5ZICBRENHK9RDAHBCXDM9PVN8QG","A311A0TCGNTFKK","3GVPRXWRPHGYHD0HW29VLS36FVC7I4","","","null","","","","","","","","","",""
"830.6999999880791","","image-keyboard-response","352","598781","0.0-352.0","3TU5ZICBRENHK9RDAHBCXDM9PVN8QG","A311A0TCGNTFKK","3GVPRXWRPHGYHD0HW29VLS36FVC7I4","","img/set1/S4.jpg","74","4","structured_incentive","74","structured_incentive,structured_normal,structured_load,random","2,3,1,2,4,2","4,1,3,2","true","","",""
"null","","html-keyboard-response","353","599148","0.0-353.0","3TU5ZICBRENHK9RDAHBCXDM9PVN8QG","A311A0TCGNTFKK","3GVPRXWRPHGYHD0HW29VLS36FVC7I4","","<img src=""img/set1/S4.jpg"" width=""540"" height = ""360"" style=""border:16px solid Violet"">","null","","","","","","","","","",""
"null","","html-keyboard-response","354","599359","0.0-354.0","3TU5ZICBRENHK9RDAHBCXDM9PVN8QG","A311A0TCGNTFKK","3GVPRXWRPHGYHD0HW29VLS36FVC7I4","","","null","","","","","","","","","",""
"617.1000000238419","","image-keyboard-response","355","599978","0.0-355.0","3TU5ZICBRENHK9RDAHBCXDM9PVN8QG","A311A0TCGNTFKK","3GVPRXWRPHGYHD0HW29VLS36FVC7I4","","img/set1/S4.jpg","74","4","structured_incentive","74","structured_incentive,structured_normal,structured_load,random","2,3,1,2,4,2","4,1,3,2","true","","",""
"null","","html-keyboard-response","356","600347","0.0-356.0","3TU5ZICBRENHK9RDAHBCXDM9PVN8QG","A311A0TCGNTFKK","3GVPRXWRPHGYHD0HW29VLS36FVC7I4","","<img src=""img/set1/S4.jpg"" width=""540"" height = ""360"" style=""border:16px solid Violet"">","null","","","","","","","","","",""
"null","","html-keyboard-response","357","600550","0.0-357.0","3TU5ZICBRENHK9RDAHBCXDM9PVN8QG","A311A0TCGNTFKK","3GVPRXWRPHGYHD0HW29VLS36FVC7I4","","","null","","","","","","","","","",""
"509","","image-keyboard-response","358","601061","0.0-358.0","3TU5ZICBRENHK9RDAHBCXDM9PVN8QG","A311A0TCGNTFKK","3GVPRXWRPHGYHD0HW29VLS36FVC7I4","","img/set1/S4.jpg","74","4","structured_incentive","74","structured_incentive,structured_normal,structured_load,random","2,3,1,2,4,2","4,1,3,2","true","","",""
"null","","html-keyboard-response","359","601429","0.0-359.0","3TU5ZICBRENHK9RDAHBCXDM9PVN8QG","A311A0TCGNTFKK","3GVPRXWRPHGYHD0HW29VLS36FVC7I4","","<img src=""img/set1/S4.jpg"" width=""540"" height = ""360"" style=""border:16px solid Violet"">","null","","","","","","","","","",""
"null","","html-keyboard-response","360","601638","0.0-360.0","3TU5ZICBRENHK9RDAHBCXDM9PVN8QG","A311A0TCGNTFKK","3GVPRXWRPHGYHD0HW29VLS36FVC7I4","","","null","","","","","","","","","",""
"1080.6000000238419","","image-keyboard-response","361","602721","0.0-361.0","3TU5ZICBRENHK9RDAHBCXDM9PVN8QG","A311A0TCGNTFKK","3GVPRXWRPHGYHD0HW29VLS36FVC7I4","","img/set1/S1.jpg","68","1","structured_incentive","83","structured_incentive,structured_normal,structured_load,random","2,3,1,2,4,2","4,1,3,2","false","","",""
"null","","html-keyboard-response","362","603083","0.0-362.0","3TU5ZICBRENHK9RDAHBCXDM9PVN8QG","A311A0TCGNTFKK","3GVPRXWRPHGYHD0HW29VLS36FVC7I4","","<img src=""img/set1/S1.jpg"" width=""540"" height = ""360"">","null","","","","","","","","","",""
"null","","html-keyboard-response","363","603300","0.0-363.0","3TU5ZICBRENHK9RDAHBCXDM9PVN8QG","A311A0TCGNTFKK","3GVPRXWRPHGYHD0HW29VLS36FVC7I4","","","null","","","","","","","","","",""
"null","","image-keyboard-response","364","605820","0.0-364.0","3TU5ZICBRENHK9RDAHBCXDM9PVN8QG","A311A0TCGNTFKK","3GVPRXWRPHGYHD0HW29VLS36FVC7I4","","img/set1/S2.jpg","null","2","structured_incentive","68","structured_incentive,structured_normal,structured_load,random","2,3,1,2,4,2","4,1,3,2","false","","",""
"null","","html-keyboard-response","365","606184","0.0-365.0","3TU5ZICBRENHK9RDAHBCXDM9PVN8QG","A311A0TCGNTFKK","3GVPRXWRPHGYHD0HW29VLS36FVC7I4","","<img src=""img/set1/S2.jpg"" width=""540"" height = ""360"">","null","","","","","","","","","",""
"null","","html-keyboard-response","366","606386","0.0-366.0","3TU5ZICBRENHK9RDAHBCXDM9PVN8QG","A311A0TCGNTFKK","3GVPRXWRPHGYHD0HW29VLS36FVC7I4","","","null","","","","","","","","","",""
"1574.8999999761581","","image-keyboard-response","367","607964","0.0-367.0","3TU5ZICBRENHK9RDAHBCXDM9PVN8QG","A311A0TCGNTFKK","3GVPRXWRPHGYHD0HW29VLS36FVC7I4","","img/set1/S3.jpg","83","3","structured_incentive","72","structured_incentive,structured_normal,structured_load,random","2,3,1,2,4,2","4,1,3,2","false","","",""
"null","","html-keyboard-response","368","608331","0.0-368.0","3TU5ZICBRENHK9RDAHBCXDM9PVN8QG","A311A0TCGNTFKK","3GVPRXWRPHGYHD0HW29VLS36FVC7I4","","<img src=""img/set1/S3.jpg"" width=""540"" height = ""360"">","null","","","","","","","","","",""
"null","","html-keyboard-response","369","608541","0.0-369.0","3TU5ZICBRENHK9RDAHBCXDM9PVN8QG","A311A0TCGNTFKK","3GVPRXWRPHGYHD0HW29VLS36FVC7I4","","","null","","","","","","","","","",""
"1139.0999999642372","","image-keyboard-response","370","609683","0.0-370.0","3TU5ZICBRENHK9RDAHBCXDM9PVN8QG","A311A0TCGNTFKK","3GVPRXWRPHGYHD0HW29VLS36FVC7I4","","img/set1/S2.jpg","68","2","structured_incentive","68","structured_incentive,structured_normal,structured_load,random","2,3,1,2,4,2","4,1,3,2","true","","",""
"null","","html-keyboard-response","371","610045","0.0-371.0","3TU5ZICBRENHK9RDAHBCXDM9PVN8QG","A311A0TCGNTFKK","3GVPRXWRPHGYHD0HW29VLS36FVC7I4","","<img src=""img/set1/S2.jpg"" width=""540"" height = ""360"" style=""border:16px solid orange"">","null","","","","","","","","","",""
"null","","html-keyboard-response","372","610268","0.0-372.0","3TU5ZICBRENHK9RDAHBCXDM9PVN8QG","A311A0TCGNTFKK","3GVPRXWRPHGYHD0HW29VLS36FVC7I4","","","null","","","","","","","","","",""
"614.2999999523163","","image-keyboard-response","373","610885","0.0-373.0","3TU5ZICBRENHK9RDAHBCXDM9PVN8QG","A311A0TCGNTFKK","3GVPRXWRPHGYHD0HW29VLS36FVC7I4","","img/set1/S4.jpg","74","4","structured_incentive","74","structured_incentive,structured_normal,structured_load,random","2,3,1,2,4,2","4,1,3,2","true","","",""
"null","","html-keyboard-response","374","611257","0.0-374.0","3TU5ZICBRENHK9RDAHBCXDM9PVN8QG","A311A0TCGNTFKK","3GVPRXWRPHGYHD0HW29VLS36FVC7I4","","<img src=""img/set1/S4.jpg"" width=""540"" height = ""360"" style=""border:16px solid Violet"">","null","","","","","","","","","",""
"null","","html-keyboard-response","375","611474","0.0-375.0","3TU5ZICBRENHK9RDAHBCXDM9PVN8QG","A311A0TCGNTFKK","3GVPRXWRPHGYHD0HW29VLS36FVC7I4","","","null","","","","","","","","","",""
"982.1999999880791","","image-keyboard-response","376","612458","0.0-376.0","3TU5ZICBRENHK9RDAHBCXDM9PVN8QG","A311A0TCGNTFKK","3GVPRXWRPHGYHD0HW29VLS36FVC7I4","","img/set1/S1.jpg","83","1","structured_incentive","83","structured_incentive,structured_normal,structured_load,random","2,3,1,2,4,2","4,1,3,2","true","","",""
"null","","html-keyboard-response","377","612821","0.0-377.0","3TU5ZICBRENHK9RDAHBCXDM9PVN8QG","A311A0TCGNTFKK","3GVPRXWRPHGYHD0HW29VLS36FVC7I4","","<img src=""img/set1/S1.jpg"" width=""540"" height = ""360"" style=""border:16px solid orange"">","null","","","","","","","","","",""
"null","","html-keyboard-response","378","613033","0.0-378.0","3TU5ZICBRENHK9RDAHBCXDM9PVN8QG","A311A0TCGNTFKK","3GVPRXWRPHGYHD0HW29VLS36FVC7I4","","","null","","","","","","","","","",""
"620.9000000357628","","image-keyboard-response","379","613655","0.0-379.0","3TU5ZICBRENHK9RDAHBCXDM9PVN8QG","A311A0TCGNTFKK","3GVPRXWRPHGYHD0HW29VLS36FVC7I4","","img/set1/S1.jpg","83","1","structured_incentive","83","structured_incentive,structured_normal,structured_load,random","2,3,1,2,4,2","4,1,3,2","true","","",""
"null","","html-keyboard-response","380","614027","0.0-380.0","3TU5ZICBRENHK9RDAHBCXDM9PVN8QG","A311A0TCGNTFKK","3GVPRXWRPHGYHD0HW29VLS36FVC7I4","","<img src=""img/set1/S1.jpg"" width=""540"" height = ""360"" style=""border:16px solid orange"">","null","","","","","","","","","",""
"null","","html-keyboard-response","381","614239","0.0-381.0","3TU5ZICBRENHK9RDAHBCXDM9PVN8QG","A311A0TCGNTFKK","3GVPRXWRPHGYHD0HW29VLS36FVC7I4","","","null","","","","","","","","","",""
"371.7000000476837","","image-keyboard-response","382","614613","0.0-382.0","3TU5ZICBRENHK9RDAHBCXDM9PVN8QG","A311A0TCGNTFKK","3GVPRXWRPHGYHD0HW29VLS36FVC7I4","","img/set1/S1.jpg","83","1","structured_incentive","83","structured_incentive,structured_normal,structured_load,random","2,3,1,2,4,2","4,1,3,2","true","","",""
"null","","html-keyboard-response","383","614974","0.0-383.0","3TU5ZICBRENHK9RDAHBCXDM9PVN8QG","A311A0TCGNTFKK","3GVPRXWRPHGYHD0HW29VLS36FVC7I4","","<img src=""img/set1/S1.jpg"" width=""540"" height = ""360"" style=""border:16px solid orange"">","null","","","","","","","","","",""
"null","","html-keyboard-response","384","615178","0.0-384.0","3TU5ZICBRENHK9RDAHBCXDM9PVN8QG","A311A0TCGNTFKK","3GVPRXWRPHGYHD0HW29VLS36FVC7I4","","","null","","","","","","","","","",""
