"rt","url","trial_type","trial_index","time_elapsed","internal_node_id","assignmentID","mturkID","hitID","view_history","stimulus","key_press","state","test_part","correct_response","order_block","order_chunk","order_freq","correct","responses","question_order","bonus"
"13256","consent.html","external-html","0","13411","0.0-0.0","3BDCF01OGYGL8I2IVG1AF4BH7J3LYB","A345ZKNQSVPJ6G","3RKHNXPHGWIRLJ219DNI80W3E6SKUF","","","","","","","","","","","","",""
"92314.80000019073","","instructions","1","105730","0.0-1.0","3BDCF01OGYGL8I2IVG1AF4BH7J3LYB","A345ZKNQSVPJ6G","3RKHNXPHGWIRLJ219DNI80W3E6SKUF","[{""page_index"":0,""viewing_time"":7281.400000095367},{""page_index"":1,""viewing_time"":11274.299999952316},{""page_index"":2,""viewing_time"":11066.299999952316},{""page_index"":3,""viewing_time"":28672.300000190735},{""page_index"":4,""viewing_time"":10221.5},{""page_index"":5,""viewing_time"":12844.399999856949},{""page_index"":6,""viewing_time"":10953.5}]","","","","","","","","","","","",""
"14672.799999952316","","instructions","2","120404","0.0-2.0","3BDCF01OGYGL8I2IVG1AF4BH7J3LYB","A345ZKNQSVPJ6G","3RKHNXPHGWIRLJ219DNI80W3E6SKUF","[{""page_index"":0,""viewing_time"":14672.199999809265}]","","","","","","","","","","","",""
"16300.799999952316","","instructions","3","136706","0.0-3.0","3BDCF01OGYGL8I2IVG1AF4BH7J3LYB","A345ZKNQSVPJ6G","3RKHNXPHGWIRLJ219DNI80W3E6SKUF","[{""page_index"":0,""viewing_time"":16300.200000047684}]","","","","","","","","","","","",""
"null","","image-keyboard-response","4","139212","0.0-4.0","3BDCF01OGYGL8I2IVG1AF4BH7J3LYB","A345ZKNQSVPJ6G","3RKHNXPHGWIRLJ219DNI80W3E6SKUF","","img/set1/S1.jpg","null","1","random","83","random,structured_incentive,structured_load,structured_normal","","2,3,4,1","false","","",""
"null","","html-keyboard-response","5","139569","0.0-5.0","3BDCF01OGYGL8I2IVG1AF4BH7J3LYB","A345ZKNQSVPJ6G","3RKHNXPHGWIRLJ219DNI80W3E6SKUF","","<img src=""img/set1/S1.jpg"" width=""540"" height = ""360"">","null","","","","","","","","","",""
"null","","html-keyboard-response","6","139778","0.0-6.0","3BDCF01OGYGL8I2IVG1AF4BH7J3LYB","A345ZKNQSVPJ6G","3RKHNXPHGWIRLJ219DNI80W3E6SKUF","","","null","","","","","","","","","",""
"null","","image-keyboard-response","7","142284","0.0-7.0","3BDCF01OGYGL8I2IVG1AF4BH7J3LYB","A345ZKNQSVPJ6G","3RKHNXPHGWIRLJ219DNI80W3E6SKUF","","img/set1/S1.jpg","null","1","random","83","random,structured_incentive,structured_load,structured_normal","","2,3,4,1","false","","",""
"null","","html-keyboard-response","8","142648","0.0-8.0","3BDCF01OGYGL8I2IVG1AF4BH7J3LYB","A345ZKNQSVPJ6G","3RKHNXPHGWIRLJ219DNI80W3E6SKUF","","<img src=""img/set1/S1.jpg"" width=""540"" height = ""360"">","null","","","","","","","","","",""
"null","","html-keyboard-response","9","142860","0.0-9.0","3BDCF01OGYGL8I2IVG1AF4BH7J3LYB","A345ZKNQSVPJ6G","3RKHNXPHGWIRLJ219DNI80W3E6SKUF","","","null","","","","","","","","","",""
"67.59999990463257","","image-keyboard-response","10","142929","0.0-10.0","3BDCF01OGYGL8I2IVG1AF4BH7J3LYB","A345ZKNQSVPJ6G","3RKHNXPHGWIRLJ219DNI80W3E6SKUF","","img/set1/S1.jpg","74","1","random","83","random,structured_incentive,structured_load,structured_normal","","2,3,4,1","false","","",""
"null","","html-keyboard-response","11","143288","0.0-11.0","3BDCF01OGYGL8I2IVG1AF4BH7J3LYB","A345ZKNQSVPJ6G","3RKHNXPHGWIRLJ219DNI80W3E6SKUF","","<img src=""img/set1/S1.jpg"" width=""540"" height = ""360"">","null","","","","","","","","","",""
"null","","html-keyboard-response","12","143507","0.0-12.0","3BDCF01OGYGL8I2IVG1AF4BH7J3LYB","A345ZKNQSVPJ6G","3RKHNXPHGWIRLJ219DNI80W3E6SKUF","","","null","","","","","","","","","",""
"877.7000000476837","","image-keyboard-response","13","144387","0.0-13.0","3BDCF01OGYGL8I2IVG1AF4BH7J3LYB","A345ZKNQSVPJ6G","3RKHNXPHGWIRLJ219DNI80W3E6SKUF","","img/set1/S1.jpg","83","1","random","83","random,structured_incentive,structured_load,structured_normal","","2,3,4,1","true","","",""
"null","","html-keyboard-response","14","144745","0.0-14.0","3BDCF01OGYGL8I2IVG1AF4BH7J3LYB","A345ZKNQSVPJ6G","3RKHNXPHGWIRLJ219DNI80W3E6SKUF","","<img src=""img/set1/S1.jpg"" width=""540"" height = ""360"" style=""border:16px solid orange"">","null","","","","","","","","","",""
"null","","html-keyboard-response","15","144957","0.0-15.0","3BDCF01OGYGL8I2IVG1AF4BH7J3LYB","A345ZKNQSVPJ6G","3RKHNXPHGWIRLJ219DNI80W3E6SKUF","","","null","","","","","","","","","",""
"1011","","image-keyboard-response","16","145970","0.0-16.0","3BDCF01OGYGL8I2IVG1AF4BH7J3LYB","A345ZKNQSVPJ6G","3RKHNXPHGWIRLJ219DNI80W3E6SKUF","","img/set1/S2.jpg","68","2","random","68","random,structured_incentive,structured_load,structured_normal","","2,3,4,1","true","","",""
"null","","html-keyboard-response","17","146334","0.0-17.0","3BDCF01OGYGL8I2IVG1AF4BH7J3LYB","A345ZKNQSVPJ6G","3RKHNXPHGWIRLJ219DNI80W3E6SKUF","","<img src=""img/set1/S2.jpg"" width=""540"" height = ""360"" style=""border:16px solid orange"">","null","","","","","","","","","",""
"null","","html-keyboard-response","18","146540","0.0-18.0","3BDCF01OGYGL8I2IVG1AF4BH7J3LYB","A345ZKNQSVPJ6G","3RKHNXPHGWIRLJ219DNI80W3E6SKUF","","","null","","","","","","","","","",""
"640.4000000953674","","image-keyboard-response","19","147184","0.0-19.0","3BDCF01OGYGL8I2IVG1AF4BH7J3LYB","A345ZKNQSVPJ6G","3RKHNXPHGWIRLJ219DNI80W3E6SKUF","","img/set1/S2.jpg","74","2","random","68","random,structured_incentive,structured_load,structured_normal","","2,3,4,1","false","","",""
"null","","html-keyboard-response","20","147547","0.0-20.0","3BDCF01OGYGL8I2IVG1AF4BH7J3LYB","A345ZKNQSVPJ6G","3RKHNXPHGWIRLJ219DNI80W3E6SKUF","","<img src=""img/set1/S2.jpg"" width=""540"" height = ""360"">","null","","","","","","","","","",""
"null","","html-keyboard-response","21","147758","0.0-21.0","3BDCF01OGYGL8I2IVG1AF4BH7J3LYB","A345ZKNQSVPJ6G","3RKHNXPHGWIRLJ219DNI80W3E6SKUF","","","null","","","","","","","","","",""
"904.5","","image-keyboard-response","22","148665","0.0-22.0","3BDCF01OGYGL8I2IVG1AF4BH7J3LYB","A345ZKNQSVPJ6G","3RKHNXPHGWIRLJ219DNI80W3E6SKUF","","img/set1/S3.jpg","83","3","random","72","random,structured_incentive,structured_load,structured_normal","","2,3,4,1","false","","",""
"null","","html-keyboard-response","23","149031","0.0-23.0","3BDCF01OGYGL8I2IVG1AF4BH7J3LYB","A345ZKNQSVPJ6G","3RKHNXPHGWIRLJ219DNI80W3E6SKUF","","<img src=""img/set1/S3.jpg"" width=""540"" height = ""360"">","null","","","","","","","","","",""
"null","","html-keyboard-response","24","149241","0.0-24.0","3BDCF01OGYGL8I2IVG1AF4BH7J3LYB","A345ZKNQSVPJ6G","3RKHNXPHGWIRLJ219DNI80W3E6SKUF","","","null","","","","","","","","","",""
"479.7000000476837","","image-keyboard-response","25","149722","0.0-25.0","3BDCF01OGYGL8I2IVG1AF4BH7J3LYB","A345ZKNQSVPJ6G","3RKHNXPHGWIRLJ219DNI80W3E6SKUF","","img/set1/S4.jpg","68","4","random","74","random,structured_incentive,structured_load,structured_normal","","2,3,4,1","false","","",""
"null","","html-keyboard-response","26","150081","0.0-26.0","3BDCF01OGYGL8I2IVG1AF4BH7J3LYB","A345ZKNQSVPJ6G","3RKHNXPHGWIRLJ219DNI80W3E6SKUF","","<img src=""img/set1/S4.jpg"" width=""540"" height = ""360"">","null","","","","","","","","","",""
"null","","html-keyboard-response","27","150291","0.0-27.0","3BDCF01OGYGL8I2IVG1AF4BH7J3LYB","A345ZKNQSVPJ6G","3RKHNXPHGWIRLJ219DNI80W3E6SKUF","","","null","","","","","","","","","",""
"152.70000004768372","","image-keyboard-response","28","150446","0.0-28.0","3BDCF01OGYGL8I2IVG1AF4BH7J3LYB","A345ZKNQSVPJ6G","3RKHNXPHGWIRLJ219DNI80W3E6SKUF","","img/set1/S3.jpg","68","3","random","72","random,structured_incentive,structured_load,structured_normal","","2,3,4,1","false","","",""
"null","","html-keyboard-response","29","150813","0.0-29.0","3BDCF01OGYGL8I2IVG1AF4BH7J3LYB","A345ZKNQSVPJ6G","3RKHNXPHGWIRLJ219DNI80W3E6SKUF","","<img src=""img/set1/S3.jpg"" width=""540"" height = ""360"">","null","","","","","","","","","",""
"null","","html-keyboard-response","30","151023","0.0-30.0","3BDCF01OGYGL8I2IVG1AF4BH7J3LYB","A345ZKNQSVPJ6G","3RKHNXPHGWIRLJ219DNI80W3E6SKUF","","","null","","","","","","","","","",""
"2118","","image-keyboard-response","31","153144","0.0-31.0","3BDCF01OGYGL8I2IVG1AF4BH7J3LYB","A345ZKNQSVPJ6G","3RKHNXPHGWIRLJ219DNI80W3E6SKUF","","img/set1/S1.jpg","74","1","random","83","random,structured_incentive,structured_load,structured_normal","","2,3,4,1","false","","",""
"null","","html-keyboard-response","32","153513","0.0-32.0","3BDCF01OGYGL8I2IVG1AF4BH7J3LYB","A345ZKNQSVPJ6G","3RKHNXPHGWIRLJ219DNI80W3E6SKUF","","<img src=""img/set1/S1.jpg"" width=""540"" height = ""360"">","null","","","","","","","","","",""
"null","","html-keyboard-response","33","153722","0.0-33.0","3BDCF01OGYGL8I2IVG1AF4BH7J3LYB","A345ZKNQSVPJ6G","3RKHNXPHGWIRLJ219DNI80W3E6SKUF","","","null","","","","","","","","","",""
"189.70000004768372","","image-keyboard-response","34","153915","0.0-34.0","3BDCF01OGYGL8I2IVG1AF4BH7J3LYB","A345ZKNQSVPJ6G","3RKHNXPHGWIRLJ219DNI80W3E6SKUF","","img/set1/S1.jpg","83","1","random","83","random,structured_incentive,structured_load,structured_normal","","2,3,4,1","true","","",""
"null","","html-keyboard-response","35","154277","0.0-35.0","3BDCF01OGYGL8I2IVG1AF4BH7J3LYB","A345ZKNQSVPJ6G","3RKHNXPHGWIRLJ219DNI80W3E6SKUF","","<img src=""img/set1/S1.jpg"" width=""540"" height = ""360"" style=""border:16px solid orange"">","null","","","","","","","","","",""
"null","","html-keyboard-response","36","154494","0.0-36.0","3BDCF01OGYGL8I2IVG1AF4BH7J3LYB","A345ZKNQSVPJ6G","3RKHNXPHGWIRLJ219DNI80W3E6SKUF","","","null","","","","","","","","","",""
"423","","image-keyboard-response","37","154919","0.0-37.0","3BDCF01OGYGL8I2IVG1AF4BH7J3LYB","A345ZKNQSVPJ6G","3RKHNXPHGWIRLJ219DNI80W3E6SKUF","","img/set1/S4.jpg","83","4","random","74","random,structured_incentive,structured_load,structured_normal","","2,3,4,1","false","","",""
"null","","html-keyboard-response","38","155279","0.0-38.0","3BDCF01OGYGL8I2IVG1AF4BH7J3LYB","A345ZKNQSVPJ6G","3RKHNXPHGWIRLJ219DNI80W3E6SKUF","","<img src=""img/set1/S4.jpg"" width=""540"" height = ""360"">","null","","","","","","","","","",""
"null","","html-keyboard-response","39","155488","0.0-39.0","3BDCF01OGYGL8I2IVG1AF4BH7J3LYB","A345ZKNQSVPJ6G","3RKHNXPHGWIRLJ219DNI80W3E6SKUF","","","null","","","","","","","","","",""
"470","","image-keyboard-response","40","155960","0.0-40.0","3BDCF01OGYGL8I2IVG1AF4BH7J3LYB","A345ZKNQSVPJ6G","3RKHNXPHGWIRLJ219DNI80W3E6SKUF","","img/set1/S2.jpg","83","2","random","68","random,structured_incentive,structured_load,structured_normal","","2,3,4,1","false","","",""
"null","","html-keyboard-response","41","156325","0.0-41.0","3BDCF01OGYGL8I2IVG1AF4BH7J3LYB","A345ZKNQSVPJ6G","3RKHNXPHGWIRLJ219DNI80W3E6SKUF","","<img src=""img/set1/S2.jpg"" width=""540"" height = ""360"">","null","","","","","","","","","",""
"null","","html-keyboard-response","42","156540","0.0-42.0","3BDCF01OGYGL8I2IVG1AF4BH7J3LYB","A345ZKNQSVPJ6G","3RKHNXPHGWIRLJ219DNI80W3E6SKUF","","","null","","","","","","","","","",""
"508.2000000476837","","image-keyboard-response","43","157051","0.0-43.0","3BDCF01OGYGL8I2IVG1AF4BH7J3LYB","A345ZKNQSVPJ6G","3RKHNXPHGWIRLJ219DNI80W3E6SKUF","","img/set1/S2.jpg","68","2","random","68","random,structured_incentive,structured_load,structured_normal","","2,3,4,1","true","","",""
"null","","html-keyboard-response","44","157413","0.0-44.0","3BDCF01OGYGL8I2IVG1AF4BH7J3LYB","A345ZKNQSVPJ6G","3RKHNXPHGWIRLJ219DNI80W3E6SKUF","","<img src=""img/set1/S2.jpg"" width=""540"" height = ""360"" style=""border:16px solid orange"">","null","","","","","","","","","",""
"null","","html-keyboard-response","45","157621","0.0-45.0","3BDCF01OGYGL8I2IVG1AF4BH7J3LYB","A345ZKNQSVPJ6G","3RKHNXPHGWIRLJ219DNI80W3E6SKUF","","","null","","","","","","","","","",""
"733.6000001430511","","image-keyboard-response","46","158357","0.0-46.0","3BDCF01OGYGL8I2IVG1AF4BH7J3LYB","A345ZKNQSVPJ6G","3RKHNXPHGWIRLJ219DNI80W3E6SKUF","","img/set1/S1.jpg","68","1","random","83","random,structured_incentive,structured_load,structured_normal","","2,3,4,1","false","","",""
"null","","html-keyboard-response","47","158715","0.0-47.0","3BDCF01OGYGL8I2IVG1AF4BH7J3LYB","A345ZKNQSVPJ6G","3RKHNXPHGWIRLJ219DNI80W3E6SKUF","","<img src=""img/set1/S1.jpg"" width=""540"" height = ""360"">","null","","","","","","","","","",""
"null","","html-keyboard-response","48","158919","0.0-48.0","3BDCF01OGYGL8I2IVG1AF4BH7J3LYB","A345ZKNQSVPJ6G","3RKHNXPHGWIRLJ219DNI80W3E6SKUF","","","null","","","","","","","","","",""
"1863.2000000476837","","image-keyboard-response","49","160784","0.0-49.0","3BDCF01OGYGL8I2IVG1AF4BH7J3LYB","A345ZKNQSVPJ6G","3RKHNXPHGWIRLJ219DNI80W3E6SKUF","","img/set1/S3.jpg","74","3","random","72","random,structured_incentive,structured_load,structured_normal","","2,3,4,1","false","","",""
"null","","html-keyboard-response","50","161141","0.0-50.0","3BDCF01OGYGL8I2IVG1AF4BH7J3LYB","A345ZKNQSVPJ6G","3RKHNXPHGWIRLJ219DNI80W3E6SKUF","","<img src=""img/set1/S3.jpg"" width=""540"" height = ""360"">","null","","","","","","","","","",""
"null","","html-keyboard-response","51","161351","0.0-51.0","3BDCF01OGYGL8I2IVG1AF4BH7J3LYB","A345ZKNQSVPJ6G","3RKHNXPHGWIRLJ219DNI80W3E6SKUF","","","null","","","","","","","","","",""
"295.80000019073486","","image-keyboard-response","52","161650","0.0-52.0","3BDCF01OGYGL8I2IVG1AF4BH7J3LYB","A345ZKNQSVPJ6G","3RKHNXPHGWIRLJ219DNI80W3E6SKUF","","img/set1/S2.jpg","83","2","random","68","random,structured_incentive,structured_load,structured_normal","","2,3,4,1","false","","",""
"null","","html-keyboard-response","53","162011","0.0-53.0","3BDCF01OGYGL8I2IVG1AF4BH7J3LYB","A345ZKNQSVPJ6G","3RKHNXPHGWIRLJ219DNI80W3E6SKUF","","<img src=""img/set1/S2.jpg"" width=""540"" height = ""360"">","null","","","","","","","","","",""
"null","","html-keyboard-response","54","162221","0.0-54.0","3BDCF01OGYGL8I2IVG1AF4BH7J3LYB","A345ZKNQSVPJ6G","3RKHNXPHGWIRLJ219DNI80W3E6SKUF","","","null","","","","","","","","","",""
"482.10000014305115","","image-keyboard-response","55","162706","0.0-55.0","3BDCF01OGYGL8I2IVG1AF4BH7J3LYB","A345ZKNQSVPJ6G","3RKHNXPHGWIRLJ219DNI80W3E6SKUF","","img/set1/S2.jpg","68","2","random","68","random,structured_incentive,structured_load,structured_normal","","2,3,4,1","true","","",""
"null","","html-keyboard-response","56","163060","0.0-56.0","3BDCF01OGYGL8I2IVG1AF4BH7J3LYB","A345ZKNQSVPJ6G","3RKHNXPHGWIRLJ219DNI80W3E6SKUF","","<img src=""img/set1/S2.jpg"" width=""540"" height = ""360"" style=""border:16px solid orange"">","null","","","","","","","","","",""
"null","","html-keyboard-response","57","163269","0.0-57.0","3BDCF01OGYGL8I2IVG1AF4BH7J3LYB","A345ZKNQSVPJ6G","3RKHNXPHGWIRLJ219DNI80W3E6SKUF","","","null","","","","","","","","","",""
"795.2999999523163","","image-keyboard-response","58","164066","0.0-58.0","3BDCF01OGYGL8I2IVG1AF4BH7J3LYB","A345ZKNQSVPJ6G","3RKHNXPHGWIRLJ219DNI80W3E6SKUF","","img/set1/S1.jpg","68","1","random","83","random,structured_incentive,structured_load,structured_normal","","2,3,4,1","false","","",""
"null","","html-keyboard-response","59","164421","0.0-59.0","3BDCF01OGYGL8I2IVG1AF4BH7J3LYB","A345ZKNQSVPJ6G","3RKHNXPHGWIRLJ219DNI80W3E6SKUF","","<img src=""img/set1/S1.jpg"" width=""540"" height = ""360"">","null","","","","","","","","","",""
"null","","html-keyboard-response","60","164624","0.0-60.0","3BDCF01OGYGL8I2IVG1AF4BH7J3LYB","A345ZKNQSVPJ6G","3RKHNXPHGWIRLJ219DNI80W3E6SKUF","","","null","","","","","","","","","",""
"491.90000009536743","","image-keyboard-response","61","165119","0.0-61.0","3BDCF01OGYGL8I2IVG1AF4BH7J3LYB","A345ZKNQSVPJ6G","3RKHNXPHGWIRLJ219DNI80W3E6SKUF","","img/set1/S3.jpg","83","3","random","72","random,structured_incentive,structured_load,structured_normal","","2,3,4,1","false","","",""
"null","","html-keyboard-response","62","165478","0.0-62.0","3BDCF01OGYGL8I2IVG1AF4BH7J3LYB","A345ZKNQSVPJ6G","3RKHNXPHGWIRLJ219DNI80W3E6SKUF","","<img src=""img/set1/S3.jpg"" width=""540"" height = ""360"">","null","","","","","","","","","",""
"null","","html-keyboard-response","63","165690","0.0-63.0","3BDCF01OGYGL8I2IVG1AF4BH7J3LYB","A345ZKNQSVPJ6G","3RKHNXPHGWIRLJ219DNI80W3E6SKUF","","","null","","","","","","","","","",""
"1908.2000000476837","","image-keyboard-response","64","167600","0.0-64.0","3BDCF01OGYGL8I2IVG1AF4BH7J3LYB","A345ZKNQSVPJ6G","3RKHNXPHGWIRLJ219DNI80W3E6SKUF","","img/set1/S2.jpg","74","2","random","68","random,structured_incentive,structured_load,structured_normal","","2,3,4,1","false","","",""
"null","","html-keyboard-response","65","167958","0.0-65.0","3BDCF01OGYGL8I2IVG1AF4BH7J3LYB","A345ZKNQSVPJ6G","3RKHNXPHGWIRLJ219DNI80W3E6SKUF","","<img src=""img/set1/S2.jpg"" width=""540"" height = ""360"">","null","","","","","","","","","",""
"null","","html-keyboard-response","66","168166","0.0-66.0","3BDCF01OGYGL8I2IVG1AF4BH7J3LYB","A345ZKNQSVPJ6G","3RKHNXPHGWIRLJ219DNI80W3E6SKUF","","","null","","","","","","","","","",""
"1599","","image-keyboard-response","67","169767","0.0-67.0","3BDCF01OGYGL8I2IVG1AF4BH7J3LYB","A345ZKNQSVPJ6G","3RKHNXPHGWIRLJ219DNI80W3E6SKUF","","img/set1/S4.jpg","68","4","random","74","random,structured_incentive,structured_load,structured_normal","","2,3,4,1","false","","",""
"null","","html-keyboard-response","68","170124","0.0-68.0","3BDCF01OGYGL8I2IVG1AF4BH7J3LYB","A345ZKNQSVPJ6G","3RKHNXPHGWIRLJ219DNI80W3E6SKUF","","<img src=""img/set1/S4.jpg"" width=""540"" height = ""360"">","null","","","","","","","","","",""
"null","","html-keyboard-response","69","170328","0.0-69.0","3BDCF01OGYGL8I2IVG1AF4BH7J3LYB","A345ZKNQSVPJ6G","3RKHNXPHGWIRLJ219DNI80W3E6SKUF","","","null","","","","","","","","","",""
"1871.7000000476837","","image-keyboard-response","70","172204","0.0-70.0","3BDCF01OGYGL8I2IVG1AF4BH7J3LYB","A345ZKNQSVPJ6G","3RKHNXPHGWIRLJ219DNI80W3E6SKUF","","img/set1/S3.jpg","83","3","random","72","random,structured_incentive,structured_load,structured_normal","","2,3,4,1","false","","",""
"null","","html-keyboard-response","71","172560","0.0-71.0","3BDCF01OGYGL8I2IVG1AF4BH7J3LYB","A345ZKNQSVPJ6G","3RKHNXPHGWIRLJ219DNI80W3E6SKUF","","<img src=""img/set1/S3.jpg"" width=""540"" height = ""360"">","null","","","","","","","","","",""
"null","","html-keyboard-response","72","172765","0.0-72.0","3BDCF01OGYGL8I2IVG1AF4BH7J3LYB","A345ZKNQSVPJ6G","3RKHNXPHGWIRLJ219DNI80W3E6SKUF","","","null","","","","","","","","","",""
"357.7999999523163","","image-keyboard-response","73","173125","0.0-73.0","3BDCF01OGYGL8I2IVG1AF4BH7J3LYB","A345ZKNQSVPJ6G","3RKHNXPHGWIRLJ219DNI80W3E6SKUF","","img/set1/S4.jpg","68","4","random","74","random,structured_incentive,structured_load,structured_normal","","2,3,4,1","false","","",""
"null","","html-keyboard-response","74","173489","0.0-74.0","3BDCF01OGYGL8I2IVG1AF4BH7J3LYB","A345ZKNQSVPJ6G","3RKHNXPHGWIRLJ219DNI80W3E6SKUF","","<img src=""img/set1/S4.jpg"" width=""540"" height = ""360"">","null","","","","","","","","","",""
"null","","html-keyboard-response","75","173698","0.0-75.0","3BDCF01OGYGL8I2IVG1AF4BH7J3LYB","A345ZKNQSVPJ6G","3RKHNXPHGWIRLJ219DNI80W3E6SKUF","","","null","","","","","","","","","",""
"423.89999985694885","","image-keyboard-response","76","174124","0.0-76.0","3BDCF01OGYGL8I2IVG1AF4BH7J3LYB","A345ZKNQSVPJ6G","3RKHNXPHGWIRLJ219DNI80W3E6SKUF","","img/set1/S3.jpg","74","3","random","72","random,structured_incentive,structured_load,structured_normal","","2,3,4,1","false","","",""
"null","","html-keyboard-response","77","174492","0.0-77.0","3BDCF01OGYGL8I2IVG1AF4BH7J3LYB","A345ZKNQSVPJ6G","3RKHNXPHGWIRLJ219DNI80W3E6SKUF","","<img src=""img/set1/S3.jpg"" width=""540"" height = ""360"">","null","","","","","","","","","",""
"null","","html-keyboard-response","78","174695","0.0-78.0","3BDCF01OGYGL8I2IVG1AF4BH7J3LYB","A345ZKNQSVPJ6G","3RKHNXPHGWIRLJ219DNI80W3E6SKUF","","","null","","","","","","","","","",""
"37.5","","image-keyboard-response","79","174734","0.0-79.0","3BDCF01OGYGL8I2IVG1AF4BH7J3LYB","A345ZKNQSVPJ6G","3RKHNXPHGWIRLJ219DNI80W3E6SKUF","","img/set1/S1.jpg","74","1","random","83","random,structured_incentive,structured_load,structured_normal","","2,3,4,1","false","","",""
"null","","html-keyboard-response","80","175095","0.0-80.0","3BDCF01OGYGL8I2IVG1AF4BH7J3LYB","A345ZKNQSVPJ6G","3RKHNXPHGWIRLJ219DNI80W3E6SKUF","","<img src=""img/set1/S1.jpg"" width=""540"" height = ""360"">","null","","","","","","","","","",""
"null","","html-keyboard-response","81","175298","0.0-81.0","3BDCF01OGYGL8I2IVG1AF4BH7J3LYB","A345ZKNQSVPJ6G","3RKHNXPHGWIRLJ219DNI80W3E6SKUF","","","null","","","","","","","","","",""
"28.799999952316284","","image-keyboard-response","82","175328","0.0-82.0","3BDCF01OGYGL8I2IVG1AF4BH7J3LYB","A345ZKNQSVPJ6G","3RKHNXPHGWIRLJ219DNI80W3E6SKUF","","img/set1/S2.jpg","74","2","random","68","random,structured_incentive,structured_load,structured_normal","","2,3,4,1","false","","",""
"null","","html-keyboard-response","83","175687","0.0-83.0","3BDCF01OGYGL8I2IVG1AF4BH7J3LYB","A345ZKNQSVPJ6G","3RKHNXPHGWIRLJ219DNI80W3E6SKUF","","<img src=""img/set1/S2.jpg"" width=""540"" height = ""360"">","null","","","","","","","","","",""
"null","","html-keyboard-response","84","175898","0.0-84.0","3BDCF01OGYGL8I2IVG1AF4BH7J3LYB","A345ZKNQSVPJ6G","3RKHNXPHGWIRLJ219DNI80W3E6SKUF","","","null","","","","","","","","","",""
"46.90000009536743","","image-keyboard-response","85","175947","0.0-85.0","3BDCF01OGYGL8I2IVG1AF4BH7J3LYB","A345ZKNQSVPJ6G","3RKHNXPHGWIRLJ219DNI80W3E6SKUF","","img/set1/S2.jpg","83","2","random","68","random,structured_incentive,structured_load,structured_normal","","2,3,4,1","false","","",""
"null","","html-keyboard-response","86","176303","0.0-86.0","3BDCF01OGYGL8I2IVG1AF4BH7J3LYB","A345ZKNQSVPJ6G","3RKHNXPHGWIRLJ219DNI80W3E6SKUF","","<img src=""img/set1/S2.jpg"" width=""540"" height = ""360"">","null","","","","","","","","","",""
"null","","html-keyboard-response","87","176505","0.0-87.0","3BDCF01OGYGL8I2IVG1AF4BH7J3LYB","A345ZKNQSVPJ6G","3RKHNXPHGWIRLJ219DNI80W3E6SKUF","","","null","","","","","","","","","",""
"1348.8000001907349","","image-keyboard-response","88","177855","0.0-88.0","3BDCF01OGYGL8I2IVG1AF4BH7J3LYB","A345ZKNQSVPJ6G","3RKHNXPHGWIRLJ219DNI80W3E6SKUF","","img/set1/S3.jpg","83","3","random","72","random,structured_incentive,structured_load,structured_normal","","2,3,4,1","false","","",""
"null","","html-keyboard-response","89","178220","0.0-89.0","3BDCF01OGYGL8I2IVG1AF4BH7J3LYB","A345ZKNQSVPJ6G","3RKHNXPHGWIRLJ219DNI80W3E6SKUF","","<img src=""img/set1/S3.jpg"" width=""540"" height = ""360"">","null","","","","","","","","","",""
"null","","html-keyboard-response","90","178432","0.0-90.0","3BDCF01OGYGL8I2IVG1AF4BH7J3LYB","A345ZKNQSVPJ6G","3RKHNXPHGWIRLJ219DNI80W3E6SKUF","","","null","","","","","","","","","",""
"341.60000014305115","","image-keyboard-response","91","178775","0.0-91.0","3BDCF01OGYGL8I2IVG1AF4BH7J3LYB","A345ZKNQSVPJ6G","3RKHNXPHGWIRLJ219DNI80W3E6SKUF","","img/set1/S3.jpg","68","3","random","72","random,structured_incentive,structured_load,structured_normal","","2,3,4,1","false","","",""
"null","","html-keyboard-response","92","179137","0.0-92.0","3BDCF01OGYGL8I2IVG1AF4BH7J3LYB","A345ZKNQSVPJ6G","3RKHNXPHGWIRLJ219DNI80W3E6SKUF","","<img src=""img/set1/S3.jpg"" width=""540"" height = ""360"">","null","","","","","","","","","",""
"null","","html-keyboard-response","93","179346","0.0-93.0","3BDCF01OGYGL8I2IVG1AF4BH7J3LYB","A345ZKNQSVPJ6G","3RKHNXPHGWIRLJ219DNI80W3E6SKUF","","","null","","","","","","","","","",""
"1956.2000000476837","","image-keyboard-response","94","181304","0.0-94.0","3BDCF01OGYGL8I2IVG1AF4BH7J3LYB","A345ZKNQSVPJ6G","3RKHNXPHGWIRLJ219DNI80W3E6SKUF","","img/set1/S2.jpg","83","2","random","68","random,structured_incentive,structured_load,structured_normal","","2,3,4,1","false","","",""
"null","","html-keyboard-response","95","181679","0.0-95.0","3BDCF01OGYGL8I2IVG1AF4BH7J3LYB","A345ZKNQSVPJ6G","3RKHNXPHGWIRLJ219DNI80W3E6SKUF","","<img src=""img/set1/S2.jpg"" width=""540"" height = ""360"">","null","","","","","","","","","",""
"null","","html-keyboard-response","96","181894","0.0-96.0","3BDCF01OGYGL8I2IVG1AF4BH7J3LYB","A345ZKNQSVPJ6G","3RKHNXPHGWIRLJ219DNI80W3E6SKUF","","","null","","","","","","","","","",""
"468.10000014305115","","image-keyboard-response","97","182365","0.0-97.0","3BDCF01OGYGL8I2IVG1AF4BH7J3LYB","A345ZKNQSVPJ6G","3RKHNXPHGWIRLJ219DNI80W3E6SKUF","","img/set1/S2.jpg","72","2","random","68","random,structured_incentive,structured_load,structured_normal","","2,3,4,1","false","","",""
"null","","html-keyboard-response","98","182718","0.0-98.0","3BDCF01OGYGL8I2IVG1AF4BH7J3LYB","A345ZKNQSVPJ6G","3RKHNXPHGWIRLJ219DNI80W3E6SKUF","","<img src=""img/set1/S2.jpg"" width=""540"" height = ""360"">","null","","","","","","","","","",""
"null","","html-keyboard-response","99","182927","0.0-99.0","3BDCF01OGYGL8I2IVG1AF4BH7J3LYB","A345ZKNQSVPJ6G","3RKHNXPHGWIRLJ219DNI80W3E6SKUF","","","null","","","","","","","","","",""
"2231.2999999523163","","image-keyboard-response","100","185160","0.0-100.0","3BDCF01OGYGL8I2IVG1AF4BH7J3LYB","A345ZKNQSVPJ6G","3RKHNXPHGWIRLJ219DNI80W3E6SKUF","","img/set1/S4.jpg","72","4","random","74","random,structured_incentive,structured_load,structured_normal","","2,3,4,1","false","","",""
"null","","html-keyboard-response","101","185518","0.0-101.0","3BDCF01OGYGL8I2IVG1AF4BH7J3LYB","A345ZKNQSVPJ6G","3RKHNXPHGWIRLJ219DNI80W3E6SKUF","","<img src=""img/set1/S4.jpg"" width=""540"" height = ""360"">","null","","","","","","","","","",""
"null","","html-keyboard-response","102","185727","0.0-102.0","3BDCF01OGYGL8I2IVG1AF4BH7J3LYB","A345ZKNQSVPJ6G","3RKHNXPHGWIRLJ219DNI80W3E6SKUF","","","null","","","","","","","","","",""
"223.70000004768372","","image-keyboard-response","103","185952","0.0-103.0","3BDCF01OGYGL8I2IVG1AF4BH7J3LYB","A345ZKNQSVPJ6G","3RKHNXPHGWIRLJ219DNI80W3E6SKUF","","img/set1/S2.jpg","83","2","random","68","random,structured_incentive,structured_load,structured_normal","","2,3,4,1","false","","",""
"null","","html-keyboard-response","104","186320","0.0-104.0","3BDCF01OGYGL8I2IVG1AF4BH7J3LYB","A345ZKNQSVPJ6G","3RKHNXPHGWIRLJ219DNI80W3E6SKUF","","<img src=""img/set1/S2.jpg"" width=""540"" height = ""360"">","null","","","","","","","","","",""
"null","","html-keyboard-response","105","186523","0.0-105.0","3BDCF01OGYGL8I2IVG1AF4BH7J3LYB","A345ZKNQSVPJ6G","3RKHNXPHGWIRLJ219DNI80W3E6SKUF","","","null","","","","","","","","","",""
"577.2999999523163","","image-keyboard-response","106","187102","0.0-106.0","3BDCF01OGYGL8I2IVG1AF4BH7J3LYB","A345ZKNQSVPJ6G","3RKHNXPHGWIRLJ219DNI80W3E6SKUF","","img/set1/S1.jpg","83","1","random","83","random,structured_incentive,structured_load,structured_normal","","2,3,4,1","true","","",""
"null","","html-keyboard-response","107","187469","0.0-107.0","3BDCF01OGYGL8I2IVG1AF4BH7J3LYB","A345ZKNQSVPJ6G","3RKHNXPHGWIRLJ219DNI80W3E6SKUF","","<img src=""img/set1/S1.jpg"" width=""540"" height = ""360"" style=""border:16px solid orange"">","null","","","","","","","","","",""
"null","","html-keyboard-response","108","187676","0.0-108.0","3BDCF01OGYGL8I2IVG1AF4BH7J3LYB","A345ZKNQSVPJ6G","3RKHNXPHGWIRLJ219DNI80W3E6SKUF","","","null","","","","","","","","","",""
"734","","image-keyboard-response","109","188412","0.0-109.0","3BDCF01OGYGL8I2IVG1AF4BH7J3LYB","A345ZKNQSVPJ6G","3RKHNXPHGWIRLJ219DNI80W3E6SKUF","","img/set1/S2.jpg","83","2","random","68","random,structured_incentive,structured_load,structured_normal","","2,3,4,1","false","","",""
"null","","html-keyboard-response","110","188771","0.0-110.0","3BDCF01OGYGL8I2IVG1AF4BH7J3LYB","A345ZKNQSVPJ6G","3RKHNXPHGWIRLJ219DNI80W3E6SKUF","","<img src=""img/set1/S2.jpg"" width=""540"" height = ""360"">","null","","","","","","","","","",""
"null","","html-keyboard-response","111","188977","0.0-111.0","3BDCF01OGYGL8I2IVG1AF4BH7J3LYB","A345ZKNQSVPJ6G","3RKHNXPHGWIRLJ219DNI80W3E6SKUF","","","null","","","","","","","","","",""
"752.2999999523163","","image-keyboard-response","112","189731","0.0-112.0","3BDCF01OGYGL8I2IVG1AF4BH7J3LYB","A345ZKNQSVPJ6G","3RKHNXPHGWIRLJ219DNI80W3E6SKUF","","img/set1/S4.jpg","72","4","random","74","random,structured_incentive,structured_load,structured_normal","","2,3,4,1","false","","",""
"null","","html-keyboard-response","113","190099","0.0-113.0","3BDCF01OGYGL8I2IVG1AF4BH7J3LYB","A345ZKNQSVPJ6G","3RKHNXPHGWIRLJ219DNI80W3E6SKUF","","<img src=""img/set1/S4.jpg"" width=""540"" height = ""360"">","null","","","","","","","","","",""
"null","","html-keyboard-response","114","190318","0.0-114.0","3BDCF01OGYGL8I2IVG1AF4BH7J3LYB","A345ZKNQSVPJ6G","3RKHNXPHGWIRLJ219DNI80W3E6SKUF","","","null","","","","","","","","","",""
"652.2000000476837","","image-keyboard-response","115","190972","0.0-115.0","3BDCF01OGYGL8I2IVG1AF4BH7J3LYB","A345ZKNQSVPJ6G","3RKHNXPHGWIRLJ219DNI80W3E6SKUF","","img/set1/S3.jpg","74","3","random","72","random,structured_incentive,structured_load,structured_normal","","2,3,4,1","false","","",""
"null","","html-keyboard-response","116","191332","0.0-116.0","3BDCF01OGYGL8I2IVG1AF4BH7J3LYB","A345ZKNQSVPJ6G","3RKHNXPHGWIRLJ219DNI80W3E6SKUF","","<img src=""img/set1/S3.jpg"" width=""540"" height = ""360"">","null","","","","","","","","","",""
"null","","html-keyboard-response","117","191548","0.0-117.0","3BDCF01OGYGL8I2IVG1AF4BH7J3LYB","A345ZKNQSVPJ6G","3RKHNXPHGWIRLJ219DNI80W3E6SKUF","","","null","","","","","","","","","",""
"182.29999995231628","","image-keyboard-response","118","191731","0.0-118.0","3BDCF01OGYGL8I2IVG1AF4BH7J3LYB","A345ZKNQSVPJ6G","3RKHNXPHGWIRLJ219DNI80W3E6SKUF","","img/set1/S2.jpg","83","2","random","68","random,structured_incentive,structured_load,structured_normal","","2,3,4,1","false","","",""
"null","","html-keyboard-response","119","192110","0.0-119.0","3BDCF01OGYGL8I2IVG1AF4BH7J3LYB","A345ZKNQSVPJ6G","3RKHNXPHGWIRLJ219DNI80W3E6SKUF","","<img src=""img/set1/S2.jpg"" width=""540"" height = ""360"">","null","","","","","","","","","",""
"null","","html-keyboard-response","120","192324","0.0-120.0","3BDCF01OGYGL8I2IVG1AF4BH7J3LYB","A345ZKNQSVPJ6G","3RKHNXPHGWIRLJ219DNI80W3E6SKUF","","","null","","","","","","","","","",""
"944.9000000953674","","image-keyboard-response","121","193271","0.0-121.0","3BDCF01OGYGL8I2IVG1AF4BH7J3LYB","A345ZKNQSVPJ6G","3RKHNXPHGWIRLJ219DNI80W3E6SKUF","","img/set1/S1.jpg","72","1","random","83","random,structured_incentive,structured_load,structured_normal","","2,3,4,1","false","","",""
"null","","html-keyboard-response","122","193654","0.0-122.0","3BDCF01OGYGL8I2IVG1AF4BH7J3LYB","A345ZKNQSVPJ6G","3RKHNXPHGWIRLJ219DNI80W3E6SKUF","","<img src=""img/set1/S1.jpg"" width=""540"" height = ""360"">","null","","","","","","","","","",""
"null","","html-keyboard-response","123","193858","0.0-123.0","3BDCF01OGYGL8I2IVG1AF4BH7J3LYB","A345ZKNQSVPJ6G","3RKHNXPHGWIRLJ219DNI80W3E6SKUF","","","null","","","","","","","","","",""
"1120.0999999046326","","image-keyboard-response","124","194980","0.0-124.0","3BDCF01OGYGL8I2IVG1AF4BH7J3LYB","A345ZKNQSVPJ6G","3RKHNXPHGWIRLJ219DNI80W3E6SKUF","","img/set1/S4.jpg","74","4","random","74","random,structured_incentive,structured_load,structured_normal","","2,3,4,1","true","","",""
"null","","html-keyboard-response","125","195348","0.0-125.0","3BDCF01OGYGL8I2IVG1AF4BH7J3LYB","A345ZKNQSVPJ6G","3RKHNXPHGWIRLJ219DNI80W3E6SKUF","","<img src=""img/set1/S4.jpg"" width=""540"" height = ""360"" style=""border:16px solid orange"">","null","","","","","","","","","",""
"null","","html-keyboard-response","126","195556","0.0-126.0","3BDCF01OGYGL8I2IVG1AF4BH7J3LYB","A345ZKNQSVPJ6G","3RKHNXPHGWIRLJ219DNI80W3E6SKUF","","","null","","","","","","","","","",""
"494","","image-keyboard-response","127","196052","0.0-127.0","3BDCF01OGYGL8I2IVG1AF4BH7J3LYB","A345ZKNQSVPJ6G","3RKHNXPHGWIRLJ219DNI80W3E6SKUF","","img/set1/S2.jpg","74","2","random","68","random,structured_incentive,structured_load,structured_normal","","2,3,4,1","false","","",""
"null","","html-keyboard-response","128","196414","0.0-128.0","3BDCF01OGYGL8I2IVG1AF4BH7J3LYB","A345ZKNQSVPJ6G","3RKHNXPHGWIRLJ219DNI80W3E6SKUF","","<img src=""img/set1/S2.jpg"" width=""540"" height = ""360"">","null","","","","","","","","","",""
"null","","html-keyboard-response","129","196618","0.0-129.0","3BDCF01OGYGL8I2IVG1AF4BH7J3LYB","A345ZKNQSVPJ6G","3RKHNXPHGWIRLJ219DNI80W3E6SKUF","","","null","","","","","","","","","",""
"335.59999990463257","","image-keyboard-response","130","196956","0.0-130.0","3BDCF01OGYGL8I2IVG1AF4BH7J3LYB","A345ZKNQSVPJ6G","3RKHNXPHGWIRLJ219DNI80W3E6SKUF","","img/set1/S4.jpg","72","4","random","74","random,structured_incentive,structured_load,structured_normal","","2,3,4,1","false","","",""
"null","","html-keyboard-response","131","197315","0.0-131.0","3BDCF01OGYGL8I2IVG1AF4BH7J3LYB","A345ZKNQSVPJ6G","3RKHNXPHGWIRLJ219DNI80W3E6SKUF","","<img src=""img/set1/S4.jpg"" width=""540"" height = ""360"">","null","","","","","","","","","",""
"null","","html-keyboard-response","132","197522","0.0-132.0","3BDCF01OGYGL8I2IVG1AF4BH7J3LYB","A345ZKNQSVPJ6G","3RKHNXPHGWIRLJ219DNI80W3E6SKUF","","","null","","","","","","","","","",""
"160.80000019073486","","image-keyboard-response","133","197685","0.0-133.0","3BDCF01OGYGL8I2IVG1AF4BH7J3LYB","A345ZKNQSVPJ6G","3RKHNXPHGWIRLJ219DNI80W3E6SKUF","","img/set1/S2.jpg","83","2","random","68","random,structured_incentive,structured_load,structured_normal","","2,3,4,1","false","","",""
"null","","html-keyboard-response","134","198049","0.0-134.0","3BDCF01OGYGL8I2IVG1AF4BH7J3LYB","A345ZKNQSVPJ6G","3RKHNXPHGWIRLJ219DNI80W3E6SKUF","","<img src=""img/set1/S2.jpg"" width=""540"" height = ""360"">","null","","","","","","","","","",""
"null","","html-keyboard-response","135","198256","0.0-135.0","3BDCF01OGYGL8I2IVG1AF4BH7J3LYB","A345ZKNQSVPJ6G","3RKHNXPHGWIRLJ219DNI80W3E6SKUF","","","null","","","","","","","","","",""
"275.19999980926514","","image-keyboard-response","136","198533","0.0-136.0","3BDCF01OGYGL8I2IVG1AF4BH7J3LYB","A345ZKNQSVPJ6G","3RKHNXPHGWIRLJ219DNI80W3E6SKUF","","img/set1/S4.jpg","68","4","random","74","random,structured_incentive,structured_load,structured_normal","","2,3,4,1","false","","",""
"null","","html-keyboard-response","137","198897","0.0-137.0","3BDCF01OGYGL8I2IVG1AF4BH7J3LYB","A345ZKNQSVPJ6G","3RKHNXPHGWIRLJ219DNI80W3E6SKUF","","<img src=""img/set1/S4.jpg"" width=""540"" height = ""360"">","null","","","","","","","","","",""
"null","","html-keyboard-response","138","199106","0.0-138.0","3BDCF01OGYGL8I2IVG1AF4BH7J3LYB","A345ZKNQSVPJ6G","3RKHNXPHGWIRLJ219DNI80W3E6SKUF","","","null","","","","","","","","","",""
"143.20000004768372","","image-keyboard-response","139","199252","0.0-139.0","3BDCF01OGYGL8I2IVG1AF4BH7J3LYB","A345ZKNQSVPJ6G","3RKHNXPHGWIRLJ219DNI80W3E6SKUF","","img/set1/S1.jpg","68","1","random","83","random,structured_incentive,structured_load,structured_normal","","2,3,4,1","false","","",""
"null","","html-keyboard-response","140","199613","0.0-140.0","3BDCF01OGYGL8I2IVG1AF4BH7J3LYB","A345ZKNQSVPJ6G","3RKHNXPHGWIRLJ219DNI80W3E6SKUF","","<img src=""img/set1/S1.jpg"" width=""540"" height = ""360"">","null","","","","","","","","","",""
"null","","html-keyboard-response","141","199823","0.0-141.0","3BDCF01OGYGL8I2IVG1AF4BH7J3LYB","A345ZKNQSVPJ6G","3RKHNXPHGWIRLJ219DNI80W3E6SKUF","","","null","","","","","","","","","",""
"93.40000009536743","","image-keyboard-response","142","199922","0.0-142.0","3BDCF01OGYGL8I2IVG1AF4BH7J3LYB","A345ZKNQSVPJ6G","3RKHNXPHGWIRLJ219DNI80W3E6SKUF","","img/set1/S1.jpg","83","1","random","83","random,structured_incentive,structured_load,structured_normal","","2,3,4,1","true","","",""
"null","","html-keyboard-response","143","200283","0.0-143.0","3BDCF01OGYGL8I2IVG1AF4BH7J3LYB","A345ZKNQSVPJ6G","3RKHNXPHGWIRLJ219DNI80W3E6SKUF","","<img src=""img/set1/S1.jpg"" width=""540"" height = ""360"" style=""border:16px solid orange"">","null","","","","","","","","","",""
"null","","html-keyboard-response","144","200487","0.0-144.0","3BDCF01OGYGL8I2IVG1AF4BH7J3LYB","A345ZKNQSVPJ6G","3RKHNXPHGWIRLJ219DNI80W3E6SKUF","","","null","","","","","","","","","",""
"647.2000000476837","","image-keyboard-response","145","201137","0.0-145.0","3BDCF01OGYGL8I2IVG1AF4BH7J3LYB","A345ZKNQSVPJ6G","3RKHNXPHGWIRLJ219DNI80W3E6SKUF","","img/set1/S1.jpg","83","1","random","83","random,structured_incentive,structured_load,structured_normal","","2,3,4,1","true","","",""
"null","","html-keyboard-response","146","201496","0.0-146.0","3BDCF01OGYGL8I2IVG1AF4BH7J3LYB","A345ZKNQSVPJ6G","3RKHNXPHGWIRLJ219DNI80W3E6SKUF","","<img src=""img/set1/S1.jpg"" width=""540"" height = ""360"" style=""border:16px solid orange"">","null","","","","","","","","","",""
"null","","html-keyboard-response","147","201704","0.0-147.0","3BDCF01OGYGL8I2IVG1AF4BH7J3LYB","A345ZKNQSVPJ6G","3RKHNXPHGWIRLJ219DNI80W3E6SKUF","","","null","","","","","","","","","",""
"409.7999999523163","","image-keyboard-response","148","202116","0.0-148.0","3BDCF01OGYGL8I2IVG1AF4BH7J3LYB","A345ZKNQSVPJ6G","3RKHNXPHGWIRLJ219DNI80W3E6SKUF","","img/set1/S4.jpg","83","4","random","74","random,structured_incentive,structured_load,structured_normal","","2,3,4,1","false","","",""
"null","","html-keyboard-response","149","202470","0.0-149.0","3BDCF01OGYGL8I2IVG1AF4BH7J3LYB","A345ZKNQSVPJ6G","3RKHNXPHGWIRLJ219DNI80W3E6SKUF","","<img src=""img/set1/S4.jpg"" width=""540"" height = ""360"">","null","","","","","","","","","",""
"null","","html-keyboard-response","150","202687","0.0-150.0","3BDCF01OGYGL8I2IVG1AF4BH7J3LYB","A345ZKNQSVPJ6G","3RKHNXPHGWIRLJ219DNI80W3E6SKUF","","","null","","","","","","","","","",""
"1019.2000000476837","","image-keyboard-response","151","203709","0.0-151.0","3BDCF01OGYGL8I2IVG1AF4BH7J3LYB","A345ZKNQSVPJ6G","3RKHNXPHGWIRLJ219DNI80W3E6SKUF","","img/set1/S4.jpg","72","4","random","74","random,structured_incentive,structured_load,structured_normal","","2,3,4,1","false","","",""
"null","","html-keyboard-response","152","204063","0.0-152.0","3BDCF01OGYGL8I2IVG1AF4BH7J3LYB","A345ZKNQSVPJ6G","3RKHNXPHGWIRLJ219DNI80W3E6SKUF","","<img src=""img/set1/S4.jpg"" width=""540"" height = ""360"">","null","","","","","","","","","",""
"null","","html-keyboard-response","153","204282","0.0-153.0","3BDCF01OGYGL8I2IVG1AF4BH7J3LYB","A345ZKNQSVPJ6G","3RKHNXPHGWIRLJ219DNI80W3E6SKUF","","","null","","","","","","","","","",""
"700.4000000953674","","image-keyboard-response","154","204984","0.0-154.0","3BDCF01OGYGL8I2IVG1AF4BH7J3LYB","A345ZKNQSVPJ6G","3RKHNXPHGWIRLJ219DNI80W3E6SKUF","","img/set1/S1.jpg","74","1","random","83","random,structured_incentive,structured_load,structured_normal","","2,3,4,1","false","","",""
"null","","html-keyboard-response","155","205350","0.0-155.0","3BDCF01OGYGL8I2IVG1AF4BH7J3LYB","A345ZKNQSVPJ6G","3RKHNXPHGWIRLJ219DNI80W3E6SKUF","","<img src=""img/set1/S1.jpg"" width=""540"" height = ""360"">","null","","","","","","","","","",""
"null","","html-keyboard-response","156","205554","0.0-156.0","3BDCF01OGYGL8I2IVG1AF4BH7J3LYB","A345ZKNQSVPJ6G","3RKHNXPHGWIRLJ219DNI80W3E6SKUF","","","null","","","","","","","","","",""
"1484.3000001907349","","image-keyboard-response","157","207041","0.0-157.0","3BDCF01OGYGL8I2IVG1AF4BH7J3LYB","A345ZKNQSVPJ6G","3RKHNXPHGWIRLJ219DNI80W3E6SKUF","","img/set1/S2.jpg","74","2","random","68","random,structured_incentive,structured_load,structured_normal","","2,3,4,1","false","","",""
"null","","html-keyboard-response","158","207410","0.0-158.0","3BDCF01OGYGL8I2IVG1AF4BH7J3LYB","A345ZKNQSVPJ6G","3RKHNXPHGWIRLJ219DNI80W3E6SKUF","","<img src=""img/set1/S2.jpg"" width=""540"" height = ""360"">","null","","","","","","","","","",""
"null","","html-keyboard-response","159","207621","0.0-159.0","3BDCF01OGYGL8I2IVG1AF4BH7J3LYB","A345ZKNQSVPJ6G","3RKHNXPHGWIRLJ219DNI80W3E6SKUF","","","null","","","","","","","","","",""
"769.2000000476837","","image-keyboard-response","160","208392","0.0-160.0","3BDCF01OGYGL8I2IVG1AF4BH7J3LYB","A345ZKNQSVPJ6G","3RKHNXPHGWIRLJ219DNI80W3E6SKUF","","img/set1/S1.jpg","72","1","random","83","random,structured_incentive,structured_load,structured_normal","","2,3,4,1","false","","",""
"null","","html-keyboard-response","161","208757","0.0-161.0","3BDCF01OGYGL8I2IVG1AF4BH7J3LYB","A345ZKNQSVPJ6G","3RKHNXPHGWIRLJ219DNI80W3E6SKUF","","<img src=""img/set1/S1.jpg"" width=""540"" height = ""360"">","null","","","","","","","","","",""
"null","","html-keyboard-response","162","208969","0.0-162.0","3BDCF01OGYGL8I2IVG1AF4BH7J3LYB","A345ZKNQSVPJ6G","3RKHNXPHGWIRLJ219DNI80W3E6SKUF","","","null","","","","","","","","","",""
"1015.2999999523163","","image-keyboard-response","163","209987","0.0-163.0","3BDCF01OGYGL8I2IVG1AF4BH7J3LYB","A345ZKNQSVPJ6G","3RKHNXPHGWIRLJ219DNI80W3E6SKUF","","img/set1/S4.jpg","74","4","random","74","random,structured_incentive,structured_load,structured_normal","","2,3,4,1","true","","",""
"null","","html-keyboard-response","164","210343","0.0-164.0","3BDCF01OGYGL8I2IVG1AF4BH7J3LYB","A345ZKNQSVPJ6G","3RKHNXPHGWIRLJ219DNI80W3E6SKUF","","<img src=""img/set1/S4.jpg"" width=""540"" height = ""360"" style=""border:16px solid orange"">","null","","","","","","","","","",""
"null","","html-keyboard-response","165","210548","0.0-165.0","3BDCF01OGYGL8I2IVG1AF4BH7J3LYB","A345ZKNQSVPJ6G","3RKHNXPHGWIRLJ219DNI80W3E6SKUF","","","null","","","","","","","","","",""
"1110.3999998569489","","image-keyboard-response","166","211661","0.0-166.0","3BDCF01OGYGL8I2IVG1AF4BH7J3LYB","A345ZKNQSVPJ6G","3RKHNXPHGWIRLJ219DNI80W3E6SKUF","","img/set1/S4.jpg","74","4","random","74","random,structured_incentive,structured_load,structured_normal","","2,3,4,1","true","","",""
"null","","html-keyboard-response","167","212026","0.0-167.0","3BDCF01OGYGL8I2IVG1AF4BH7J3LYB","A345ZKNQSVPJ6G","3RKHNXPHGWIRLJ219DNI80W3E6SKUF","","<img src=""img/set1/S4.jpg"" width=""540"" height = ""360"" style=""border:16px solid orange"">","null","","","","","","","","","",""
"null","","html-keyboard-response","168","212234","0.0-168.0","3BDCF01OGYGL8I2IVG1AF4BH7J3LYB","A345ZKNQSVPJ6G","3RKHNXPHGWIRLJ219DNI80W3E6SKUF","","","null","","","","","","","","","",""
"735.5","","image-keyboard-response","169","212971","0.0-169.0","3BDCF01OGYGL8I2IVG1AF4BH7J3LYB","A345ZKNQSVPJ6G","3RKHNXPHGWIRLJ219DNI80W3E6SKUF","","img/set1/S1.jpg","83","1","random","83","random,structured_incentive,structured_load,structured_normal","","2,3,4,1","true","","",""
"null","","html-keyboard-response","170","213325","0.0-170.0","3BDCF01OGYGL8I2IVG1AF4BH7J3LYB","A345ZKNQSVPJ6G","3RKHNXPHGWIRLJ219DNI80W3E6SKUF","","<img src=""img/set1/S1.jpg"" width=""540"" height = ""360"" style=""border:16px solid orange"">","null","","","","","","","","","",""
"null","","html-keyboard-response","171","213534","0.0-171.0","3BDCF01OGYGL8I2IVG1AF4BH7J3LYB","A345ZKNQSVPJ6G","3RKHNXPHGWIRLJ219DNI80W3E6SKUF","","","null","","","","","","","","","",""
"668.7000000476837","","image-keyboard-response","172","214204","0.0-172.0","3BDCF01OGYGL8I2IVG1AF4BH7J3LYB","A345ZKNQSVPJ6G","3RKHNXPHGWIRLJ219DNI80W3E6SKUF","","img/set1/S1.jpg","68","1","random","83","random,structured_incentive,structured_load,structured_normal","","2,3,4,1","false","","",""
"null","","html-keyboard-response","173","214561","0.0-173.0","3BDCF01OGYGL8I2IVG1AF4BH7J3LYB","A345ZKNQSVPJ6G","3RKHNXPHGWIRLJ219DNI80W3E6SKUF","","<img src=""img/set1/S1.jpg"" width=""540"" height = ""360"">","null","","","","","","","","","",""
"null","","html-keyboard-response","174","214776","0.0-174.0","3BDCF01OGYGL8I2IVG1AF4BH7J3LYB","A345ZKNQSVPJ6G","3RKHNXPHGWIRLJ219DNI80W3E6SKUF","","","null","","","","","","","","","",""
"300.19999980926514","","image-keyboard-response","175","215081","0.0-175.0","3BDCF01OGYGL8I2IVG1AF4BH7J3LYB","A345ZKNQSVPJ6G","3RKHNXPHGWIRLJ219DNI80W3E6SKUF","","img/set1/S3.jpg","83","3","random","72","random,structured_incentive,structured_load,structured_normal","","2,3,4,1","false","","",""
"null","","html-keyboard-response","176","215441","0.0-176.0","3BDCF01OGYGL8I2IVG1AF4BH7J3LYB","A345ZKNQSVPJ6G","3RKHNXPHGWIRLJ219DNI80W3E6SKUF","","<img src=""img/set1/S3.jpg"" width=""540"" height = ""360"">","null","","","","","","","","","",""
"null","","html-keyboard-response","177","215651","0.0-177.0","3BDCF01OGYGL8I2IVG1AF4BH7J3LYB","A345ZKNQSVPJ6G","3RKHNXPHGWIRLJ219DNI80W3E6SKUF","","","null","","","","","","","","","",""
"393.5","","image-keyboard-response","178","216047","0.0-178.0","3BDCF01OGYGL8I2IVG1AF4BH7J3LYB","A345ZKNQSVPJ6G","3RKHNXPHGWIRLJ219DNI80W3E6SKUF","","img/set1/S1.jpg","83","1","random","83","random,structured_incentive,structured_load,structured_normal","","2,3,4,1","true","","",""
"null","","html-keyboard-response","179","216413","0.0-179.0","3BDCF01OGYGL8I2IVG1AF4BH7J3LYB","A345ZKNQSVPJ6G","3RKHNXPHGWIRLJ219DNI80W3E6SKUF","","<img src=""img/set1/S1.jpg"" width=""540"" height = ""360"" style=""border:16px solid orange"">","null","","","","","","","","","",""
"null","","html-keyboard-response","180","216628","0.0-180.0","3BDCF01OGYGL8I2IVG1AF4BH7J3LYB","A345ZKNQSVPJ6G","3RKHNXPHGWIRLJ219DNI80W3E6SKUF","","","null","","","","","","","","","",""
"605.2000000476837","","image-keyboard-response","181","217235","0.0-181.0","3BDCF01OGYGL8I2IVG1AF4BH7J3LYB","A345ZKNQSVPJ6G","3RKHNXPHGWIRLJ219DNI80W3E6SKUF","","img/set1/S2.jpg","74","2","random","68","random,structured_incentive,structured_load,structured_normal","","2,3,4,1","false","","",""
"null","","html-keyboard-response","182","217591","0.0-182.0","3BDCF01OGYGL8I2IVG1AF4BH7J3LYB","A345ZKNQSVPJ6G","3RKHNXPHGWIRLJ219DNI80W3E6SKUF","","<img src=""img/set1/S2.jpg"" width=""540"" height = ""360"">","null","","","","","","","","","",""
"null","","html-keyboard-response","183","217800","0.0-183.0","3BDCF01OGYGL8I2IVG1AF4BH7J3LYB","A345ZKNQSVPJ6G","3RKHNXPHGWIRLJ219DNI80W3E6SKUF","","","null","","","","","","","","","",""
"425.2000000476837","","image-keyboard-response","184","218227","0.0-184.0","3BDCF01OGYGL8I2IVG1AF4BH7J3LYB","A345ZKNQSVPJ6G","3RKHNXPHGWIRLJ219DNI80W3E6SKUF","","img/set1/S3.jpg","74","3","random","72","random,structured_incentive,structured_load,structured_normal","","2,3,4,1","false","","",""
"null","","html-keyboard-response","185","218590","0.0-185.0","3BDCF01OGYGL8I2IVG1AF4BH7J3LYB","A345ZKNQSVPJ6G","3RKHNXPHGWIRLJ219DNI80W3E6SKUF","","<img src=""img/set1/S3.jpg"" width=""540"" height = ""360"">","null","","","","","","","","","",""
"null","","html-keyboard-response","186","218799","0.0-186.0","3BDCF01OGYGL8I2IVG1AF4BH7J3LYB","A345ZKNQSVPJ6G","3RKHNXPHGWIRLJ219DNI80W3E6SKUF","","","null","","","","","","","","","",""
"311.7999999523163","","image-keyboard-response","187","219113","0.0-187.0","3BDCF01OGYGL8I2IVG1AF4BH7J3LYB","A345ZKNQSVPJ6G","3RKHNXPHGWIRLJ219DNI80W3E6SKUF","","img/set1/S1.jpg","72","1","random","83","random,structured_incentive,structured_load,structured_normal","","2,3,4,1","false","","",""
"null","","html-keyboard-response","188","219475","0.0-188.0","3BDCF01OGYGL8I2IVG1AF4BH7J3LYB","A345ZKNQSVPJ6G","3RKHNXPHGWIRLJ219DNI80W3E6SKUF","","<img src=""img/set1/S1.jpg"" width=""540"" height = ""360"">","null","","","","","","","","","",""
"null","","html-keyboard-response","189","219683","0.0-189.0","3BDCF01OGYGL8I2IVG1AF4BH7J3LYB","A345ZKNQSVPJ6G","3RKHNXPHGWIRLJ219DNI80W3E6SKUF","","","null","","","","","","","","","",""
"191.79999995231628","","image-keyboard-response","190","219877","0.0-190.0","3BDCF01OGYGL8I2IVG1AF4BH7J3LYB","A345ZKNQSVPJ6G","3RKHNXPHGWIRLJ219DNI80W3E6SKUF","","img/set1/S1.jpg","74","1","random","83","random,structured_incentive,structured_load,structured_normal","","2,3,4,1","false","","",""
"null","","html-keyboard-response","191","220246","0.0-191.0","3BDCF01OGYGL8I2IVG1AF4BH7J3LYB","A345ZKNQSVPJ6G","3RKHNXPHGWIRLJ219DNI80W3E6SKUF","","<img src=""img/set1/S1.jpg"" width=""540"" height = ""360"">","null","","","","","","","","","",""
"null","","html-keyboard-response","192","220450","0.0-192.0","3BDCF01OGYGL8I2IVG1AF4BH7J3LYB","A345ZKNQSVPJ6G","3RKHNXPHGWIRLJ219DNI80W3E6SKUF","","","null","","","","","","","","","",""
"346.40000009536743","","image-keyboard-response","193","220799","0.0-193.0","3BDCF01OGYGL8I2IVG1AF4BH7J3LYB","A345ZKNQSVPJ6G","3RKHNXPHGWIRLJ219DNI80W3E6SKUF","","img/set1/S3.jpg","83","3","random","72","random,structured_incentive,structured_load,structured_normal","","2,3,4,1","false","","",""
"null","","html-keyboard-response","194","221155","0.0-194.0","3BDCF01OGYGL8I2IVG1AF4BH7J3LYB","A345ZKNQSVPJ6G","3RKHNXPHGWIRLJ219DNI80W3E6SKUF","","<img src=""img/set1/S3.jpg"" width=""540"" height = ""360"">","null","","","","","","","","","",""
"null","","html-keyboard-response","195","221364","0.0-195.0","3BDCF01OGYGL8I2IVG1AF4BH7J3LYB","A345ZKNQSVPJ6G","3RKHNXPHGWIRLJ219DNI80W3E6SKUF","","","null","","","","","","","","","",""
"311.5","","image-keyboard-response","196","221679","0.0-196.0","3BDCF01OGYGL8I2IVG1AF4BH7J3LYB","A345ZKNQSVPJ6G","3RKHNXPHGWIRLJ219DNI80W3E6SKUF","","img/set1/S1.jpg","68","1","random","83","random,structured_incentive,structured_load,structured_normal","","2,3,4,1","false","","",""
"null","","html-keyboard-response","197","222039","0.0-197.0","3BDCF01OGYGL8I2IVG1AF4BH7J3LYB","A345ZKNQSVPJ6G","3RKHNXPHGWIRLJ219DNI80W3E6SKUF","","<img src=""img/set1/S1.jpg"" width=""540"" height = ""360"">","null","","","","","","","","","",""
"null","","html-keyboard-response","198","222257","0.0-198.0","3BDCF01OGYGL8I2IVG1AF4BH7J3LYB","A345ZKNQSVPJ6G","3RKHNXPHGWIRLJ219DNI80W3E6SKUF","","","null","","","","","","","","","",""
"221.5","","image-keyboard-response","199","222481","0.0-199.0","3BDCF01OGYGL8I2IVG1AF4BH7J3LYB","A345ZKNQSVPJ6G","3RKHNXPHGWIRLJ219DNI80W3E6SKUF","","img/set1/S4.jpg","68","4","random","74","random,structured_incentive,structured_load,structured_normal","","2,3,4,1","false","","",""
"null","","html-keyboard-response","200","222849","0.0-200.0","3BDCF01OGYGL8I2IVG1AF4BH7J3LYB","A345ZKNQSVPJ6G","3RKHNXPHGWIRLJ219DNI80W3E6SKUF","","<img src=""img/set1/S4.jpg"" width=""540"" height = ""360"">","null","","","","","","","","","",""
"null","","html-keyboard-response","201","223064","0.0-201.0","3BDCF01OGYGL8I2IVG1AF4BH7J3LYB","A345ZKNQSVPJ6G","3RKHNXPHGWIRLJ219DNI80W3E6SKUF","","","null","","","","","","","","","",""
"123.29999995231628","","image-keyboard-response","202","223190","0.0-202.0","3BDCF01OGYGL8I2IVG1AF4BH7J3LYB","A345ZKNQSVPJ6G","3RKHNXPHGWIRLJ219DNI80W3E6SKUF","","img/set1/S1.jpg","83","1","random","83","random,structured_incentive,structured_load,structured_normal","","2,3,4,1","true","","",""
"null","","html-keyboard-response","203","223554","0.0-203.0","3BDCF01OGYGL8I2IVG1AF4BH7J3LYB","A345ZKNQSVPJ6G","3RKHNXPHGWIRLJ219DNI80W3E6SKUF","","<img src=""img/set1/S1.jpg"" width=""540"" height = ""360"" style=""border:16px solid orange"">","null","","","","","","","","","",""
"null","","html-keyboard-response","204","223762","0.0-204.0","3BDCF01OGYGL8I2IVG1AF4BH7J3LYB","A345ZKNQSVPJ6G","3RKHNXPHGWIRLJ219DNI80W3E6SKUF","","","null","","","","","","","","","",""
"228","","image-keyboard-response","205","223992","0.0-205.0","3BDCF01OGYGL8I2IVG1AF4BH7J3LYB","A345ZKNQSVPJ6G","3RKHNXPHGWIRLJ219DNI80W3E6SKUF","","img/set1/S1.jpg","74","1","random","83","random,structured_incentive,structured_load,structured_normal","","2,3,4,1","false","","",""
"null","","html-keyboard-response","206","224352","0.0-206.0","3BDCF01OGYGL8I2IVG1AF4BH7J3LYB","A345ZKNQSVPJ6G","3RKHNXPHGWIRLJ219DNI80W3E6SKUF","","<img src=""img/set1/S1.jpg"" width=""540"" height = ""360"">","null","","","","","","","","","",""
"null","","html-keyboard-response","207","224564","0.0-207.0","3BDCF01OGYGL8I2IVG1AF4BH7J3LYB","A345ZKNQSVPJ6G","3RKHNXPHGWIRLJ219DNI80W3E6SKUF","","","null","","","","","","","","","",""
"223","","image-keyboard-response","208","224790","0.0-208.0","3BDCF01OGYGL8I2IVG1AF4BH7J3LYB","A345ZKNQSVPJ6G","3RKHNXPHGWIRLJ219DNI80W3E6SKUF","","img/set1/S1.jpg","74","1","random","83","random,structured_incentive,structured_load,structured_normal","","2,3,4,1","false","","",""
"null","","html-keyboard-response","209","225154","0.0-209.0","3BDCF01OGYGL8I2IVG1AF4BH7J3LYB","A345ZKNQSVPJ6G","3RKHNXPHGWIRLJ219DNI80W3E6SKUF","","<img src=""img/set1/S1.jpg"" width=""540"" height = ""360"">","null","","","","","","","","","",""
"null","","html-keyboard-response","210","225363","0.0-210.0","3BDCF01OGYGL8I2IVG1AF4BH7J3LYB","A345ZKNQSVPJ6G","3RKHNXPHGWIRLJ219DNI80W3E6SKUF","","","null","","","","","","","","","",""
"173.5","","image-keyboard-response","211","225539","0.0-211.0","3BDCF01OGYGL8I2IVG1AF4BH7J3LYB","A345ZKNQSVPJ6G","3RKHNXPHGWIRLJ219DNI80W3E6SKUF","","img/set1/S1.jpg","72","1","random","83","random,structured_incentive,structured_load,structured_normal","","2,3,4,1","false","","",""
"null","","html-keyboard-response","212","225895","0.0-212.0","3BDCF01OGYGL8I2IVG1AF4BH7J3LYB","A345ZKNQSVPJ6G","3RKHNXPHGWIRLJ219DNI80W3E6SKUF","","<img src=""img/set1/S1.jpg"" width=""540"" height = ""360"">","null","","","","","","","","","",""
"null","","html-keyboard-response","213","226110","0.0-213.0","3BDCF01OGYGL8I2IVG1AF4BH7J3LYB","A345ZKNQSVPJ6G","3RKHNXPHGWIRLJ219DNI80W3E6SKUF","","","null","","","","","","","","","",""
"126.10000014305115","","image-keyboard-response","214","226238","0.0-214.0","3BDCF01OGYGL8I2IVG1AF4BH7J3LYB","A345ZKNQSVPJ6G","3RKHNXPHGWIRLJ219DNI80W3E6SKUF","","img/set1/S1.jpg","83","1","random","83","random,structured_incentive,structured_load,structured_normal","","2,3,4,1","true","","",""
"null","","html-keyboard-response","215","226593","0.0-215.0","3BDCF01OGYGL8I2IVG1AF4BH7J3LYB","A345ZKNQSVPJ6G","3RKHNXPHGWIRLJ219DNI80W3E6SKUF","","<img src=""img/set1/S1.jpg"" width=""540"" height = ""360"" style=""border:16px solid orange"">","null","","","","","","","","","",""
"null","","html-keyboard-response","216","226810","0.0-216.0","3BDCF01OGYGL8I2IVG1AF4BH7J3LYB","A345ZKNQSVPJ6G","3RKHNXPHGWIRLJ219DNI80W3E6SKUF","","","null","","","","","","","","","",""
"276.60000014305115","","image-keyboard-response","217","227089","0.0-217.0","3BDCF01OGYGL8I2IVG1AF4BH7J3LYB","A345ZKNQSVPJ6G","3RKHNXPHGWIRLJ219DNI80W3E6SKUF","","img/set1/S2.jpg","68","2","random","68","random,structured_incentive,structured_load,structured_normal","","2,3,4,1","true","","",""
"null","","html-keyboard-response","218","227454","0.0-218.0","3BDCF01OGYGL8I2IVG1AF4BH7J3LYB","A345ZKNQSVPJ6G","3RKHNXPHGWIRLJ219DNI80W3E6SKUF","","<img src=""img/set1/S2.jpg"" width=""540"" height = ""360"" style=""border:16px solid orange"">","null","","","","","","","","","",""
"null","","html-keyboard-response","219","227664","0.0-219.0","3BDCF01OGYGL8I2IVG1AF4BH7J3LYB","A345ZKNQSVPJ6G","3RKHNXPHGWIRLJ219DNI80W3E6SKUF","","","null","","","","","","","","","",""
"203.70000004768372","","image-keyboard-response","220","227870","0.0-220.0","3BDCF01OGYGL8I2IVG1AF4BH7J3LYB","A345ZKNQSVPJ6G","3RKHNXPHGWIRLJ219DNI80W3E6SKUF","","img/set1/S4.jpg","68","4","random","74","random,structured_incentive,structured_load,structured_normal","","2,3,4,1","false","","",""
"null","","html-keyboard-response","221","228233","0.0-221.0","3BDCF01OGYGL8I2IVG1AF4BH7J3LYB","A345ZKNQSVPJ6G","3RKHNXPHGWIRLJ219DNI80W3E6SKUF","","<img src=""img/set1/S4.jpg"" width=""540"" height = ""360"">","null","","","","","","","","","",""
"null","","html-keyboard-response","222","228437","0.0-222.0","3BDCF01OGYGL8I2IVG1AF4BH7J3LYB","A345ZKNQSVPJ6G","3RKHNXPHGWIRLJ219DNI80W3E6SKUF","","","null","","","","","","","","","",""
"160.09999990463257","","image-keyboard-response","223","228600","0.0-223.0","3BDCF01OGYGL8I2IVG1AF4BH7J3LYB","A345ZKNQSVPJ6G","3RKHNXPHGWIRLJ219DNI80W3E6SKUF","","img/set1/S4.jpg","83","4","random","74","random,structured_incentive,structured_load,structured_normal","","2,3,4,1","false","","",""
"null","","html-keyboard-response","224","228968","0.0-224.0","3BDCF01OGYGL8I2IVG1AF4BH7J3LYB","A345ZKNQSVPJ6G","3RKHNXPHGWIRLJ219DNI80W3E6SKUF","","<img src=""img/set1/S4.jpg"" width=""540"" height = ""360"">","null","","","","","","","","","",""
"null","","html-keyboard-response","225","229173","0.0-225.0","3BDCF01OGYGL8I2IVG1AF4BH7J3LYB","A345ZKNQSVPJ6G","3RKHNXPHGWIRLJ219DNI80W3E6SKUF","","","null","","","","","","","","","",""
"21.799999952316284","","image-keyboard-response","226","229197","0.0-226.0","3BDCF01OGYGL8I2IVG1AF4BH7J3LYB","A345ZKNQSVPJ6G","3RKHNXPHGWIRLJ219DNI80W3E6SKUF","","img/set1/S4.jpg","74","4","random","74","random,structured_incentive,structured_load,structured_normal","","2,3,4,1","true","","",""
"null","","html-keyboard-response","227","229563","0.0-227.0","3BDCF01OGYGL8I2IVG1AF4BH7J3LYB","A345ZKNQSVPJ6G","3RKHNXPHGWIRLJ219DNI80W3E6SKUF","","<img src=""img/set1/S4.jpg"" width=""540"" height = ""360"" style=""border:16px solid orange"">","null","","","","","","","","","",""
"null","","html-keyboard-response","228","229778","0.0-228.0","3BDCF01OGYGL8I2IVG1AF4BH7J3LYB","A345ZKNQSVPJ6G","3RKHNXPHGWIRLJ219DNI80W3E6SKUF","","","null","","","","","","","","","",""
"268.59999990463257","","image-keyboard-response","229","230049","0.0-229.0","3BDCF01OGYGL8I2IVG1AF4BH7J3LYB","A345ZKNQSVPJ6G","3RKHNXPHGWIRLJ219DNI80W3E6SKUF","","img/set1/S2.jpg","74","2","random","68","random,structured_incentive,structured_load,structured_normal","","2,3,4,1","false","","",""
"null","","html-keyboard-response","230","230418","0.0-230.0","3BDCF01OGYGL8I2IVG1AF4BH7J3LYB","A345ZKNQSVPJ6G","3RKHNXPHGWIRLJ219DNI80W3E6SKUF","","<img src=""img/set1/S2.jpg"" width=""540"" height = ""360"">","null","","","","","","","","","",""
"null","","html-keyboard-response","231","230622","0.0-231.0","3BDCF01OGYGL8I2IVG1AF4BH7J3LYB","A345ZKNQSVPJ6G","3RKHNXPHGWIRLJ219DNI80W3E6SKUF","","","null","","","","","","","","","",""
"222.79999995231628","","image-keyboard-response","232","230847","0.0-232.0","3BDCF01OGYGL8I2IVG1AF4BH7J3LYB","A345ZKNQSVPJ6G","3RKHNXPHGWIRLJ219DNI80W3E6SKUF","","img/set1/S4.jpg","74","4","random","74","random,structured_incentive,structured_load,structured_normal","","2,3,4,1","true","","",""
"null","","html-keyboard-response","233","231208","0.0-233.0","3BDCF01OGYGL8I2IVG1AF4BH7J3LYB","A345ZKNQSVPJ6G","3RKHNXPHGWIRLJ219DNI80W3E6SKUF","","<img src=""img/set1/S4.jpg"" width=""540"" height = ""360"" style=""border:16px solid orange"">","null","","","","","","","","","",""
"null","","html-keyboard-response","234","231410","0.0-234.0","3BDCF01OGYGL8I2IVG1AF4BH7J3LYB","A345ZKNQSVPJ6G","3RKHNXPHGWIRLJ219DNI80W3E6SKUF","","","null","","","","","","","","","",""
"349.89999985694885","","image-keyboard-response","235","231763","0.0-235.0","3BDCF01OGYGL8I2IVG1AF4BH7J3LYB","A345ZKNQSVPJ6G","3RKHNXPHGWIRLJ219DNI80W3E6SKUF","","img/set1/S2.jpg","72","2","random","68","random,structured_incentive,structured_load,structured_normal","","2,3,4,1","false","","",""
"null","","html-keyboard-response","236","232119","0.0-236.0","3BDCF01OGYGL8I2IVG1AF4BH7J3LYB","A345ZKNQSVPJ6G","3RKHNXPHGWIRLJ219DNI80W3E6SKUF","","<img src=""img/set1/S2.jpg"" width=""540"" height = ""360"">","null","","","","","","","","","",""
"null","","html-keyboard-response","237","232321","0.0-237.0","3BDCF01OGYGL8I2IVG1AF4BH7J3LYB","A345ZKNQSVPJ6G","3RKHNXPHGWIRLJ219DNI80W3E6SKUF","","","null","","","","","","","","","",""
"152.79999995231628","","image-keyboard-response","238","232477","0.0-238.0","3BDCF01OGYGL8I2IVG1AF4BH7J3LYB","A345ZKNQSVPJ6G","3RKHNXPHGWIRLJ219DNI80W3E6SKUF","","img/set1/S2.jpg","72","2","random","68","random,structured_incentive,structured_load,structured_normal","","2,3,4,1","false","","",""
"null","","html-keyboard-response","239","232832","0.0-239.0","3BDCF01OGYGL8I2IVG1AF4BH7J3LYB","A345ZKNQSVPJ6G","3RKHNXPHGWIRLJ219DNI80W3E6SKUF","","<img src=""img/set1/S2.jpg"" width=""540"" height = ""360"">","null","","","","","","","","","",""
"null","","html-keyboard-response","240","233043","0.0-240.0","3BDCF01OGYGL8I2IVG1AF4BH7J3LYB","A345ZKNQSVPJ6G","3RKHNXPHGWIRLJ219DNI80W3E6SKUF","","","null","","","","","","","","","",""
"173.80000019073486","","image-keyboard-response","241","233220","0.0-241.0","3BDCF01OGYGL8I2IVG1AF4BH7J3LYB","A345ZKNQSVPJ6G","3RKHNXPHGWIRLJ219DNI80W3E6SKUF","","img/set1/S1.jpg","72","1","random","83","random,structured_incentive,structured_load,structured_normal","","2,3,4,1","false","","",""
"null","","html-keyboard-response","242","233585","0.0-242.0","3BDCF01OGYGL8I2IVG1AF4BH7J3LYB","A345ZKNQSVPJ6G","3RKHNXPHGWIRLJ219DNI80W3E6SKUF","","<img src=""img/set1/S1.jpg"" width=""540"" height = ""360"">","null","","","","","","","","","",""
"null","","html-keyboard-response","243","233793","0.0-243.0","3BDCF01OGYGL8I2IVG1AF4BH7J3LYB","A345ZKNQSVPJ6G","3RKHNXPHGWIRLJ219DNI80W3E6SKUF","","","null","","","","","","","","","",""
"146.20000004768372","","image-keyboard-response","244","233940","0.0-244.0","3BDCF01OGYGL8I2IVG1AF4BH7J3LYB","A345ZKNQSVPJ6G","3RKHNXPHGWIRLJ219DNI80W3E6SKUF","","img/set1/S2.jpg","74","2","random","68","random,structured_incentive,structured_load,structured_normal","","2,3,4,1","false","","",""
"null","","html-keyboard-response","245","234303","0.0-245.0","3BDCF01OGYGL8I2IVG1AF4BH7J3LYB","A345ZKNQSVPJ6G","3RKHNXPHGWIRLJ219DNI80W3E6SKUF","","<img src=""img/set1/S2.jpg"" width=""540"" height = ""360"">","null","","","","","","","","","",""
"null","","html-keyboard-response","246","234511","0.0-246.0","3BDCF01OGYGL8I2IVG1AF4BH7J3LYB","A345ZKNQSVPJ6G","3RKHNXPHGWIRLJ219DNI80W3E6SKUF","","","null","","","","","","","","","",""
"156.59999990463257","","image-keyboard-response","247","234670","0.0-247.0","3BDCF01OGYGL8I2IVG1AF4BH7J3LYB","A345ZKNQSVPJ6G","3RKHNXPHGWIRLJ219DNI80W3E6SKUF","","img/set1/S1.jpg","74","1","random","83","random,structured_incentive,structured_load,structured_normal","","2,3,4,1","false","","",""
"null","","html-keyboard-response","248","235053","0.0-248.0","3BDCF01OGYGL8I2IVG1AF4BH7J3LYB","A345ZKNQSVPJ6G","3RKHNXPHGWIRLJ219DNI80W3E6SKUF","","<img src=""img/set1/S1.jpg"" width=""540"" height = ""360"">","null","","","","","","","","","",""
"null","","html-keyboard-response","249","235258","0.0-249.0","3BDCF01OGYGL8I2IVG1AF4BH7J3LYB","A345ZKNQSVPJ6G","3RKHNXPHGWIRLJ219DNI80W3E6SKUF","","","null","","","","","","","","","",""
"63","","image-keyboard-response","250","235323","0.0-250.0","3BDCF01OGYGL8I2IVG1AF4BH7J3LYB","A345ZKNQSVPJ6G","3RKHNXPHGWIRLJ219DNI80W3E6SKUF","","img/set1/S1.jpg","83","1","random","83","random,structured_incentive,structured_load,structured_normal","","2,3,4,1","true","","",""
"null","","html-keyboard-response","251","235689","0.0-251.0","3BDCF01OGYGL8I2IVG1AF4BH7J3LYB","A345ZKNQSVPJ6G","3RKHNXPHGWIRLJ219DNI80W3E6SKUF","","<img src=""img/set1/S1.jpg"" width=""540"" height = ""360"" style=""border:16px solid orange"">","null","","","","","","","","","",""
"null","","html-keyboard-response","252","235893","0.0-252.0","3BDCF01OGYGL8I2IVG1AF4BH7J3LYB","A345ZKNQSVPJ6G","3RKHNXPHGWIRLJ219DNI80W3E6SKUF","","","null","","","","","","","","","",""
"195.80000019073486","","image-keyboard-response","253","236091","0.0-253.0","3BDCF01OGYGL8I2IVG1AF4BH7J3LYB","A345ZKNQSVPJ6G","3RKHNXPHGWIRLJ219DNI80W3E6SKUF","","img/set1/S1.jpg","68","1","random","83","random,structured_incentive,structured_load,structured_normal","","2,3,4,1","false","","",""
"null","","html-keyboard-response","254","236459","0.0-254.0","3BDCF01OGYGL8I2IVG1AF4BH7J3LYB","A345ZKNQSVPJ6G","3RKHNXPHGWIRLJ219DNI80W3E6SKUF","","<img src=""img/set1/S1.jpg"" width=""540"" height = ""360"">","null","","","","","","","","","",""
"null","","html-keyboard-response","255","236675","0.0-255.0","3BDCF01OGYGL8I2IVG1AF4BH7J3LYB","A345ZKNQSVPJ6G","3RKHNXPHGWIRLJ219DNI80W3E6SKUF","","","null","","","","","","","","","",""
"1112.5","","image-keyboard-response","256","237790","0.0-256.0","3BDCF01OGYGL8I2IVG1AF4BH7J3LYB","A345ZKNQSVPJ6G","3RKHNXPHGWIRLJ219DNI80W3E6SKUF","","img/set1/S1.jpg","74","1","random","83","random,structured_incentive,structured_load,structured_normal","","2,3,4,1","false","","",""
"null","","html-keyboard-response","257","238151","0.0-257.0","3BDCF01OGYGL8I2IVG1AF4BH7J3LYB","A345ZKNQSVPJ6G","3RKHNXPHGWIRLJ219DNI80W3E6SKUF","","<img src=""img/set1/S1.jpg"" width=""540"" height = ""360"">","null","","","","","","","","","",""
"null","","html-keyboard-response","258","238368","0.0-258.0","3BDCF01OGYGL8I2IVG1AF4BH7J3LYB","A345ZKNQSVPJ6G","3RKHNXPHGWIRLJ219DNI80W3E6SKUF","","","null","","","","","","","","","",""
"334.59999990463257","","image-keyboard-response","259","238703","0.0-259.0","3BDCF01OGYGL8I2IVG1AF4BH7J3LYB","A345ZKNQSVPJ6G","3RKHNXPHGWIRLJ219DNI80W3E6SKUF","","img/set1/S3.jpg","83","3","random","72","random,structured_incentive,structured_load,structured_normal","","2,3,4,1","false","","",""
"null","","html-keyboard-response","260","239067","0.0-260.0","3BDCF01OGYGL8I2IVG1AF4BH7J3LYB","A345ZKNQSVPJ6G","3RKHNXPHGWIRLJ219DNI80W3E6SKUF","","<img src=""img/set1/S3.jpg"" width=""540"" height = ""360"">","null","","","","","","","","","",""
"null","","html-keyboard-response","261","239282","0.0-261.0","3BDCF01OGYGL8I2IVG1AF4BH7J3LYB","A345ZKNQSVPJ6G","3RKHNXPHGWIRLJ219DNI80W3E6SKUF","","","null","","","","","","","","","",""
"334.09999990463257","","image-keyboard-response","262","239618","0.0-262.0","3BDCF01OGYGL8I2IVG1AF4BH7J3LYB","A345ZKNQSVPJ6G","3RKHNXPHGWIRLJ219DNI80W3E6SKUF","","img/set1/S3.jpg","72","3","random","72","random,structured_incentive,structured_load,structured_normal","","2,3,4,1","true","","",""
"null","","html-keyboard-response","263","239981","0.0-263.0","3BDCF01OGYGL8I2IVG1AF4BH7J3LYB","A345ZKNQSVPJ6G","3RKHNXPHGWIRLJ219DNI80W3E6SKUF","","<img src=""img/set1/S3.jpg"" width=""540"" height = ""360"" style=""border:16px solid orange"">","null","","","","","","","","","",""
"null","","html-keyboard-response","264","240192","0.0-264.0","3BDCF01OGYGL8I2IVG1AF4BH7J3LYB","A345ZKNQSVPJ6G","3RKHNXPHGWIRLJ219DNI80W3E6SKUF","","","null","","","","","","","","","",""
"191.10000014305115","","image-keyboard-response","265","240385","0.0-265.0","3BDCF01OGYGL8I2IVG1AF4BH7J3LYB","A345ZKNQSVPJ6G","3RKHNXPHGWIRLJ219DNI80W3E6SKUF","","img/set1/S4.jpg","68","4","random","74","random,structured_incentive,structured_load,structured_normal","","2,3,4,1","false","","",""
"null","","html-keyboard-response","266","240748","0.0-266.0","3BDCF01OGYGL8I2IVG1AF4BH7J3LYB","A345ZKNQSVPJ6G","3RKHNXPHGWIRLJ219DNI80W3E6SKUF","","<img src=""img/set1/S4.jpg"" width=""540"" height = ""360"">","null","","","","","","","","","",""
"null","","html-keyboard-response","267","240958","0.0-267.0","3BDCF01OGYGL8I2IVG1AF4BH7J3LYB","A345ZKNQSVPJ6G","3RKHNXPHGWIRLJ219DNI80W3E6SKUF","","","null","","","","","","","","","",""
"108.40000009536743","","image-keyboard-response","268","241068","0.0-268.0","3BDCF01OGYGL8I2IVG1AF4BH7J3LYB","A345ZKNQSVPJ6G","3RKHNXPHGWIRLJ219DNI80W3E6SKUF","","img/set1/S2.jpg","74","2","random","68","random,structured_incentive,structured_load,structured_normal","","2,3,4,1","false","","",""
"null","","html-keyboard-response","269","241426","0.0-269.0","3BDCF01OGYGL8I2IVG1AF4BH7J3LYB","A345ZKNQSVPJ6G","3RKHNXPHGWIRLJ219DNI80W3E6SKUF","","<img src=""img/set1/S2.jpg"" width=""540"" height = ""360"">","null","","","","","","","","","",""
"null","","html-keyboard-response","270","241640","0.0-270.0","3BDCF01OGYGL8I2IVG1AF4BH7J3LYB","A345ZKNQSVPJ6G","3RKHNXPHGWIRLJ219DNI80W3E6SKUF","","","null","","","","","","","","","",""
"242.09999990463257","","image-keyboard-response","271","241884","0.0-271.0","3BDCF01OGYGL8I2IVG1AF4BH7J3LYB","A345ZKNQSVPJ6G","3RKHNXPHGWIRLJ219DNI80W3E6SKUF","","img/set1/S1.jpg","83","1","random","83","random,structured_incentive,structured_load,structured_normal","","2,3,4,1","true","","",""
"null","","html-keyboard-response","272","242250","0.0-272.0","3BDCF01OGYGL8I2IVG1AF4BH7J3LYB","A345ZKNQSVPJ6G","3RKHNXPHGWIRLJ219DNI80W3E6SKUF","","<img src=""img/set1/S1.jpg"" width=""540"" height = ""360"" style=""border:16px solid orange"">","null","","","","","","","","","",""
"null","","html-keyboard-response","273","242463","0.0-273.0","3BDCF01OGYGL8I2IVG1AF4BH7J3LYB","A345ZKNQSVPJ6G","3RKHNXPHGWIRLJ219DNI80W3E6SKUF","","","null","","","","","","","","","",""
"179.80000019073486","","image-keyboard-response","274","242645","0.0-274.0","3BDCF01OGYGL8I2IVG1AF4BH7J3LYB","A345ZKNQSVPJ6G","3RKHNXPHGWIRLJ219DNI80W3E6SKUF","","img/set1/S2.jpg","74","2","random","68","random,structured_incentive,structured_load,structured_normal","","2,3,4,1","false","","",""
"null","","html-keyboard-response","275","242999","0.0-275.0","3BDCF01OGYGL8I2IVG1AF4BH7J3LYB","A345ZKNQSVPJ6G","3RKHNXPHGWIRLJ219DNI80W3E6SKUF","","<img src=""img/set1/S2.jpg"" width=""540"" height = ""360"">","null","","","","","","","","","",""
"null","","html-keyboard-response","276","243204","0.0-276.0","3BDCF01OGYGL8I2IVG1AF4BH7J3LYB","A345ZKNQSVPJ6G","3RKHNXPHGWIRLJ219DNI80W3E6SKUF","","","null","","","","","","","","","",""
"111.79999995231628","","image-keyboard-response","277","243318","0.0-277.0","3BDCF01OGYGL8I2IVG1AF4BH7J3LYB","A345ZKNQSVPJ6G","3RKHNXPHGWIRLJ219DNI80W3E6SKUF","","img/set1/S2.jpg","72","2","random","68","random,structured_incentive,structured_load,structured_normal","","2,3,4,1","false","","",""
"null","","html-keyboard-response","278","243677","0.0-278.0","3BDCF01OGYGL8I2IVG1AF4BH7J3LYB","A345ZKNQSVPJ6G","3RKHNXPHGWIRLJ219DNI80W3E6SKUF","","<img src=""img/set1/S2.jpg"" width=""540"" height = ""360"">","null","","","","","","","","","",""
"null","","html-keyboard-response","279","243889","0.0-279.0","3BDCF01OGYGL8I2IVG1AF4BH7J3LYB","A345ZKNQSVPJ6G","3RKHNXPHGWIRLJ219DNI80W3E6SKUF","","","null","","","","","","","","","",""
"130.90000009536743","","image-keyboard-response","280","244022","0.0-280.0","3BDCF01OGYGL8I2IVG1AF4BH7J3LYB","A345ZKNQSVPJ6G","3RKHNXPHGWIRLJ219DNI80W3E6SKUF","","img/set1/S3.jpg","68","3","random","72","random,structured_incentive,structured_load,structured_normal","","2,3,4,1","false","","",""
"null","","html-keyboard-response","281","244378","0.0-281.0","3BDCF01OGYGL8I2IVG1AF4BH7J3LYB","A345ZKNQSVPJ6G","3RKHNXPHGWIRLJ219DNI80W3E6SKUF","","<img src=""img/set1/S3.jpg"" width=""540"" height = ""360"">","null","","","","","","","","","",""
"null","","html-keyboard-response","282","244590","0.0-282.0","3BDCF01OGYGL8I2IVG1AF4BH7J3LYB","A345ZKNQSVPJ6G","3RKHNXPHGWIRLJ219DNI80W3E6SKUF","","","null","","","","","","","","","",""
"124.5","","image-keyboard-response","283","244717","0.0-283.0","3BDCF01OGYGL8I2IVG1AF4BH7J3LYB","A345ZKNQSVPJ6G","3RKHNXPHGWIRLJ219DNI80W3E6SKUF","","img/set1/S2.jpg","83","2","random","68","random,structured_incentive,structured_load,structured_normal","","2,3,4,1","false","","",""
"null","","html-keyboard-response","284","245080","0.0-284.0","3BDCF01OGYGL8I2IVG1AF4BH7J3LYB","A345ZKNQSVPJ6G","3RKHNXPHGWIRLJ219DNI80W3E6SKUF","","<img src=""img/set1/S2.jpg"" width=""540"" height = ""360"">","null","","","","","","","","","",""
"null","","html-keyboard-response","285","245288","0.0-285.0","3BDCF01OGYGL8I2IVG1AF4BH7J3LYB","A345ZKNQSVPJ6G","3RKHNXPHGWIRLJ219DNI80W3E6SKUF","","","null","","","","","","","","","",""
"411.59999990463257","","image-keyboard-response","286","245701","0.0-286.0","3BDCF01OGYGL8I2IVG1AF4BH7J3LYB","A345ZKNQSVPJ6G","3RKHNXPHGWIRLJ219DNI80W3E6SKUF","","img/set1/S1.jpg","83","1","random","83","random,structured_incentive,structured_load,structured_normal","","2,3,4,1","true","","",""
"null","","html-keyboard-response","287","246064","0.0-287.0","3BDCF01OGYGL8I2IVG1AF4BH7J3LYB","A345ZKNQSVPJ6G","3RKHNXPHGWIRLJ219DNI80W3E6SKUF","","<img src=""img/set1/S1.jpg"" width=""540"" height = ""360"" style=""border:16px solid orange"">","null","","","","","","","","","",""
"null","","html-keyboard-response","288","246279","0.0-288.0","3BDCF01OGYGL8I2IVG1AF4BH7J3LYB","A345ZKNQSVPJ6G","3RKHNXPHGWIRLJ219DNI80W3E6SKUF","","","null","","","","","","","","","",""
"75.80000019073486","","image-keyboard-response","289","246359","0.0-289.0","3BDCF01OGYGL8I2IVG1AF4BH7J3LYB","A345ZKNQSVPJ6G","3RKHNXPHGWIRLJ219DNI80W3E6SKUF","","img/set1/S4.jpg","68","4","random","74","random,structured_incentive,structured_load,structured_normal","","2,3,4,1","false","","",""
"null","","html-keyboard-response","290","246715","0.0-290.0","3BDCF01OGYGL8I2IVG1AF4BH7J3LYB","A345ZKNQSVPJ6G","3RKHNXPHGWIRLJ219DNI80W3E6SKUF","","<img src=""img/set1/S4.jpg"" width=""540"" height = ""360"">","null","","","","","","","","","",""
"null","","html-keyboard-response","291","246922","0.0-291.0","3BDCF01OGYGL8I2IVG1AF4BH7J3LYB","A345ZKNQSVPJ6G","3RKHNXPHGWIRLJ219DNI80W3E6SKUF","","","null","","","","","","","","","",""
"519.6999998092651","","image-keyboard-response","292","247443","0.0-292.0","3BDCF01OGYGL8I2IVG1AF4BH7J3LYB","A345ZKNQSVPJ6G","3RKHNXPHGWIRLJ219DNI80W3E6SKUF","","img/set1/S2.jpg","74","2","random","68","random,structured_incentive,structured_load,structured_normal","","2,3,4,1","false","","",""
"null","","html-keyboard-response","293","247814","0.0-293.0","3BDCF01OGYGL8I2IVG1AF4BH7J3LYB","A345ZKNQSVPJ6G","3RKHNXPHGWIRLJ219DNI80W3E6SKUF","","<img src=""img/set1/S2.jpg"" width=""540"" height = ""360"">","null","","","","","","","","","",""
"null","","html-keyboard-response","294","248023","0.0-294.0","3BDCF01OGYGL8I2IVG1AF4BH7J3LYB","A345ZKNQSVPJ6G","3RKHNXPHGWIRLJ219DNI80W3E6SKUF","","","null","","","","","","","","","",""
"145.19999980926514","","image-keyboard-response","295","248171","0.0-295.0","3BDCF01OGYGL8I2IVG1AF4BH7J3LYB","A345ZKNQSVPJ6G","3RKHNXPHGWIRLJ219DNI80W3E6SKUF","","img/set1/S3.jpg","74","3","random","72","random,structured_incentive,structured_load,structured_normal","","2,3,4,1","false","","",""
"null","","html-keyboard-response","296","248535","0.0-296.0","3BDCF01OGYGL8I2IVG1AF4BH7J3LYB","A345ZKNQSVPJ6G","3RKHNXPHGWIRLJ219DNI80W3E6SKUF","","<img src=""img/set1/S3.jpg"" width=""540"" height = ""360"">","null","","","","","","","","","",""
"null","","html-keyboard-response","297","248747","0.0-297.0","3BDCF01OGYGL8I2IVG1AF4BH7J3LYB","A345ZKNQSVPJ6G","3RKHNXPHGWIRLJ219DNI80W3E6SKUF","","","null","","","","","","","","","",""
"124.69999980926514","","image-keyboard-response","298","248873","0.0-298.0","3BDCF01OGYGL8I2IVG1AF4BH7J3LYB","A345ZKNQSVPJ6G","3RKHNXPHGWIRLJ219DNI80W3E6SKUF","","img/set1/S2.jpg","83","2","random","68","random,structured_incentive,structured_load,structured_normal","","2,3,4,1","false","","",""
"null","","html-keyboard-response","299","249229","0.0-299.0","3BDCF01OGYGL8I2IVG1AF4BH7J3LYB","A345ZKNQSVPJ6G","3RKHNXPHGWIRLJ219DNI80W3E6SKUF","","<img src=""img/set1/S2.jpg"" width=""540"" height = ""360"">","null","","","","","","","","","",""
"null","","html-keyboard-response","300","249438","0.0-300.0","3BDCF01OGYGL8I2IVG1AF4BH7J3LYB","A345ZKNQSVPJ6G","3RKHNXPHGWIRLJ219DNI80W3E6SKUF","","","null","","","","","","","","","",""
"306.59999990463257","","image-keyboard-response","301","249747","0.0-301.0","3BDCF01OGYGL8I2IVG1AF4BH7J3LYB","A345ZKNQSVPJ6G","3RKHNXPHGWIRLJ219DNI80W3E6SKUF","","img/set1/S3.jpg","72","3","random","72","random,structured_incentive,structured_load,structured_normal","","2,3,4,1","true","","",""
"null","","html-keyboard-response","302","250106","0.0-302.0","3BDCF01OGYGL8I2IVG1AF4BH7J3LYB","A345ZKNQSVPJ6G","3RKHNXPHGWIRLJ219DNI80W3E6SKUF","","<img src=""img/set1/S3.jpg"" width=""540"" height = ""360"" style=""border:16px solid orange"">","null","","","","","","","","","",""
"null","","html-keyboard-response","303","250314","0.0-303.0","3BDCF01OGYGL8I2IVG1AF4BH7J3LYB","A345ZKNQSVPJ6G","3RKHNXPHGWIRLJ219DNI80W3E6SKUF","","","null","","","","","","","","","",""
"122.79999995231628","","image-keyboard-response","304","250438","0.0-304.0","3BDCF01OGYGL8I2IVG1AF4BH7J3LYB","A345ZKNQSVPJ6G","3RKHNXPHGWIRLJ219DNI80W3E6SKUF","","img/set1/S2.jpg","68","2","random","68","random,structured_incentive,structured_load,structured_normal","","2,3,4,1","true","","",""
"null","","html-keyboard-response","305","250795","0.0-305.0","3BDCF01OGYGL8I2IVG1AF4BH7J3LYB","A345ZKNQSVPJ6G","3RKHNXPHGWIRLJ219DNI80W3E6SKUF","","<img src=""img/set1/S2.jpg"" width=""540"" height = ""360"" style=""border:16px solid orange"">","null","","","","","","","","","",""
"null","","html-keyboard-response","306","251004","0.0-306.0","3BDCF01OGYGL8I2IVG1AF4BH7J3LYB","A345ZKNQSVPJ6G","3RKHNXPHGWIRLJ219DNI80W3E6SKUF","","","null","","","","","","","","","",""
"230.39999985694885","","image-keyboard-response","307","251238","0.0-307.0","3BDCF01OGYGL8I2IVG1AF4BH7J3LYB","A345ZKNQSVPJ6G","3RKHNXPHGWIRLJ219DNI80W3E6SKUF","","img/set1/S3.jpg","74","3","random","72","random,structured_incentive,structured_load,structured_normal","","2,3,4,1","false","","",""
"null","","html-keyboard-response","308","251597","0.0-308.0","3BDCF01OGYGL8I2IVG1AF4BH7J3LYB","A345ZKNQSVPJ6G","3RKHNXPHGWIRLJ219DNI80W3E6SKUF","","<img src=""img/set1/S3.jpg"" width=""540"" height = ""360"">","null","","","","","","","","","",""
"null","","html-keyboard-response","309","251804","0.0-309.0","3BDCF01OGYGL8I2IVG1AF4BH7J3LYB","A345ZKNQSVPJ6G","3RKHNXPHGWIRLJ219DNI80W3E6SKUF","","","null","","","","","","","","","",""
"262.5","","image-keyboard-response","310","252070","0.0-310.0","3BDCF01OGYGL8I2IVG1AF4BH7J3LYB","A345ZKNQSVPJ6G","3RKHNXPHGWIRLJ219DNI80W3E6SKUF","","img/set1/S2.jpg","83","2","random","68","random,structured_incentive,structured_load,structured_normal","","2,3,4,1","false","","",""
"null","","html-keyboard-response","311","252429","0.0-311.0","3BDCF01OGYGL8I2IVG1AF4BH7J3LYB","A345ZKNQSVPJ6G","3RKHNXPHGWIRLJ219DNI80W3E6SKUF","","<img src=""img/set1/S2.jpg"" width=""540"" height = ""360"">","null","","","","","","","","","",""
"null","","html-keyboard-response","312","252635","0.0-312.0","3BDCF01OGYGL8I2IVG1AF4BH7J3LYB","A345ZKNQSVPJ6G","3RKHNXPHGWIRLJ219DNI80W3E6SKUF","","","null","","","","","","","","","",""
"313.2999999523163","","image-keyboard-response","313","252950","0.0-313.0","3BDCF01OGYGL8I2IVG1AF4BH7J3LYB","A345ZKNQSVPJ6G","3RKHNXPHGWIRLJ219DNI80W3E6SKUF","","img/set1/S1.jpg","74","1","random","83","random,structured_incentive,structured_load,structured_normal","","2,3,4,1","false","","",""
"null","","html-keyboard-response","314","253311","0.0-314.0","3BDCF01OGYGL8I2IVG1AF4BH7J3LYB","A345ZKNQSVPJ6G","3RKHNXPHGWIRLJ219DNI80W3E6SKUF","","<img src=""img/set1/S1.jpg"" width=""540"" height = ""360"">","null","","","","","","","","","",""
"null","","html-keyboard-response","315","253519","0.0-315.0","3BDCF01OGYGL8I2IVG1AF4BH7J3LYB","A345ZKNQSVPJ6G","3RKHNXPHGWIRLJ219DNI80W3E6SKUF","","","null","","","","","","","","","",""
"138.29999995231628","","image-keyboard-response","316","253660","0.0-316.0","3BDCF01OGYGL8I2IVG1AF4BH7J3LYB","A345ZKNQSVPJ6G","3RKHNXPHGWIRLJ219DNI80W3E6SKUF","","img/set1/S3.jpg","68","3","random","72","random,structured_incentive,structured_load,structured_normal","","2,3,4,1","false","","",""
"null","","html-keyboard-response","317","254026","0.0-317.0","3BDCF01OGYGL8I2IVG1AF4BH7J3LYB","A345ZKNQSVPJ6G","3RKHNXPHGWIRLJ219DNI80W3E6SKUF","","<img src=""img/set1/S3.jpg"" width=""540"" height = ""360"">","null","","","","","","","","","",""
"null","","html-keyboard-response","318","254245","0.0-318.0","3BDCF01OGYGL8I2IVG1AF4BH7J3LYB","A345ZKNQSVPJ6G","3RKHNXPHGWIRLJ219DNI80W3E6SKUF","","","null","","","","","","","","","",""
"90","","image-keyboard-response","319","254337","0.0-319.0","3BDCF01OGYGL8I2IVG1AF4BH7J3LYB","A345ZKNQSVPJ6G","3RKHNXPHGWIRLJ219DNI80W3E6SKUF","","img/set1/S3.jpg","72","3","random","72","random,structured_incentive,structured_load,structured_normal","","2,3,4,1","true","","",""
"null","","html-keyboard-response","320","254693","0.0-320.0","3BDCF01OGYGL8I2IVG1AF4BH7J3LYB","A345ZKNQSVPJ6G","3RKHNXPHGWIRLJ219DNI80W3E6SKUF","","<img src=""img/set1/S3.jpg"" width=""540"" height = ""360"" style=""border:16px solid orange"">","null","","","","","","","","","",""
"null","","html-keyboard-response","321","254904","0.0-321.0","3BDCF01OGYGL8I2IVG1AF4BH7J3LYB","A345ZKNQSVPJ6G","3RKHNXPHGWIRLJ219DNI80W3E6SKUF","","","null","","","","","","","","","",""
"179","","image-keyboard-response","322","255086","0.0-322.0","3BDCF01OGYGL8I2IVG1AF4BH7J3LYB","A345ZKNQSVPJ6G","3RKHNXPHGWIRLJ219DNI80W3E6SKUF","","img/set1/S3.jpg","83","3","random","72","random,structured_incentive,structured_load,structured_normal","","2,3,4,1","false","","",""
"null","","html-keyboard-response","323","255444","0.0-323.0","3BDCF01OGYGL8I2IVG1AF4BH7J3LYB","A345ZKNQSVPJ6G","3RKHNXPHGWIRLJ219DNI80W3E6SKUF","","<img src=""img/set1/S3.jpg"" width=""540"" height = ""360"">","null","","","","","","","","","",""
"null","","html-keyboard-response","324","255652","0.0-324.0","3BDCF01OGYGL8I2IVG1AF4BH7J3LYB","A345ZKNQSVPJ6G","3RKHNXPHGWIRLJ219DNI80W3E6SKUF","","","null","","","","","","","","","",""
"326","","image-keyboard-response","325","255980","0.0-325.0","3BDCF01OGYGL8I2IVG1AF4BH7J3LYB","A345ZKNQSVPJ6G","3RKHNXPHGWIRLJ219DNI80W3E6SKUF","","img/set1/S2.jpg","74","2","random","68","random,structured_incentive,structured_load,structured_normal","","2,3,4,1","false","","",""
"null","","html-keyboard-response","326","256343","0.0-326.0","3BDCF01OGYGL8I2IVG1AF4BH7J3LYB","A345ZKNQSVPJ6G","3RKHNXPHGWIRLJ219DNI80W3E6SKUF","","<img src=""img/set1/S2.jpg"" width=""540"" height = ""360"">","null","","","","","","","","","",""
"null","","html-keyboard-response","327","256552","0.0-327.0","3BDCF01OGYGL8I2IVG1AF4BH7J3LYB","A345ZKNQSVPJ6G","3RKHNXPHGWIRLJ219DNI80W3E6SKUF","","","null","","","","","","","","","",""
"132.39999985694885","","image-keyboard-response","328","256687","0.0-328.0","3BDCF01OGYGL8I2IVG1AF4BH7J3LYB","A345ZKNQSVPJ6G","3RKHNXPHGWIRLJ219DNI80W3E6SKUF","","img/set1/S4.jpg","83","4","random","74","random,structured_incentive,structured_load,structured_normal","","2,3,4,1","false","","",""
"null","","html-keyboard-response","329","257042","0.0-329.0","3BDCF01OGYGL8I2IVG1AF4BH7J3LYB","A345ZKNQSVPJ6G","3RKHNXPHGWIRLJ219DNI80W3E6SKUF","","<img src=""img/set1/S4.jpg"" width=""540"" height = ""360"">","null","","","","","","","","","",""
"null","","html-keyboard-response","330","257251","0.0-330.0","3BDCF01OGYGL8I2IVG1AF4BH7J3LYB","A345ZKNQSVPJ6G","3RKHNXPHGWIRLJ219DNI80W3E6SKUF","","","null","","","","","","","","","",""
"86.70000004768372","","image-keyboard-response","331","257341","0.0-331.0","3BDCF01OGYGL8I2IVG1AF4BH7J3LYB","A345ZKNQSVPJ6G","3RKHNXPHGWIRLJ219DNI80W3E6SKUF","","img/set1/S3.jpg","72","3","random","72","random,structured_incentive,structured_load,structured_normal","","2,3,4,1","true","","",""
"null","","html-keyboard-response","332","257708","0.0-332.0","3BDCF01OGYGL8I2IVG1AF4BH7J3LYB","A345ZKNQSVPJ6G","3RKHNXPHGWIRLJ219DNI80W3E6SKUF","","<img src=""img/set1/S3.jpg"" width=""540"" height = ""360"" style=""border:16px solid orange"">","null","","","","","","","","","",""
"null","","html-keyboard-response","333","257918","0.0-333.0","3BDCF01OGYGL8I2IVG1AF4BH7J3LYB","A345ZKNQSVPJ6G","3RKHNXPHGWIRLJ219DNI80W3E6SKUF","","","null","","","","","","","","","",""
"78.29999995231628","","image-keyboard-response","334","257998","0.0-334.0","3BDCF01OGYGL8I2IVG1AF4BH7J3LYB","A345ZKNQSVPJ6G","3RKHNXPHGWIRLJ219DNI80W3E6SKUF","","img/set1/S3.jpg","68","3","random","72","random,structured_incentive,structured_load,structured_normal","","2,3,4,1","false","","",""
"null","","html-keyboard-response","335","258357","0.0-335.0","3BDCF01OGYGL8I2IVG1AF4BH7J3LYB","A345ZKNQSVPJ6G","3RKHNXPHGWIRLJ219DNI80W3E6SKUF","","<img src=""img/set1/S3.jpg"" width=""540"" height = ""360"">","null","","","","","","","","","",""
"null","","html-keyboard-response","336","258566","0.0-336.0","3BDCF01OGYGL8I2IVG1AF4BH7J3LYB","A345ZKNQSVPJ6G","3RKHNXPHGWIRLJ219DNI80W3E6SKUF","","","null","","","","","","","","","",""
"98.90000009536743","","image-keyboard-response","337","258668","0.0-337.0","3BDCF01OGYGL8I2IVG1AF4BH7J3LYB","A345ZKNQSVPJ6G","3RKHNXPHGWIRLJ219DNI80W3E6SKUF","","img/set1/S3.jpg","74","3","random","72","random,structured_incentive,structured_load,structured_normal","","2,3,4,1","false","","",""
"null","","html-keyboard-response","338","259022","0.0-338.0","3BDCF01OGYGL8I2IVG1AF4BH7J3LYB","A345ZKNQSVPJ6G","3RKHNXPHGWIRLJ219DNI80W3E6SKUF","","<img src=""img/set1/S3.jpg"" width=""540"" height = ""360"">","null","","","","","","","","","",""
"null","","html-keyboard-response","339","259236","0.0-339.0","3BDCF01OGYGL8I2IVG1AF4BH7J3LYB","A345ZKNQSVPJ6G","3RKHNXPHGWIRLJ219DNI80W3E6SKUF","","","null","","","","","","","","","",""
"70.10000014305115","","image-keyboard-response","340","259309","0.0-340.0","3BDCF01OGYGL8I2IVG1AF4BH7J3LYB","A345ZKNQSVPJ6G","3RKHNXPHGWIRLJ219DNI80W3E6SKUF","","img/set1/S4.jpg","83","4","random","74","random,structured_incentive,structured_load,structured_normal","","2,3,4,1","false","","",""
"null","","html-keyboard-response","341","259675","0.0-341.0","3BDCF01OGYGL8I2IVG1AF4BH7J3LYB","A345ZKNQSVPJ6G","3RKHNXPHGWIRLJ219DNI80W3E6SKUF","","<img src=""img/set1/S4.jpg"" width=""540"" height = ""360"">","null","","","","","","","","","",""
"null","","html-keyboard-response","342","259885","0.0-342.0","3BDCF01OGYGL8I2IVG1AF4BH7J3LYB","A345ZKNQSVPJ6G","3RKHNXPHGWIRLJ219DNI80W3E6SKUF","","","null","","","","","","","","","",""
"101.10000014305115","","image-keyboard-response","343","259988","0.0-343.0","3BDCF01OGYGL8I2IVG1AF4BH7J3LYB","A345ZKNQSVPJ6G","3RKHNXPHGWIRLJ219DNI80W3E6SKUF","","img/set1/S2.jpg","72","2","random","68","random,structured_incentive,structured_load,structured_normal","","2,3,4,1","false","","",""
"null","","html-keyboard-response","344","260347","0.0-344.0","3BDCF01OGYGL8I2IVG1AF4BH7J3LYB","A345ZKNQSVPJ6G","3RKHNXPHGWIRLJ219DNI80W3E6SKUF","","<img src=""img/set1/S2.jpg"" width=""540"" height = ""360"">","null","","","","","","","","","",""
"null","","html-keyboard-response","345","260553","0.0-345.0","3BDCF01OGYGL8I2IVG1AF4BH7J3LYB","A345ZKNQSVPJ6G","3RKHNXPHGWIRLJ219DNI80W3E6SKUF","","","null","","","","","","","","","",""
"108.70000004768372","","image-keyboard-response","346","260663","0.0-346.0","3BDCF01OGYGL8I2IVG1AF4BH7J3LYB","A345ZKNQSVPJ6G","3RKHNXPHGWIRLJ219DNI80W3E6SKUF","","img/set1/S2.jpg","74","2","random","68","random,structured_incentive,structured_load,structured_normal","","2,3,4,1","false","","",""
"null","","html-keyboard-response","347","261032","0.0-347.0","3BDCF01OGYGL8I2IVG1AF4BH7J3LYB","A345ZKNQSVPJ6G","3RKHNXPHGWIRLJ219DNI80W3E6SKUF","","<img src=""img/set1/S2.jpg"" width=""540"" height = ""360"">","null","","","","","","","","","",""
"null","","html-keyboard-response","348","261249","0.0-348.0","3BDCF01OGYGL8I2IVG1AF4BH7J3LYB","A345ZKNQSVPJ6G","3RKHNXPHGWIRLJ219DNI80W3E6SKUF","","","null","","","","","","","","","",""
"31.399999856948853","","image-keyboard-response","349","261283","0.0-349.0","3BDCF01OGYGL8I2IVG1AF4BH7J3LYB","A345ZKNQSVPJ6G","3RKHNXPHGWIRLJ219DNI80W3E6SKUF","","img/set1/S4.jpg","68","4","random","74","random,structured_incentive,structured_load,structured_normal","","2,3,4,1","false","","",""
"null","","html-keyboard-response","350","261641","0.0-350.0","3BDCF01OGYGL8I2IVG1AF4BH7J3LYB","A345ZKNQSVPJ6G","3RKHNXPHGWIRLJ219DNI80W3E6SKUF","","<img src=""img/set1/S4.jpg"" width=""540"" height = ""360"">","null","","","","","","","","","",""
"null","","html-keyboard-response","351","261850","0.0-351.0","3BDCF01OGYGL8I2IVG1AF4BH7J3LYB","A345ZKNQSVPJ6G","3RKHNXPHGWIRLJ219DNI80W3E6SKUF","","","null","","","","","","","","","",""
"119","","image-keyboard-response","352","261971","0.0-352.0","3BDCF01OGYGL8I2IVG1AF4BH7J3LYB","A345ZKNQSVPJ6G","3RKHNXPHGWIRLJ219DNI80W3E6SKUF","","img/set1/S1.jpg","83","1","random","83","random,structured_incentive,structured_load,structured_normal","","2,3,4,1","true","","",""
"null","","html-keyboard-response","353","262326","0.0-353.0","3BDCF01OGYGL8I2IVG1AF4BH7J3LYB","A345ZKNQSVPJ6G","3RKHNXPHGWIRLJ219DNI80W3E6SKUF","","<img src=""img/set1/S1.jpg"" width=""540"" height = ""360"" style=""border:16px solid orange"">","null","","","","","","","","","",""
"null","","html-keyboard-response","354","262534","0.0-354.0","3BDCF01OGYGL8I2IVG1AF4BH7J3LYB","A345ZKNQSVPJ6G","3RKHNXPHGWIRLJ219DNI80W3E6SKUF","","","null","","","","","","","","","",""
"188.90000009536743","","image-keyboard-response","355","262725","0.0-355.0","3BDCF01OGYGL8I2IVG1AF4BH7J3LYB","A345ZKNQSVPJ6G","3RKHNXPHGWIRLJ219DNI80W3E6SKUF","","img/set1/S2.jpg","74","2","random","68","random,structured_incentive,structured_load,structured_normal","","2,3,4,1","false","","",""
"null","","html-keyboard-response","356","263090","0.0-356.0","3BDCF01OGYGL8I2IVG1AF4BH7J3LYB","A345ZKNQSVPJ6G","3RKHNXPHGWIRLJ219DNI80W3E6SKUF","","<img src=""img/set1/S2.jpg"" width=""540"" height = ""360"">","null","","","","","","","","","",""
"null","","html-keyboard-response","357","263300","0.0-357.0","3BDCF01OGYGL8I2IVG1AF4BH7J3LYB","A345ZKNQSVPJ6G","3RKHNXPHGWIRLJ219DNI80W3E6SKUF","","","null","","","","","","","","","",""
"115.70000004768372","","image-keyboard-response","358","263417","0.0-358.0","3BDCF01OGYGL8I2IVG1AF4BH7J3LYB","A345ZKNQSVPJ6G","3RKHNXPHGWIRLJ219DNI80W3E6SKUF","","img/set1/S2.jpg","83","2","random","68","random,structured_incentive,structured_load,structured_normal","","2,3,4,1","false","","",""
"null","","html-keyboard-response","359","263776","0.0-359.0","3BDCF01OGYGL8I2IVG1AF4BH7J3LYB","A345ZKNQSVPJ6G","3RKHNXPHGWIRLJ219DNI80W3E6SKUF","","<img src=""img/set1/S2.jpg"" width=""540"" height = ""360"">","null","","","","","","","","","",""
"null","","html-keyboard-response","360","263982","0.0-360.0","3BDCF01OGYGL8I2IVG1AF4BH7J3LYB","A345ZKNQSVPJ6G","3RKHNXPHGWIRLJ219DNI80W3E6SKUF","","","null","","","","","","","","","",""
"467.39999985694885","","image-keyboard-response","361","264464","0.0-361.0","3BDCF01OGYGL8I2IVG1AF4BH7J3LYB","A345ZKNQSVPJ6G","3RKHNXPHGWIRLJ219DNI80W3E6SKUF","","img/set1/S2.jpg","74","2","random","68","random,structured_incentive,structured_load,structured_normal","","2,3,4,1","false","","",""
"null","","html-keyboard-response","362","264818","0.0-362.0","3BDCF01OGYGL8I2IVG1AF4BH7J3LYB","A345ZKNQSVPJ6G","3RKHNXPHGWIRLJ219DNI80W3E6SKUF","","<img src=""img/set1/S2.jpg"" width=""540"" height = ""360"">","null","","","","","","","","","",""
"null","","html-keyboard-response","363","265021","0.0-363.0","3BDCF01OGYGL8I2IVG1AF4BH7J3LYB","A345ZKNQSVPJ6G","3RKHNXPHGWIRLJ219DNI80W3E6SKUF","","","null","","","","","","","","","",""
"158.80000019073486","","image-keyboard-response","364","265195","0.0-364.0","3BDCF01OGYGL8I2IVG1AF4BH7J3LYB","A345ZKNQSVPJ6G","3RKHNXPHGWIRLJ219DNI80W3E6SKUF","","img/set1/S1.jpg","72","1","random","83","random,structured_incentive,structured_load,structured_normal","","2,3,4,1","false","","",""
"null","","html-keyboard-response","365","265563","0.0-365.0","3BDCF01OGYGL8I2IVG1AF4BH7J3LYB","A345ZKNQSVPJ6G","3RKHNXPHGWIRLJ219DNI80W3E6SKUF","","<img src=""img/set1/S1.jpg"" width=""540"" height = ""360"">","null","","","","","","","","","",""
"null","","html-keyboard-response","366","265765","0.0-366.0","3BDCF01OGYGL8I2IVG1AF4BH7J3LYB","A345ZKNQSVPJ6G","3RKHNXPHGWIRLJ219DNI80W3E6SKUF","","","null","","","","","","","","","",""
"100.5","","image-keyboard-response","367","265868","0.0-367.0","3BDCF01OGYGL8I2IVG1AF4BH7J3LYB","A345ZKNQSVPJ6G","3RKHNXPHGWIRLJ219DNI80W3E6SKUF","","img/set1/S1.jpg","74","1","random","83","random,structured_incentive,structured_load,structured_normal","","2,3,4,1","false","","",""
"null","","html-keyboard-response","368","266223","0.0-368.0","3BDCF01OGYGL8I2IVG1AF4BH7J3LYB","A345ZKNQSVPJ6G","3RKHNXPHGWIRLJ219DNI80W3E6SKUF","","<img src=""img/set1/S1.jpg"" width=""540"" height = ""360"">","null","","","","","","","","","",""
"null","","html-keyboard-response","369","266435","0.0-369.0","3BDCF01OGYGL8I2IVG1AF4BH7J3LYB","A345ZKNQSVPJ6G","3RKHNXPHGWIRLJ219DNI80W3E6SKUF","","","null","","","","","","","","","",""
"273.30000019073486","","image-keyboard-response","370","266710","0.0-370.0","3BDCF01OGYGL8I2IVG1AF4BH7J3LYB","A345ZKNQSVPJ6G","3RKHNXPHGWIRLJ219DNI80W3E6SKUF","","img/set1/S1.jpg","72","1","random","83","random,structured_incentive,structured_load,structured_normal","","2,3,4,1","false","","",""
"null","","html-keyboard-response","371","267074","0.0-371.0","3BDCF01OGYGL8I2IVG1AF4BH7J3LYB","A345ZKNQSVPJ6G","3RKHNXPHGWIRLJ219DNI80W3E6SKUF","","<img src=""img/set1/S1.jpg"" width=""540"" height = ""360"">","null","","","","","","","","","",""
"null","","html-keyboard-response","372","267281","0.0-372.0","3BDCF01OGYGL8I2IVG1AF4BH7J3LYB","A345ZKNQSVPJ6G","3RKHNXPHGWIRLJ219DNI80W3E6SKUF","","","null","","","","","","","","","",""
"27.600000143051147","","image-keyboard-response","373","267311","0.0-373.0","3BDCF01OGYGL8I2IVG1AF4BH7J3LYB","A345ZKNQSVPJ6G","3RKHNXPHGWIRLJ219DNI80W3E6SKUF","","img/set1/S3.jpg","74","3","random","72","random,structured_incentive,structured_load,structured_normal","","2,3,4,1","false","","",""
"null","","html-keyboard-response","374","267672","0.0-374.0","3BDCF01OGYGL8I2IVG1AF4BH7J3LYB","A345ZKNQSVPJ6G","3RKHNXPHGWIRLJ219DNI80W3E6SKUF","","<img src=""img/set1/S3.jpg"" width=""540"" height = ""360"">","null","","","","","","","","","",""
"null","","html-keyboard-response","375","267881","0.0-375.0","3BDCF01OGYGL8I2IVG1AF4BH7J3LYB","A345ZKNQSVPJ6G","3RKHNXPHGWIRLJ219DNI80W3E6SKUF","","","null","","","","","","","","","",""
"17.5","","image-keyboard-response","376","267903","0.0-376.0","3BDCF01OGYGL8I2IVG1AF4BH7J3LYB","A345ZKNQSVPJ6G","3RKHNXPHGWIRLJ219DNI80W3E6SKUF","","img/set1/S2.jpg","68","2","random","68","random,structured_incentive,structured_load,structured_normal","","2,3,4,1","true","","",""
"null","","html-keyboard-response","377","268269","0.0-377.0","3BDCF01OGYGL8I2IVG1AF4BH7J3LYB","A345ZKNQSVPJ6G","3RKHNXPHGWIRLJ219DNI80W3E6SKUF","","<img src=""img/set1/S2.jpg"" width=""540"" height = ""360"" style=""border:16px solid orange"">","null","","","","","","","","","",""
"null","","html-keyboard-response","378","268470","0.0-378.0","3BDCF01OGYGL8I2IVG1AF4BH7J3LYB","A345ZKNQSVPJ6G","3RKHNXPHGWIRLJ219DNI80W3E6SKUF","","","null","","","","","","","","","",""
"29.799999952316284","","image-keyboard-response","379","268502","0.0-379.0","3BDCF01OGYGL8I2IVG1AF4BH7J3LYB","A345ZKNQSVPJ6G","3RKHNXPHGWIRLJ219DNI80W3E6SKUF","","img/set1/S2.jpg","83","2","random","68","random,structured_incentive,structured_load,structured_normal","","2,3,4,1","false","","",""
"null","","html-keyboard-response","380","268871","0.0-380.0","3BDCF01OGYGL8I2IVG1AF4BH7J3LYB","A345ZKNQSVPJ6G","3RKHNXPHGWIRLJ219DNI80W3E6SKUF","","<img src=""img/set1/S2.jpg"" width=""540"" height = ""360"">","null","","","","","","","","","",""
"null","","html-keyboard-response","381","269082","0.0-381.0","3BDCF01OGYGL8I2IVG1AF4BH7J3LYB","A345ZKNQSVPJ6G","3RKHNXPHGWIRLJ219DNI80W3E6SKUF","","","null","","","","","","","","","",""
"139.10000014305115","","image-keyboard-response","382","269223","0.0-382.0","3BDCF01OGYGL8I2IVG1AF4BH7J3LYB","A345ZKNQSVPJ6G","3RKHNXPHGWIRLJ219DNI80W3E6SKUF","","img/set1/S1.jpg","83","1","random","83","random,structured_incentive,structured_load,structured_normal","","2,3,4,1","true","","",""
"null","","html-keyboard-response","383","269588","0.0-383.0","3BDCF01OGYGL8I2IVG1AF4BH7J3LYB","A345ZKNQSVPJ6G","3RKHNXPHGWIRLJ219DNI80W3E6SKUF","","<img src=""img/set1/S1.jpg"" width=""540"" height = ""360"" style=""border:16px solid orange"">","null","","","","","","","","","",""
"null","","html-keyboard-response","384","269796","0.0-384.0","3BDCF01OGYGL8I2IVG1AF4BH7J3LYB","A345ZKNQSVPJ6G","3RKHNXPHGWIRLJ219DNI80W3E6SKUF","","","null","","","","","","","","","",""
"131","","image-keyboard-response","385","269929","0.0-385.0","3BDCF01OGYGL8I2IVG1AF4BH7J3LYB","A345ZKNQSVPJ6G","3RKHNXPHGWIRLJ219DNI80W3E6SKUF","","img/set1/S2.jpg","83","2","random","68","random,structured_incentive,structured_load,structured_normal","","2,3,4,1","false","","",""
"null","","html-keyboard-response","386","270286","0.0-386.0","3BDCF01OGYGL8I2IVG1AF4BH7J3LYB","A345ZKNQSVPJ6G","3RKHNXPHGWIRLJ219DNI80W3E6SKUF","","<img src=""img/set1/S2.jpg"" width=""540"" height = ""360"">","null","","","","","","","","","",""
"null","","html-keyboard-response","387","270492","0.0-387.0","3BDCF01OGYGL8I2IVG1AF4BH7J3LYB","A345ZKNQSVPJ6G","3RKHNXPHGWIRLJ219DNI80W3E6SKUF","","","null","","","","","","","","","",""
"96.5","","image-keyboard-response","388","270590","0.0-388.0","3BDCF01OGYGL8I2IVG1AF4BH7J3LYB","A345ZKNQSVPJ6G","3RKHNXPHGWIRLJ219DNI80W3E6SKUF","","img/set1/S4.jpg","68","4","random","74","random,structured_incentive,structured_load,structured_normal","","2,3,4,1","false","","",""
"null","","html-keyboard-response","389","270951","0.0-389.0","3BDCF01OGYGL8I2IVG1AF4BH7J3LYB","A345ZKNQSVPJ6G","3RKHNXPHGWIRLJ219DNI80W3E6SKUF","","<img src=""img/set1/S4.jpg"" width=""540"" height = ""360"">","null","","","","","","","","","",""
"null","","html-keyboard-response","390","271163","0.0-390.0","3BDCF01OGYGL8I2IVG1AF4BH7J3LYB","A345ZKNQSVPJ6G","3RKHNXPHGWIRLJ219DNI80W3E6SKUF","","","null","","","","","","","","","",""
"640.1999998092651","","image-keyboard-response","391","271805","0.0-391.0","3BDCF01OGYGL8I2IVG1AF4BH7J3LYB","A345ZKNQSVPJ6G","3RKHNXPHGWIRLJ219DNI80W3E6SKUF","","img/set1/S1.jpg","74","1","random","83","random,structured_incentive,structured_load,structured_normal","","2,3,4,1","false","","",""
"null","","html-keyboard-response","392","272169","0.0-392.0","3BDCF01OGYGL8I2IVG1AF4BH7J3LYB","A345ZKNQSVPJ6G","3RKHNXPHGWIRLJ219DNI80W3E6SKUF","","<img src=""img/set1/S1.jpg"" width=""540"" height = ""360"">","null","","","","","","","","","",""
"null","","html-keyboard-response","393","272384","0.0-393.0","3BDCF01OGYGL8I2IVG1AF4BH7J3LYB","A345ZKNQSVPJ6G","3RKHNXPHGWIRLJ219DNI80W3E6SKUF","","","null","","","","","","","","","",""
"401","","image-keyboard-response","394","272787","0.0-394.0","3BDCF01OGYGL8I2IVG1AF4BH7J3LYB","A345ZKNQSVPJ6G","3RKHNXPHGWIRLJ219DNI80W3E6SKUF","","img/set1/S1.jpg","83","1","random","83","random,structured_incentive,structured_load,structured_normal","","2,3,4,1","true","","",""
"null","","html-keyboard-response","395","273152","0.0-395.0","3BDCF01OGYGL8I2IVG1AF4BH7J3LYB","A345ZKNQSVPJ6G","3RKHNXPHGWIRLJ219DNI80W3E6SKUF","","<img src=""img/set1/S1.jpg"" width=""540"" height = ""360"" style=""border:16px solid orange"">","null","","","","","","","","","",""
"null","","html-keyboard-response","396","273362","0.0-396.0","3BDCF01OGYGL8I2IVG1AF4BH7J3LYB","A345ZKNQSVPJ6G","3RKHNXPHGWIRLJ219DNI80W3E6SKUF","","","null","","","","","","","","","",""
"525.9000000953674","","image-keyboard-response","397","273891","0.0-397.0","3BDCF01OGYGL8I2IVG1AF4BH7J3LYB","A345ZKNQSVPJ6G","3RKHNXPHGWIRLJ219DNI80W3E6SKUF","","img/set1/S2.jpg","68","2","random","68","random,structured_incentive,structured_load,structured_normal","","2,3,4,1","true","","",""
"null","","html-keyboard-response","398","274253","0.0-398.0","3BDCF01OGYGL8I2IVG1AF4BH7J3LYB","A345ZKNQSVPJ6G","3RKHNXPHGWIRLJ219DNI80W3E6SKUF","","<img src=""img/set1/S2.jpg"" width=""540"" height = ""360"" style=""border:16px solid orange"">","null","","","","","","","","","",""
"null","","html-keyboard-response","399","274462","0.0-399.0","3BDCF01OGYGL8I2IVG1AF4BH7J3LYB","A345ZKNQSVPJ6G","3RKHNXPHGWIRLJ219DNI80W3E6SKUF","","","null","","","","","","","","","",""
"706","","image-keyboard-response","400","275170","0.0-400.0","3BDCF01OGYGL8I2IVG1AF4BH7J3LYB","A345ZKNQSVPJ6G","3RKHNXPHGWIRLJ219DNI80W3E6SKUF","","img/set1/S4.jpg","72","4","random","74","random,structured_incentive,structured_load,structured_normal","","2,3,4,1","false","","",""
"null","","html-keyboard-response","401","275535","0.0-401.0","3BDCF01OGYGL8I2IVG1AF4BH7J3LYB","A345ZKNQSVPJ6G","3RKHNXPHGWIRLJ219DNI80W3E6SKUF","","<img src=""img/set1/S4.jpg"" width=""540"" height = ""360"">","null","","","","","","","","","",""
"null","","html-keyboard-response","402","275744","0.0-402.0","3BDCF01OGYGL8I2IVG1AF4BH7J3LYB","A345ZKNQSVPJ6G","3RKHNXPHGWIRLJ219DNI80W3E6SKUF","","","null","","","","","","","","","",""
