"rt","url","trial_type","trial_index","time_elapsed","internal_node_id","assignmentID","mturkID","hitID","view_history","stimulus","key_press","state","test_part","correct_response","order_block","order_chunk","order_freq","correct","responses","question_order","bonus"
"12447.299999952316","consent.html","external-html","0","12537","0.0-0.0","3DL65MZB8E1UZ9RLI2WH5ITEWJKECG","A358YR7MWC6LRH","3ZXV7Q5FJBAKJ3TNMBBLYHIS0EBCFB","","","","","","","","","","","","",""
"51892.09999990463","","instructions","1","64432","0.0-1.0","3DL65MZB8E1UZ9RLI2WH5ITEWJKECG","A358YR7MWC6LRH","3ZXV7Q5FJBAKJ3TNMBBLYHIS0EBCFB","[{""page_index"":0,""viewing_time"":4163.699999928474},{""page_index"":1,""viewing_time"":8816.399999976158},{""page_index"":2,""viewing_time"":14807.200000047684},{""page_index"":3,""viewing_time"":7423.899999976158},{""page_index"":4,""viewing_time"":3352},{""page_index"":5,""viewing_time"":7536.300000071526},{""page_index"":6,""viewing_time"":5791.799999952316}]","","","","","","","","","","","",""
"9077.799999952316","","instructions","2","73510","0.0-2.0","3DL65MZB8E1UZ9RLI2WH5ITEWJKECG","A358YR7MWC6LRH","3ZXV7Q5FJBAKJ3TNMBBLYHIS0EBCFB","[{""page_index"":0,""viewing_time"":9077.399999976158}]","","","","","","","","","","","",""
"17311.700000047684","","instructions","3","90823","0.0-3.0","3DL65MZB8E1UZ9RLI2WH5ITEWJKECG","A358YR7MWC6LRH","3ZXV7Q5FJBAKJ3TNMBBLYHIS0EBCFB","[{""page_index"":0,""viewing_time"":12543.800000071526},{""page_index"":1,""viewing_time"":4767.5}]","","","","","","","","","","","",""
"1374.6000000238419","","image-keyboard-response","4","92200","0.0-4.0","3DL65MZB8E1UZ9RLI2WH5ITEWJKECG","A358YR7MWC6LRH","3ZXV7Q5FJBAKJ3TNMBBLYHIS0EBCFB","","img/set1/S3.jpg","72","3","structured_load","72","structured_load,random,structured_incentive,structured_normal","4,2,1,2,2,3","4,1,2,3","true","","",""
"null","","html-keyboard-response","5","92555","0.0-5.0","3DL65MZB8E1UZ9RLI2WH5ITEWJKECG","A358YR7MWC6LRH","3ZXV7Q5FJBAKJ3TNMBBLYHIS0EBCFB","","<img src=""img/set1/S3.jpg"" width=""540"" height = ""360"" style=""border:16px solid orange"">","null","","","","","","","","","",""
"null","","html-keyboard-response","6","92758","0.0-6.0","3DL65MZB8E1UZ9RLI2WH5ITEWJKECG","A358YR7MWC6LRH","3ZXV7Q5FJBAKJ3TNMBBLYHIS0EBCFB","","","null","","","","","","","","","",""
"742.8999999761581","","image-keyboard-response","7","93505","0.0-7.0","3DL65MZB8E1UZ9RLI2WH5ITEWJKECG","A358YR7MWC6LRH","3ZXV7Q5FJBAKJ3TNMBBLYHIS0EBCFB","","img/set1/S3.jpg","72","3","structured_load","72","structured_load,random,structured_incentive,structured_normal","4,2,1,2,2,3","4,1,2,3","true","","",""
"null","","html-keyboard-response","8","93864","0.0-8.0","3DL65MZB8E1UZ9RLI2WH5ITEWJKECG","A358YR7MWC6LRH","3ZXV7Q5FJBAKJ3TNMBBLYHIS0EBCFB","","<img src=""img/set1/S3.jpg"" width=""540"" height = ""360"" style=""border:16px solid orange"">","null","","","","","","","","","",""
"null","","html-keyboard-response","9","94066","0.0-9.0","3DL65MZB8E1UZ9RLI2WH5ITEWJKECG","A358YR7MWC6LRH","3ZXV7Q5FJBAKJ3TNMBBLYHIS0EBCFB","","","null","","","","","","","","","",""
"714.8000000715256","","image-keyboard-response","10","94783","0.0-10.0","3DL65MZB8E1UZ9RLI2WH5ITEWJKECG","A358YR7MWC6LRH","3ZXV7Q5FJBAKJ3TNMBBLYHIS0EBCFB","","img/set1/S4.jpg","74","4","structured_load","74","structured_load,random,structured_incentive,structured_normal","4,2,1,2,2,3","4,1,2,3","true","","",""
"null","","html-keyboard-response","11","95139","0.0-11.0","3DL65MZB8E1UZ9RLI2WH5ITEWJKECG","A358YR7MWC6LRH","3ZXV7Q5FJBAKJ3TNMBBLYHIS0EBCFB","","<img src=""img/set1/S4.jpg"" width=""540"" height = ""360"" style=""border:16px solid orange"">","null","","","","","","","","","",""
"null","","html-keyboard-response","12","95341","0.0-12.0","3DL65MZB8E1UZ9RLI2WH5ITEWJKECG","A358YR7MWC6LRH","3ZXV7Q5FJBAKJ3TNMBBLYHIS0EBCFB","","","null","","","","","","","","","",""
"823.1000000238419","","image-keyboard-response","13","96166","0.0-13.0","3DL65MZB8E1UZ9RLI2WH5ITEWJKECG","A358YR7MWC6LRH","3ZXV7Q5FJBAKJ3TNMBBLYHIS0EBCFB","","img/set1/S2.jpg","72","2","structured_load","68","structured_load,random,structured_incentive,structured_normal","4,2,1,2,2,3","4,1,2,3","false","","",""
"null","","html-keyboard-response","14","96519","0.0-14.0","3DL65MZB8E1UZ9RLI2WH5ITEWJKECG","A358YR7MWC6LRH","3ZXV7Q5FJBAKJ3TNMBBLYHIS0EBCFB","","<img src=""img/set1/S2.jpg"" width=""540"" height = ""360"">","null","","","","","","","","","",""
"null","","html-keyboard-response","15","96722","0.0-15.0","3DL65MZB8E1UZ9RLI2WH5ITEWJKECG","A358YR7MWC6LRH","3ZXV7Q5FJBAKJ3TNMBBLYHIS0EBCFB","","","null","","","","","","","","","",""
"658.5","","image-keyboard-response","16","97383","0.0-16.0","3DL65MZB8E1UZ9RLI2WH5ITEWJKECG","A358YR7MWC6LRH","3ZXV7Q5FJBAKJ3TNMBBLYHIS0EBCFB","","img/set1/S4.jpg","72","4","structured_load","74","structured_load,random,structured_incentive,structured_normal","4,2,1,2,2,3","4,1,2,3","false","","",""
"null","","html-keyboard-response","17","97736","0.0-17.0","3DL65MZB8E1UZ9RLI2WH5ITEWJKECG","A358YR7MWC6LRH","3ZXV7Q5FJBAKJ3TNMBBLYHIS0EBCFB","","<img src=""img/set1/S4.jpg"" width=""540"" height = ""360"">","null","","","","","","","","","",""
"null","","html-keyboard-response","18","97938","0.0-18.0","3DL65MZB8E1UZ9RLI2WH5ITEWJKECG","A358YR7MWC6LRH","3ZXV7Q5FJBAKJ3TNMBBLYHIS0EBCFB","","","null","","","","","","","","","",""
"619.1000000238419","","image-keyboard-response","19","98561","0.0-19.0","3DL65MZB8E1UZ9RLI2WH5ITEWJKECG","A358YR7MWC6LRH","3ZXV7Q5FJBAKJ3TNMBBLYHIS0EBCFB","","img/set1/S2.jpg","68","2","structured_load","68","structured_load,random,structured_incentive,structured_normal","4,2,1,2,2,3","4,1,2,3","true","","",""
"null","","html-keyboard-response","20","98915","0.0-20.0","3DL65MZB8E1UZ9RLI2WH5ITEWJKECG","A358YR7MWC6LRH","3ZXV7Q5FJBAKJ3TNMBBLYHIS0EBCFB","","<img src=""img/set1/S2.jpg"" width=""540"" height = ""360"" style=""border:16px solid orange"">","null","","","","","","","","","",""
"null","","html-keyboard-response","21","99118","0.0-21.0","3DL65MZB8E1UZ9RLI2WH5ITEWJKECG","A358YR7MWC6LRH","3ZXV7Q5FJBAKJ3TNMBBLYHIS0EBCFB","","","null","","","","","","","","","",""
"686.2999999523163","","image-keyboard-response","22","99807","0.0-22.0","3DL65MZB8E1UZ9RLI2WH5ITEWJKECG","A358YR7MWC6LRH","3ZXV7Q5FJBAKJ3TNMBBLYHIS0EBCFB","","img/set1/S3.jpg","72","3","structured_load","72","structured_load,random,structured_incentive,structured_normal","4,2,1,2,2,3","4,1,2,3","true","","",""
"null","","html-keyboard-response","23","100161","0.0-23.0","3DL65MZB8E1UZ9RLI2WH5ITEWJKECG","A358YR7MWC6LRH","3ZXV7Q5FJBAKJ3TNMBBLYHIS0EBCFB","","<img src=""img/set1/S3.jpg"" width=""540"" height = ""360"" style=""border:16px solid orange"">","null","","","","","","","","","",""
"null","","html-keyboard-response","24","100364","0.0-24.0","3DL65MZB8E1UZ9RLI2WH5ITEWJKECG","A358YR7MWC6LRH","3ZXV7Q5FJBAKJ3TNMBBLYHIS0EBCFB","","","null","","","","","","","","","",""
"465.7999999523163","","image-keyboard-response","25","100831","0.0-25.0","3DL65MZB8E1UZ9RLI2WH5ITEWJKECG","A358YR7MWC6LRH","3ZXV7Q5FJBAKJ3TNMBBLYHIS0EBCFB","","img/set1/S3.jpg","72","3","structured_load","72","structured_load,random,structured_incentive,structured_normal","4,2,1,2,2,3","4,1,2,3","true","","",""
"null","","html-keyboard-response","26","101184","0.0-26.0","3DL65MZB8E1UZ9RLI2WH5ITEWJKECG","A358YR7MWC6LRH","3ZXV7Q5FJBAKJ3TNMBBLYHIS0EBCFB","","<img src=""img/set1/S3.jpg"" width=""540"" height = ""360"" style=""border:16px solid orange"">","null","","","","","","","","","",""
"null","","html-keyboard-response","27","101386","0.0-27.0","3DL65MZB8E1UZ9RLI2WH5ITEWJKECG","A358YR7MWC6LRH","3ZXV7Q5FJBAKJ3TNMBBLYHIS0EBCFB","","","null","","","","","","","","","",""
"833.6000000238419","","image-keyboard-response","28","102221","0.0-28.0","3DL65MZB8E1UZ9RLI2WH5ITEWJKECG","A358YR7MWC6LRH","3ZXV7Q5FJBAKJ3TNMBBLYHIS0EBCFB","","img/set1/S1.jpg","74","1","structured_load","83","structured_load,random,structured_incentive,structured_normal","4,2,1,2,2,3","4,1,2,3","false","","",""
"null","","html-keyboard-response","29","102574","0.0-29.0","3DL65MZB8E1UZ9RLI2WH5ITEWJKECG","A358YR7MWC6LRH","3ZXV7Q5FJBAKJ3TNMBBLYHIS0EBCFB","","<img src=""img/set1/S1.jpg"" width=""540"" height = ""360"">","null","","","","","","","","","",""
"null","","html-keyboard-response","30","102776","0.0-30.0","3DL65MZB8E1UZ9RLI2WH5ITEWJKECG","A358YR7MWC6LRH","3ZXV7Q5FJBAKJ3TNMBBLYHIS0EBCFB","","","null","","","","","","","","","",""
"507.2999999523163","","image-keyboard-response","31","103285","0.0-31.0","3DL65MZB8E1UZ9RLI2WH5ITEWJKECG","A358YR7MWC6LRH","3ZXV7Q5FJBAKJ3TNMBBLYHIS0EBCFB","","img/set1/S4.jpg","83","4","structured_load","74","structured_load,random,structured_incentive,structured_normal","4,2,1,2,2,3","4,1,2,3","false","","",""
"null","","html-keyboard-response","32","103637","0.0-32.0","3DL65MZB8E1UZ9RLI2WH5ITEWJKECG","A358YR7MWC6LRH","3ZXV7Q5FJBAKJ3TNMBBLYHIS0EBCFB","","<img src=""img/set1/S4.jpg"" width=""540"" height = ""360"">","null","","","","","","","","","",""
"null","","html-keyboard-response","33","103840","0.0-33.0","3DL65MZB8E1UZ9RLI2WH5ITEWJKECG","A358YR7MWC6LRH","3ZXV7Q5FJBAKJ3TNMBBLYHIS0EBCFB","","","null","","","","","","","","","",""
"788.6999999284744","","image-keyboard-response","34","104630","0.0-34.0","3DL65MZB8E1UZ9RLI2WH5ITEWJKECG","A358YR7MWC6LRH","3ZXV7Q5FJBAKJ3TNMBBLYHIS0EBCFB","","img/set1/S2.jpg","72","2","structured_load","68","structured_load,random,structured_incentive,structured_normal","4,2,1,2,2,3","4,1,2,3","false","","",""
"null","","html-keyboard-response","35","104983","0.0-35.0","3DL65MZB8E1UZ9RLI2WH5ITEWJKECG","A358YR7MWC6LRH","3ZXV7Q5FJBAKJ3TNMBBLYHIS0EBCFB","","<img src=""img/set1/S2.jpg"" width=""540"" height = ""360"">","null","","","","","","","","","",""
"null","","html-keyboard-response","36","105190","0.0-36.0","3DL65MZB8E1UZ9RLI2WH5ITEWJKECG","A358YR7MWC6LRH","3ZXV7Q5FJBAKJ3TNMBBLYHIS0EBCFB","","","null","","","","","","","","","",""
"655.3999999761581","","image-keyboard-response","37","105848","0.0-37.0","3DL65MZB8E1UZ9RLI2WH5ITEWJKECG","A358YR7MWC6LRH","3ZXV7Q5FJBAKJ3TNMBBLYHIS0EBCFB","","img/set1/S4.jpg","72","4","structured_load","74","structured_load,random,structured_incentive,structured_normal","4,2,1,2,2,3","4,1,2,3","false","","",""
"null","","html-keyboard-response","38","106202","0.0-38.0","3DL65MZB8E1UZ9RLI2WH5ITEWJKECG","A358YR7MWC6LRH","3ZXV7Q5FJBAKJ3TNMBBLYHIS0EBCFB","","<img src=""img/set1/S4.jpg"" width=""540"" height = ""360"">","null","","","","","","","","","",""
"null","","html-keyboard-response","39","106403","0.0-39.0","3DL65MZB8E1UZ9RLI2WH5ITEWJKECG","A358YR7MWC6LRH","3ZXV7Q5FJBAKJ3TNMBBLYHIS0EBCFB","","","null","","","","","","","","","",""
"514.2999999523163","","image-keyboard-response","40","106919","0.0-40.0","3DL65MZB8E1UZ9RLI2WH5ITEWJKECG","A358YR7MWC6LRH","3ZXV7Q5FJBAKJ3TNMBBLYHIS0EBCFB","","img/set1/S2.jpg","68","2","structured_load","68","structured_load,random,structured_incentive,structured_normal","4,2,1,2,2,3","4,1,2,3","true","","",""
"null","","html-keyboard-response","41","107272","0.0-41.0","3DL65MZB8E1UZ9RLI2WH5ITEWJKECG","A358YR7MWC6LRH","3ZXV7Q5FJBAKJ3TNMBBLYHIS0EBCFB","","<img src=""img/set1/S2.jpg"" width=""540"" height = ""360"" style=""border:16px solid orange"">","null","","","","","","","","","",""
"null","","html-keyboard-response","42","107473","0.0-42.0","3DL65MZB8E1UZ9RLI2WH5ITEWJKECG","A358YR7MWC6LRH","3ZXV7Q5FJBAKJ3TNMBBLYHIS0EBCFB","","","null","","","","","","","","","",""
"660.7999999523163","","image-keyboard-response","43","108136","0.0-43.0","3DL65MZB8E1UZ9RLI2WH5ITEWJKECG","A358YR7MWC6LRH","3ZXV7Q5FJBAKJ3TNMBBLYHIS0EBCFB","","img/set1/S1.jpg","68","1","structured_load","83","structured_load,random,structured_incentive,structured_normal","4,2,1,2,2,3","4,1,2,3","false","","",""
"null","","html-keyboard-response","44","108488","0.0-44.0","3DL65MZB8E1UZ9RLI2WH5ITEWJKECG","A358YR7MWC6LRH","3ZXV7Q5FJBAKJ3TNMBBLYHIS0EBCFB","","<img src=""img/set1/S1.jpg"" width=""540"" height = ""360"">","null","","","","","","","","","",""
"null","","html-keyboard-response","45","108690","0.0-45.0","3DL65MZB8E1UZ9RLI2WH5ITEWJKECG","A358YR7MWC6LRH","3ZXV7Q5FJBAKJ3TNMBBLYHIS0EBCFB","","","null","","","","","","","","","",""
"650.8999999761581","","image-keyboard-response","46","109343","0.0-46.0","3DL65MZB8E1UZ9RLI2WH5ITEWJKECG","A358YR7MWC6LRH","3ZXV7Q5FJBAKJ3TNMBBLYHIS0EBCFB","","img/set1/S2.jpg","68","2","structured_load","68","structured_load,random,structured_incentive,structured_normal","4,2,1,2,2,3","4,1,2,3","true","","",""
"null","","html-keyboard-response","47","109695","0.0-47.0","3DL65MZB8E1UZ9RLI2WH5ITEWJKECG","A358YR7MWC6LRH","3ZXV7Q5FJBAKJ3TNMBBLYHIS0EBCFB","","<img src=""img/set1/S2.jpg"" width=""540"" height = ""360"" style=""border:16px solid orange"">","null","","","","","","","","","",""
"null","","html-keyboard-response","48","109897","0.0-48.0","3DL65MZB8E1UZ9RLI2WH5ITEWJKECG","A358YR7MWC6LRH","3ZXV7Q5FJBAKJ3TNMBBLYHIS0EBCFB","","","null","","","","","","","","","",""
"371.89999997615814","","image-keyboard-response","49","110271","0.0-49.0","3DL65MZB8E1UZ9RLI2WH5ITEWJKECG","A358YR7MWC6LRH","3ZXV7Q5FJBAKJ3TNMBBLYHIS0EBCFB","","img/set1/S3.jpg","83","3","structured_load","72","structured_load,random,structured_incentive,structured_normal","4,2,1,2,2,3","4,1,2,3","false","","",""
"null","","html-keyboard-response","50","110623","0.0-50.0","3DL65MZB8E1UZ9RLI2WH5ITEWJKECG","A358YR7MWC6LRH","3ZXV7Q5FJBAKJ3TNMBBLYHIS0EBCFB","","<img src=""img/set1/S3.jpg"" width=""540"" height = ""360"">","null","","","","","","","","","",""
"null","","html-keyboard-response","51","110826","0.0-51.0","3DL65MZB8E1UZ9RLI2WH5ITEWJKECG","A358YR7MWC6LRH","3ZXV7Q5FJBAKJ3TNMBBLYHIS0EBCFB","","","null","","","","","","","","","",""
"649.2000000476837","","image-keyboard-response","52","111477","0.0-52.0","3DL65MZB8E1UZ9RLI2WH5ITEWJKECG","A358YR7MWC6LRH","3ZXV7Q5FJBAKJ3TNMBBLYHIS0EBCFB","","img/set1/S4.jpg","83","4","structured_load","74","structured_load,random,structured_incentive,structured_normal","4,2,1,2,2,3","4,1,2,3","false","","",""
"null","","html-keyboard-response","53","111830","0.0-53.0","3DL65MZB8E1UZ9RLI2WH5ITEWJKECG","A358YR7MWC6LRH","3ZXV7Q5FJBAKJ3TNMBBLYHIS0EBCFB","","<img src=""img/set1/S4.jpg"" width=""540"" height = ""360"">","null","","","","","","","","","",""
"null","","html-keyboard-response","54","112032","0.0-54.0","3DL65MZB8E1UZ9RLI2WH5ITEWJKECG","A358YR7MWC6LRH","3ZXV7Q5FJBAKJ3TNMBBLYHIS0EBCFB","","","null","","","","","","","","","",""
"661.1000000238419","","image-keyboard-response","55","112695","0.0-55.0","3DL65MZB8E1UZ9RLI2WH5ITEWJKECG","A358YR7MWC6LRH","3ZXV7Q5FJBAKJ3TNMBBLYHIS0EBCFB","","img/set1/S2.jpg","68","2","structured_load","68","structured_load,random,structured_incentive,structured_normal","4,2,1,2,2,3","4,1,2,3","true","","",""
"null","","html-keyboard-response","56","113050","0.0-56.0","3DL65MZB8E1UZ9RLI2WH5ITEWJKECG","A358YR7MWC6LRH","3ZXV7Q5FJBAKJ3TNMBBLYHIS0EBCFB","","<img src=""img/set1/S2.jpg"" width=""540"" height = ""360"" style=""border:16px solid orange"">","null","","","","","","","","","",""
"null","","html-keyboard-response","57","113252","0.0-57.0","3DL65MZB8E1UZ9RLI2WH5ITEWJKECG","A358YR7MWC6LRH","3ZXV7Q5FJBAKJ3TNMBBLYHIS0EBCFB","","","null","","","","","","","","","",""
"879.8999999761581","","image-keyboard-response","58","114135","0.0-58.0","3DL65MZB8E1UZ9RLI2WH5ITEWJKECG","A358YR7MWC6LRH","3ZXV7Q5FJBAKJ3TNMBBLYHIS0EBCFB","","img/set1/S4.jpg","72","4","structured_load","74","structured_load,random,structured_incentive,structured_normal","4,2,1,2,2,3","4,1,2,3","false","","",""
"null","","html-keyboard-response","59","114489","0.0-59.0","3DL65MZB8E1UZ9RLI2WH5ITEWJKECG","A358YR7MWC6LRH","3ZXV7Q5FJBAKJ3TNMBBLYHIS0EBCFB","","<img src=""img/set1/S4.jpg"" width=""540"" height = ""360"">","null","","","","","","","","","",""
"null","","html-keyboard-response","60","114692","0.0-60.0","3DL65MZB8E1UZ9RLI2WH5ITEWJKECG","A358YR7MWC6LRH","3ZXV7Q5FJBAKJ3TNMBBLYHIS0EBCFB","","","null","","","","","","","","","",""
"680.2000000476837","","image-keyboard-response","61","115373","0.0-61.0","3DL65MZB8E1UZ9RLI2WH5ITEWJKECG","A358YR7MWC6LRH","3ZXV7Q5FJBAKJ3TNMBBLYHIS0EBCFB","","img/set1/S3.jpg","72","3","structured_load","72","structured_load,random,structured_incentive,structured_normal","4,2,1,2,2,3","4,1,2,3","true","","",""
"null","","html-keyboard-response","62","115726","0.0-62.0","3DL65MZB8E1UZ9RLI2WH5ITEWJKECG","A358YR7MWC6LRH","3ZXV7Q5FJBAKJ3TNMBBLYHIS0EBCFB","","<img src=""img/set1/S3.jpg"" width=""540"" height = ""360"" style=""border:16px solid orange"">","null","","","","","","","","","",""
"null","","html-keyboard-response","63","115928","0.0-63.0","3DL65MZB8E1UZ9RLI2WH5ITEWJKECG","A358YR7MWC6LRH","3ZXV7Q5FJBAKJ3TNMBBLYHIS0EBCFB","","","null","","","","","","","","","",""
"867.7999999523163","","image-keyboard-response","64","116797","0.0-64.0","3DL65MZB8E1UZ9RLI2WH5ITEWJKECG","A358YR7MWC6LRH","3ZXV7Q5FJBAKJ3TNMBBLYHIS0EBCFB","","img/set1/S4.jpg","68","4","structured_load","74","structured_load,random,structured_incentive,structured_normal","4,2,1,2,2,3","4,1,2,3","false","","",""
"null","","html-keyboard-response","65","117150","0.0-65.0","3DL65MZB8E1UZ9RLI2WH5ITEWJKECG","A358YR7MWC6LRH","3ZXV7Q5FJBAKJ3TNMBBLYHIS0EBCFB","","<img src=""img/set1/S4.jpg"" width=""540"" height = ""360"">","null","","","","","","","","","",""
"null","","html-keyboard-response","66","117352","0.0-66.0","3DL65MZB8E1UZ9RLI2WH5ITEWJKECG","A358YR7MWC6LRH","3ZXV7Q5FJBAKJ3TNMBBLYHIS0EBCFB","","","null","","","","","","","","","",""
"589","","image-keyboard-response","67","117943","0.0-67.0","3DL65MZB8E1UZ9RLI2WH5ITEWJKECG","A358YR7MWC6LRH","3ZXV7Q5FJBAKJ3TNMBBLYHIS0EBCFB","","img/set1/S2.jpg","68","2","structured_load","68","structured_load,random,structured_incentive,structured_normal","4,2,1,2,2,3","4,1,2,3","true","","",""
"null","","html-keyboard-response","68","118296","0.0-68.0","3DL65MZB8E1UZ9RLI2WH5ITEWJKECG","A358YR7MWC6LRH","3ZXV7Q5FJBAKJ3TNMBBLYHIS0EBCFB","","<img src=""img/set1/S2.jpg"" width=""540"" height = ""360"" style=""border:16px solid orange"">","null","","","","","","","","","",""
"null","","html-keyboard-response","69","118499","0.0-69.0","3DL65MZB8E1UZ9RLI2WH5ITEWJKECG","A358YR7MWC6LRH","3ZXV7Q5FJBAKJ3TNMBBLYHIS0EBCFB","","","null","","","","","","","","","",""
"822.2999999523163","","image-keyboard-response","70","119326","0.0-70.0","3DL65MZB8E1UZ9RLI2WH5ITEWJKECG","A358YR7MWC6LRH","3ZXV7Q5FJBAKJ3TNMBBLYHIS0EBCFB","","img/set1/S1.jpg","74","1","structured_load","83","structured_load,random,structured_incentive,structured_normal","4,2,1,2,2,3","4,1,2,3","false","","",""
"null","","html-keyboard-response","71","119678","0.0-71.0","3DL65MZB8E1UZ9RLI2WH5ITEWJKECG","A358YR7MWC6LRH","3ZXV7Q5FJBAKJ3TNMBBLYHIS0EBCFB","","<img src=""img/set1/S1.jpg"" width=""540"" height = ""360"">","null","","","","","","","","","",""
"null","","html-keyboard-response","72","119880","0.0-72.0","3DL65MZB8E1UZ9RLI2WH5ITEWJKECG","A358YR7MWC6LRH","3ZXV7Q5FJBAKJ3TNMBBLYHIS0EBCFB","","","null","","","","","","","","","",""
"820.4000000953674","","image-keyboard-response","73","120703","0.0-73.0","3DL65MZB8E1UZ9RLI2WH5ITEWJKECG","A358YR7MWC6LRH","3ZXV7Q5FJBAKJ3TNMBBLYHIS0EBCFB","","img/set1/S4.jpg","83","4","structured_load","74","structured_load,random,structured_incentive,structured_normal","4,2,1,2,2,3","4,1,2,3","false","","",""
"null","","html-keyboard-response","74","121056","0.0-74.0","3DL65MZB8E1UZ9RLI2WH5ITEWJKECG","A358YR7MWC6LRH","3ZXV7Q5FJBAKJ3TNMBBLYHIS0EBCFB","","<img src=""img/set1/S4.jpg"" width=""540"" height = ""360"">","null","","","","","","","","","",""
"null","","html-keyboard-response","75","121258","0.0-75.0","3DL65MZB8E1UZ9RLI2WH5ITEWJKECG","A358YR7MWC6LRH","3ZXV7Q5FJBAKJ3TNMBBLYHIS0EBCFB","","","null","","","","","","","","","",""
"658.8000000715256","","image-keyboard-response","76","121918","0.0-76.0","3DL65MZB8E1UZ9RLI2WH5ITEWJKECG","A358YR7MWC6LRH","3ZXV7Q5FJBAKJ3TNMBBLYHIS0EBCFB","","img/set1/S2.jpg","68","2","structured_load","68","structured_load,random,structured_incentive,structured_normal","4,2,1,2,2,3","4,1,2,3","true","","",""
"null","","html-keyboard-response","77","122271","0.0-77.0","3DL65MZB8E1UZ9RLI2WH5ITEWJKECG","A358YR7MWC6LRH","3ZXV7Q5FJBAKJ3TNMBBLYHIS0EBCFB","","<img src=""img/set1/S2.jpg"" width=""540"" height = ""360"" style=""border:16px solid orange"">","null","","","","","","","","","",""
"null","","html-keyboard-response","78","122473","0.0-78.0","3DL65MZB8E1UZ9RLI2WH5ITEWJKECG","A358YR7MWC6LRH","3ZXV7Q5FJBAKJ3TNMBBLYHIS0EBCFB","","","null","","","","","","","","","",""
"650.2999999523163","","image-keyboard-response","79","123125","0.0-79.0","3DL65MZB8E1UZ9RLI2WH5ITEWJKECG","A358YR7MWC6LRH","3ZXV7Q5FJBAKJ3TNMBBLYHIS0EBCFB","","img/set1/S4.jpg","68","4","structured_load","74","structured_load,random,structured_incentive,structured_normal","4,2,1,2,2,3","4,1,2,3","false","","",""
"null","","html-keyboard-response","80","123477","0.0-80.0","3DL65MZB8E1UZ9RLI2WH5ITEWJKECG","A358YR7MWC6LRH","3ZXV7Q5FJBAKJ3TNMBBLYHIS0EBCFB","","<img src=""img/set1/S4.jpg"" width=""540"" height = ""360"">","null","","","","","","","","","",""
"null","","html-keyboard-response","81","123678","0.0-81.0","3DL65MZB8E1UZ9RLI2WH5ITEWJKECG","A358YR7MWC6LRH","3ZXV7Q5FJBAKJ3TNMBBLYHIS0EBCFB","","","null","","","","","","","","","",""
"750.2000000476837","","image-keyboard-response","82","124431","0.0-82.0","3DL65MZB8E1UZ9RLI2WH5ITEWJKECG","A358YR7MWC6LRH","3ZXV7Q5FJBAKJ3TNMBBLYHIS0EBCFB","","img/set1/S2.jpg","68","2","structured_load","68","structured_load,random,structured_incentive,structured_normal","4,2,1,2,2,3","4,1,2,3","true","","",""
"null","","html-keyboard-response","83","124785","0.0-83.0","3DL65MZB8E1UZ9RLI2WH5ITEWJKECG","A358YR7MWC6LRH","3ZXV7Q5FJBAKJ3TNMBBLYHIS0EBCFB","","<img src=""img/set1/S2.jpg"" width=""540"" height = ""360"" style=""border:16px solid orange"">","null","","","","","","","","","",""
"null","","html-keyboard-response","84","124989","0.0-84.0","3DL65MZB8E1UZ9RLI2WH5ITEWJKECG","A358YR7MWC6LRH","3ZXV7Q5FJBAKJ3TNMBBLYHIS0EBCFB","","","null","","","","","","","","","",""
"647","","image-keyboard-response","85","125639","0.0-85.0","3DL65MZB8E1UZ9RLI2WH5ITEWJKECG","A358YR7MWC6LRH","3ZXV7Q5FJBAKJ3TNMBBLYHIS0EBCFB","","img/set1/S1.jpg","74","1","structured_load","83","structured_load,random,structured_incentive,structured_normal","4,2,1,2,2,3","4,1,2,3","false","","",""
"null","","html-keyboard-response","86","125992","0.0-86.0","3DL65MZB8E1UZ9RLI2WH5ITEWJKECG","A358YR7MWC6LRH","3ZXV7Q5FJBAKJ3TNMBBLYHIS0EBCFB","","<img src=""img/set1/S1.jpg"" width=""540"" height = ""360"">","null","","","","","","","","","",""
"null","","html-keyboard-response","87","126194","0.0-87.0","3DL65MZB8E1UZ9RLI2WH5ITEWJKECG","A358YR7MWC6LRH","3ZXV7Q5FJBAKJ3TNMBBLYHIS0EBCFB","","","null","","","","","","","","","",""
"761.2999999523163","","image-keyboard-response","88","126957","0.0-88.0","3DL65MZB8E1UZ9RLI2WH5ITEWJKECG","A358YR7MWC6LRH","3ZXV7Q5FJBAKJ3TNMBBLYHIS0EBCFB","","img/set1/S1.jpg","72","1","structured_load","83","structured_load,random,structured_incentive,structured_normal","4,2,1,2,2,3","4,1,2,3","false","","",""
"null","","html-keyboard-response","89","127310","0.0-89.0","3DL65MZB8E1UZ9RLI2WH5ITEWJKECG","A358YR7MWC6LRH","3ZXV7Q5FJBAKJ3TNMBBLYHIS0EBCFB","","<img src=""img/set1/S1.jpg"" width=""540"" height = ""360"">","null","","","","","","","","","",""
"null","","html-keyboard-response","90","127512","0.0-90.0","3DL65MZB8E1UZ9RLI2WH5ITEWJKECG","A358YR7MWC6LRH","3ZXV7Q5FJBAKJ3TNMBBLYHIS0EBCFB","","","null","","","","","","","","","",""
"475.10000002384186","","image-keyboard-response","91","127989","0.0-91.0","3DL65MZB8E1UZ9RLI2WH5ITEWJKECG","A358YR7MWC6LRH","3ZXV7Q5FJBAKJ3TNMBBLYHIS0EBCFB","","img/set1/S1.jpg","83","1","structured_load","83","structured_load,random,structured_incentive,structured_normal","4,2,1,2,2,3","4,1,2,3","true","","",""
"null","","html-keyboard-response","92","128340","0.0-92.0","3DL65MZB8E1UZ9RLI2WH5ITEWJKECG","A358YR7MWC6LRH","3ZXV7Q5FJBAKJ3TNMBBLYHIS0EBCFB","","<img src=""img/set1/S1.jpg"" width=""540"" height = ""360"" style=""border:16px solid orange"">","null","","","","","","","","","",""
"null","","html-keyboard-response","93","128542","0.0-93.0","3DL65MZB8E1UZ9RLI2WH5ITEWJKECG","A358YR7MWC6LRH","3ZXV7Q5FJBAKJ3TNMBBLYHIS0EBCFB","","","null","","","","","","","","","",""
"558","","image-keyboard-response","94","129102","0.0-94.0","3DL65MZB8E1UZ9RLI2WH5ITEWJKECG","A358YR7MWC6LRH","3ZXV7Q5FJBAKJ3TNMBBLYHIS0EBCFB","","img/set1/S3.jpg","68","3","structured_load","72","structured_load,random,structured_incentive,structured_normal","4,2,1,2,2,3","4,1,2,3","false","","",""
"null","","html-keyboard-response","95","129454","0.0-95.0","3DL65MZB8E1UZ9RLI2WH5ITEWJKECG","A358YR7MWC6LRH","3ZXV7Q5FJBAKJ3TNMBBLYHIS0EBCFB","","<img src=""img/set1/S3.jpg"" width=""540"" height = ""360"">","null","","","","","","","","","",""
"null","","html-keyboard-response","96","129656","0.0-96.0","3DL65MZB8E1UZ9RLI2WH5ITEWJKECG","A358YR7MWC6LRH","3ZXV7Q5FJBAKJ3TNMBBLYHIS0EBCFB","","","null","","","","","","","","","",""
"483.3000000715256","","image-keyboard-response","97","130140","0.0-97.0","3DL65MZB8E1UZ9RLI2WH5ITEWJKECG","A358YR7MWC6LRH","3ZXV7Q5FJBAKJ3TNMBBLYHIS0EBCFB","","img/set1/S3.jpg","72","3","structured_load","72","structured_load,random,structured_incentive,structured_normal","4,2,1,2,2,3","4,1,2,3","true","","",""
"null","","html-keyboard-response","98","130492","0.0-98.0","3DL65MZB8E1UZ9RLI2WH5ITEWJKECG","A358YR7MWC6LRH","3ZXV7Q5FJBAKJ3TNMBBLYHIS0EBCFB","","<img src=""img/set1/S3.jpg"" width=""540"" height = ""360"" style=""border:16px solid orange"">","null","","","","","","","","","",""
"null","","html-keyboard-response","99","130694","0.0-99.0","3DL65MZB8E1UZ9RLI2WH5ITEWJKECG","A358YR7MWC6LRH","3ZXV7Q5FJBAKJ3TNMBBLYHIS0EBCFB","","","null","","","","","","","","","",""
"741.5","","image-keyboard-response","100","131437","0.0-100.0","3DL65MZB8E1UZ9RLI2WH5ITEWJKECG","A358YR7MWC6LRH","3ZXV7Q5FJBAKJ3TNMBBLYHIS0EBCFB","","img/set1/S4.jpg","74","4","structured_load","74","structured_load,random,structured_incentive,structured_normal","4,2,1,2,2,3","4,1,2,3","true","","",""
"null","","html-keyboard-response","101","131789","0.0-101.0","3DL65MZB8E1UZ9RLI2WH5ITEWJKECG","A358YR7MWC6LRH","3ZXV7Q5FJBAKJ3TNMBBLYHIS0EBCFB","","<img src=""img/set1/S4.jpg"" width=""540"" height = ""360"" style=""border:16px solid orange"">","null","","","","","","","","","",""
"null","","html-keyboard-response","102","131996","0.0-102.0","3DL65MZB8E1UZ9RLI2WH5ITEWJKECG","A358YR7MWC6LRH","3ZXV7Q5FJBAKJ3TNMBBLYHIS0EBCFB","","","null","","","","","","","","","",""
"703.6000000238419","","image-keyboard-response","103","132703","0.0-103.0","3DL65MZB8E1UZ9RLI2WH5ITEWJKECG","A358YR7MWC6LRH","3ZXV7Q5FJBAKJ3TNMBBLYHIS0EBCFB","","img/set1/S2.jpg","68","2","structured_load","68","structured_load,random,structured_incentive,structured_normal","4,2,1,2,2,3","4,1,2,3","true","","",""
"null","","html-keyboard-response","104","133058","0.0-104.0","3DL65MZB8E1UZ9RLI2WH5ITEWJKECG","A358YR7MWC6LRH","3ZXV7Q5FJBAKJ3TNMBBLYHIS0EBCFB","","<img src=""img/set1/S2.jpg"" width=""540"" height = ""360"" style=""border:16px solid orange"">","null","","","","","","","","","",""
"null","","html-keyboard-response","105","133260","0.0-105.0","3DL65MZB8E1UZ9RLI2WH5ITEWJKECG","A358YR7MWC6LRH","3ZXV7Q5FJBAKJ3TNMBBLYHIS0EBCFB","","","null","","","","","","","","","",""
"656.6000000238419","","image-keyboard-response","106","133918","0.0-106.0","3DL65MZB8E1UZ9RLI2WH5ITEWJKECG","A358YR7MWC6LRH","3ZXV7Q5FJBAKJ3TNMBBLYHIS0EBCFB","","img/set1/S3.jpg","72","3","structured_load","72","structured_load,random,structured_incentive,structured_normal","4,2,1,2,2,3","4,1,2,3","true","","",""
"null","","html-keyboard-response","107","134272","0.0-107.0","3DL65MZB8E1UZ9RLI2WH5ITEWJKECG","A358YR7MWC6LRH","3ZXV7Q5FJBAKJ3TNMBBLYHIS0EBCFB","","<img src=""img/set1/S3.jpg"" width=""540"" height = ""360"" style=""border:16px solid orange"">","null","","","","","","","","","",""
"null","","html-keyboard-response","108","134475","0.0-108.0","3DL65MZB8E1UZ9RLI2WH5ITEWJKECG","A358YR7MWC6LRH","3ZXV7Q5FJBAKJ3TNMBBLYHIS0EBCFB","","","null","","","","","","","","","",""
"680.1999999284744","","image-keyboard-response","109","135157","0.0-109.0","3DL65MZB8E1UZ9RLI2WH5ITEWJKECG","A358YR7MWC6LRH","3ZXV7Q5FJBAKJ3TNMBBLYHIS0EBCFB","","img/set1/S1.jpg","83","1","structured_load","83","structured_load,random,structured_incentive,structured_normal","4,2,1,2,2,3","4,1,2,3","true","","",""
"null","","html-keyboard-response","110","135519","0.0-110.0","3DL65MZB8E1UZ9RLI2WH5ITEWJKECG","A358YR7MWC6LRH","3ZXV7Q5FJBAKJ3TNMBBLYHIS0EBCFB","","<img src=""img/set1/S1.jpg"" width=""540"" height = ""360"" style=""border:16px solid orange"">","null","","","","","","","","","",""
"null","","html-keyboard-response","111","135722","0.0-111.0","3DL65MZB8E1UZ9RLI2WH5ITEWJKECG","A358YR7MWC6LRH","3ZXV7Q5FJBAKJ3TNMBBLYHIS0EBCFB","","","null","","","","","","","","","",""
"753.0999999046326","","image-keyboard-response","112","136477","0.0-112.0","3DL65MZB8E1UZ9RLI2WH5ITEWJKECG","A358YR7MWC6LRH","3ZXV7Q5FJBAKJ3TNMBBLYHIS0EBCFB","","img/set1/S4.jpg","68","4","structured_load","74","structured_load,random,structured_incentive,structured_normal","4,2,1,2,2,3","4,1,2,3","false","","",""
"null","","html-keyboard-response","113","136831","0.0-113.0","3DL65MZB8E1UZ9RLI2WH5ITEWJKECG","A358YR7MWC6LRH","3ZXV7Q5FJBAKJ3TNMBBLYHIS0EBCFB","","<img src=""img/set1/S4.jpg"" width=""540"" height = ""360"">","null","","","","","","","","","",""
"null","","html-keyboard-response","114","137033","0.0-114.0","3DL65MZB8E1UZ9RLI2WH5ITEWJKECG","A358YR7MWC6LRH","3ZXV7Q5FJBAKJ3TNMBBLYHIS0EBCFB","","","null","","","","","","","","","",""
"641.6999999284744","","image-keyboard-response","115","137677","0.0-115.0","3DL65MZB8E1UZ9RLI2WH5ITEWJKECG","A358YR7MWC6LRH","3ZXV7Q5FJBAKJ3TNMBBLYHIS0EBCFB","","img/set1/S2.jpg","68","2","structured_load","68","structured_load,random,structured_incentive,structured_normal","4,2,1,2,2,3","4,1,2,3","true","","",""
"null","","html-keyboard-response","116","138030","0.0-116.0","3DL65MZB8E1UZ9RLI2WH5ITEWJKECG","A358YR7MWC6LRH","3ZXV7Q5FJBAKJ3TNMBBLYHIS0EBCFB","","<img src=""img/set1/S2.jpg"" width=""540"" height = ""360"" style=""border:16px solid orange"">","null","","","","","","","","","",""
"null","","html-keyboard-response","117","138233","0.0-117.0","3DL65MZB8E1UZ9RLI2WH5ITEWJKECG","A358YR7MWC6LRH","3ZXV7Q5FJBAKJ3TNMBBLYHIS0EBCFB","","","null","","","","","","","","","",""
"684.1000000238419","","image-keyboard-response","118","138919","0.0-118.0","3DL65MZB8E1UZ9RLI2WH5ITEWJKECG","A358YR7MWC6LRH","3ZXV7Q5FJBAKJ3TNMBBLYHIS0EBCFB","","img/set1/S1.jpg","83","1","structured_load","83","structured_load,random,structured_incentive,structured_normal","4,2,1,2,2,3","4,1,2,3","true","","",""
"null","","html-keyboard-response","119","139273","0.0-119.0","3DL65MZB8E1UZ9RLI2WH5ITEWJKECG","A358YR7MWC6LRH","3ZXV7Q5FJBAKJ3TNMBBLYHIS0EBCFB","","<img src=""img/set1/S1.jpg"" width=""540"" height = ""360"" style=""border:16px solid orange"">","null","","","","","","","","","",""
"null","","html-keyboard-response","120","139475","0.0-120.0","3DL65MZB8E1UZ9RLI2WH5ITEWJKECG","A358YR7MWC6LRH","3ZXV7Q5FJBAKJ3TNMBBLYHIS0EBCFB","","","null","","","","","","","","","",""
"592.3000000715256","","image-keyboard-response","121","140070","0.0-121.0","3DL65MZB8E1UZ9RLI2WH5ITEWJKECG","A358YR7MWC6LRH","3ZXV7Q5FJBAKJ3TNMBBLYHIS0EBCFB","","img/set1/S3.jpg","72","3","structured_load","72","structured_load,random,structured_incentive,structured_normal","4,2,1,2,2,3","4,1,2,3","true","","",""
"null","","html-keyboard-response","122","140425","0.0-122.0","3DL65MZB8E1UZ9RLI2WH5ITEWJKECG","A358YR7MWC6LRH","3ZXV7Q5FJBAKJ3TNMBBLYHIS0EBCFB","","<img src=""img/set1/S3.jpg"" width=""540"" height = ""360"" style=""border:16px solid orange"">","null","","","","","","","","","",""
"null","","html-keyboard-response","123","140627","0.0-123.0","3DL65MZB8E1UZ9RLI2WH5ITEWJKECG","A358YR7MWC6LRH","3ZXV7Q5FJBAKJ3TNMBBLYHIS0EBCFB","","","null","","","","","","","","","",""
"592.5999999046326","","image-keyboard-response","124","141222","0.0-124.0","3DL65MZB8E1UZ9RLI2WH5ITEWJKECG","A358YR7MWC6LRH","3ZXV7Q5FJBAKJ3TNMBBLYHIS0EBCFB","","img/set1/S2.jpg","68","2","structured_load","68","structured_load,random,structured_incentive,structured_normal","4,2,1,2,2,3","4,1,2,3","true","","",""
"null","","html-keyboard-response","125","141575","0.0-125.0","3DL65MZB8E1UZ9RLI2WH5ITEWJKECG","A358YR7MWC6LRH","3ZXV7Q5FJBAKJ3TNMBBLYHIS0EBCFB","","<img src=""img/set1/S2.jpg"" width=""540"" height = ""360"" style=""border:16px solid orange"">","null","","","","","","","","","",""
"null","","html-keyboard-response","126","141776","0.0-126.0","3DL65MZB8E1UZ9RLI2WH5ITEWJKECG","A358YR7MWC6LRH","3ZXV7Q5FJBAKJ3TNMBBLYHIS0EBCFB","","","null","","","","","","","","","",""
"834.7000000476837","","image-keyboard-response","127","142612","0.0-127.0","3DL65MZB8E1UZ9RLI2WH5ITEWJKECG","A358YR7MWC6LRH","3ZXV7Q5FJBAKJ3TNMBBLYHIS0EBCFB","","img/set1/S3.jpg","72","3","structured_load","72","structured_load,random,structured_incentive,structured_normal","4,2,1,2,2,3","4,1,2,3","true","","",""
"null","","html-keyboard-response","128","142965","0.0-128.0","3DL65MZB8E1UZ9RLI2WH5ITEWJKECG","A358YR7MWC6LRH","3ZXV7Q5FJBAKJ3TNMBBLYHIS0EBCFB","","<img src=""img/set1/S3.jpg"" width=""540"" height = ""360"" style=""border:16px solid orange"">","null","","","","","","","","","",""
"null","","html-keyboard-response","129","143169","0.0-129.0","3DL65MZB8E1UZ9RLI2WH5ITEWJKECG","A358YR7MWC6LRH","3ZXV7Q5FJBAKJ3TNMBBLYHIS0EBCFB","","","null","","","","","","","","","",""
"730.7999999523163","","image-keyboard-response","130","143903","0.0-130.0","3DL65MZB8E1UZ9RLI2WH5ITEWJKECG","A358YR7MWC6LRH","3ZXV7Q5FJBAKJ3TNMBBLYHIS0EBCFB","","img/set1/S4.jpg","74","4","structured_load","74","structured_load,random,structured_incentive,structured_normal","4,2,1,2,2,3","4,1,2,3","true","","",""
"null","","html-keyboard-response","131","144256","0.0-131.0","3DL65MZB8E1UZ9RLI2WH5ITEWJKECG","A358YR7MWC6LRH","3ZXV7Q5FJBAKJ3TNMBBLYHIS0EBCFB","","<img src=""img/set1/S4.jpg"" width=""540"" height = ""360"" style=""border:16px solid orange"">","null","","","","","","","","","",""
"null","","html-keyboard-response","132","144459","0.0-132.0","3DL65MZB8E1UZ9RLI2WH5ITEWJKECG","A358YR7MWC6LRH","3ZXV7Q5FJBAKJ3TNMBBLYHIS0EBCFB","","","null","","","","","","","","","",""
"936.6999999284744","","image-keyboard-response","133","145398","0.0-133.0","3DL65MZB8E1UZ9RLI2WH5ITEWJKECG","A358YR7MWC6LRH","3ZXV7Q5FJBAKJ3TNMBBLYHIS0EBCFB","","img/set1/S2.jpg","68","2","structured_load","68","structured_load,random,structured_incentive,structured_normal","4,2,1,2,2,3","4,1,2,3","true","","",""
"null","","html-keyboard-response","134","145750","0.0-134.0","3DL65MZB8E1UZ9RLI2WH5ITEWJKECG","A358YR7MWC6LRH","3ZXV7Q5FJBAKJ3TNMBBLYHIS0EBCFB","","<img src=""img/set1/S2.jpg"" width=""540"" height = ""360"" style=""border:16px solid orange"">","null","","","","","","","","","",""
"null","","html-keyboard-response","135","145952","0.0-135.0","3DL65MZB8E1UZ9RLI2WH5ITEWJKECG","A358YR7MWC6LRH","3ZXV7Q5FJBAKJ3TNMBBLYHIS0EBCFB","","","null","","","","","","","","","",""
"893","","image-keyboard-response","136","146847","0.0-136.0","3DL65MZB8E1UZ9RLI2WH5ITEWJKECG","A358YR7MWC6LRH","3ZXV7Q5FJBAKJ3TNMBBLYHIS0EBCFB","","img/set1/S4.jpg","74","4","structured_load","74","structured_load,random,structured_incentive,structured_normal","4,2,1,2,2,3","4,1,2,3","true","","",""
"null","","html-keyboard-response","137","147201","0.0-137.0","3DL65MZB8E1UZ9RLI2WH5ITEWJKECG","A358YR7MWC6LRH","3ZXV7Q5FJBAKJ3TNMBBLYHIS0EBCFB","","<img src=""img/set1/S4.jpg"" width=""540"" height = ""360"" style=""border:16px solid orange"">","null","","","","","","","","","",""
"null","","html-keyboard-response","138","147403","0.0-138.0","3DL65MZB8E1UZ9RLI2WH5ITEWJKECG","A358YR7MWC6LRH","3ZXV7Q5FJBAKJ3TNMBBLYHIS0EBCFB","","","null","","","","","","","","","",""
"639.8999999761581","","image-keyboard-response","139","148044","0.0-139.0","3DL65MZB8E1UZ9RLI2WH5ITEWJKECG","A358YR7MWC6LRH","3ZXV7Q5FJBAKJ3TNMBBLYHIS0EBCFB","","img/set1/S2.jpg","68","2","structured_load","68","structured_load,random,structured_incentive,structured_normal","4,2,1,2,2,3","4,1,2,3","true","","",""
"null","","html-keyboard-response","140","148397","0.0-140.0","3DL65MZB8E1UZ9RLI2WH5ITEWJKECG","A358YR7MWC6LRH","3ZXV7Q5FJBAKJ3TNMBBLYHIS0EBCFB","","<img src=""img/set1/S2.jpg"" width=""540"" height = ""360"" style=""border:16px solid orange"">","null","","","","","","","","","",""
"null","","html-keyboard-response","141","148600","0.0-141.0","3DL65MZB8E1UZ9RLI2WH5ITEWJKECG","A358YR7MWC6LRH","3ZXV7Q5FJBAKJ3TNMBBLYHIS0EBCFB","","","null","","","","","","","","","",""
"445.39999997615814","","image-keyboard-response","142","149047","0.0-142.0","3DL65MZB8E1UZ9RLI2WH5ITEWJKECG","A358YR7MWC6LRH","3ZXV7Q5FJBAKJ3TNMBBLYHIS0EBCFB","","img/set1/S3.jpg","72","3","structured_load","72","structured_load,random,structured_incentive,structured_normal","4,2,1,2,2,3","4,1,2,3","true","","",""
"null","","html-keyboard-response","143","149401","0.0-143.0","3DL65MZB8E1UZ9RLI2WH5ITEWJKECG","A358YR7MWC6LRH","3ZXV7Q5FJBAKJ3TNMBBLYHIS0EBCFB","","<img src=""img/set1/S3.jpg"" width=""540"" height = ""360"" style=""border:16px solid orange"">","null","","","","","","","","","",""
"null","","html-keyboard-response","144","149603","0.0-144.0","3DL65MZB8E1UZ9RLI2WH5ITEWJKECG","A358YR7MWC6LRH","3ZXV7Q5FJBAKJ3TNMBBLYHIS0EBCFB","","","null","","","","","","","","","",""
"704.5","","image-keyboard-response","145","150309","0.0-145.0","3DL65MZB8E1UZ9RLI2WH5ITEWJKECG","A358YR7MWC6LRH","3ZXV7Q5FJBAKJ3TNMBBLYHIS0EBCFB","","img/set1/S2.jpg","68","2","structured_load","68","structured_load,random,structured_incentive,structured_normal","4,2,1,2,2,3","4,1,2,3","true","","",""
"null","","html-keyboard-response","146","150661","0.0-146.0","3DL65MZB8E1UZ9RLI2WH5ITEWJKECG","A358YR7MWC6LRH","3ZXV7Q5FJBAKJ3TNMBBLYHIS0EBCFB","","<img src=""img/set1/S2.jpg"" width=""540"" height = ""360"" style=""border:16px solid orange"">","null","","","","","","","","","",""
"null","","html-keyboard-response","147","150863","0.0-147.0","3DL65MZB8E1UZ9RLI2WH5ITEWJKECG","A358YR7MWC6LRH","3ZXV7Q5FJBAKJ3TNMBBLYHIS0EBCFB","","","null","","","","","","","","","",""
"524","","image-keyboard-response","148","151388","0.0-148.0","3DL65MZB8E1UZ9RLI2WH5ITEWJKECG","A358YR7MWC6LRH","3ZXV7Q5FJBAKJ3TNMBBLYHIS0EBCFB","","img/set1/S3.jpg","72","3","structured_load","72","structured_load,random,structured_incentive,structured_normal","4,2,1,2,2,3","4,1,2,3","true","","",""
"null","","html-keyboard-response","149","151740","0.0-149.0","3DL65MZB8E1UZ9RLI2WH5ITEWJKECG","A358YR7MWC6LRH","3ZXV7Q5FJBAKJ3TNMBBLYHIS0EBCFB","","<img src=""img/set1/S3.jpg"" width=""540"" height = ""360"" style=""border:16px solid orange"">","null","","","","","","","","","",""
"null","","html-keyboard-response","150","151941","0.0-150.0","3DL65MZB8E1UZ9RLI2WH5ITEWJKECG","A358YR7MWC6LRH","3ZXV7Q5FJBAKJ3TNMBBLYHIS0EBCFB","","","null","","","","","","","","","",""
"624","","image-keyboard-response","151","152568","0.0-151.0","3DL65MZB8E1UZ9RLI2WH5ITEWJKECG","A358YR7MWC6LRH","3ZXV7Q5FJBAKJ3TNMBBLYHIS0EBCFB","","img/set1/S1.jpg","83","1","structured_load","83","structured_load,random,structured_incentive,structured_normal","4,2,1,2,2,3","4,1,2,3","true","","",""
"null","","html-keyboard-response","152","152922","0.0-152.0","3DL65MZB8E1UZ9RLI2WH5ITEWJKECG","A358YR7MWC6LRH","3ZXV7Q5FJBAKJ3TNMBBLYHIS0EBCFB","","<img src=""img/set1/S1.jpg"" width=""540"" height = ""360"" style=""border:16px solid orange"">","null","","","","","","","","","",""
"null","","html-keyboard-response","153","153125","0.0-153.0","3DL65MZB8E1UZ9RLI2WH5ITEWJKECG","A358YR7MWC6LRH","3ZXV7Q5FJBAKJ3TNMBBLYHIS0EBCFB","","","null","","","","","","","","","",""
"472.3000000715256","","image-keyboard-response","154","153599","0.0-154.0","3DL65MZB8E1UZ9RLI2WH5ITEWJKECG","A358YR7MWC6LRH","3ZXV7Q5FJBAKJ3TNMBBLYHIS0EBCFB","","img/set1/S3.jpg","72","3","structured_load","72","structured_load,random,structured_incentive,structured_normal","4,2,1,2,2,3","4,1,2,3","true","","",""
"null","","html-keyboard-response","155","153955","0.0-155.0","3DL65MZB8E1UZ9RLI2WH5ITEWJKECG","A358YR7MWC6LRH","3ZXV7Q5FJBAKJ3TNMBBLYHIS0EBCFB","","<img src=""img/set1/S3.jpg"" width=""540"" height = ""360"" style=""border:16px solid orange"">","null","","","","","","","","","",""
"null","","html-keyboard-response","156","154157","0.0-156.0","3DL65MZB8E1UZ9RLI2WH5ITEWJKECG","A358YR7MWC6LRH","3ZXV7Q5FJBAKJ3TNMBBLYHIS0EBCFB","","","null","","","","","","","","","",""
"535.6000000238419","","image-keyboard-response","157","154695","0.0-157.0","3DL65MZB8E1UZ9RLI2WH5ITEWJKECG","A358YR7MWC6LRH","3ZXV7Q5FJBAKJ3TNMBBLYHIS0EBCFB","","img/set1/S4.jpg","74","4","structured_load","74","structured_load,random,structured_incentive,structured_normal","4,2,1,2,2,3","4,1,2,3","true","","",""
"null","","html-keyboard-response","158","155051","0.0-158.0","3DL65MZB8E1UZ9RLI2WH5ITEWJKECG","A358YR7MWC6LRH","3ZXV7Q5FJBAKJ3TNMBBLYHIS0EBCFB","","<img src=""img/set1/S4.jpg"" width=""540"" height = ""360"" style=""border:16px solid orange"">","null","","","","","","","","","",""
"null","","html-keyboard-response","159","155253","0.0-159.0","3DL65MZB8E1UZ9RLI2WH5ITEWJKECG","A358YR7MWC6LRH","3ZXV7Q5FJBAKJ3TNMBBLYHIS0EBCFB","","","null","","","","","","","","","",""
"510.39999997615814","","image-keyboard-response","160","155766","0.0-160.0","3DL65MZB8E1UZ9RLI2WH5ITEWJKECG","A358YR7MWC6LRH","3ZXV7Q5FJBAKJ3TNMBBLYHIS0EBCFB","","img/set1/S2.jpg","68","2","structured_load","68","structured_load,random,structured_incentive,structured_normal","4,2,1,2,2,3","4,1,2,3","true","","",""
"null","","html-keyboard-response","161","156119","0.0-161.0","3DL65MZB8E1UZ9RLI2WH5ITEWJKECG","A358YR7MWC6LRH","3ZXV7Q5FJBAKJ3TNMBBLYHIS0EBCFB","","<img src=""img/set1/S2.jpg"" width=""540"" height = ""360"" style=""border:16px solid orange"">","null","","","","","","","","","",""
"null","","html-keyboard-response","162","156321","0.0-162.0","3DL65MZB8E1UZ9RLI2WH5ITEWJKECG","A358YR7MWC6LRH","3ZXV7Q5FJBAKJ3TNMBBLYHIS0EBCFB","","","null","","","","","","","","","",""
"548.2999999523163","","image-keyboard-response","163","156871","0.0-163.0","3DL65MZB8E1UZ9RLI2WH5ITEWJKECG","A358YR7MWC6LRH","3ZXV7Q5FJBAKJ3TNMBBLYHIS0EBCFB","","img/set1/S1.jpg","83","1","structured_load","83","structured_load,random,structured_incentive,structured_normal","4,2,1,2,2,3","4,1,2,3","true","","",""
"null","","html-keyboard-response","164","157223","0.0-164.0","3DL65MZB8E1UZ9RLI2WH5ITEWJKECG","A358YR7MWC6LRH","3ZXV7Q5FJBAKJ3TNMBBLYHIS0EBCFB","","<img src=""img/set1/S1.jpg"" width=""540"" height = ""360"" style=""border:16px solid orange"">","null","","","","","","","","","",""
"null","","html-keyboard-response","165","157425","0.0-165.0","3DL65MZB8E1UZ9RLI2WH5ITEWJKECG","A358YR7MWC6LRH","3ZXV7Q5FJBAKJ3TNMBBLYHIS0EBCFB","","","null","","","","","","","","","",""
"575.2000000476837","","image-keyboard-response","166","158006","0.0-166.0","3DL65MZB8E1UZ9RLI2WH5ITEWJKECG","A358YR7MWC6LRH","3ZXV7Q5FJBAKJ3TNMBBLYHIS0EBCFB","","img/set1/S3.jpg","72","3","structured_load","72","structured_load,random,structured_incentive,structured_normal","4,2,1,2,2,3","4,1,2,3","true","","",""
"null","","html-keyboard-response","167","158361","0.0-167.0","3DL65MZB8E1UZ9RLI2WH5ITEWJKECG","A358YR7MWC6LRH","3ZXV7Q5FJBAKJ3TNMBBLYHIS0EBCFB","","<img src=""img/set1/S3.jpg"" width=""540"" height = ""360"" style=""border:16px solid orange"">","null","","","","","","","","","",""
"null","","html-keyboard-response","168","158563","0.0-168.0","3DL65MZB8E1UZ9RLI2WH5ITEWJKECG","A358YR7MWC6LRH","3ZXV7Q5FJBAKJ3TNMBBLYHIS0EBCFB","","","null","","","","","","","","","",""
"617.3999999761581","","image-keyboard-response","169","159182","0.0-169.0","3DL65MZB8E1UZ9RLI2WH5ITEWJKECG","A358YR7MWC6LRH","3ZXV7Q5FJBAKJ3TNMBBLYHIS0EBCFB","","img/set1/S1.jpg","83","1","structured_load","83","structured_load,random,structured_incentive,structured_normal","4,2,1,2,2,3","4,1,2,3","true","","",""
"null","","html-keyboard-response","170","159535","0.0-170.0","3DL65MZB8E1UZ9RLI2WH5ITEWJKECG","A358YR7MWC6LRH","3ZXV7Q5FJBAKJ3TNMBBLYHIS0EBCFB","","<img src=""img/set1/S1.jpg"" width=""540"" height = ""360"" style=""border:16px solid orange"">","null","","","","","","","","","",""
"null","","html-keyboard-response","171","159736","0.0-171.0","3DL65MZB8E1UZ9RLI2WH5ITEWJKECG","A358YR7MWC6LRH","3ZXV7Q5FJBAKJ3TNMBBLYHIS0EBCFB","","","null","","","","","","","","","",""
"595.1999999284744","","image-keyboard-response","172","160332","0.0-172.0","3DL65MZB8E1UZ9RLI2WH5ITEWJKECG","A358YR7MWC6LRH","3ZXV7Q5FJBAKJ3TNMBBLYHIS0EBCFB","","img/set1/S4.jpg","74","4","structured_load","74","structured_load,random,structured_incentive,structured_normal","4,2,1,2,2,3","4,1,2,3","true","","",""
"null","","html-keyboard-response","173","160684","0.0-173.0","3DL65MZB8E1UZ9RLI2WH5ITEWJKECG","A358YR7MWC6LRH","3ZXV7Q5FJBAKJ3TNMBBLYHIS0EBCFB","","<img src=""img/set1/S4.jpg"" width=""540"" height = ""360"" style=""border:16px solid orange"">","null","","","","","","","","","",""
"null","","html-keyboard-response","174","160887","0.0-174.0","3DL65MZB8E1UZ9RLI2WH5ITEWJKECG","A358YR7MWC6LRH","3ZXV7Q5FJBAKJ3TNMBBLYHIS0EBCFB","","","null","","","","","","","","","",""
"836.5","","image-keyboard-response","175","161726","0.0-175.0","3DL65MZB8E1UZ9RLI2WH5ITEWJKECG","A358YR7MWC6LRH","3ZXV7Q5FJBAKJ3TNMBBLYHIS0EBCFB","","img/set1/S2.jpg","68","2","structured_load","68","structured_load,random,structured_incentive,structured_normal","4,2,1,2,2,3","4,1,2,3","true","","",""
"null","","html-keyboard-response","176","162079","0.0-176.0","3DL65MZB8E1UZ9RLI2WH5ITEWJKECG","A358YR7MWC6LRH","3ZXV7Q5FJBAKJ3TNMBBLYHIS0EBCFB","","<img src=""img/set1/S2.jpg"" width=""540"" height = ""360"" style=""border:16px solid orange"">","null","","","","","","","","","",""
"null","","html-keyboard-response","177","162282","0.0-177.0","3DL65MZB8E1UZ9RLI2WH5ITEWJKECG","A358YR7MWC6LRH","3ZXV7Q5FJBAKJ3TNMBBLYHIS0EBCFB","","","null","","","","","","","","","",""
"921.2999999523163","","image-keyboard-response","178","163205","0.0-178.0","3DL65MZB8E1UZ9RLI2WH5ITEWJKECG","A358YR7MWC6LRH","3ZXV7Q5FJBAKJ3TNMBBLYHIS0EBCFB","","img/set1/S4.jpg","74","4","structured_load","74","structured_load,random,structured_incentive,structured_normal","4,2,1,2,2,3","4,1,2,3","true","","",""
"null","","html-keyboard-response","179","163558","0.0-179.0","3DL65MZB8E1UZ9RLI2WH5ITEWJKECG","A358YR7MWC6LRH","3ZXV7Q5FJBAKJ3TNMBBLYHIS0EBCFB","","<img src=""img/set1/S4.jpg"" width=""540"" height = ""360"" style=""border:16px solid orange"">","null","","","","","","","","","",""
"null","","html-keyboard-response","180","163760","0.0-180.0","3DL65MZB8E1UZ9RLI2WH5ITEWJKECG","A358YR7MWC6LRH","3ZXV7Q5FJBAKJ3TNMBBLYHIS0EBCFB","","","null","","","","","","","","","",""
"837.7999999523163","","image-keyboard-response","181","164600","0.0-181.0","3DL65MZB8E1UZ9RLI2WH5ITEWJKECG","A358YR7MWC6LRH","3ZXV7Q5FJBAKJ3TNMBBLYHIS0EBCFB","","img/set1/S2.jpg","68","2","structured_load","68","structured_load,random,structured_incentive,structured_normal","4,2,1,2,2,3","4,1,2,3","true","","",""
"null","","html-keyboard-response","182","164952","0.0-182.0","3DL65MZB8E1UZ9RLI2WH5ITEWJKECG","A358YR7MWC6LRH","3ZXV7Q5FJBAKJ3TNMBBLYHIS0EBCFB","","<img src=""img/set1/S2.jpg"" width=""540"" height = ""360"" style=""border:16px solid orange"">","null","","","","","","","","","",""
"null","","html-keyboard-response","183","165155","0.0-183.0","3DL65MZB8E1UZ9RLI2WH5ITEWJKECG","A358YR7MWC6LRH","3ZXV7Q5FJBAKJ3TNMBBLYHIS0EBCFB","","","null","","","","","","","","","",""
"1464.8999999761581","","image-keyboard-response","184","166621","0.0-184.0","3DL65MZB8E1UZ9RLI2WH5ITEWJKECG","A358YR7MWC6LRH","3ZXV7Q5FJBAKJ3TNMBBLYHIS0EBCFB","","img/set1/S4.jpg","74","4","structured_load","74","structured_load,random,structured_incentive,structured_normal","4,2,1,2,2,3","4,1,2,3","true","","",""
"null","","html-keyboard-response","185","166975","0.0-185.0","3DL65MZB8E1UZ9RLI2WH5ITEWJKECG","A358YR7MWC6LRH","3ZXV7Q5FJBAKJ3TNMBBLYHIS0EBCFB","","<img src=""img/set1/S4.jpg"" width=""540"" height = ""360"" style=""border:16px solid orange"">","null","","","","","","","","","",""
"null","","html-keyboard-response","186","167179","0.0-186.0","3DL65MZB8E1UZ9RLI2WH5ITEWJKECG","A358YR7MWC6LRH","3ZXV7Q5FJBAKJ3TNMBBLYHIS0EBCFB","","","null","","","","","","","","","",""
"617.2999999523163","","image-keyboard-response","187","167798","0.0-187.0","3DL65MZB8E1UZ9RLI2WH5ITEWJKECG","A358YR7MWC6LRH","3ZXV7Q5FJBAKJ3TNMBBLYHIS0EBCFB","","img/set1/S2.jpg","68","2","structured_load","68","structured_load,random,structured_incentive,structured_normal","4,2,1,2,2,3","4,1,2,3","true","","",""
"null","","html-keyboard-response","188","168152","0.0-188.0","3DL65MZB8E1UZ9RLI2WH5ITEWJKECG","A358YR7MWC6LRH","3ZXV7Q5FJBAKJ3TNMBBLYHIS0EBCFB","","<img src=""img/set1/S2.jpg"" width=""540"" height = ""360"" style=""border:16px solid orange"">","null","","","","","","","","","",""
"null","","html-keyboard-response","189","168354","0.0-189.0","3DL65MZB8E1UZ9RLI2WH5ITEWJKECG","A358YR7MWC6LRH","3ZXV7Q5FJBAKJ3TNMBBLYHIS0EBCFB","","","null","","","","","","","","","",""
"432.89999997615814","","image-keyboard-response","190","168788","0.0-190.0","3DL65MZB8E1UZ9RLI2WH5ITEWJKECG","A358YR7MWC6LRH","3ZXV7Q5FJBAKJ3TNMBBLYHIS0EBCFB","","img/set1/S3.jpg","72","3","structured_load","72","structured_load,random,structured_incentive,structured_normal","4,2,1,2,2,3","4,1,2,3","true","","",""
"null","","html-keyboard-response","191","169142","0.0-191.0","3DL65MZB8E1UZ9RLI2WH5ITEWJKECG","A358YR7MWC6LRH","3ZXV7Q5FJBAKJ3TNMBBLYHIS0EBCFB","","<img src=""img/set1/S3.jpg"" width=""540"" height = ""360"" style=""border:16px solid orange"">","null","","","","","","","","","",""
"null","","html-keyboard-response","192","169344","0.0-192.0","3DL65MZB8E1UZ9RLI2WH5ITEWJKECG","A358YR7MWC6LRH","3ZXV7Q5FJBAKJ3TNMBBLYHIS0EBCFB","","","null","","","","","","","","","",""
"578.4000000953674","","image-keyboard-response","193","169925","0.0-193.0","3DL65MZB8E1UZ9RLI2WH5ITEWJKECG","A358YR7MWC6LRH","3ZXV7Q5FJBAKJ3TNMBBLYHIS0EBCFB","","img/set1/S4.jpg","74","4","structured_load","74","structured_load,random,structured_incentive,structured_normal","4,2,1,2,2,3","4,1,2,3","true","","",""
"null","","html-keyboard-response","194","170278","0.0-194.0","3DL65MZB8E1UZ9RLI2WH5ITEWJKECG","A358YR7MWC6LRH","3ZXV7Q5FJBAKJ3TNMBBLYHIS0EBCFB","","<img src=""img/set1/S4.jpg"" width=""540"" height = ""360"" style=""border:16px solid orange"">","null","","","","","","","","","",""
"null","","html-keyboard-response","195","170479","0.0-195.0","3DL65MZB8E1UZ9RLI2WH5ITEWJKECG","A358YR7MWC6LRH","3ZXV7Q5FJBAKJ3TNMBBLYHIS0EBCFB","","","null","","","","","","","","","",""
"612.6000000238419","","image-keyboard-response","196","171094","0.0-196.0","3DL65MZB8E1UZ9RLI2WH5ITEWJKECG","A358YR7MWC6LRH","3ZXV7Q5FJBAKJ3TNMBBLYHIS0EBCFB","","img/set1/S2.jpg","68","2","structured_load","68","structured_load,random,structured_incentive,structured_normal","4,2,1,2,2,3","4,1,2,3","true","","",""
"null","","html-keyboard-response","197","171449","0.0-197.0","3DL65MZB8E1UZ9RLI2WH5ITEWJKECG","A358YR7MWC6LRH","3ZXV7Q5FJBAKJ3TNMBBLYHIS0EBCFB","","<img src=""img/set1/S2.jpg"" width=""540"" height = ""360"" style=""border:16px solid orange"">","null","","","","","","","","","",""
"null","","html-keyboard-response","198","171650","0.0-198.0","3DL65MZB8E1UZ9RLI2WH5ITEWJKECG","A358YR7MWC6LRH","3ZXV7Q5FJBAKJ3TNMBBLYHIS0EBCFB","","","null","","","","","","","","","",""
"603.5","","image-keyboard-response","199","172256","0.0-199.0","3DL65MZB8E1UZ9RLI2WH5ITEWJKECG","A358YR7MWC6LRH","3ZXV7Q5FJBAKJ3TNMBBLYHIS0EBCFB","","img/set1/S1.jpg","83","1","structured_load","83","structured_load,random,structured_incentive,structured_normal","4,2,1,2,2,3","4,1,2,3","true","","",""
"null","","html-keyboard-response","200","172610","0.0-200.0","3DL65MZB8E1UZ9RLI2WH5ITEWJKECG","A358YR7MWC6LRH","3ZXV7Q5FJBAKJ3TNMBBLYHIS0EBCFB","","<img src=""img/set1/S1.jpg"" width=""540"" height = ""360"" style=""border:16px solid orange"">","null","","","","","","","","","",""
"null","","html-keyboard-response","201","172812","0.0-201.0","3DL65MZB8E1UZ9RLI2WH5ITEWJKECG","A358YR7MWC6LRH","3ZXV7Q5FJBAKJ3TNMBBLYHIS0EBCFB","","","null","","","","","","","","","",""
"575.8999999761581","","image-keyboard-response","202","173389","0.0-202.0","3DL65MZB8E1UZ9RLI2WH5ITEWJKECG","A358YR7MWC6LRH","3ZXV7Q5FJBAKJ3TNMBBLYHIS0EBCFB","","img/set1/S3.jpg","68","3","structured_load","72","structured_load,random,structured_incentive,structured_normal","4,2,1,2,2,3","4,1,2,3","false","","",""
"null","","html-keyboard-response","203","173741","0.0-203.0","3DL65MZB8E1UZ9RLI2WH5ITEWJKECG","A358YR7MWC6LRH","3ZXV7Q5FJBAKJ3TNMBBLYHIS0EBCFB","","<img src=""img/set1/S3.jpg"" width=""540"" height = ""360"">","null","","","","","","","","","",""
"null","","html-keyboard-response","204","173945","0.0-204.0","3DL65MZB8E1UZ9RLI2WH5ITEWJKECG","A358YR7MWC6LRH","3ZXV7Q5FJBAKJ3TNMBBLYHIS0EBCFB","","","null","","","","","","","","","",""
"586.6000000238419","","image-keyboard-response","205","174534","0.0-205.0","3DL65MZB8E1UZ9RLI2WH5ITEWJKECG","A358YR7MWC6LRH","3ZXV7Q5FJBAKJ3TNMBBLYHIS0EBCFB","","img/set1/S1.jpg","83","1","structured_load","83","structured_load,random,structured_incentive,structured_normal","4,2,1,2,2,3","4,1,2,3","true","","",""
"null","","html-keyboard-response","206","174887","0.0-206.0","3DL65MZB8E1UZ9RLI2WH5ITEWJKECG","A358YR7MWC6LRH","3ZXV7Q5FJBAKJ3TNMBBLYHIS0EBCFB","","<img src=""img/set1/S1.jpg"" width=""540"" height = ""360"" style=""border:16px solid orange"">","null","","","","","","","","","",""
"null","","html-keyboard-response","207","175091","0.0-207.0","3DL65MZB8E1UZ9RLI2WH5ITEWJKECG","A358YR7MWC6LRH","3ZXV7Q5FJBAKJ3TNMBBLYHIS0EBCFB","","","null","","","","","","","","","",""
"433","","image-keyboard-response","208","175525","0.0-208.0","3DL65MZB8E1UZ9RLI2WH5ITEWJKECG","A358YR7MWC6LRH","3ZXV7Q5FJBAKJ3TNMBBLYHIS0EBCFB","","img/set1/S3.jpg","72","3","structured_load","72","structured_load,random,structured_incentive,structured_normal","4,2,1,2,2,3","4,1,2,3","true","","",""
"null","","html-keyboard-response","209","175878","0.0-209.0","3DL65MZB8E1UZ9RLI2WH5ITEWJKECG","A358YR7MWC6LRH","3ZXV7Q5FJBAKJ3TNMBBLYHIS0EBCFB","","<img src=""img/set1/S3.jpg"" width=""540"" height = ""360"" style=""border:16px solid orange"">","null","","","","","","","","","",""
"null","","html-keyboard-response","210","176080","0.0-210.0","3DL65MZB8E1UZ9RLI2WH5ITEWJKECG","A358YR7MWC6LRH","3ZXV7Q5FJBAKJ3TNMBBLYHIS0EBCFB","","","null","","","","","","","","","",""
"635.1000000238419","","image-keyboard-response","211","176718","0.0-211.0","3DL65MZB8E1UZ9RLI2WH5ITEWJKECG","A358YR7MWC6LRH","3ZXV7Q5FJBAKJ3TNMBBLYHIS0EBCFB","","img/set1/S4.jpg","74","4","structured_load","74","structured_load,random,structured_incentive,structured_normal","4,2,1,2,2,3","4,1,2,3","true","","",""
"null","","html-keyboard-response","212","177071","0.0-212.0","3DL65MZB8E1UZ9RLI2WH5ITEWJKECG","A358YR7MWC6LRH","3ZXV7Q5FJBAKJ3TNMBBLYHIS0EBCFB","","<img src=""img/set1/S4.jpg"" width=""540"" height = ""360"" style=""border:16px solid orange"">","null","","","","","","","","","",""
"null","","html-keyboard-response","213","177273","0.0-213.0","3DL65MZB8E1UZ9RLI2WH5ITEWJKECG","A358YR7MWC6LRH","3ZXV7Q5FJBAKJ3TNMBBLYHIS0EBCFB","","","null","","","","","","","","","",""
"625.3999999761581","","image-keyboard-response","214","177901","0.0-214.0","3DL65MZB8E1UZ9RLI2WH5ITEWJKECG","A358YR7MWC6LRH","3ZXV7Q5FJBAKJ3TNMBBLYHIS0EBCFB","","img/set1/S2.jpg","68","2","structured_load","68","structured_load,random,structured_incentive,structured_normal","4,2,1,2,2,3","4,1,2,3","true","","",""
"null","","html-keyboard-response","215","178253","0.0-215.0","3DL65MZB8E1UZ9RLI2WH5ITEWJKECG","A358YR7MWC6LRH","3ZXV7Q5FJBAKJ3TNMBBLYHIS0EBCFB","","<img src=""img/set1/S2.jpg"" width=""540"" height = ""360"" style=""border:16px solid orange"">","null","","","","","","","","","",""
"null","","html-keyboard-response","216","178454","0.0-216.0","3DL65MZB8E1UZ9RLI2WH5ITEWJKECG","A358YR7MWC6LRH","3ZXV7Q5FJBAKJ3TNMBBLYHIS0EBCFB","","","null","","","","","","","","","",""
"677.6000000238419","","image-keyboard-response","217","179134","0.0-217.0","3DL65MZB8E1UZ9RLI2WH5ITEWJKECG","A358YR7MWC6LRH","3ZXV7Q5FJBAKJ3TNMBBLYHIS0EBCFB","","img/set1/S4.jpg","74","4","structured_load","74","structured_load,random,structured_incentive,structured_normal","4,2,1,2,2,3","4,1,2,3","true","","",""
"null","","html-keyboard-response","218","179486","0.0-218.0","3DL65MZB8E1UZ9RLI2WH5ITEWJKECG","A358YR7MWC6LRH","3ZXV7Q5FJBAKJ3TNMBBLYHIS0EBCFB","","<img src=""img/set1/S4.jpg"" width=""540"" height = ""360"" style=""border:16px solid orange"">","null","","","","","","","","","",""
"null","","html-keyboard-response","219","179687","0.0-219.0","3DL65MZB8E1UZ9RLI2WH5ITEWJKECG","A358YR7MWC6LRH","3ZXV7Q5FJBAKJ3TNMBBLYHIS0EBCFB","","","null","","","","","","","","","",""
"565.2999999523163","","image-keyboard-response","220","180254","0.0-220.0","3DL65MZB8E1UZ9RLI2WH5ITEWJKECG","A358YR7MWC6LRH","3ZXV7Q5FJBAKJ3TNMBBLYHIS0EBCFB","","img/set1/S3.jpg","72","3","structured_load","72","structured_load,random,structured_incentive,structured_normal","4,2,1,2,2,3","4,1,2,3","true","","",""
"null","","html-keyboard-response","221","180606","0.0-221.0","3DL65MZB8E1UZ9RLI2WH5ITEWJKECG","A358YR7MWC6LRH","3ZXV7Q5FJBAKJ3TNMBBLYHIS0EBCFB","","<img src=""img/set1/S3.jpg"" width=""540"" height = ""360"" style=""border:16px solid orange"">","null","","","","","","","","","",""
"null","","html-keyboard-response","222","180819","0.0-222.0","3DL65MZB8E1UZ9RLI2WH5ITEWJKECG","A358YR7MWC6LRH","3ZXV7Q5FJBAKJ3TNMBBLYHIS0EBCFB","","","null","","","","","","","","","",""
"656.2999999523163","","image-keyboard-response","223","181476","0.0-223.0","3DL65MZB8E1UZ9RLI2WH5ITEWJKECG","A358YR7MWC6LRH","3ZXV7Q5FJBAKJ3TNMBBLYHIS0EBCFB","","img/set1/S4.jpg","74","4","structured_load","74","structured_load,random,structured_incentive,structured_normal","4,2,1,2,2,3","4,1,2,3","true","","",""
"null","","html-keyboard-response","224","181829","0.0-224.0","3DL65MZB8E1UZ9RLI2WH5ITEWJKECG","A358YR7MWC6LRH","3ZXV7Q5FJBAKJ3TNMBBLYHIS0EBCFB","","<img src=""img/set1/S4.jpg"" width=""540"" height = ""360"" style=""border:16px solid orange"">","null","","","","","","","","","",""
"null","","html-keyboard-response","225","182031","0.0-225.0","3DL65MZB8E1UZ9RLI2WH5ITEWJKECG","A358YR7MWC6LRH","3ZXV7Q5FJBAKJ3TNMBBLYHIS0EBCFB","","","null","","","","","","","","","",""
"509.7999999523163","","image-keyboard-response","226","182543","0.0-226.0","3DL65MZB8E1UZ9RLI2WH5ITEWJKECG","A358YR7MWC6LRH","3ZXV7Q5FJBAKJ3TNMBBLYHIS0EBCFB","","img/set1/S2.jpg","68","2","structured_load","68","structured_load,random,structured_incentive,structured_normal","4,2,1,2,2,3","4,1,2,3","true","","",""
"null","","html-keyboard-response","227","182898","0.0-227.0","3DL65MZB8E1UZ9RLI2WH5ITEWJKECG","A358YR7MWC6LRH","3ZXV7Q5FJBAKJ3TNMBBLYHIS0EBCFB","","<img src=""img/set1/S2.jpg"" width=""540"" height = ""360"" style=""border:16px solid orange"">","null","","","","","","","","","",""
"null","","html-keyboard-response","228","183100","0.0-228.0","3DL65MZB8E1UZ9RLI2WH5ITEWJKECG","A358YR7MWC6LRH","3ZXV7Q5FJBAKJ3TNMBBLYHIS0EBCFB","","","null","","","","","","","","","",""
"583","","image-keyboard-response","229","183685","0.0-229.0","3DL65MZB8E1UZ9RLI2WH5ITEWJKECG","A358YR7MWC6LRH","3ZXV7Q5FJBAKJ3TNMBBLYHIS0EBCFB","","img/set1/S4.jpg","74","4","structured_load","74","structured_load,random,structured_incentive,structured_normal","4,2,1,2,2,3","4,1,2,3","true","","",""
"null","","html-keyboard-response","230","184039","0.0-230.0","3DL65MZB8E1UZ9RLI2WH5ITEWJKECG","A358YR7MWC6LRH","3ZXV7Q5FJBAKJ3TNMBBLYHIS0EBCFB","","<img src=""img/set1/S4.jpg"" width=""540"" height = ""360"" style=""border:16px solid orange"">","null","","","","","","","","","",""
"null","","html-keyboard-response","231","184241","0.0-231.0","3DL65MZB8E1UZ9RLI2WH5ITEWJKECG","A358YR7MWC6LRH","3ZXV7Q5FJBAKJ3TNMBBLYHIS0EBCFB","","","null","","","","","","","","","",""
"595.2999999523163","","image-keyboard-response","232","184839","0.0-232.0","3DL65MZB8E1UZ9RLI2WH5ITEWJKECG","A358YR7MWC6LRH","3ZXV7Q5FJBAKJ3TNMBBLYHIS0EBCFB","","img/set1/S2.jpg","68","2","structured_load","68","structured_load,random,structured_incentive,structured_normal","4,2,1,2,2,3","4,1,2,3","true","","",""
"null","","html-keyboard-response","233","185193","0.0-233.0","3DL65MZB8E1UZ9RLI2WH5ITEWJKECG","A358YR7MWC6LRH","3ZXV7Q5FJBAKJ3TNMBBLYHIS0EBCFB","","<img src=""img/set1/S2.jpg"" width=""540"" height = ""360"" style=""border:16px solid orange"">","null","","","","","","","","","",""
"null","","html-keyboard-response","234","185396","0.0-234.0","3DL65MZB8E1UZ9RLI2WH5ITEWJKECG","A358YR7MWC6LRH","3ZXV7Q5FJBAKJ3TNMBBLYHIS0EBCFB","","","null","","","","","","","","","",""
"615","","image-keyboard-response","235","186013","0.0-235.0","3DL65MZB8E1UZ9RLI2WH5ITEWJKECG","A358YR7MWC6LRH","3ZXV7Q5FJBAKJ3TNMBBLYHIS0EBCFB","","img/set1/S1.jpg","83","1","structured_load","83","structured_load,random,structured_incentive,structured_normal","4,2,1,2,2,3","4,1,2,3","true","","",""
"null","","html-keyboard-response","236","186365","0.0-236.0","3DL65MZB8E1UZ9RLI2WH5ITEWJKECG","A358YR7MWC6LRH","3ZXV7Q5FJBAKJ3TNMBBLYHIS0EBCFB","","<img src=""img/set1/S1.jpg"" width=""540"" height = ""360"" style=""border:16px solid orange"">","null","","","","","","","","","",""
"null","","html-keyboard-response","237","186568","0.0-237.0","3DL65MZB8E1UZ9RLI2WH5ITEWJKECG","A358YR7MWC6LRH","3ZXV7Q5FJBAKJ3TNMBBLYHIS0EBCFB","","","null","","","","","","","","","",""
"634.8999999761581","","image-keyboard-response","238","187206","0.0-238.0","3DL65MZB8E1UZ9RLI2WH5ITEWJKECG","A358YR7MWC6LRH","3ZXV7Q5FJBAKJ3TNMBBLYHIS0EBCFB","","img/set1/S1.jpg","83","1","structured_load","83","structured_load,random,structured_incentive,structured_normal","4,2,1,2,2,3","4,1,2,3","true","","",""
"null","","html-keyboard-response","239","187559","0.0-239.0","3DL65MZB8E1UZ9RLI2WH5ITEWJKECG","A358YR7MWC6LRH","3ZXV7Q5FJBAKJ3TNMBBLYHIS0EBCFB","","<img src=""img/set1/S1.jpg"" width=""540"" height = ""360"" style=""border:16px solid orange"">","null","","","","","","","","","",""
"null","","html-keyboard-response","240","187762","0.0-240.0","3DL65MZB8E1UZ9RLI2WH5ITEWJKECG","A358YR7MWC6LRH","3ZXV7Q5FJBAKJ3TNMBBLYHIS0EBCFB","","","null","","","","","","","","","",""
"588.1999999284744","","image-keyboard-response","241","188352","0.0-241.0","3DL65MZB8E1UZ9RLI2WH5ITEWJKECG","A358YR7MWC6LRH","3ZXV7Q5FJBAKJ3TNMBBLYHIS0EBCFB","","img/set1/S3.jpg","72","3","structured_load","72","structured_load,random,structured_incentive,structured_normal","4,2,1,2,2,3","4,1,2,3","true","","",""
"null","","html-keyboard-response","242","188705","0.0-242.0","3DL65MZB8E1UZ9RLI2WH5ITEWJKECG","A358YR7MWC6LRH","3ZXV7Q5FJBAKJ3TNMBBLYHIS0EBCFB","","<img src=""img/set1/S3.jpg"" width=""540"" height = ""360"" style=""border:16px solid orange"">","null","","","","","","","","","",""
"null","","html-keyboard-response","243","188909","0.0-243.0","3DL65MZB8E1UZ9RLI2WH5ITEWJKECG","A358YR7MWC6LRH","3ZXV7Q5FJBAKJ3TNMBBLYHIS0EBCFB","","","null","","","","","","","","","",""
"626.6000000238419","","image-keyboard-response","244","189540","0.0-244.0","3DL65MZB8E1UZ9RLI2WH5ITEWJKECG","A358YR7MWC6LRH","3ZXV7Q5FJBAKJ3TNMBBLYHIS0EBCFB","","img/set1/S1.jpg","83","1","structured_load","83","structured_load,random,structured_incentive,structured_normal","4,2,1,2,2,3","4,1,2,3","true","","",""
"null","","html-keyboard-response","245","189894","0.0-245.0","3DL65MZB8E1UZ9RLI2WH5ITEWJKECG","A358YR7MWC6LRH","3ZXV7Q5FJBAKJ3TNMBBLYHIS0EBCFB","","<img src=""img/set1/S1.jpg"" width=""540"" height = ""360"" style=""border:16px solid orange"">","null","","","","","","","","","",""
"null","","html-keyboard-response","246","190096","0.0-246.0","3DL65MZB8E1UZ9RLI2WH5ITEWJKECG","A358YR7MWC6LRH","3ZXV7Q5FJBAKJ3TNMBBLYHIS0EBCFB","","","null","","","","","","","","","",""
"555.3999999761581","","image-keyboard-response","247","190654","0.0-247.0","3DL65MZB8E1UZ9RLI2WH5ITEWJKECG","A358YR7MWC6LRH","3ZXV7Q5FJBAKJ3TNMBBLYHIS0EBCFB","","img/set1/S4.jpg","74","4","structured_load","74","structured_load,random,structured_incentive,structured_normal","4,2,1,2,2,3","4,1,2,3","true","","",""
"null","","html-keyboard-response","248","191008","0.0-248.0","3DL65MZB8E1UZ9RLI2WH5ITEWJKECG","A358YR7MWC6LRH","3ZXV7Q5FJBAKJ3TNMBBLYHIS0EBCFB","","<img src=""img/set1/S4.jpg"" width=""540"" height = ""360"" style=""border:16px solid orange"">","null","","","","","","","","","",""
"null","","html-keyboard-response","249","191210","0.0-249.0","3DL65MZB8E1UZ9RLI2WH5ITEWJKECG","A358YR7MWC6LRH","3ZXV7Q5FJBAKJ3TNMBBLYHIS0EBCFB","","","null","","","","","","","","","",""
"601.3999999761581","","image-keyboard-response","250","191812","0.0-250.0","3DL65MZB8E1UZ9RLI2WH5ITEWJKECG","A358YR7MWC6LRH","3ZXV7Q5FJBAKJ3TNMBBLYHIS0EBCFB","","img/set1/S2.jpg","68","2","structured_load","68","structured_load,random,structured_incentive,structured_normal","4,2,1,2,2,3","4,1,2,3","true","","",""
"null","","html-keyboard-response","251","192164","0.0-251.0","3DL65MZB8E1UZ9RLI2WH5ITEWJKECG","A358YR7MWC6LRH","3ZXV7Q5FJBAKJ3TNMBBLYHIS0EBCFB","","<img src=""img/set1/S2.jpg"" width=""540"" height = ""360"" style=""border:16px solid orange"">","null","","","","","","","","","",""
"null","","html-keyboard-response","252","192366","0.0-252.0","3DL65MZB8E1UZ9RLI2WH5ITEWJKECG","A358YR7MWC6LRH","3ZXV7Q5FJBAKJ3TNMBBLYHIS0EBCFB","","","null","","","","","","","","","",""
"741.3999999761581","","image-keyboard-response","253","193108","0.0-253.0","3DL65MZB8E1UZ9RLI2WH5ITEWJKECG","A358YR7MWC6LRH","3ZXV7Q5FJBAKJ3TNMBBLYHIS0EBCFB","","img/set1/S3.jpg","72","3","structured_load","72","structured_load,random,structured_incentive,structured_normal","4,2,1,2,2,3","4,1,2,3","true","","",""
"null","","html-keyboard-response","254","193460","0.0-254.0","3DL65MZB8E1UZ9RLI2WH5ITEWJKECG","A358YR7MWC6LRH","3ZXV7Q5FJBAKJ3TNMBBLYHIS0EBCFB","","<img src=""img/set1/S3.jpg"" width=""540"" height = ""360"" style=""border:16px solid orange"">","null","","","","","","","","","",""
"null","","html-keyboard-response","255","193663","0.0-255.0","3DL65MZB8E1UZ9RLI2WH5ITEWJKECG","A358YR7MWC6LRH","3ZXV7Q5FJBAKJ3TNMBBLYHIS0EBCFB","","","null","","","","","","","","","",""
"555","","image-keyboard-response","256","194220","0.0-256.0","3DL65MZB8E1UZ9RLI2WH5ITEWJKECG","A358YR7MWC6LRH","3ZXV7Q5FJBAKJ3TNMBBLYHIS0EBCFB","","img/set1/S1.jpg","83","1","structured_load","83","structured_load,random,structured_incentive,structured_normal","4,2,1,2,2,3","4,1,2,3","true","","",""
"null","","html-keyboard-response","257","194572","0.0-257.0","3DL65MZB8E1UZ9RLI2WH5ITEWJKECG","A358YR7MWC6LRH","3ZXV7Q5FJBAKJ3TNMBBLYHIS0EBCFB","","<img src=""img/set1/S1.jpg"" width=""540"" height = ""360"" style=""border:16px solid orange"">","null","","","","","","","","","",""
"null","","html-keyboard-response","258","194774","0.0-258.0","3DL65MZB8E1UZ9RLI2WH5ITEWJKECG","A358YR7MWC6LRH","3ZXV7Q5FJBAKJ3TNMBBLYHIS0EBCFB","","","null","","","","","","","","","",""
"444.7999999523163","","image-keyboard-response","259","195221","0.0-259.0","3DL65MZB8E1UZ9RLI2WH5ITEWJKECG","A358YR7MWC6LRH","3ZXV7Q5FJBAKJ3TNMBBLYHIS0EBCFB","","img/set1/S1.jpg","83","1","structured_load","83","structured_load,random,structured_incentive,structured_normal","4,2,1,2,2,3","4,1,2,3","true","","",""
"null","","html-keyboard-response","260","195575","0.0-260.0","3DL65MZB8E1UZ9RLI2WH5ITEWJKECG","A358YR7MWC6LRH","3ZXV7Q5FJBAKJ3TNMBBLYHIS0EBCFB","","<img src=""img/set1/S1.jpg"" width=""540"" height = ""360"" style=""border:16px solid orange"">","null","","","","","","","","","",""
"null","","html-keyboard-response","261","195778","0.0-261.0","3DL65MZB8E1UZ9RLI2WH5ITEWJKECG","A358YR7MWC6LRH","3ZXV7Q5FJBAKJ3TNMBBLYHIS0EBCFB","","","null","","","","","","","","","",""
"424.2000000476837","","image-keyboard-response","262","196204","0.0-262.0","3DL65MZB8E1UZ9RLI2WH5ITEWJKECG","A358YR7MWC6LRH","3ZXV7Q5FJBAKJ3TNMBBLYHIS0EBCFB","","img/set1/S1.jpg","83","1","structured_load","83","structured_load,random,structured_incentive,structured_normal","4,2,1,2,2,3","4,1,2,3","true","","",""
"null","","html-keyboard-response","263","196557","0.0-263.0","3DL65MZB8E1UZ9RLI2WH5ITEWJKECG","A358YR7MWC6LRH","3ZXV7Q5FJBAKJ3TNMBBLYHIS0EBCFB","","<img src=""img/set1/S1.jpg"" width=""540"" height = ""360"" style=""border:16px solid orange"">","null","","","","","","","","","",""
"null","","html-keyboard-response","264","196759","0.0-264.0","3DL65MZB8E1UZ9RLI2WH5ITEWJKECG","A358YR7MWC6LRH","3ZXV7Q5FJBAKJ3TNMBBLYHIS0EBCFB","","","null","","","","","","","","","",""
"365.8000000715256","","image-keyboard-response","265","197127","0.0-265.0","3DL65MZB8E1UZ9RLI2WH5ITEWJKECG","A358YR7MWC6LRH","3ZXV7Q5FJBAKJ3TNMBBLYHIS0EBCFB","","img/set1/S1.jpg","83","1","structured_load","83","structured_load,random,structured_incentive,structured_normal","4,2,1,2,2,3","4,1,2,3","true","","",""
"null","","html-keyboard-response","266","197482","0.0-266.0","3DL65MZB8E1UZ9RLI2WH5ITEWJKECG","A358YR7MWC6LRH","3ZXV7Q5FJBAKJ3TNMBBLYHIS0EBCFB","","<img src=""img/set1/S1.jpg"" width=""540"" height = ""360"" style=""border:16px solid orange"">","null","","","","","","","","","",""
"null","","html-keyboard-response","267","197684","0.0-267.0","3DL65MZB8E1UZ9RLI2WH5ITEWJKECG","A358YR7MWC6LRH","3ZXV7Q5FJBAKJ3TNMBBLYHIS0EBCFB","","","null","","","","","","","","","",""
"623.3999999761581","","image-keyboard-response","268","198309","0.0-268.0","3DL65MZB8E1UZ9RLI2WH5ITEWJKECG","A358YR7MWC6LRH","3ZXV7Q5FJBAKJ3TNMBBLYHIS0EBCFB","","img/set1/S4.jpg","74","4","structured_load","74","structured_load,random,structured_incentive,structured_normal","4,2,1,2,2,3","4,1,2,3","true","","",""
"null","","html-keyboard-response","269","198662","0.0-269.0","3DL65MZB8E1UZ9RLI2WH5ITEWJKECG","A358YR7MWC6LRH","3ZXV7Q5FJBAKJ3TNMBBLYHIS0EBCFB","","<img src=""img/set1/S4.jpg"" width=""540"" height = ""360"" style=""border:16px solid orange"">","null","","","","","","","","","",""
"null","","html-keyboard-response","270","198864","0.0-270.0","3DL65MZB8E1UZ9RLI2WH5ITEWJKECG","A358YR7MWC6LRH","3ZXV7Q5FJBAKJ3TNMBBLYHIS0EBCFB","","","null","","","","","","","","","",""
"794.8999999761581","","image-keyboard-response","271","199661","0.0-271.0","3DL65MZB8E1UZ9RLI2WH5ITEWJKECG","A358YR7MWC6LRH","3ZXV7Q5FJBAKJ3TNMBBLYHIS0EBCFB","","img/set1/S2.jpg","68","2","structured_load","68","structured_load,random,structured_incentive,structured_normal","4,2,1,2,2,3","4,1,2,3","true","","",""
"null","","html-keyboard-response","272","200015","0.0-272.0","3DL65MZB8E1UZ9RLI2WH5ITEWJKECG","A358YR7MWC6LRH","3ZXV7Q5FJBAKJ3TNMBBLYHIS0EBCFB","","<img src=""img/set1/S2.jpg"" width=""540"" height = ""360"" style=""border:16px solid orange"">","null","","","","","","","","","",""
"null","","html-keyboard-response","273","200218","0.0-273.0","3DL65MZB8E1UZ9RLI2WH5ITEWJKECG","A358YR7MWC6LRH","3ZXV7Q5FJBAKJ3TNMBBLYHIS0EBCFB","","","null","","","","","","","","","",""
"538.5999999046326","","image-keyboard-response","274","200759","0.0-274.0","3DL65MZB8E1UZ9RLI2WH5ITEWJKECG","A358YR7MWC6LRH","3ZXV7Q5FJBAKJ3TNMBBLYHIS0EBCFB","","img/set1/S1.jpg","83","1","structured_load","83","structured_load,random,structured_incentive,structured_normal","4,2,1,2,2,3","4,1,2,3","true","","",""
"null","","html-keyboard-response","275","201113","0.0-275.0","3DL65MZB8E1UZ9RLI2WH5ITEWJKECG","A358YR7MWC6LRH","3ZXV7Q5FJBAKJ3TNMBBLYHIS0EBCFB","","<img src=""img/set1/S1.jpg"" width=""540"" height = ""360"" style=""border:16px solid orange"">","null","","","","","","","","","",""
"null","","html-keyboard-response","276","201324","0.0-276.0","3DL65MZB8E1UZ9RLI2WH5ITEWJKECG","A358YR7MWC6LRH","3ZXV7Q5FJBAKJ3TNMBBLYHIS0EBCFB","","","null","","","","","","","","","",""
"560.1000000238419","","image-keyboard-response","277","201887","0.0-277.0","3DL65MZB8E1UZ9RLI2WH5ITEWJKECG","A358YR7MWC6LRH","3ZXV7Q5FJBAKJ3TNMBBLYHIS0EBCFB","","img/set1/S4.jpg","74","4","structured_load","74","structured_load,random,structured_incentive,structured_normal","4,2,1,2,2,3","4,1,2,3","true","","",""
"null","","html-keyboard-response","278","202241","0.0-278.0","3DL65MZB8E1UZ9RLI2WH5ITEWJKECG","A358YR7MWC6LRH","3ZXV7Q5FJBAKJ3TNMBBLYHIS0EBCFB","","<img src=""img/set1/S4.jpg"" width=""540"" height = ""360"" style=""border:16px solid orange"">","null","","","","","","","","","",""
"null","","html-keyboard-response","279","202442","0.0-279.0","3DL65MZB8E1UZ9RLI2WH5ITEWJKECG","A358YR7MWC6LRH","3ZXV7Q5FJBAKJ3TNMBBLYHIS0EBCFB","","","null","","","","","","","","","",""
"649.6000000238419","","image-keyboard-response","280","203093","0.0-280.0","3DL65MZB8E1UZ9RLI2WH5ITEWJKECG","A358YR7MWC6LRH","3ZXV7Q5FJBAKJ3TNMBBLYHIS0EBCFB","","img/set1/S2.jpg","68","2","structured_load","68","structured_load,random,structured_incentive,structured_normal","4,2,1,2,2,3","4,1,2,3","true","","",""
"null","","html-keyboard-response","281","203446","0.0-281.0","3DL65MZB8E1UZ9RLI2WH5ITEWJKECG","A358YR7MWC6LRH","3ZXV7Q5FJBAKJ3TNMBBLYHIS0EBCFB","","<img src=""img/set1/S2.jpg"" width=""540"" height = ""360"" style=""border:16px solid orange"">","null","","","","","","","","","",""
"null","","html-keyboard-response","282","203651","0.0-282.0","3DL65MZB8E1UZ9RLI2WH5ITEWJKECG","A358YR7MWC6LRH","3ZXV7Q5FJBAKJ3TNMBBLYHIS0EBCFB","","","null","","","","","","","","","",""
"735.7999999523163","","image-keyboard-response","283","204389","0.0-283.0","3DL65MZB8E1UZ9RLI2WH5ITEWJKECG","A358YR7MWC6LRH","3ZXV7Q5FJBAKJ3TNMBBLYHIS0EBCFB","","img/set1/S3.jpg","72","3","structured_load","72","structured_load,random,structured_incentive,structured_normal","4,2,1,2,2,3","4,1,2,3","true","","",""
"null","","html-keyboard-response","284","204741","0.0-284.0","3DL65MZB8E1UZ9RLI2WH5ITEWJKECG","A358YR7MWC6LRH","3ZXV7Q5FJBAKJ3TNMBBLYHIS0EBCFB","","<img src=""img/set1/S3.jpg"" width=""540"" height = ""360"" style=""border:16px solid orange"">","null","","","","","","","","","",""
"null","","html-keyboard-response","285","204943","0.0-285.0","3DL65MZB8E1UZ9RLI2WH5ITEWJKECG","A358YR7MWC6LRH","3ZXV7Q5FJBAKJ3TNMBBLYHIS0EBCFB","","","null","","","","","","","","","",""
"540.8999999761581","","image-keyboard-response","286","205486","0.0-286.0","3DL65MZB8E1UZ9RLI2WH5ITEWJKECG","A358YR7MWC6LRH","3ZXV7Q5FJBAKJ3TNMBBLYHIS0EBCFB","","img/set1/S4.jpg","74","4","structured_load","74","structured_load,random,structured_incentive,structured_normal","4,2,1,2,2,3","4,1,2,3","true","","",""
"null","","html-keyboard-response","287","205841","0.0-287.0","3DL65MZB8E1UZ9RLI2WH5ITEWJKECG","A358YR7MWC6LRH","3ZXV7Q5FJBAKJ3TNMBBLYHIS0EBCFB","","<img src=""img/set1/S4.jpg"" width=""540"" height = ""360"" style=""border:16px solid orange"">","null","","","","","","","","","",""
"null","","html-keyboard-response","288","206053","0.0-288.0","3DL65MZB8E1UZ9RLI2WH5ITEWJKECG","A358YR7MWC6LRH","3ZXV7Q5FJBAKJ3TNMBBLYHIS0EBCFB","","","null","","","","","","","","","",""
"614.1000000238419","","image-keyboard-response","289","206669","0.0-289.0","3DL65MZB8E1UZ9RLI2WH5ITEWJKECG","A358YR7MWC6LRH","3ZXV7Q5FJBAKJ3TNMBBLYHIS0EBCFB","","img/set1/S3.jpg","68","3","structured_load","72","structured_load,random,structured_incentive,structured_normal","4,2,1,2,2,3","4,1,2,3","false","","",""
"null","","html-keyboard-response","290","207025","0.0-290.0","3DL65MZB8E1UZ9RLI2WH5ITEWJKECG","A358YR7MWC6LRH","3ZXV7Q5FJBAKJ3TNMBBLYHIS0EBCFB","","<img src=""img/set1/S3.jpg"" width=""540"" height = ""360"">","null","","","","","","","","","",""
"null","","html-keyboard-response","291","207227","0.0-291.0","3DL65MZB8E1UZ9RLI2WH5ITEWJKECG","A358YR7MWC6LRH","3ZXV7Q5FJBAKJ3TNMBBLYHIS0EBCFB","","","null","","","","","","","","","",""
"623.2999999523163","","image-keyboard-response","292","207852","0.0-292.0","3DL65MZB8E1UZ9RLI2WH5ITEWJKECG","A358YR7MWC6LRH","3ZXV7Q5FJBAKJ3TNMBBLYHIS0EBCFB","","img/set1/S1.jpg","83","1","structured_load","83","structured_load,random,structured_incentive,structured_normal","4,2,1,2,2,3","4,1,2,3","true","","",""
"null","","html-keyboard-response","293","208205","0.0-293.0","3DL65MZB8E1UZ9RLI2WH5ITEWJKECG","A358YR7MWC6LRH","3ZXV7Q5FJBAKJ3TNMBBLYHIS0EBCFB","","<img src=""img/set1/S1.jpg"" width=""540"" height = ""360"" style=""border:16px solid orange"">","null","","","","","","","","","",""
"null","","html-keyboard-response","294","208407","0.0-294.0","3DL65MZB8E1UZ9RLI2WH5ITEWJKECG","A358YR7MWC6LRH","3ZXV7Q5FJBAKJ3TNMBBLYHIS0EBCFB","","","null","","","","","","","","","",""
"483.6999999284744","","image-keyboard-response","295","208892","0.0-295.0","3DL65MZB8E1UZ9RLI2WH5ITEWJKECG","A358YR7MWC6LRH","3ZXV7Q5FJBAKJ3TNMBBLYHIS0EBCFB","","img/set1/S1.jpg","83","1","structured_load","83","structured_load,random,structured_incentive,structured_normal","4,2,1,2,2,3","4,1,2,3","true","","",""
"null","","html-keyboard-response","296","209244","0.0-296.0","3DL65MZB8E1UZ9RLI2WH5ITEWJKECG","A358YR7MWC6LRH","3ZXV7Q5FJBAKJ3TNMBBLYHIS0EBCFB","","<img src=""img/set1/S1.jpg"" width=""540"" height = ""360"" style=""border:16px solid orange"">","null","","","","","","","","","",""
"null","","html-keyboard-response","297","209446","0.0-297.0","3DL65MZB8E1UZ9RLI2WH5ITEWJKECG","A358YR7MWC6LRH","3ZXV7Q5FJBAKJ3TNMBBLYHIS0EBCFB","","","null","","","","","","","","","",""
"442","","image-keyboard-response","298","209892","0.0-298.0","3DL65MZB8E1UZ9RLI2WH5ITEWJKECG","A358YR7MWC6LRH","3ZXV7Q5FJBAKJ3TNMBBLYHIS0EBCFB","","img/set1/S1.jpg","83","1","structured_load","83","structured_load,random,structured_incentive,structured_normal","4,2,1,2,2,3","4,1,2,3","true","","",""
"null","","html-keyboard-response","299","210244","0.0-299.0","3DL65MZB8E1UZ9RLI2WH5ITEWJKECG","A358YR7MWC6LRH","3ZXV7Q5FJBAKJ3TNMBBLYHIS0EBCFB","","<img src=""img/set1/S1.jpg"" width=""540"" height = ""360"" style=""border:16px solid orange"">","null","","","","","","","","","",""
"null","","html-keyboard-response","300","210447","0.0-300.0","3DL65MZB8E1UZ9RLI2WH5ITEWJKECG","A358YR7MWC6LRH","3ZXV7Q5FJBAKJ3TNMBBLYHIS0EBCFB","","","null","","","","","","","","","",""
"532.3999999761581","","image-keyboard-response","301","210981","0.0-301.0","3DL65MZB8E1UZ9RLI2WH5ITEWJKECG","A358YR7MWC6LRH","3ZXV7Q5FJBAKJ3TNMBBLYHIS0EBCFB","","img/set1/S1.jpg","83","1","structured_load","83","structured_load,random,structured_incentive,structured_normal","4,2,1,2,2,3","4,1,2,3","true","","",""
"null","","html-keyboard-response","302","211334","0.0-302.0","3DL65MZB8E1UZ9RLI2WH5ITEWJKECG","A358YR7MWC6LRH","3ZXV7Q5FJBAKJ3TNMBBLYHIS0EBCFB","","<img src=""img/set1/S1.jpg"" width=""540"" height = ""360"" style=""border:16px solid orange"">","null","","","","","","","","","",""
"null","","html-keyboard-response","303","211536","0.0-303.0","3DL65MZB8E1UZ9RLI2WH5ITEWJKECG","A358YR7MWC6LRH","3ZXV7Q5FJBAKJ3TNMBBLYHIS0EBCFB","","","null","","","","","","","","","",""
"923.8000000715256","","image-keyboard-response","304","212461","0.0-304.0","3DL65MZB8E1UZ9RLI2WH5ITEWJKECG","A358YR7MWC6LRH","3ZXV7Q5FJBAKJ3TNMBBLYHIS0EBCFB","","img/set1/S4.jpg","74","4","structured_load","74","structured_load,random,structured_incentive,structured_normal","4,2,1,2,2,3","4,1,2,3","true","","",""
"null","","html-keyboard-response","305","212814","0.0-305.0","3DL65MZB8E1UZ9RLI2WH5ITEWJKECG","A358YR7MWC6LRH","3ZXV7Q5FJBAKJ3TNMBBLYHIS0EBCFB","","<img src=""img/set1/S4.jpg"" width=""540"" height = ""360"" style=""border:16px solid orange"">","null","","","","","","","","","",""
"null","","html-keyboard-response","306","213015","0.0-306.0","3DL65MZB8E1UZ9RLI2WH5ITEWJKECG","A358YR7MWC6LRH","3ZXV7Q5FJBAKJ3TNMBBLYHIS0EBCFB","","","null","","","","","","","","","",""
"1395.3000000715256","","image-keyboard-response","307","214412","0.0-307.0","3DL65MZB8E1UZ9RLI2WH5ITEWJKECG","A358YR7MWC6LRH","3ZXV7Q5FJBAKJ3TNMBBLYHIS0EBCFB","","img/set1/S2.jpg","68","2","structured_load","68","structured_load,random,structured_incentive,structured_normal","4,2,1,2,2,3","4,1,2,3","true","","",""
"null","","html-keyboard-response","308","214764","0.0-308.0","3DL65MZB8E1UZ9RLI2WH5ITEWJKECG","A358YR7MWC6LRH","3ZXV7Q5FJBAKJ3TNMBBLYHIS0EBCFB","","<img src=""img/set1/S2.jpg"" width=""540"" height = ""360"" style=""border:16px solid orange"">","null","","","","","","","","","",""
"null","","html-keyboard-response","309","214966","0.0-309.0","3DL65MZB8E1UZ9RLI2WH5ITEWJKECG","A358YR7MWC6LRH","3ZXV7Q5FJBAKJ3TNMBBLYHIS0EBCFB","","","null","","","","","","","","","",""
"664.7999999523163","","image-keyboard-response","310","215633","0.0-310.0","3DL65MZB8E1UZ9RLI2WH5ITEWJKECG","A358YR7MWC6LRH","3ZXV7Q5FJBAKJ3TNMBBLYHIS0EBCFB","","img/set1/S1.jpg","83","1","structured_load","83","structured_load,random,structured_incentive,structured_normal","4,2,1,2,2,3","4,1,2,3","true","","",""
"null","","html-keyboard-response","311","215987","0.0-311.0","3DL65MZB8E1UZ9RLI2WH5ITEWJKECG","A358YR7MWC6LRH","3ZXV7Q5FJBAKJ3TNMBBLYHIS0EBCFB","","<img src=""img/set1/S1.jpg"" width=""540"" height = ""360"" style=""border:16px solid orange"">","null","","","","","","","","","",""
"null","","html-keyboard-response","312","216189","0.0-312.0","3DL65MZB8E1UZ9RLI2WH5ITEWJKECG","A358YR7MWC6LRH","3ZXV7Q5FJBAKJ3TNMBBLYHIS0EBCFB","","","null","","","","","","","","","",""
"694.2000000476837","","image-keyboard-response","313","216884","0.0-313.0","3DL65MZB8E1UZ9RLI2WH5ITEWJKECG","A358YR7MWC6LRH","3ZXV7Q5FJBAKJ3TNMBBLYHIS0EBCFB","","img/set1/S4.jpg","74","4","structured_load","74","structured_load,random,structured_incentive,structured_normal","4,2,1,2,2,3","4,1,2,3","true","","",""
"null","","html-keyboard-response","314","217237","0.0-314.0","3DL65MZB8E1UZ9RLI2WH5ITEWJKECG","A358YR7MWC6LRH","3ZXV7Q5FJBAKJ3TNMBBLYHIS0EBCFB","","<img src=""img/set1/S4.jpg"" width=""540"" height = ""360"" style=""border:16px solid orange"">","null","","","","","","","","","",""
"null","","html-keyboard-response","315","217438","0.0-315.0","3DL65MZB8E1UZ9RLI2WH5ITEWJKECG","A358YR7MWC6LRH","3ZXV7Q5FJBAKJ3TNMBBLYHIS0EBCFB","","","null","","","","","","","","","",""
"534.2000000476837","","image-keyboard-response","316","217974","0.0-316.0","3DL65MZB8E1UZ9RLI2WH5ITEWJKECG","A358YR7MWC6LRH","3ZXV7Q5FJBAKJ3TNMBBLYHIS0EBCFB","","img/set1/S2.jpg","68","2","structured_load","68","structured_load,random,structured_incentive,structured_normal","4,2,1,2,2,3","4,1,2,3","true","","",""
"null","","html-keyboard-response","317","218327","0.0-317.0","3DL65MZB8E1UZ9RLI2WH5ITEWJKECG","A358YR7MWC6LRH","3ZXV7Q5FJBAKJ3TNMBBLYHIS0EBCFB","","<img src=""img/set1/S2.jpg"" width=""540"" height = ""360"" style=""border:16px solid orange"">","null","","","","","","","","","",""
"null","","html-keyboard-response","318","218529","0.0-318.0","3DL65MZB8E1UZ9RLI2WH5ITEWJKECG","A358YR7MWC6LRH","3ZXV7Q5FJBAKJ3TNMBBLYHIS0EBCFB","","","null","","","","","","","","","",""
"745.2000000476837","","image-keyboard-response","319","219278","0.0-319.0","3DL65MZB8E1UZ9RLI2WH5ITEWJKECG","A358YR7MWC6LRH","3ZXV7Q5FJBAKJ3TNMBBLYHIS0EBCFB","","img/set1/S3.jpg","72","3","structured_load","72","structured_load,random,structured_incentive,structured_normal","4,2,1,2,2,3","4,1,2,3","true","","",""
"null","","html-keyboard-response","320","219633","0.0-320.0","3DL65MZB8E1UZ9RLI2WH5ITEWJKECG","A358YR7MWC6LRH","3ZXV7Q5FJBAKJ3TNMBBLYHIS0EBCFB","","<img src=""img/set1/S3.jpg"" width=""540"" height = ""360"" style=""border:16px solid orange"">","null","","","","","","","","","",""
"null","","html-keyboard-response","321","219835","0.0-321.0","3DL65MZB8E1UZ9RLI2WH5ITEWJKECG","A358YR7MWC6LRH","3ZXV7Q5FJBAKJ3TNMBBLYHIS0EBCFB","","","null","","","","","","","","","",""
"464.39999997615814","","image-keyboard-response","322","220300","0.0-322.0","3DL65MZB8E1UZ9RLI2WH5ITEWJKECG","A358YR7MWC6LRH","3ZXV7Q5FJBAKJ3TNMBBLYHIS0EBCFB","","img/set1/S1.jpg","83","1","structured_load","83","structured_load,random,structured_incentive,structured_normal","4,2,1,2,2,3","4,1,2,3","true","","",""
"null","","html-keyboard-response","323","220653","0.0-323.0","3DL65MZB8E1UZ9RLI2WH5ITEWJKECG","A358YR7MWC6LRH","3ZXV7Q5FJBAKJ3TNMBBLYHIS0EBCFB","","<img src=""img/set1/S1.jpg"" width=""540"" height = ""360"" style=""border:16px solid orange"">","null","","","","","","","","","",""
"null","","html-keyboard-response","324","220855","0.0-324.0","3DL65MZB8E1UZ9RLI2WH5ITEWJKECG","A358YR7MWC6LRH","3ZXV7Q5FJBAKJ3TNMBBLYHIS0EBCFB","","","null","","","","","","","","","",""
"619.8999999761581","","image-keyboard-response","325","221476","0.0-325.0","3DL65MZB8E1UZ9RLI2WH5ITEWJKECG","A358YR7MWC6LRH","3ZXV7Q5FJBAKJ3TNMBBLYHIS0EBCFB","","img/set1/S1.jpg","83","1","structured_load","83","structured_load,random,structured_incentive,structured_normal","4,2,1,2,2,3","4,1,2,3","true","","",""
"null","","html-keyboard-response","326","221829","0.0-326.0","3DL65MZB8E1UZ9RLI2WH5ITEWJKECG","A358YR7MWC6LRH","3ZXV7Q5FJBAKJ3TNMBBLYHIS0EBCFB","","<img src=""img/set1/S1.jpg"" width=""540"" height = ""360"" style=""border:16px solid orange"">","null","","","","","","","","","",""
"null","","html-keyboard-response","327","222031","0.0-327.0","3DL65MZB8E1UZ9RLI2WH5ITEWJKECG","A358YR7MWC6LRH","3ZXV7Q5FJBAKJ3TNMBBLYHIS0EBCFB","","","null","","","","","","","","","",""
"821.1000000238419","","image-keyboard-response","328","222853","0.0-328.0","3DL65MZB8E1UZ9RLI2WH5ITEWJKECG","A358YR7MWC6LRH","3ZXV7Q5FJBAKJ3TNMBBLYHIS0EBCFB","","img/set1/S3.jpg","72","3","structured_load","72","structured_load,random,structured_incentive,structured_normal","4,2,1,2,2,3","4,1,2,3","true","","",""
"null","","html-keyboard-response","329","223207","0.0-329.0","3DL65MZB8E1UZ9RLI2WH5ITEWJKECG","A358YR7MWC6LRH","3ZXV7Q5FJBAKJ3TNMBBLYHIS0EBCFB","","<img src=""img/set1/S3.jpg"" width=""540"" height = ""360"" style=""border:16px solid orange"">","null","","","","","","","","","",""
"null","","html-keyboard-response","330","223409","0.0-330.0","3DL65MZB8E1UZ9RLI2WH5ITEWJKECG","A358YR7MWC6LRH","3ZXV7Q5FJBAKJ3TNMBBLYHIS0EBCFB","","","null","","","","","","","","","",""
"491","","image-keyboard-response","331","223901","0.0-331.0","3DL65MZB8E1UZ9RLI2WH5ITEWJKECG","A358YR7MWC6LRH","3ZXV7Q5FJBAKJ3TNMBBLYHIS0EBCFB","","img/set1/S3.jpg","72","3","structured_load","72","structured_load,random,structured_incentive,structured_normal","4,2,1,2,2,3","4,1,2,3","true","","",""
"null","","html-keyboard-response","332","224254","0.0-332.0","3DL65MZB8E1UZ9RLI2WH5ITEWJKECG","A358YR7MWC6LRH","3ZXV7Q5FJBAKJ3TNMBBLYHIS0EBCFB","","<img src=""img/set1/S3.jpg"" width=""540"" height = ""360"" style=""border:16px solid orange"">","null","","","","","","","","","",""
"null","","html-keyboard-response","333","224458","0.0-333.0","3DL65MZB8E1UZ9RLI2WH5ITEWJKECG","A358YR7MWC6LRH","3ZXV7Q5FJBAKJ3TNMBBLYHIS0EBCFB","","","null","","","","","","","","","",""
"593.8999999761581","","image-keyboard-response","334","225054","0.0-334.0","3DL65MZB8E1UZ9RLI2WH5ITEWJKECG","A358YR7MWC6LRH","3ZXV7Q5FJBAKJ3TNMBBLYHIS0EBCFB","","img/set1/S4.jpg","74","4","structured_load","74","structured_load,random,structured_incentive,structured_normal","4,2,1,2,2,3","4,1,2,3","true","","",""
"null","","html-keyboard-response","335","225407","0.0-335.0","3DL65MZB8E1UZ9RLI2WH5ITEWJKECG","A358YR7MWC6LRH","3ZXV7Q5FJBAKJ3TNMBBLYHIS0EBCFB","","<img src=""img/set1/S4.jpg"" width=""540"" height = ""360"" style=""border:16px solid orange"">","null","","","","","","","","","",""
"null","","html-keyboard-response","336","225610","0.0-336.0","3DL65MZB8E1UZ9RLI2WH5ITEWJKECG","A358YR7MWC6LRH","3ZXV7Q5FJBAKJ3TNMBBLYHIS0EBCFB","","","null","","","","","","","","","",""
"625.5","","image-keyboard-response","337","226237","0.0-337.0","3DL65MZB8E1UZ9RLI2WH5ITEWJKECG","A358YR7MWC6LRH","3ZXV7Q5FJBAKJ3TNMBBLYHIS0EBCFB","","img/set1/S2.jpg","68","2","structured_load","68","structured_load,random,structured_incentive,structured_normal","4,2,1,2,2,3","4,1,2,3","true","","",""
"null","","html-keyboard-response","338","226590","0.0-338.0","3DL65MZB8E1UZ9RLI2WH5ITEWJKECG","A358YR7MWC6LRH","3ZXV7Q5FJBAKJ3TNMBBLYHIS0EBCFB","","<img src=""img/set1/S2.jpg"" width=""540"" height = ""360"" style=""border:16px solid orange"">","null","","","","","","","","","",""
"null","","html-keyboard-response","339","226792","0.0-339.0","3DL65MZB8E1UZ9RLI2WH5ITEWJKECG","A358YR7MWC6LRH","3ZXV7Q5FJBAKJ3TNMBBLYHIS0EBCFB","","","null","","","","","","","","","",""
"634.2999999523163","","image-keyboard-response","340","227428","0.0-340.0","3DL65MZB8E1UZ9RLI2WH5ITEWJKECG","A358YR7MWC6LRH","3ZXV7Q5FJBAKJ3TNMBBLYHIS0EBCFB","","img/set1/S3.jpg","72","3","structured_load","72","structured_load,random,structured_incentive,structured_normal","4,2,1,2,2,3","4,1,2,3","true","","",""
"null","","html-keyboard-response","341","227781","0.0-341.0","3DL65MZB8E1UZ9RLI2WH5ITEWJKECG","A358YR7MWC6LRH","3ZXV7Q5FJBAKJ3TNMBBLYHIS0EBCFB","","<img src=""img/set1/S3.jpg"" width=""540"" height = ""360"" style=""border:16px solid orange"">","null","","","","","","","","","",""
"null","","html-keyboard-response","342","227997","0.0-342.0","3DL65MZB8E1UZ9RLI2WH5ITEWJKECG","A358YR7MWC6LRH","3ZXV7Q5FJBAKJ3TNMBBLYHIS0EBCFB","","","null","","","","","","","","","",""
"612.5","","image-keyboard-response","343","228612","0.0-343.0","3DL65MZB8E1UZ9RLI2WH5ITEWJKECG","A358YR7MWC6LRH","3ZXV7Q5FJBAKJ3TNMBBLYHIS0EBCFB","","img/set1/S1.jpg","83","1","structured_load","83","structured_load,random,structured_incentive,structured_normal","4,2,1,2,2,3","4,1,2,3","true","","",""
"null","","html-keyboard-response","344","228965","0.0-344.0","3DL65MZB8E1UZ9RLI2WH5ITEWJKECG","A358YR7MWC6LRH","3ZXV7Q5FJBAKJ3TNMBBLYHIS0EBCFB","","<img src=""img/set1/S1.jpg"" width=""540"" height = ""360"" style=""border:16px solid orange"">","null","","","","","","","","","",""
"null","","html-keyboard-response","345","229170","0.0-345.0","3DL65MZB8E1UZ9RLI2WH5ITEWJKECG","A358YR7MWC6LRH","3ZXV7Q5FJBAKJ3TNMBBLYHIS0EBCFB","","","null","","","","","","","","","",""
"433","","image-keyboard-response","346","229605","0.0-346.0","3DL65MZB8E1UZ9RLI2WH5ITEWJKECG","A358YR7MWC6LRH","3ZXV7Q5FJBAKJ3TNMBBLYHIS0EBCFB","","img/set1/S1.jpg","83","1","structured_load","83","structured_load,random,structured_incentive,structured_normal","4,2,1,2,2,3","4,1,2,3","true","","",""
"null","","html-keyboard-response","347","229958","0.0-347.0","3DL65MZB8E1UZ9RLI2WH5ITEWJKECG","A358YR7MWC6LRH","3ZXV7Q5FJBAKJ3TNMBBLYHIS0EBCFB","","<img src=""img/set1/S1.jpg"" width=""540"" height = ""360"" style=""border:16px solid orange"">","null","","","","","","","","","",""
"null","","html-keyboard-response","348","230161","0.0-348.0","3DL65MZB8E1UZ9RLI2WH5ITEWJKECG","A358YR7MWC6LRH","3ZXV7Q5FJBAKJ3TNMBBLYHIS0EBCFB","","","null","","","","","","","","","",""
"609.2999999523163","","image-keyboard-response","349","230772","0.0-349.0","3DL65MZB8E1UZ9RLI2WH5ITEWJKECG","A358YR7MWC6LRH","3ZXV7Q5FJBAKJ3TNMBBLYHIS0EBCFB","","img/set1/S3.jpg","72","3","structured_load","72","structured_load,random,structured_incentive,structured_normal","4,2,1,2,2,3","4,1,2,3","true","","",""
"null","","html-keyboard-response","350","231125","0.0-350.0","3DL65MZB8E1UZ9RLI2WH5ITEWJKECG","A358YR7MWC6LRH","3ZXV7Q5FJBAKJ3TNMBBLYHIS0EBCFB","","<img src=""img/set1/S3.jpg"" width=""540"" height = ""360"" style=""border:16px solid orange"">","null","","","","","","","","","",""
"null","","html-keyboard-response","351","231328","0.0-351.0","3DL65MZB8E1UZ9RLI2WH5ITEWJKECG","A358YR7MWC6LRH","3ZXV7Q5FJBAKJ3TNMBBLYHIS0EBCFB","","","null","","","","","","","","","",""
"423.60000002384186","","image-keyboard-response","352","231753","0.0-352.0","3DL65MZB8E1UZ9RLI2WH5ITEWJKECG","A358YR7MWC6LRH","3ZXV7Q5FJBAKJ3TNMBBLYHIS0EBCFB","","img/set1/S3.jpg","72","3","structured_load","72","structured_load,random,structured_incentive,structured_normal","4,2,1,2,2,3","4,1,2,3","true","","",""
"null","","html-keyboard-response","353","232107","0.0-353.0","3DL65MZB8E1UZ9RLI2WH5ITEWJKECG","A358YR7MWC6LRH","3ZXV7Q5FJBAKJ3TNMBBLYHIS0EBCFB","","<img src=""img/set1/S3.jpg"" width=""540"" height = ""360"" style=""border:16px solid orange"">","null","","","","","","","","","",""
"null","","html-keyboard-response","354","232310","0.0-354.0","3DL65MZB8E1UZ9RLI2WH5ITEWJKECG","A358YR7MWC6LRH","3ZXV7Q5FJBAKJ3TNMBBLYHIS0EBCFB","","","null","","","","","","","","","",""
"604.5","","image-keyboard-response","355","232917","0.0-355.0","3DL65MZB8E1UZ9RLI2WH5ITEWJKECG","A358YR7MWC6LRH","3ZXV7Q5FJBAKJ3TNMBBLYHIS0EBCFB","","img/set1/S1.jpg","83","1","structured_load","83","structured_load,random,structured_incentive,structured_normal","4,2,1,2,2,3","4,1,2,3","true","","",""
"null","","html-keyboard-response","356","233269","0.0-356.0","3DL65MZB8E1UZ9RLI2WH5ITEWJKECG","A358YR7MWC6LRH","3ZXV7Q5FJBAKJ3TNMBBLYHIS0EBCFB","","<img src=""img/set1/S1.jpg"" width=""540"" height = ""360"" style=""border:16px solid orange"">","null","","","","","","","","","",""
"null","","html-keyboard-response","357","233471","0.0-357.0","3DL65MZB8E1UZ9RLI2WH5ITEWJKECG","A358YR7MWC6LRH","3ZXV7Q5FJBAKJ3TNMBBLYHIS0EBCFB","","","null","","","","","","","","","",""
"493.10000002384186","","image-keyboard-response","358","233966","0.0-358.0","3DL65MZB8E1UZ9RLI2WH5ITEWJKECG","A358YR7MWC6LRH","3ZXV7Q5FJBAKJ3TNMBBLYHIS0EBCFB","","img/set1/S3.jpg","72","3","structured_load","72","structured_load,random,structured_incentive,structured_normal","4,2,1,2,2,3","4,1,2,3","true","","",""
"null","","html-keyboard-response","359","234320","0.0-359.0","3DL65MZB8E1UZ9RLI2WH5ITEWJKECG","A358YR7MWC6LRH","3ZXV7Q5FJBAKJ3TNMBBLYHIS0EBCFB","","<img src=""img/set1/S3.jpg"" width=""540"" height = ""360"" style=""border:16px solid orange"">","null","","","","","","","","","",""
"null","","html-keyboard-response","360","234523","0.0-360.0","3DL65MZB8E1UZ9RLI2WH5ITEWJKECG","A358YR7MWC6LRH","3ZXV7Q5FJBAKJ3TNMBBLYHIS0EBCFB","","","null","","","","","","","","","",""
"392.7000000476837","","image-keyboard-response","361","234918","0.0-361.0","3DL65MZB8E1UZ9RLI2WH5ITEWJKECG","A358YR7MWC6LRH","3ZXV7Q5FJBAKJ3TNMBBLYHIS0EBCFB","","img/set1/S3.jpg","72","3","structured_load","72","structured_load,random,structured_incentive,structured_normal","4,2,1,2,2,3","4,1,2,3","true","","",""
"null","","html-keyboard-response","362","235271","0.0-362.0","3DL65MZB8E1UZ9RLI2WH5ITEWJKECG","A358YR7MWC6LRH","3ZXV7Q5FJBAKJ3TNMBBLYHIS0EBCFB","","<img src=""img/set1/S3.jpg"" width=""540"" height = ""360"" style=""border:16px solid orange"">","null","","","","","","","","","",""
"null","","html-keyboard-response","363","235473","0.0-363.0","3DL65MZB8E1UZ9RLI2WH5ITEWJKECG","A358YR7MWC6LRH","3ZXV7Q5FJBAKJ3TNMBBLYHIS0EBCFB","","","null","","","","","","","","","",""
"562.6999999284744","","image-keyboard-response","364","236038","0.0-364.0","3DL65MZB8E1UZ9RLI2WH5ITEWJKECG","A358YR7MWC6LRH","3ZXV7Q5FJBAKJ3TNMBBLYHIS0EBCFB","","img/set1/S4.jpg","74","4","structured_load","74","structured_load,random,structured_incentive,structured_normal","4,2,1,2,2,3","4,1,2,3","true","","",""
"null","","html-keyboard-response","365","236392","0.0-365.0","3DL65MZB8E1UZ9RLI2WH5ITEWJKECG","A358YR7MWC6LRH","3ZXV7Q5FJBAKJ3TNMBBLYHIS0EBCFB","","<img src=""img/set1/S4.jpg"" width=""540"" height = ""360"" style=""border:16px solid orange"">","null","","","","","","","","","",""
"null","","html-keyboard-response","366","236594","0.0-366.0","3DL65MZB8E1UZ9RLI2WH5ITEWJKECG","A358YR7MWC6LRH","3ZXV7Q5FJBAKJ3TNMBBLYHIS0EBCFB","","","null","","","","","","","","","",""
"624.6999999284744","","image-keyboard-response","367","237220","0.0-367.0","3DL65MZB8E1UZ9RLI2WH5ITEWJKECG","A358YR7MWC6LRH","3ZXV7Q5FJBAKJ3TNMBBLYHIS0EBCFB","","img/set1/S2.jpg","68","2","structured_load","68","structured_load,random,structured_incentive,structured_normal","4,2,1,2,2,3","4,1,2,3","true","","",""
"null","","html-keyboard-response","368","237573","0.0-368.0","3DL65MZB8E1UZ9RLI2WH5ITEWJKECG","A358YR7MWC6LRH","3ZXV7Q5FJBAKJ3TNMBBLYHIS0EBCFB","","<img src=""img/set1/S2.jpg"" width=""540"" height = ""360"" style=""border:16px solid orange"">","null","","","","","","","","","",""
"null","","html-keyboard-response","369","237775","0.0-369.0","3DL65MZB8E1UZ9RLI2WH5ITEWJKECG","A358YR7MWC6LRH","3ZXV7Q5FJBAKJ3TNMBBLYHIS0EBCFB","","","null","","","","","","","","","",""
"613.5","","image-keyboard-response","370","238390","0.0-370.0","3DL65MZB8E1UZ9RLI2WH5ITEWJKECG","A358YR7MWC6LRH","3ZXV7Q5FJBAKJ3TNMBBLYHIS0EBCFB","","img/set1/S1.jpg","83","1","structured_load","83","structured_load,random,structured_incentive,structured_normal","4,2,1,2,2,3","4,1,2,3","true","","",""
"null","","html-keyboard-response","371","238742","0.0-371.0","3DL65MZB8E1UZ9RLI2WH5ITEWJKECG","A358YR7MWC6LRH","3ZXV7Q5FJBAKJ3TNMBBLYHIS0EBCFB","","<img src=""img/set1/S1.jpg"" width=""540"" height = ""360"" style=""border:16px solid orange"">","null","","","","","","","","","",""
"null","","html-keyboard-response","372","238945","0.0-372.0","3DL65MZB8E1UZ9RLI2WH5ITEWJKECG","A358YR7MWC6LRH","3ZXV7Q5FJBAKJ3TNMBBLYHIS0EBCFB","","","null","","","","","","","","","",""
"585.3000000715256","","image-keyboard-response","373","239533","0.0-373.0","3DL65MZB8E1UZ9RLI2WH5ITEWJKECG","A358YR7MWC6LRH","3ZXV7Q5FJBAKJ3TNMBBLYHIS0EBCFB","","img/set1/S3.jpg","72","3","structured_load","72","structured_load,random,structured_incentive,structured_normal","4,2,1,2,2,3","4,1,2,3","true","","",""
"null","","html-keyboard-response","374","239886","0.0-374.0","3DL65MZB8E1UZ9RLI2WH5ITEWJKECG","A358YR7MWC6LRH","3ZXV7Q5FJBAKJ3TNMBBLYHIS0EBCFB","","<img src=""img/set1/S3.jpg"" width=""540"" height = ""360"" style=""border:16px solid orange"">","null","","","","","","","","","",""
"null","","html-keyboard-response","375","240088","0.0-375.0","3DL65MZB8E1UZ9RLI2WH5ITEWJKECG","A358YR7MWC6LRH","3ZXV7Q5FJBAKJ3TNMBBLYHIS0EBCFB","","","null","","","","","","","","","",""
"542.7000000476837","","image-keyboard-response","376","240633","0.0-376.0","3DL65MZB8E1UZ9RLI2WH5ITEWJKECG","A358YR7MWC6LRH","3ZXV7Q5FJBAKJ3TNMBBLYHIS0EBCFB","","img/set1/S4.jpg","74","4","structured_load","74","structured_load,random,structured_incentive,structured_normal","4,2,1,2,2,3","4,1,2,3","true","","",""
"null","","html-keyboard-response","377","240985","0.0-377.0","3DL65MZB8E1UZ9RLI2WH5ITEWJKECG","A358YR7MWC6LRH","3ZXV7Q5FJBAKJ3TNMBBLYHIS0EBCFB","","<img src=""img/set1/S4.jpg"" width=""540"" height = ""360"" style=""border:16px solid orange"">","null","","","","","","","","","",""
"null","","html-keyboard-response","378","241187","0.0-378.0","3DL65MZB8E1UZ9RLI2WH5ITEWJKECG","A358YR7MWC6LRH","3ZXV7Q5FJBAKJ3TNMBBLYHIS0EBCFB","","","null","","","","","","","","","",""
"543.7999999523163","","image-keyboard-response","379","241733","0.0-379.0","3DL65MZB8E1UZ9RLI2WH5ITEWJKECG","A358YR7MWC6LRH","3ZXV7Q5FJBAKJ3TNMBBLYHIS0EBCFB","","img/set1/S2.jpg","68","2","structured_load","68","structured_load,random,structured_incentive,structured_normal","4,2,1,2,2,3","4,1,2,3","true","","",""
"null","","html-keyboard-response","380","242085","0.0-380.0","3DL65MZB8E1UZ9RLI2WH5ITEWJKECG","A358YR7MWC6LRH","3ZXV7Q5FJBAKJ3TNMBBLYHIS0EBCFB","","<img src=""img/set1/S2.jpg"" width=""540"" height = ""360"" style=""border:16px solid orange"">","null","","","","","","","","","",""
"null","","html-keyboard-response","381","242288","0.0-381.0","3DL65MZB8E1UZ9RLI2WH5ITEWJKECG","A358YR7MWC6LRH","3ZXV7Q5FJBAKJ3TNMBBLYHIS0EBCFB","","","null","","","","","","","","","",""
