"rt","url","trial_type","trial_index","time_elapsed","internal_node_id","view_history","stimulus","key_press","state","test_part","correct_response","order_block","order_chunk","correct","responses","bonus"
"24802.80000001192","consent.html","external-html","0","24864","0.0-0.0","","","","","","","","","","",""
"297026.39999997616","","instructions","1","321892","0.0-1.0","[{""page_index"":0,""viewing_time"":19195.399999976158},{""page_index"":1,""viewing_time"":4812.5},{""page_index"":2,""viewing_time"":5303.199999988079},{""page_index"":3,""viewing_time"":255226.90000003576},{""page_index"":4,""viewing_time"":3152.2999999523163},{""page_index"":5,""viewing_time"":4152.700000047684},{""page_index"":6,""viewing_time"":5182.799999952316}]","","","","","","","","","",""
"4711.800000011921","","instructions","2","326604","0.0-2.0","[{""page_index"":0,""viewing_time"":4711.5}]","","","","","","","","","",""
"3031.199999988079","","instructions","3","329636","0.0-3.0","[{""page_index"":0,""viewing_time"":3031}]","","","","","","","","","",""
"1858.3999999761581","","image-keyboard-response","4","331496","0.0-4.0","","img/set1/S1.jpg","72","1","random","83","random,structured_load,structured_incentive,structured_normal","2,3,2,1,3,4","false","",""
"null","","html-keyboard-response","5","331849","0.0-5.0","","<img src=""img/set1/S1.jpg"" width=""540"" height = ""360"">","null","","","","","","","",""
"null","","html-keyboard-response","6","332050","0.0-6.0","","","null","","","","","","","",""
"875.5","","image-keyboard-response","7","332927","0.0-7.0","","img/set1/S1.jpg","74","1","random","83","random,structured_load,structured_incentive,structured_normal","2,3,2,1,3,4","false","",""
"null","","html-keyboard-response","8","333278","0.0-8.0","","<img src=""img/set1/S1.jpg"" width=""540"" height = ""360"">","null","","","","","","","",""
"null","","html-keyboard-response","9","333479","0.0-9.0","","","null","","","","","","","",""
"639.3000000119209","","image-keyboard-response","10","334119","0.0-10.0","","img/set1/S2.jpg","83","2","random","68","random,structured_load,structured_incentive,structured_normal","2,3,2,1,3,4","false","",""
"null","","html-keyboard-response","11","334472","0.0-11.0","","<img src=""img/set1/S2.jpg"" width=""540"" height = ""360"">","null","","","","","","","",""
"null","","html-keyboard-response","12","334672","0.0-12.0","","","null","","","","","","","",""
"264.80000001192093","","image-keyboard-response","13","334939","0.0-13.0","","img/set1/S2.jpg","68","2","random","68","random,structured_load,structured_incentive,structured_normal","2,3,2,1,3,4","true","",""
"null","","html-keyboard-response","14","335291","0.0-14.0","","<img src=""img/set1/S2.jpg"" width=""540"" height = ""360"" style=""border:16px solid orange"">","null","","","","","","","",""
"null","","html-keyboard-response","15","335491","0.0-15.0","","","null","","","","","","","",""
"500.19999998807907","","image-keyboard-response","16","335992","0.0-16.0","","img/set1/S1.jpg","83","1","random","83","random,structured_load,structured_incentive,structured_normal","2,3,2,1,3,4","true","",""
"null","","html-keyboard-response","17","336344","0.0-17.0","","<img src=""img/set1/S1.jpg"" width=""540"" height = ""360"" style=""border:16px solid orange"">","null","","","","","","","",""
"null","","html-keyboard-response","18","336545","0.0-18.0","","","null","","","","","","","",""
"252.30000001192093","","image-keyboard-response","19","336798","0.0-19.0","","img/set1/S2.jpg","83","2","random","68","random,structured_load,structured_incentive,structured_normal","2,3,2,1,3,4","false","",""
"null","","html-keyboard-response","20","337149","0.0-20.0","","<img src=""img/set1/S2.jpg"" width=""540"" height = ""360"">","null","","","","","","","",""
"null","","html-keyboard-response","21","337351","0.0-21.0","","","null","","","","","","","",""
"429.0999999642372","","image-keyboard-response","22","337781","0.0-22.0","","img/set1/S3.jpg","83","3","random","72","random,structured_load,structured_incentive,structured_normal","2,3,2,1,3,4","false","",""
"null","","html-keyboard-response","23","338132","0.0-23.0","","<img src=""img/set1/S3.jpg"" width=""540"" height = ""360"">","null","","","","","","","",""
"null","","html-keyboard-response","24","338333","0.0-24.0","","","null","","","","","","","",""
"93.30000001192093","","image-keyboard-response","25","338427","0.0-25.0","","img/set1/S3.jpg","68","3","random","72","random,structured_load,structured_incentive,structured_normal","2,3,2,1,3,4","false","",""
"null","","html-keyboard-response","26","338778","0.0-26.0","","<img src=""img/set1/S3.jpg"" width=""540"" height = ""360"">","null","","","","","","","",""
"null","","html-keyboard-response","27","338981","0.0-27.0","","","null","","","","","","","",""
"291.5","","image-keyboard-response","28","339273","0.0-28.0","","img/set1/S4.jpg","72","4","random","74","random,structured_load,structured_incentive,structured_normal","2,3,2,1,3,4","false","",""
"null","","html-keyboard-response","29","339625","0.0-29.0","","<img src=""img/set1/S4.jpg"" width=""540"" height = ""360"">","null","","","","","","","",""
"null","","html-keyboard-response","30","339826","0.0-30.0","","","null","","","","","","","",""
"2127.399999976158","","image-keyboard-response","31","341954","0.0-31.0","","img/set1/S2.jpg","74","2","random","68","random,structured_load,structured_incentive,structured_normal","2,3,2,1,3,4","false","",""
"null","","html-keyboard-response","32","342305","0.0-32.0","","<img src=""img/set1/S2.jpg"" width=""540"" height = ""360"">","null","","","","","","","",""
"null","","html-keyboard-response","33","342507","0.0-33.0","","","null","","","","","","","",""
"414.30000001192093","","image-keyboard-response","34","342922","0.0-34.0","","img/set1/S4.jpg","83","4","random","74","random,structured_load,structured_incentive,structured_normal","2,3,2,1,3,4","false","",""
"null","","html-keyboard-response","35","343274","0.0-35.0","","<img src=""img/set1/S4.jpg"" width=""540"" height = ""360"">","null","","","","","","","",""
"null","","html-keyboard-response","36","343475","0.0-36.0","","","null","","","","","","","",""
"243.19999998807907","","image-keyboard-response","37","343719","0.0-37.0","","img/set1/S2.jpg","68","2","random","68","random,structured_load,structured_incentive,structured_normal","2,3,2,1,3,4","true","",""
"null","","html-keyboard-response","38","344071","0.0-38.0","","<img src=""img/set1/S2.jpg"" width=""540"" height = ""360"" style=""border:16px solid orange"">","null","","","","","","","",""
"null","","html-keyboard-response","39","344273","0.0-39.0","","","null","","","","","","","",""
"772.3000000119209","","image-keyboard-response","40","345045","0.0-40.0","","img/set1/S4.jpg","83","4","random","74","random,structured_load,structured_incentive,structured_normal","2,3,2,1,3,4","false","",""
"null","","html-keyboard-response","41","345398","0.0-41.0","","<img src=""img/set1/S4.jpg"" width=""540"" height = ""360"">","null","","","","","","","",""
"null","","html-keyboard-response","42","345600","0.0-42.0","","","null","","","","","","","",""
"790.2999999523163","","image-keyboard-response","43","346391","0.0-43.0","","img/set1/S2.jpg","68","2","random","68","random,structured_load,structured_incentive,structured_normal","2,3,2,1,3,4","true","",""
"null","","html-keyboard-response","44","346742","0.0-44.0","","<img src=""img/set1/S2.jpg"" width=""540"" height = ""360"" style=""border:16px solid orange"">","null","","","","","","","",""
"null","","html-keyboard-response","45","346943","0.0-45.0","","","null","","","","","","","",""
"443.5","","image-keyboard-response","46","347388","0.0-46.0","","img/set1/S3.jpg","72","3","random","72","random,structured_load,structured_incentive,structured_normal","2,3,2,1,3,4","true","",""
"null","","html-keyboard-response","47","347740","0.0-47.0","","<img src=""img/set1/S3.jpg"" width=""540"" height = ""360"" style=""border:16px solid orange"">","null","","","","","","","",""
"null","","html-keyboard-response","48","347941","0.0-48.0","","","null","","","","","","","",""
"402.0999999642372","","image-keyboard-response","49","348344","0.0-49.0","","img/set1/S4.jpg","74","4","random","74","random,structured_load,structured_incentive,structured_normal","2,3,2,1,3,4","true","",""
"null","","html-keyboard-response","50","348695","0.0-50.0","","<img src=""img/set1/S4.jpg"" width=""540"" height = ""360"" style=""border:16px solid orange"">","null","","","","","","","",""
"null","","html-keyboard-response","51","348896","0.0-51.0","","","null","","","","","","","",""
"748.3000000119209","","image-keyboard-response","52","349645","0.0-52.0","","img/set1/S2.jpg","68","2","random","68","random,structured_load,structured_incentive,structured_normal","2,3,2,1,3,4","true","",""
"null","","html-keyboard-response","53","349996","0.0-53.0","","<img src=""img/set1/S2.jpg"" width=""540"" height = ""360"" style=""border:16px solid orange"">","null","","","","","","","",""
"null","","html-keyboard-response","54","350197","0.0-54.0","","","null","","","","","","","",""
"608.5","","image-keyboard-response","55","350807","0.0-55.0","","img/set1/S1.jpg","83","1","random","83","random,structured_load,structured_incentive,structured_normal","2,3,2,1,3,4","true","",""
"null","","html-keyboard-response","56","351158","0.0-56.0","","<img src=""img/set1/S1.jpg"" width=""540"" height = ""360"" style=""border:16px solid orange"">","null","","","","","","","",""
"null","","html-keyboard-response","57","351359","0.0-57.0","","","null","","","","","","","",""
"906.3000000119209","","image-keyboard-response","58","352267","0.0-58.0","","img/set1/S3.jpg","72","3","random","72","random,structured_load,structured_incentive,structured_normal","2,3,2,1,3,4","true","",""
"null","","html-keyboard-response","59","352619","0.0-59.0","","<img src=""img/set1/S3.jpg"" width=""540"" height = ""360"" style=""border:16px solid orange"">","null","","","","","","","",""
"null","","html-keyboard-response","60","352820","0.0-60.0","","","null","","","","","","","",""
"921.1000000238419","","image-keyboard-response","61","353742","0.0-61.0","","img/set1/S2.jpg","74","2","random","68","random,structured_load,structured_incentive,structured_normal","2,3,2,1,3,4","false","",""
"null","","html-keyboard-response","62","354093","0.0-62.0","","<img src=""img/set1/S2.jpg"" width=""540"" height = ""360"">","null","","","","","","","",""
"null","","html-keyboard-response","63","354294","0.0-63.0","","","null","","","","","","","",""
"555.3000000119209","","image-keyboard-response","64","354850","0.0-64.0","","img/set1/S2.jpg","83","2","random","68","random,structured_load,structured_incentive,structured_normal","2,3,2,1,3,4","false","",""
"null","","html-keyboard-response","65","355201","0.0-65.0","","<img src=""img/set1/S2.jpg"" width=""540"" height = ""360"">","null","","","","","","","",""
"null","","html-keyboard-response","66","355402","0.0-66.0","","","null","","","","","","","",""
"807.1999999880791","","image-keyboard-response","67","356210","0.0-67.0","","img/set1/S3.jpg","72","3","random","72","random,structured_load,structured_incentive,structured_normal","2,3,2,1,3,4","true","",""
"null","","html-keyboard-response","68","356562","0.0-68.0","","<img src=""img/set1/S3.jpg"" width=""540"" height = ""360"" style=""border:16px solid orange"">","null","","","","","","","",""
"null","","html-keyboard-response","69","356763","0.0-69.0","","","null","","","","","","","",""
"448.30000001192093","","image-keyboard-response","70","357213","0.0-70.0","","img/set1/S3.jpg","72","3","random","72","random,structured_load,structured_incentive,structured_normal","2,3,2,1,3,4","true","",""
"null","","html-keyboard-response","71","357564","0.0-71.0","","<img src=""img/set1/S3.jpg"" width=""540"" height = ""360"" style=""border:16px solid orange"">","null","","","","","","","",""
"null","","html-keyboard-response","72","357765","0.0-72.0","","","null","","","","","","","",""
"409.9000000357628","","image-keyboard-response","73","358176","0.0-73.0","","img/set1/S3.jpg","72","3","random","72","random,structured_load,structured_incentive,structured_normal","2,3,2,1,3,4","true","",""
"null","","html-keyboard-response","74","358527","0.0-74.0","","<img src=""img/set1/S3.jpg"" width=""540"" height = ""360"" style=""border:16px solid orange"">","null","","","","","","","",""
"null","","html-keyboard-response","75","358729","0.0-75.0","","","null","","","","","","","",""
"803.6999999880791","","image-keyboard-response","76","359534","0.0-76.0","","img/set1/S4.jpg","83","4","random","74","random,structured_load,structured_incentive,structured_normal","2,3,2,1,3,4","false","",""
"null","","html-keyboard-response","77","359885","0.0-77.0","","<img src=""img/set1/S4.jpg"" width=""540"" height = ""360"">","null","","","","","","","",""
"null","","html-keyboard-response","78","360086","0.0-78.0","","","null","","","","","","","",""
"1264.2999999523163","","image-keyboard-response","79","361351","0.0-79.0","","img/set1/S2.jpg","68","2","random","68","random,structured_load,structured_incentive,structured_normal","2,3,2,1,3,4","true","",""
"null","","html-keyboard-response","80","361702","0.0-80.0","","<img src=""img/set1/S2.jpg"" width=""540"" height = ""360"" style=""border:16px solid orange"">","null","","","","","","","",""
"null","","html-keyboard-response","81","361903","0.0-81.0","","","null","","","","","","","",""
"715.1999999880791","","image-keyboard-response","82","362619","0.0-82.0","","img/set1/S1.jpg","83","1","random","83","random,structured_load,structured_incentive,structured_normal","2,3,2,1,3,4","true","",""
"null","","html-keyboard-response","83","362971","0.0-83.0","","<img src=""img/set1/S1.jpg"" width=""540"" height = ""360"" style=""border:16px solid orange"">","null","","","","","","","",""
"null","","html-keyboard-response","84","363172","0.0-84.0","","","null","","","","","","","",""
"561.8999999761581","","image-keyboard-response","85","363734","0.0-85.0","","img/set1/S4.jpg","74","4","random","74","random,structured_load,structured_incentive,structured_normal","2,3,2,1,3,4","true","",""
"null","","html-keyboard-response","86","364087","0.0-86.0","","<img src=""img/set1/S4.jpg"" width=""540"" height = ""360"" style=""border:16px solid orange"">","null","","","","","","","",""
"null","","html-keyboard-response","87","364288","0.0-87.0","","","null","","","","","","","",""
"645.2000000476837","","image-keyboard-response","88","364934","0.0-88.0","","img/set1/S2.jpg","68","2","random","68","random,structured_load,structured_incentive,structured_normal","2,3,2,1,3,4","true","",""
"null","","html-keyboard-response","89","365286","0.0-89.0","","<img src=""img/set1/S2.jpg"" width=""540"" height = ""360"" style=""border:16px solid orange"">","null","","","","","","","",""
"null","","html-keyboard-response","90","365486","0.0-90.0","","","null","","","","","","","",""
"583.2000000476837","","image-keyboard-response","91","366071","0.0-91.0","","img/set1/S1.jpg","83","1","random","83","random,structured_load,structured_incentive,structured_normal","2,3,2,1,3,4","true","",""
"null","","html-keyboard-response","92","366424","0.0-92.0","","<img src=""img/set1/S1.jpg"" width=""540"" height = ""360"" style=""border:16px solid orange"">","null","","","","","","","",""
"null","","html-keyboard-response","93","366625","0.0-93.0","","","null","","","","","","","",""
"568.4000000357628","","image-keyboard-response","94","367194","0.0-94.0","","img/set1/S3.jpg","72","3","random","72","random,structured_load,structured_incentive,structured_normal","2,3,2,1,3,4","true","",""
"null","","html-keyboard-response","95","367546","0.0-95.0","","<img src=""img/set1/S3.jpg"" width=""540"" height = ""360"" style=""border:16px solid orange"">","null","","","","","","","",""
"null","","html-keyboard-response","96","367747","0.0-96.0","","","null","","","","","","","",""
"467.4000000357628","","image-keyboard-response","97","368215","0.0-97.0","","img/set1/S4.jpg","74","4","random","74","random,structured_load,structured_incentive,structured_normal","2,3,2,1,3,4","true","",""
"null","","html-keyboard-response","98","368566","0.0-98.0","","<img src=""img/set1/S4.jpg"" width=""540"" height = ""360"" style=""border:16px solid orange"">","null","","","","","","","",""
"null","","html-keyboard-response","99","368767","0.0-99.0","","","null","","","","","","","",""
"573.3999999761581","","image-keyboard-response","100","369341","0.0-100.0","","img/set1/S2.jpg","68","2","random","68","random,structured_load,structured_incentive,structured_normal","2,3,2,1,3,4","true","",""
"null","","html-keyboard-response","101","369692","0.0-101.0","","<img src=""img/set1/S2.jpg"" width=""540"" height = ""360"" style=""border:16px solid orange"">","null","","","","","","","",""
"null","","html-keyboard-response","102","369893","0.0-102.0","","","null","","","","","","","",""
"675.3999999761581","","image-keyboard-response","103","370569","0.0-103.0","","img/set1/S3.jpg","72","3","random","72","random,structured_load,structured_incentive,structured_normal","2,3,2,1,3,4","true","",""
"null","","html-keyboard-response","104","370920","0.0-104.0","","<img src=""img/set1/S3.jpg"" width=""540"" height = ""360"" style=""border:16px solid orange"">","null","","","","","","","",""
"null","","html-keyboard-response","105","371122","0.0-105.0","","","null","","","","","","","",""
"548","","image-keyboard-response","106","371670","0.0-106.0","","img/set1/S1.jpg","83","1","random","83","random,structured_load,structured_incentive,structured_normal","2,3,2,1,3,4","true","",""
"null","","html-keyboard-response","107","372023","0.0-107.0","","<img src=""img/set1/S1.jpg"" width=""540"" height = ""360"" style=""border:16px solid orange"">","null","","","","","","","",""
"null","","html-keyboard-response","108","372224","0.0-108.0","","","null","","","","","","","",""
"547.1999999880791","","image-keyboard-response","109","372772","0.0-109.0","","img/set1/S4.jpg","74","4","random","74","random,structured_load,structured_incentive,structured_normal","2,3,2,1,3,4","true","",""
"null","","html-keyboard-response","110","373123","0.0-110.0","","<img src=""img/set1/S4.jpg"" width=""540"" height = ""360"" style=""border:16px solid orange"">","null","","","","","","","",""
"null","","html-keyboard-response","111","373324","0.0-111.0","","","null","","","","","","","",""
"828.8000000119209","","image-keyboard-response","112","374154","0.0-112.0","","img/set1/S2.jpg","68","2","random","68","random,structured_load,structured_incentive,structured_normal","2,3,2,1,3,4","true","",""
"null","","html-keyboard-response","113","374505","0.0-113.0","","<img src=""img/set1/S2.jpg"" width=""540"" height = ""360"" style=""border:16px solid orange"">","null","","","","","","","",""
"null","","html-keyboard-response","114","374707","0.0-114.0","","","null","","","","","","","",""
"600.6000000238419","","image-keyboard-response","115","375308","0.0-115.0","","img/set1/S4.jpg","74","4","random","74","random,structured_load,structured_incentive,structured_normal","2,3,2,1,3,4","true","",""
"null","","html-keyboard-response","116","375661","0.0-116.0","","<img src=""img/set1/S4.jpg"" width=""540"" height = ""360"" style=""border:16px solid orange"">","null","","","","","","","",""
"null","","html-keyboard-response","117","375862","0.0-117.0","","","null","","","","","","","",""
"676","","image-keyboard-response","118","376539","0.0-118.0","","img/set1/S1.jpg","83","1","random","83","random,structured_load,structured_incentive,structured_normal","2,3,2,1,3,4","true","",""
"null","","html-keyboard-response","119","376891","0.0-119.0","","<img src=""img/set1/S1.jpg"" width=""540"" height = ""360"" style=""border:16px solid orange"">","null","","","","","","","",""
"null","","html-keyboard-response","120","377092","0.0-120.0","","","null","","","","","","","",""
"521.3000000119209","","image-keyboard-response","121","377614","0.0-121.0","","img/set1/S3.jpg","72","3","random","72","random,structured_load,structured_incentive,structured_normal","2,3,2,1,3,4","true","",""
"null","","html-keyboard-response","122","377966","0.0-122.0","","<img src=""img/set1/S3.jpg"" width=""540"" height = ""360"" style=""border:16px solid orange"">","null","","","","","","","",""
"null","","html-keyboard-response","123","378168","0.0-123.0","","","null","","","","","","","",""
"604.3000000119209","","image-keyboard-response","124","378773","0.0-124.0","","img/set1/S2.jpg","68","2","random","68","random,structured_load,structured_incentive,structured_normal","2,3,2,1,3,4","true","",""
"null","","html-keyboard-response","125","379125","0.0-125.0","","<img src=""img/set1/S2.jpg"" width=""540"" height = ""360"" style=""border:16px solid orange"">","null","","","","","","","",""
"null","","html-keyboard-response","126","379326","0.0-126.0","","","null","","","","","","","",""
"845.3999999761581","","image-keyboard-response","127","380172","0.0-127.0","","img/set1/S3.jpg","72","3","random","72","random,structured_load,structured_incentive,structured_normal","2,3,2,1,3,4","true","",""
"null","","html-keyboard-response","128","380524","0.0-128.0","","<img src=""img/set1/S3.jpg"" width=""540"" height = ""360"" style=""border:16px solid orange"">","null","","","","","","","",""
"null","","html-keyboard-response","129","380725","0.0-129.0","","","null","","","","","","","",""
"1031.9000000357628","","image-keyboard-response","130","381758","0.0-130.0","","img/set1/S2.jpg","68","2","random","68","random,structured_load,structured_incentive,structured_normal","2,3,2,1,3,4","true","",""
"null","","html-keyboard-response","131","382110","0.0-131.0","","<img src=""img/set1/S2.jpg"" width=""540"" height = ""360"" style=""border:16px solid orange"">","null","","","","","","","",""
"null","","html-keyboard-response","132","382311","0.0-132.0","","","null","","","","","","","",""
"593.5","","image-keyboard-response","133","382905","0.0-133.0","","img/set1/S2.jpg","68","2","random","68","random,structured_load,structured_incentive,structured_normal","2,3,2,1,3,4","true","",""
"null","","html-keyboard-response","134","383257","0.0-134.0","","<img src=""img/set1/S2.jpg"" width=""540"" height = ""360"" style=""border:16px solid orange"">","null","","","","","","","",""
"null","","html-keyboard-response","135","383458","0.0-135.0","","","null","","","","","","","",""
"586.6000000238419","","image-keyboard-response","136","384046","0.0-136.0","","img/set1/S1.jpg","83","1","random","83","random,structured_load,structured_incentive,structured_normal","2,3,2,1,3,4","true","",""
"null","","html-keyboard-response","137","384397","0.0-137.0","","<img src=""img/set1/S1.jpg"" width=""540"" height = ""360"" style=""border:16px solid orange"">","null","","","","","","","",""
"null","","html-keyboard-response","138","384599","0.0-138.0","","","null","","","","","","","",""
"467.5","","image-keyboard-response","139","385067","0.0-139.0","","img/set1/S1.jpg","83","1","random","83","random,structured_load,structured_incentive,structured_normal","2,3,2,1,3,4","true","",""
"null","","html-keyboard-response","140","385419","0.0-140.0","","<img src=""img/set1/S1.jpg"" width=""540"" height = ""360"" style=""border:16px solid orange"">","null","","","","","","","",""
"null","","html-keyboard-response","141","385621","0.0-141.0","","","null","","","","","","","",""
"584.9000000357628","","image-keyboard-response","142","386206","0.0-142.0","","img/set1/S3.jpg","72","3","random","72","random,structured_load,structured_incentive,structured_normal","2,3,2,1,3,4","true","",""
"null","","html-keyboard-response","143","386558","0.0-143.0","","<img src=""img/set1/S3.jpg"" width=""540"" height = ""360"" style=""border:16px solid orange"">","null","","","","","","","",""
"null","","html-keyboard-response","144","386759","0.0-144.0","","","null","","","","","","","",""
"410.5999999642372","","image-keyboard-response","145","387170","0.0-145.0","","img/set1/S3.jpg","72","3","random","72","random,structured_load,structured_incentive,structured_normal","2,3,2,1,3,4","true","",""
"null","","html-keyboard-response","146","387521","0.0-146.0","","<img src=""img/set1/S3.jpg"" width=""540"" height = ""360"" style=""border:16px solid orange"">","null","","","","","","","",""
"null","","html-keyboard-response","147","387722","0.0-147.0","","","null","","","","","","","",""
"405.60000002384186","","image-keyboard-response","148","388129","0.0-148.0","","img/set1/S3.jpg","72","3","random","72","random,structured_load,structured_incentive,structured_normal","2,3,2,1,3,4","true","",""
"null","","html-keyboard-response","149","388481","0.0-149.0","","<img src=""img/set1/S3.jpg"" width=""540"" height = ""360"" style=""border:16px solid orange"">","null","","","","","","","",""
"null","","html-keyboard-response","150","388682","0.0-150.0","","","null","","","","","","","",""
"393.5","","image-keyboard-response","151","389077","0.0-151.0","","img/set1/S3.jpg","72","3","random","72","random,structured_load,structured_incentive,structured_normal","2,3,2,1,3,4","true","",""
"null","","html-keyboard-response","152","389428","0.0-152.0","","<img src=""img/set1/S3.jpg"" width=""540"" height = ""360"" style=""border:16px solid orange"">","null","","","","","","","",""
"null","","html-keyboard-response","153","389630","0.0-153.0","","","null","","","","","","","",""
"554.5","","image-keyboard-response","154","390185","0.0-154.0","","img/set1/S4.jpg","74","4","random","74","random,structured_load,structured_incentive,structured_normal","2,3,2,1,3,4","true","",""
"null","","html-keyboard-response","155","390536","0.0-155.0","","<img src=""img/set1/S4.jpg"" width=""540"" height = ""360"" style=""border:16px solid orange"">","null","","","","","","","",""
"null","","html-keyboard-response","156","390737","0.0-156.0","","","null","","","","","","","",""
"579.2999999523163","","image-keyboard-response","157","391317","0.0-157.0","","img/set1/S1.jpg","83","1","random","83","random,structured_load,structured_incentive,structured_normal","2,3,2,1,3,4","true","",""
"null","","html-keyboard-response","158","391668","0.0-158.0","","<img src=""img/set1/S1.jpg"" width=""540"" height = ""360"" style=""border:16px solid orange"">","null","","","","","","","",""
"null","","html-keyboard-response","159","391870","0.0-159.0","","","null","","","","","","","",""
"628","","image-keyboard-response","160","392499","0.0-160.0","","img/set1/S4.jpg","74","4","random","74","random,structured_load,structured_incentive,structured_normal","2,3,2,1,3,4","true","",""
"null","","html-keyboard-response","161","392851","0.0-161.0","","<img src=""img/set1/S4.jpg"" width=""540"" height = ""360"" style=""border:16px solid orange"">","null","","","","","","","",""
"null","","html-keyboard-response","162","393052","0.0-162.0","","","null","","","","","","","",""
"710.2999999523163","","image-keyboard-response","163","393763","0.0-163.0","","img/set1/S3.jpg","72","3","random","72","random,structured_load,structured_incentive,structured_normal","2,3,2,1,3,4","true","",""
"null","","html-keyboard-response","164","394115","0.0-164.0","","<img src=""img/set1/S3.jpg"" width=""540"" height = ""360"" style=""border:16px solid orange"">","null","","","","","","","",""
"null","","html-keyboard-response","165","394316","0.0-165.0","","","null","","","","","","","",""
"465.9000000357628","","image-keyboard-response","166","394782","0.0-166.0","","img/set1/S4.jpg","74","4","random","74","random,structured_load,structured_incentive,structured_normal","2,3,2,1,3,4","true","",""
"null","","html-keyboard-response","167","395135","0.0-167.0","","<img src=""img/set1/S4.jpg"" width=""540"" height = ""360"" style=""border:16px solid orange"">","null","","","","","","","",""
"null","","html-keyboard-response","168","395337","0.0-168.0","","","null","","","","","","","",""
"477.19999998807907","","image-keyboard-response","169","395815","0.0-169.0","","img/set1/S4.jpg","74","4","random","74","random,structured_load,structured_incentive,structured_normal","2,3,2,1,3,4","true","",""
"null","","html-keyboard-response","170","396166","0.0-170.0","","<img src=""img/set1/S4.jpg"" width=""540"" height = ""360"" style=""border:16px solid orange"">","null","","","","","","","",""
"null","","html-keyboard-response","171","396367","0.0-171.0","","","null","","","","","","","",""
"411","","image-keyboard-response","172","396779","0.0-172.0","","img/set1/S4.jpg","74","4","random","74","random,structured_load,structured_incentive,structured_normal","2,3,2,1,3,4","true","",""
"null","","html-keyboard-response","173","397130","0.0-173.0","","<img src=""img/set1/S4.jpg"" width=""540"" height = ""360"" style=""border:16px solid orange"">","null","","","","","","","",""
"null","","html-keyboard-response","174","397331","0.0-174.0","","","null","","","","","","","",""
"559.6000000238419","","image-keyboard-response","175","397892","0.0-175.0","","img/set1/S1.jpg","83","1","random","83","random,structured_load,structured_incentive,structured_normal","2,3,2,1,3,4","true","",""
"null","","html-keyboard-response","176","398243","0.0-176.0","","<img src=""img/set1/S1.jpg"" width=""540"" height = ""360"" style=""border:16px solid orange"">","null","","","","","","","",""
"null","","html-keyboard-response","177","398444","0.0-177.0","","","null","","","","","","","",""
"374.5","","image-keyboard-response","178","398819","0.0-178.0","","img/set1/S2.jpg","68","2","random","68","random,structured_load,structured_incentive,structured_normal","2,3,2,1,3,4","true","",""
"null","","html-keyboard-response","179","399171","0.0-179.0","","<img src=""img/set1/S2.jpg"" width=""540"" height = ""360"" style=""border:16px solid orange"">","null","","","","","","","",""
"null","","html-keyboard-response","180","399373","0.0-180.0","","","null","","","","","","","",""
"546.5999999642372","","image-keyboard-response","181","399920","0.0-181.0","","img/set1/S4.jpg","74","4","random","74","random,structured_load,structured_incentive,structured_normal","2,3,2,1,3,4","true","",""
"null","","html-keyboard-response","182","400271","0.0-182.0","","<img src=""img/set1/S4.jpg"" width=""540"" height = ""360"" style=""border:16px solid orange"">","null","","","","","","","",""
"null","","html-keyboard-response","183","400473","0.0-183.0","","","null","","","","","","","",""
"448.5999999642372","","image-keyboard-response","184","400922","0.0-184.0","","img/set1/S4.jpg","74","4","random","74","random,structured_load,structured_incentive,structured_normal","2,3,2,1,3,4","true","",""
"null","","html-keyboard-response","185","401273","0.0-185.0","","<img src=""img/set1/S4.jpg"" width=""540"" height = ""360"" style=""border:16px solid orange"">","null","","","","","","","",""
"null","","html-keyboard-response","186","401475","0.0-186.0","","","null","","","","","","","",""
"365.19999998807907","","image-keyboard-response","187","401841","0.0-187.0","","img/set1/S4.jpg","74","4","random","74","random,structured_load,structured_incentive,structured_normal","2,3,2,1,3,4","true","",""
"null","","html-keyboard-response","188","402193","0.0-188.0","","<img src=""img/set1/S4.jpg"" width=""540"" height = ""360"" style=""border:16px solid orange"">","null","","","","","","","",""
"null","","html-keyboard-response","189","402394","0.0-189.0","","","null","","","","","","","",""
"671.5999999642372","","image-keyboard-response","190","403066","0.0-190.0","","img/set1/S2.jpg","68","2","random","68","random,structured_load,structured_incentive,structured_normal","2,3,2,1,3,4","true","",""
"null","","html-keyboard-response","191","403417","0.0-191.0","","<img src=""img/set1/S2.jpg"" width=""540"" height = ""360"" style=""border:16px solid orange"">","null","","","","","","","",""
"null","","html-keyboard-response","192","403618","0.0-192.0","","","null","","","","","","","",""
"501.7999999523163","","image-keyboard-response","193","404121","0.0-193.0","","img/set1/S1.jpg","83","1","random","83","random,structured_load,structured_incentive,structured_normal","2,3,2,1,3,4","true","",""
"null","","html-keyboard-response","194","404473","0.0-194.0","","<img src=""img/set1/S1.jpg"" width=""540"" height = ""360"" style=""border:16px solid orange"">","null","","","","","","","",""
"null","","html-keyboard-response","195","404674","0.0-195.0","","","null","","","","","","","",""
"390.10000002384186","","image-keyboard-response","196","405065","0.0-196.0","","img/set1/S1.jpg","83","1","random","83","random,structured_load,structured_incentive,structured_normal","2,3,2,1,3,4","true","",""
"null","","html-keyboard-response","197","405417","0.0-197.0","","<img src=""img/set1/S1.jpg"" width=""540"" height = ""360"" style=""border:16px solid orange"">","null","","","","","","","",""
"null","","html-keyboard-response","198","405618","0.0-198.0","","","null","","","","","","","",""
"563.3999999761581","","image-keyboard-response","199","406182","0.0-199.0","","img/set1/S3.jpg","72","3","random","72","random,structured_load,structured_incentive,structured_normal","2,3,2,1,3,4","true","",""
"null","","html-keyboard-response","200","406533","0.0-200.0","","<img src=""img/set1/S3.jpg"" width=""540"" height = ""360"" style=""border:16px solid orange"">","null","","","","","","","",""
"null","","html-keyboard-response","201","406734","0.0-201.0","","","null","","","","","","","",""
"556.3999999761581","","image-keyboard-response","202","407292","0.0-202.0","","img/set1/S1.jpg","83","1","random","83","random,structured_load,structured_incentive,structured_normal","2,3,2,1,3,4","true","",""
"null","","html-keyboard-response","203","407644","0.0-203.0","","<img src=""img/set1/S1.jpg"" width=""540"" height = ""360"" style=""border:16px solid orange"">","null","","","","","","","",""
"null","","html-keyboard-response","204","407844","0.0-204.0","","","null","","","","","","","",""
"607.3000000119209","","image-keyboard-response","205","408452","0.0-205.0","","img/set1/S3.jpg","72","3","random","72","random,structured_load,structured_incentive,structured_normal","2,3,2,1,3,4","true","",""
"null","","html-keyboard-response","206","408804","0.0-206.0","","<img src=""img/set1/S3.jpg"" width=""540"" height = ""360"" style=""border:16px solid orange"">","null","","","","","","","",""
"null","","html-keyboard-response","207","409005","0.0-207.0","","","null","","","","","","","",""
"550.8000000119209","","image-keyboard-response","208","409556","0.0-208.0","","img/set1/S1.jpg","83","1","random","83","random,structured_load,structured_incentive,structured_normal","2,3,2,1,3,4","true","",""
"null","","html-keyboard-response","209","409908","0.0-209.0","","<img src=""img/set1/S1.jpg"" width=""540"" height = ""360"" style=""border:16px solid orange"">","null","","","","","","","",""
"null","","html-keyboard-response","210","410109","0.0-210.0","","","null","","","","","","","",""
"493.60000002384186","","image-keyboard-response","211","410604","0.0-211.0","","img/set1/S4.jpg","74","4","random","74","random,structured_load,structured_incentive,structured_normal","2,3,2,1,3,4","true","",""
"null","","html-keyboard-response","212","410955","0.0-212.0","","<img src=""img/set1/S4.jpg"" width=""540"" height = ""360"" style=""border:16px solid orange"">","null","","","","","","","",""
"null","","html-keyboard-response","213","411157","0.0-213.0","","","null","","","","","","","",""
"593.6999999880791","","image-keyboard-response","214","411751","0.0-214.0","","img/set1/S2.jpg","68","2","random","68","random,structured_load,structured_incentive,structured_normal","2,3,2,1,3,4","true","",""
"null","","html-keyboard-response","215","412103","0.0-215.0","","<img src=""img/set1/S2.jpg"" width=""540"" height = ""360"" style=""border:16px solid orange"">","null","","","","","","","",""
"null","","html-keyboard-response","216","412304","0.0-216.0","","","null","","","","","","","",""
"672.1999999880791","","image-keyboard-response","217","412977","0.0-217.0","","img/set1/S1.jpg","83","1","random","83","random,structured_load,structured_incentive,structured_normal","2,3,2,1,3,4","true","",""
"null","","html-keyboard-response","218","413330","0.0-218.0","","<img src=""img/set1/S1.jpg"" width=""540"" height = ""360"" style=""border:16px solid orange"">","null","","","","","","","",""
"null","","html-keyboard-response","219","413530","0.0-219.0","","","null","","","","","","","",""
"427.0999999642372","","image-keyboard-response","220","413958","0.0-220.0","","img/set1/S1.jpg","83","1","random","83","random,structured_load,structured_incentive,structured_normal","2,3,2,1,3,4","true","",""
"null","","html-keyboard-response","221","414310","0.0-221.0","","<img src=""img/set1/S1.jpg"" width=""540"" height = ""360"" style=""border:16px solid orange"">","null","","","","","","","",""
"null","","html-keyboard-response","222","414512","0.0-222.0","","","null","","","","","","","",""
"614.1999999880791","","image-keyboard-response","223","415127","0.0-223.0","","img/set1/S2.jpg","68","2","random","68","random,structured_load,structured_incentive,structured_normal","2,3,2,1,3,4","true","",""
"null","","html-keyboard-response","224","415478","0.0-224.0","","<img src=""img/set1/S2.jpg"" width=""540"" height = ""360"" style=""border:16px solid orange"">","null","","","","","","","",""
"null","","html-keyboard-response","225","415679","0.0-225.0","","","null","","","","","","","",""
"680","","image-keyboard-response","226","416359","0.0-226.0","","img/set1/S1.jpg","83","1","random","83","random,structured_load,structured_incentive,structured_normal","2,3,2,1,3,4","true","",""
"null","","html-keyboard-response","227","416711","0.0-227.0","","<img src=""img/set1/S1.jpg"" width=""540"" height = ""360"" style=""border:16px solid orange"">","null","","","","","","","",""
"null","","html-keyboard-response","228","416912","0.0-228.0","","","null","","","","","","","",""
"556.0999999642372","","image-keyboard-response","229","417469","0.0-229.0","","img/set1/S4.jpg","74","4","random","74","random,structured_load,structured_incentive,structured_normal","2,3,2,1,3,4","true","",""
"null","","html-keyboard-response","230","417820","0.0-230.0","","<img src=""img/set1/S4.jpg"" width=""540"" height = ""360"" style=""border:16px solid orange"">","null","","","","","","","",""
"null","","html-keyboard-response","231","418021","0.0-231.0","","","null","","","","","","","",""
"470.89999997615814","","image-keyboard-response","232","418493","0.0-232.0","","img/set1/S4.jpg","74","4","random","74","random,structured_load,structured_incentive,structured_normal","2,3,2,1,3,4","true","",""
"null","","html-keyboard-response","233","418845","0.0-233.0","","<img src=""img/set1/S4.jpg"" width=""540"" height = ""360"" style=""border:16px solid orange"">","null","","","","","","","",""
"null","","html-keyboard-response","234","419046","0.0-234.0","","","null","","","","","","","",""
"511","","image-keyboard-response","235","419557","0.0-235.0","","img/set1/S1.jpg","83","1","random","83","random,structured_load,structured_incentive,structured_normal","2,3,2,1,3,4","true","",""
"null","","html-keyboard-response","236","419909","0.0-236.0","","<img src=""img/set1/S1.jpg"" width=""540"" height = ""360"" style=""border:16px solid orange"">","null","","","","","","","",""
"null","","html-keyboard-response","237","420110","0.0-237.0","","","null","","","","","","","",""
"521.8000000119209","","image-keyboard-response","238","420632","0.0-238.0","","img/set1/S4.jpg","74","4","random","74","random,structured_load,structured_incentive,structured_normal","2,3,2,1,3,4","true","",""
"null","","html-keyboard-response","239","420985","0.0-239.0","","<img src=""img/set1/S4.jpg"" width=""540"" height = ""360"" style=""border:16px solid orange"">","null","","","","","","","",""
"null","","html-keyboard-response","240","421186","0.0-240.0","","","null","","","","","","","",""
"1300.8999999761581","","image-keyboard-response","241","422488","0.0-241.0","","img/set1/S3.jpg","72","3","random","72","random,structured_load,structured_incentive,structured_normal","2,3,2,1,3,4","true","",""
"null","","html-keyboard-response","242","422839","0.0-242.0","","<img src=""img/set1/S3.jpg"" width=""540"" height = ""360"" style=""border:16px solid orange"">","null","","","","","","","",""
"null","","html-keyboard-response","243","423041","0.0-243.0","","","null","","","","","","","",""
"482.7000000476837","","image-keyboard-response","244","423524","0.0-244.0","","img/set1/S1.jpg","83","1","random","83","random,structured_load,structured_incentive,structured_normal","2,3,2,1,3,4","true","",""
"null","","html-keyboard-response","245","423876","0.0-245.0","","<img src=""img/set1/S1.jpg"" width=""540"" height = ""360"" style=""border:16px solid orange"">","null","","","","","","","",""
"null","","html-keyboard-response","246","424077","0.0-246.0","","","null","","","","","","","",""
"539.8999999761581","","image-keyboard-response","247","424618","0.0-247.0","","img/set1/S3.jpg","72","3","random","72","random,structured_load,structured_incentive,structured_normal","2,3,2,1,3,4","true","",""
"null","","html-keyboard-response","248","424971","0.0-248.0","","<img src=""img/set1/S3.jpg"" width=""540"" height = ""360"" style=""border:16px solid orange"">","null","","","","","","","",""
"null","","html-keyboard-response","249","425172","0.0-249.0","","","null","","","","","","","",""
"1056.5","","image-keyboard-response","250","426229","0.0-250.0","","img/set1/S2.jpg","68","2","random","68","random,structured_load,structured_incentive,structured_normal","2,3,2,1,3,4","true","",""
"null","","html-keyboard-response","251","426580","0.0-251.0","","<img src=""img/set1/S2.jpg"" width=""540"" height = ""360"" style=""border:16px solid orange"">","null","","","","","","","",""
"null","","html-keyboard-response","252","426781","0.0-252.0","","","null","","","","","","","",""
"910.2000000476837","","image-keyboard-response","253","427692","0.0-253.0","","img/set1/S3.jpg","72","3","random","72","random,structured_load,structured_incentive,structured_normal","2,3,2,1,3,4","true","",""
"null","","html-keyboard-response","254","428044","0.0-254.0","","<img src=""img/set1/S3.jpg"" width=""540"" height = ""360"" style=""border:16px solid orange"">","null","","","","","","","",""
"null","","html-keyboard-response","255","428245","0.0-255.0","","","null","","","","","","","",""
"337.89999997615814","","image-keyboard-response","256","428584","0.0-256.0","","img/set1/S3.jpg","72","3","random","72","random,structured_load,structured_incentive,structured_normal","2,3,2,1,3,4","true","",""
"null","","html-keyboard-response","257","428935","0.0-257.0","","<img src=""img/set1/S3.jpg"" width=""540"" height = ""360"" style=""border:16px solid orange"">","null","","","","","","","",""
"null","","html-keyboard-response","258","429136","0.0-258.0","","","null","","","","","","","",""
"452.7000000476837","","image-keyboard-response","259","429589","0.0-259.0","","img/set1/S4.jpg","74","4","random","74","random,structured_load,structured_incentive,structured_normal","2,3,2,1,3,4","true","",""
"null","","html-keyboard-response","260","429940","0.0-260.0","","<img src=""img/set1/S4.jpg"" width=""540"" height = ""360"" style=""border:16px solid orange"">","null","","","","","","","",""
"null","","html-keyboard-response","261","430141","0.0-261.0","","","null","","","","","","","",""
"339","","image-keyboard-response","262","430481","0.0-262.0","","img/set1/S4.jpg","74","4","random","74","random,structured_load,structured_incentive,structured_normal","2,3,2,1,3,4","true","",""
"null","","html-keyboard-response","263","430832","0.0-263.0","","<img src=""img/set1/S4.jpg"" width=""540"" height = ""360"" style=""border:16px solid orange"">","null","","","","","","","",""
"null","","html-keyboard-response","264","431033","0.0-264.0","","","null","","","","","","","",""
"578.0999999642372","","image-keyboard-response","265","431612","0.0-265.0","","img/set1/S1.jpg","83","1","random","83","random,structured_load,structured_incentive,structured_normal","2,3,2,1,3,4","true","",""
"null","","html-keyboard-response","266","431964","0.0-266.0","","<img src=""img/set1/S1.jpg"" width=""540"" height = ""360"" style=""border:16px solid orange"">","null","","","","","","","",""
"null","","html-keyboard-response","267","432165","0.0-267.0","","","null","","","","","","","",""
"449.5","","image-keyboard-response","268","432615","0.0-268.0","","img/set1/S1.jpg","83","1","random","83","random,structured_load,structured_incentive,structured_normal","2,3,2,1,3,4","true","",""
"null","","html-keyboard-response","269","432967","0.0-269.0","","<img src=""img/set1/S1.jpg"" width=""540"" height = ""360"" style=""border:16px solid orange"">","null","","","","","","","",""
"null","","html-keyboard-response","270","433168","0.0-270.0","","","null","","","","","","","",""
"452.0999999642372","","image-keyboard-response","271","433621","0.0-271.0","","img/set1/S3.jpg","72","3","random","72","random,structured_load,structured_incentive,structured_normal","2,3,2,1,3,4","true","",""
"null","","html-keyboard-response","272","433972","0.0-272.0","","<img src=""img/set1/S3.jpg"" width=""540"" height = ""360"" style=""border:16px solid orange"">","null","","","","","","","",""
"null","","html-keyboard-response","273","434173","0.0-273.0","","","null","","","","","","","",""
"287","","image-keyboard-response","274","434461","0.0-274.0","","img/set1/S4.jpg","74","4","random","74","random,structured_load,structured_incentive,structured_normal","2,3,2,1,3,4","true","",""
"null","","html-keyboard-response","275","434812","0.0-275.0","","<img src=""img/set1/S4.jpg"" width=""540"" height = ""360"" style=""border:16px solid orange"">","null","","","","","","","",""
"null","","html-keyboard-response","276","435013","0.0-276.0","","","null","","","","","","","",""
"552.1000000238419","","image-keyboard-response","277","435566","0.0-277.0","","img/set1/S3.jpg","68","3","random","72","random,structured_load,structured_incentive,structured_normal","2,3,2,1,3,4","false","",""
"null","","html-keyboard-response","278","435919","0.0-278.0","","<img src=""img/set1/S3.jpg"" width=""540"" height = ""360"">","null","","","","","","","",""
"null","","html-keyboard-response","279","436120","0.0-279.0","","","null","","","","","","","",""
"446.0999999642372","","image-keyboard-response","280","436567","0.0-280.0","","img/set1/S3.jpg","72","3","random","72","random,structured_load,structured_incentive,structured_normal","2,3,2,1,3,4","true","",""
"null","","html-keyboard-response","281","436918","0.0-281.0","","<img src=""img/set1/S3.jpg"" width=""540"" height = ""360"" style=""border:16px solid orange"">","null","","","","","","","",""
"null","","html-keyboard-response","282","437119","0.0-282.0","","","null","","","","","","","",""
"496.5","","image-keyboard-response","283","437616","0.0-283.0","","img/set1/S1.jpg","83","1","random","83","random,structured_load,structured_incentive,structured_normal","2,3,2,1,3,4","true","",""
"null","","html-keyboard-response","284","437968","0.0-284.0","","<img src=""img/set1/S1.jpg"" width=""540"" height = ""360"" style=""border:16px solid orange"">","null","","","","","","","",""
"null","","html-keyboard-response","285","438169","0.0-285.0","","","null","","","","","","","",""
"652.9000000357628","","image-keyboard-response","286","438823","0.0-286.0","","img/set1/S2.jpg","68","2","random","68","random,structured_load,structured_incentive,structured_normal","2,3,2,1,3,4","true","",""
"null","","html-keyboard-response","287","439175","0.0-287.0","","<img src=""img/set1/S2.jpg"" width=""540"" height = ""360"" style=""border:16px solid orange"">","null","","","","","","","",""
"null","","html-keyboard-response","288","439376","0.0-288.0","","","null","","","","","","","",""
"473.10000002384186","","image-keyboard-response","289","439850","0.0-289.0","","img/set1/S4.jpg","74","4","random","74","random,structured_load,structured_incentive,structured_normal","2,3,2,1,3,4","true","",""
"null","","html-keyboard-response","290","440202","0.0-290.0","","<img src=""img/set1/S4.jpg"" width=""540"" height = ""360"" style=""border:16px solid orange"">","null","","","","","","","",""
"null","","html-keyboard-response","291","440403","0.0-291.0","","","null","","","","","","","",""
"596.3999999761581","","image-keyboard-response","292","441000","0.0-292.0","","img/set1/S3.jpg","72","3","random","72","random,structured_load,structured_incentive,structured_normal","2,3,2,1,3,4","true","",""
"null","","html-keyboard-response","293","441351","0.0-293.0","","<img src=""img/set1/S3.jpg"" width=""540"" height = ""360"" style=""border:16px solid orange"">","null","","","","","","","",""
"null","","html-keyboard-response","294","441552","0.0-294.0","","","null","","","","","","","",""
"530.1999999880791","","image-keyboard-response","295","442083","0.0-295.0","","img/set1/S4.jpg","74","4","random","74","random,structured_load,structured_incentive,structured_normal","2,3,2,1,3,4","true","",""
"null","","html-keyboard-response","296","442435","0.0-296.0","","<img src=""img/set1/S4.jpg"" width=""540"" height = ""360"" style=""border:16px solid orange"">","null","","","","","","","",""
"null","","html-keyboard-response","297","442636","0.0-297.0","","","null","","","","","","","",""
"1242.5","","image-keyboard-response","298","443879","0.0-298.0","","img/set1/S3.jpg","72","3","random","72","random,structured_load,structured_incentive,structured_normal","2,3,2,1,3,4","true","",""
"null","","html-keyboard-response","299","444232","0.0-299.0","","<img src=""img/set1/S3.jpg"" width=""540"" height = ""360"" style=""border:16px solid orange"">","null","","","","","","","",""
"null","","html-keyboard-response","300","444433","0.0-300.0","","","null","","","","","","","",""
"626","","image-keyboard-response","301","445060","0.0-301.0","","img/set1/S2.jpg","68","2","random","68","random,structured_load,structured_incentive,structured_normal","2,3,2,1,3,4","true","",""
"null","","html-keyboard-response","302","445411","0.0-302.0","","<img src=""img/set1/S2.jpg"" width=""540"" height = ""360"" style=""border:16px solid orange"">","null","","","","","","","",""
"null","","html-keyboard-response","303","445612","0.0-303.0","","","null","","","","","","","",""
"562.6000000238419","","image-keyboard-response","304","446176","0.0-304.0","","img/set1/S3.jpg","72","3","random","72","random,structured_load,structured_incentive,structured_normal","2,3,2,1,3,4","true","",""
"null","","html-keyboard-response","305","446528","0.0-305.0","","<img src=""img/set1/S3.jpg"" width=""540"" height = ""360"" style=""border:16px solid orange"">","null","","","","","","","",""
"null","","html-keyboard-response","306","446731","0.0-306.0","","","null","","","","","","","",""
"548.1999999880791","","image-keyboard-response","307","447280","0.0-307.0","","img/set1/S1.jpg","83","1","random","83","random,structured_load,structured_incentive,structured_normal","2,3,2,1,3,4","true","",""
"null","","html-keyboard-response","308","447631","0.0-308.0","","<img src=""img/set1/S1.jpg"" width=""540"" height = ""360"" style=""border:16px solid orange"">","null","","","","","","","",""
"null","","html-keyboard-response","309","447832","0.0-309.0","","","null","","","","","","","",""
"664.4000000357628","","image-keyboard-response","310","448497","0.0-310.0","","img/set1/S3.jpg","72","3","random","72","random,structured_load,structured_incentive,structured_normal","2,3,2,1,3,4","true","",""
"null","","html-keyboard-response","311","448849","0.0-311.0","","<img src=""img/set1/S3.jpg"" width=""540"" height = ""360"" style=""border:16px solid orange"">","null","","","","","","","",""
"null","","html-keyboard-response","312","449051","0.0-312.0","","","null","","","","","","","",""
"530.8000000119209","","image-keyboard-response","313","449582","0.0-313.0","","img/set1/S1.jpg","83","1","random","83","random,structured_load,structured_incentive,structured_normal","2,3,2,1,3,4","true","",""
"null","","html-keyboard-response","314","449934","0.0-314.0","","<img src=""img/set1/S1.jpg"" width=""540"" height = ""360"" style=""border:16px solid orange"">","null","","","","","","","",""
"null","","html-keyboard-response","315","450135","0.0-315.0","","","null","","","","","","","",""
"535.8000000119209","","image-keyboard-response","316","450671","0.0-316.0","","img/set1/S1.jpg","83","1","random","83","random,structured_load,structured_incentive,structured_normal","2,3,2,1,3,4","true","",""
"null","","html-keyboard-response","317","451023","0.0-317.0","","<img src=""img/set1/S1.jpg"" width=""540"" height = ""360"" style=""border:16px solid orange"">","null","","","","","","","",""
"null","","html-keyboard-response","318","451224","0.0-318.0","","","null","","","","","","","",""
"673.3999999761581","","image-keyboard-response","319","451899","0.0-319.0","","img/set1/S2.jpg","68","2","random","68","random,structured_load,structured_incentive,structured_normal","2,3,2,1,3,4","true","",""
"null","","html-keyboard-response","320","452252","0.0-320.0","","<img src=""img/set1/S2.jpg"" width=""540"" height = ""360"" style=""border:16px solid orange"">","null","","","","","","","",""
"null","","html-keyboard-response","321","452453","0.0-321.0","","","null","","","","","","","",""
"488.80000001192093","","image-keyboard-response","322","452942","0.0-322.0","","img/set1/S1.jpg","83","1","random","83","random,structured_load,structured_incentive,structured_normal","2,3,2,1,3,4","true","",""
"null","","html-keyboard-response","323","453294","0.0-323.0","","<img src=""img/set1/S1.jpg"" width=""540"" height = ""360"" style=""border:16px solid orange"">","null","","","","","","","",""
"null","","html-keyboard-response","324","453496","0.0-324.0","","","null","","","","","","","",""
"348","","image-keyboard-response","325","453845","0.0-325.0","","img/set1/S1.jpg","83","1","random","83","random,structured_load,structured_incentive,structured_normal","2,3,2,1,3,4","true","",""
"null","","html-keyboard-response","326","454196","0.0-326.0","","<img src=""img/set1/S1.jpg"" width=""540"" height = ""360"" style=""border:16px solid orange"">","null","","","","","","","",""
"null","","html-keyboard-response","327","454397","0.0-327.0","","","null","","","","","","","",""
"954","","image-keyboard-response","328","455352","0.0-328.0","","img/set1/S2.jpg","68","2","random","68","random,structured_load,structured_incentive,structured_normal","2,3,2,1,3,4","true","",""
"null","","html-keyboard-response","329","455704","0.0-329.0","","<img src=""img/set1/S2.jpg"" width=""540"" height = ""360"" style=""border:16px solid orange"">","null","","","","","","","",""
"null","","html-keyboard-response","330","455906","0.0-330.0","","","null","","","","","","","",""
"701.5","","image-keyboard-response","331","456608","0.0-331.0","","img/set1/S3.jpg","72","3","random","72","random,structured_load,structured_incentive,structured_normal","2,3,2,1,3,4","true","",""
"null","","html-keyboard-response","332","456961","0.0-332.0","","<img src=""img/set1/S3.jpg"" width=""540"" height = ""360"" style=""border:16px solid orange"">","null","","","","","","","",""
"null","","html-keyboard-response","333","457162","0.0-333.0","","","null","","","","","","","",""
"639.5","","image-keyboard-response","334","457802","0.0-334.0","","img/set1/S2.jpg","68","2","random","68","random,structured_load,structured_incentive,structured_normal","2,3,2,1,3,4","true","",""
"null","","html-keyboard-response","335","458154","0.0-335.0","","<img src=""img/set1/S2.jpg"" width=""540"" height = ""360"" style=""border:16px solid orange"">","null","","","","","","","",""
"null","","html-keyboard-response","336","458357","0.0-336.0","","","null","","","","","","","",""
"460.0999999642372","","image-keyboard-response","337","458817","0.0-337.0","","img/set1/S4.jpg","74","4","random","74","random,structured_load,structured_incentive,structured_normal","2,3,2,1,3,4","true","",""
"null","","html-keyboard-response","338","459169","0.0-338.0","","<img src=""img/set1/S4.jpg"" width=""540"" height = ""360"" style=""border:16px solid orange"">","null","","","","","","","",""
"null","","html-keyboard-response","339","459370","0.0-339.0","","","null","","","","","","","",""
"559.5999999642372","","image-keyboard-response","340","459931","0.0-340.0","","img/set1/S1.jpg","83","1","random","83","random,structured_load,structured_incentive,structured_normal","2,3,2,1,3,4","true","",""
"null","","html-keyboard-response","341","460282","0.0-341.0","","<img src=""img/set1/S1.jpg"" width=""540"" height = ""360"" style=""border:16px solid orange"">","null","","","","","","","",""
"null","","html-keyboard-response","342","460483","0.0-342.0","","","null","","","","","","","",""
"675.6000000238419","","image-keyboard-response","343","461160","0.0-343.0","","img/set1/S4.jpg","74","4","random","74","random,structured_load,structured_incentive,structured_normal","2,3,2,1,3,4","true","",""
"null","","html-keyboard-response","344","461512","0.0-344.0","","<img src=""img/set1/S4.jpg"" width=""540"" height = ""360"" style=""border:16px solid orange"">","null","","","","","","","",""
"null","","html-keyboard-response","345","461713","0.0-345.0","","","null","","","","","","","",""
"511.19999998807907","","image-keyboard-response","346","462225","0.0-346.0","","img/set1/S2.jpg","68","2","random","68","random,structured_load,structured_incentive,structured_normal","2,3,2,1,3,4","true","",""
"null","","html-keyboard-response","347","462576","0.0-347.0","","<img src=""img/set1/S2.jpg"" width=""540"" height = ""360"" style=""border:16px solid orange"">","null","","","","","","","",""
"null","","html-keyboard-response","348","462777","0.0-348.0","","","null","","","","","","","",""
"551.1999999880791","","image-keyboard-response","349","463329","0.0-349.0","","img/set1/S4.jpg","74","4","random","74","random,structured_load,structured_incentive,structured_normal","2,3,2,1,3,4","true","",""
"null","","html-keyboard-response","350","463683","0.0-350.0","","<img src=""img/set1/S4.jpg"" width=""540"" height = ""360"" style=""border:16px solid orange"">","null","","","","","","","",""
"null","","html-keyboard-response","351","463884","0.0-351.0","","","null","","","","","","","",""
"672.5","","image-keyboard-response","352","464557","0.0-352.0","","img/set1/S2.jpg","68","2","random","68","random,structured_load,structured_incentive,structured_normal","2,3,2,1,3,4","true","",""
"null","","html-keyboard-response","353","464910","0.0-353.0","","<img src=""img/set1/S2.jpg"" width=""540"" height = ""360"" style=""border:16px solid orange"">","null","","","","","","","",""
"null","","html-keyboard-response","354","465111","0.0-354.0","","","null","","","","","","","",""
"490.19999998807907","","image-keyboard-response","355","465601","0.0-355.0","","img/set1/S4.jpg","74","4","random","74","random,structured_load,structured_incentive,structured_normal","2,3,2,1,3,4","true","",""
"null","","html-keyboard-response","356","465953","0.0-356.0","","<img src=""img/set1/S4.jpg"" width=""540"" height = ""360"" style=""border:16px solid orange"">","null","","","","","","","",""
"null","","html-keyboard-response","357","466155","0.0-357.0","","","null","","","","","","","",""
"492.89999997615814","","image-keyboard-response","358","466649","0.0-358.0","","img/set1/S2.jpg","68","2","random","68","random,structured_load,structured_incentive,structured_normal","2,3,2,1,3,4","true","",""
"null","","html-keyboard-response","359","467001","0.0-359.0","","<img src=""img/set1/S2.jpg"" width=""540"" height = ""360"" style=""border:16px solid orange"">","null","","","","","","","",""
"null","","html-keyboard-response","360","467202","0.0-360.0","","","null","","","","","","","",""
"730.6999999880791","","image-keyboard-response","361","467934","0.0-361.0","","img/set1/S2.jpg","68","2","random","68","random,structured_load,structured_incentive,structured_normal","2,3,2,1,3,4","true","",""
"null","","html-keyboard-response","362","468285","0.0-362.0","","<img src=""img/set1/S2.jpg"" width=""540"" height = ""360"" style=""border:16px solid orange"">","null","","","","","","","",""
"null","","html-keyboard-response","363","468486","0.0-363.0","","","null","","","","","","","",""
"10810.899999976158","","html-keyboard-response","364","479298","0.0-364.0","","<p class=""center-content"">You have completed a block! </p><p class=""center-content"">Press any key on the keyboard to continue, </p><p class=""center-content"">or wait for the automatic progression to the next block after one minute.</p>","32","","","","","","","",""
"2423.300000011921","","instructions","365","481721","0.0-365.0","[{""page_index"":0,""viewing_time"":2423.100000023842}]","","","","","","","","","",""
"20486.399999976158","","instructions","366","502208","0.0-366.0","[{""page_index"":0,""viewing_time"":16664},{""page_index"":1,""viewing_time"":3822.199999988079}]","","","","","","","","","",""
"1656.800000011921","","image-keyboard-response","367","503866","0.0-367.0","","img/set2/S1.jpg","72","1","structured_load","83","random,structured_load,structured_incentive,structured_normal","2,3,2,1,3,4","false","",""
"null","","html-keyboard-response","368","504218","0.0-368.0","","<img src=""img/set2/S1.jpg"" width=""540"" height = ""360"">","null","","","","","","","",""
"null","","html-keyboard-response","369","504420","0.0-369.0","","","null","","","","","","","",""
"594.3000000119209","","image-keyboard-response","370","505015","0.0-370.0","","img/set2/S4.jpg","74","4","structured_load","74","random,structured_load,structured_incentive,structured_normal","2,3,2,1,3,4","true","",""
"null","","html-keyboard-response","371","505368","0.0-371.0","","<img src=""img/set2/S4.jpg"" width=""540"" height = ""360"" style=""border:16px solid orange"">","null","","","","","","","",""
"null","","html-keyboard-response","372","505569","0.0-372.0","","","null","","","","","","","",""
"404.69999998807907","","image-keyboard-response","373","505974","0.0-373.0","","img/set2/S4.jpg","74","4","structured_load","74","random,structured_load,structured_incentive,structured_normal","2,3,2,1,3,4","true","",""
"null","","html-keyboard-response","374","506326","0.0-374.0","","<img src=""img/set2/S4.jpg"" width=""540"" height = ""360"" style=""border:16px solid orange"">","null","","","","","","","",""
"null","","html-keyboard-response","375","506527","0.0-375.0","","","null","","","","","","","",""
"819.5","","image-keyboard-response","376","507347","0.0-376.0","","img/set2/S4.jpg","74","4","structured_load","74","random,structured_load,structured_incentive,structured_normal","2,3,2,1,3,4","true","",""
"null","","html-keyboard-response","377","507699","0.0-377.0","","<img src=""img/set2/S4.jpg"" width=""540"" height = ""360"" style=""border:16px solid orange"">","null","","","","","","","",""
"null","","html-keyboard-response","378","507901","0.0-378.0","","","null","","","","","","","",""
"1017","","image-keyboard-response","379","508919","0.0-379.0","","img/set2/S4.jpg","74","4","structured_load","74","random,structured_load,structured_incentive,structured_normal","2,3,2,1,3,4","true","",""
"null","","html-keyboard-response","380","509270","0.0-380.0","","<img src=""img/set2/S4.jpg"" width=""540"" height = ""360"" style=""border:16px solid orange"">","null","","","","","","","",""
"null","","html-keyboard-response","381","509471","0.0-381.0","","","null","","","","","","","",""
"742.1000000238419","","image-keyboard-response","382","510214","0.0-382.0","","img/set2/S1.jpg","83","1","structured_load","83","random,structured_load,structured_incentive,structured_normal","2,3,2,1,3,4","true","",""
"null","","html-keyboard-response","383","510566","0.0-383.0","","<img src=""img/set2/S1.jpg"" width=""540"" height = ""360"" style=""border:16px solid orange"">","null","","","","","","","",""
"null","","html-keyboard-response","384","510768","0.0-384.0","","","null","","","","","","","",""
"977.8999999761581","","image-keyboard-response","385","511747","0.0-385.0","","img/set2/S1.jpg","83","1","structured_load","83","random,structured_load,structured_incentive,structured_normal","2,3,2,1,3,4","true","",""
"null","","html-keyboard-response","386","512098","0.0-386.0","","<img src=""img/set2/S1.jpg"" width=""540"" height = ""360"" style=""border:16px solid orange"">","null","","","","","","","",""
"null","","html-keyboard-response","387","512300","0.0-387.0","","","null","","","","","","","",""
"558.3999999761581","","image-keyboard-response","388","512859","0.0-388.0","","img/set2/S1.jpg","83","1","structured_load","83","random,structured_load,structured_incentive,structured_normal","2,3,2,1,3,4","true","",""
"null","","html-keyboard-response","389","513211","0.0-389.0","","<img src=""img/set2/S1.jpg"" width=""540"" height = ""360"" style=""border:16px solid orange"">","null","","","","","","","",""
"null","","html-keyboard-response","390","513413","0.0-390.0","","","null","","","","","","","",""
"2123.5","","image-keyboard-response","391","515537","0.0-391.0","","img/set2/S1.jpg","83","1","structured_load","83","random,structured_load,structured_incentive,structured_normal","2,3,2,1,3,4","true","",""
"null","","html-keyboard-response","392","515889","0.0-392.0","","<img src=""img/set2/S1.jpg"" width=""540"" height = ""360"" style=""border:16px solid orange"">","null","","","","","","","",""
"null","","html-keyboard-response","393","516090","0.0-393.0","","","null","","","","","","","",""
"407.60000002384186","","image-keyboard-response","394","516499","0.0-394.0","","img/set2/S1.jpg","83","1","structured_load","83","random,structured_load,structured_incentive,structured_normal","2,3,2,1,3,4","true","",""
"null","","html-keyboard-response","395","516851","0.0-395.0","","<img src=""img/set2/S1.jpg"" width=""540"" height = ""360"" style=""border:16px solid orange"">","null","","","","","","","",""
"null","","html-keyboard-response","396","517054","0.0-396.0","","","null","","","","","","","",""
"null","","image-keyboard-response","397","519555","0.0-397.0","","img/set2/S1.jpg","null","1","structured_load","83","random,structured_load,structured_incentive,structured_normal","2,3,2,1,3,4","false","",""
"null","","html-keyboard-response","398","519906","0.0-398.0","","<img src=""img/set2/S1.jpg"" width=""540"" height = ""360"">","null","","","","","","","",""
"null","","html-keyboard-response","399","520109","0.0-399.0","","","null","","","","","","","",""
"628.2000000476837","","image-keyboard-response","400","520738","0.0-400.0","","img/set2/S2.jpg","68","2","structured_load","68","random,structured_load,structured_incentive,structured_normal","2,3,2,1,3,4","true","",""
"null","","html-keyboard-response","401","521090","0.0-401.0","","<img src=""img/set2/S2.jpg"" width=""540"" height = ""360"" style=""border:16px solid orange"">","null","","","","","","","",""
"null","","html-keyboard-response","402","521291","0.0-402.0","","","null","","","","","","","",""
"707","","image-keyboard-response","403","521998","0.0-403.0","","img/set2/S3.jpg","72","3","structured_load","72","random,structured_load,structured_incentive,structured_normal","2,3,2,1,3,4","true","",""
"null","","html-keyboard-response","404","522352","0.0-404.0","","<img src=""img/set2/S3.jpg"" width=""540"" height = ""360"" style=""border:16px solid orange"">","null","","","","","","","",""
"null","","html-keyboard-response","405","522553","0.0-405.0","","","null","","","","","","","",""
"508.4000000357628","","image-keyboard-response","406","523062","0.0-406.0","","img/set2/S4.jpg","74","4","structured_load","74","random,structured_load,structured_incentive,structured_normal","2,3,2,1,3,4","true","",""
"null","","html-keyboard-response","407","523415","0.0-407.0","","<img src=""img/set2/S4.jpg"" width=""540"" height = ""360"" style=""border:16px solid orange"">","null","","","","","","","",""
"null","","html-keyboard-response","408","523617","0.0-408.0","","","null","","","","","","","",""
"484.0999999642372","","image-keyboard-response","409","524102","0.0-409.0","","img/set2/S4.jpg","74","4","structured_load","74","random,structured_load,structured_incentive,structured_normal","2,3,2,1,3,4","true","",""
"null","","html-keyboard-response","410","524454","0.0-410.0","","<img src=""img/set2/S4.jpg"" width=""540"" height = ""360"" style=""border:16px solid orange"">","null","","","","","","","",""
"null","","html-keyboard-response","411","524655","0.0-411.0","","","null","","","","","","","",""
"392.5","","image-keyboard-response","412","525049","0.0-412.0","","img/set2/S4.jpg","74","4","structured_load","74","random,structured_load,structured_incentive,structured_normal","2,3,2,1,3,4","true","",""
"null","","html-keyboard-response","413","525400","0.0-413.0","","<img src=""img/set2/S4.jpg"" width=""540"" height = ""360"" style=""border:16px solid orange"">","null","","","","","","","",""
"null","","html-keyboard-response","414","525602","0.0-414.0","","","null","","","","","","","",""
"692.3000000119209","","image-keyboard-response","415","526295","0.0-415.0","","img/set2/S2.jpg","68","2","structured_load","68","random,structured_load,structured_incentive,structured_normal","2,3,2,1,3,4","true","",""
"null","","html-keyboard-response","416","526646","0.0-416.0","","<img src=""img/set2/S2.jpg"" width=""540"" height = ""360"" style=""border:16px solid orange"">","null","","","","","","","",""
"null","","html-keyboard-response","417","526847","0.0-417.0","","","null","","","","","","","",""
"676.3999999761581","","image-keyboard-response","418","527524","0.0-418.0","","img/set2/S3.jpg","74","3","structured_load","72","random,structured_load,structured_incentive,structured_normal","2,3,2,1,3,4","false","",""
"null","","html-keyboard-response","419","527875","0.0-419.0","","<img src=""img/set2/S3.jpg"" width=""540"" height = ""360"">","null","","","","","","","",""
"null","","html-keyboard-response","420","528076","0.0-420.0","","","null","","","","","","","",""
"602.8000000119209","","image-keyboard-response","421","528680","0.0-421.0","","img/set2/S4.jpg","74","4","structured_load","74","random,structured_load,structured_incentive,structured_normal","2,3,2,1,3,4","true","",""
"null","","html-keyboard-response","422","529031","0.0-422.0","","<img src=""img/set2/S4.jpg"" width=""540"" height = ""360"" style=""border:16px solid orange"">","null","","","","","","","",""
"null","","html-keyboard-response","423","529233","0.0-423.0","","","null","","","","","","","",""
"1510.5","","image-keyboard-response","424","530744","0.0-424.0","","img/set2/S2.jpg","68","2","structured_load","68","random,structured_load,structured_incentive,structured_normal","2,3,2,1,3,4","true","",""
"null","","html-keyboard-response","425","531096","0.0-425.0","","<img src=""img/set2/S2.jpg"" width=""540"" height = ""360"" style=""border:16px solid orange"">","null","","","","","","","",""
"null","","html-keyboard-response","426","531297","0.0-426.0","","","null","","","","","","","",""
"465.0999999642372","","image-keyboard-response","427","531763","0.0-427.0","","img/set2/S3.jpg","72","3","structured_load","72","random,structured_load,structured_incentive,structured_normal","2,3,2,1,3,4","true","",""
"null","","html-keyboard-response","428","532115","0.0-428.0","","<img src=""img/set2/S3.jpg"" width=""540"" height = ""360"" style=""border:16px solid orange"">","null","","","","","","","",""
"null","","html-keyboard-response","429","532316","0.0-429.0","","","null","","","","","","","",""
"578","","image-keyboard-response","430","532894","0.0-430.0","","img/set2/S2.jpg","68","2","structured_load","68","random,structured_load,structured_incentive,structured_normal","2,3,2,1,3,4","true","",""
"null","","html-keyboard-response","431","533247","0.0-431.0","","<img src=""img/set2/S2.jpg"" width=""540"" height = ""360"" style=""border:16px solid orange"">","null","","","","","","","",""
"null","","html-keyboard-response","432","533448","0.0-432.0","","","null","","","","","","","",""
"378.80000001192093","","image-keyboard-response","433","533828","0.0-433.0","","img/set2/S3.jpg","72","3","structured_load","72","random,structured_load,structured_incentive,structured_normal","2,3,2,1,3,4","true","",""
"null","","html-keyboard-response","434","534180","0.0-434.0","","<img src=""img/set2/S3.jpg"" width=""540"" height = ""360"" style=""border:16px solid orange"">","null","","","","","","","",""
"null","","html-keyboard-response","435","534381","0.0-435.0","","","null","","","","","","","",""
"538.2999999523163","","image-keyboard-response","436","534920","0.0-436.0","","img/set2/S4.jpg","74","4","structured_load","74","random,structured_load,structured_incentive,structured_normal","2,3,2,1,3,4","true","",""
"null","","html-keyboard-response","437","535272","0.0-437.0","","<img src=""img/set2/S4.jpg"" width=""540"" height = ""360"" style=""border:16px solid orange"">","null","","","","","","","",""
"null","","html-keyboard-response","438","535473","0.0-438.0","","","null","","","","","","","",""
"337.10000002384186","","image-keyboard-response","439","535811","0.0-439.0","","img/set2/S4.jpg","74","4","structured_load","74","random,structured_load,structured_incentive,structured_normal","2,3,2,1,3,4","true","",""
"null","","html-keyboard-response","440","536162","0.0-440.0","","<img src=""img/set2/S4.jpg"" width=""540"" height = ""360"" style=""border:16px solid orange"">","null","","","","","","","",""
"null","","html-keyboard-response","441","536363","0.0-441.0","","","null","","","","","","","",""
"397.10000002384186","","image-keyboard-response","442","536761","0.0-442.0","","img/set2/S4.jpg","74","4","structured_load","74","random,structured_load,structured_incentive,structured_normal","2,3,2,1,3,4","true","",""
"null","","html-keyboard-response","443","537112","0.0-443.0","","<img src=""img/set2/S4.jpg"" width=""540"" height = ""360"" style=""border:16px solid orange"">","null","","","","","","","",""
"null","","html-keyboard-response","444","537314","0.0-444.0","","","null","","","","","","","",""
"602.9000000357628","","image-keyboard-response","445","537917","0.0-445.0","","img/set2/S1.jpg","83","1","structured_load","83","random,structured_load,structured_incentive,structured_normal","2,3,2,1,3,4","true","",""
"null","","html-keyboard-response","446","538269","0.0-446.0","","<img src=""img/set2/S1.jpg"" width=""540"" height = ""360"" style=""border:16px solid orange"">","null","","","","","","","",""
"null","","html-keyboard-response","447","538471","0.0-447.0","","","null","","","","","","","",""
"710.1999999880791","","image-keyboard-response","448","539182","0.0-448.0","","img/set2/S2.jpg","72","2","structured_load","68","random,structured_load,structured_incentive,structured_normal","2,3,2,1,3,4","false","",""
"null","","html-keyboard-response","449","539533","0.0-449.0","","<img src=""img/set2/S2.jpg"" width=""540"" height = ""360"">","null","","","","","","","",""
"null","","html-keyboard-response","450","539734","0.0-450.0","","","null","","","","","","","",""
"551.8999999761581","","image-keyboard-response","451","540287","0.0-451.0","","img/set2/S3.jpg","72","3","structured_load","72","random,structured_load,structured_incentive,structured_normal","2,3,2,1,3,4","true","",""
"null","","html-keyboard-response","452","540638","0.0-452.0","","<img src=""img/set2/S3.jpg"" width=""540"" height = ""360"" style=""border:16px solid orange"">","null","","","","","","","",""
"null","","html-keyboard-response","453","540839","0.0-453.0","","","null","","","","","","","",""
"375.30000001192093","","image-keyboard-response","454","541215","0.0-454.0","","img/set2/S2.jpg","68","2","structured_load","68","random,structured_load,structured_incentive,structured_normal","2,3,2,1,3,4","true","",""
"null","","html-keyboard-response","455","541568","0.0-455.0","","<img src=""img/set2/S2.jpg"" width=""540"" height = ""360"" style=""border:16px solid orange"">","null","","","","","","","",""
"null","","html-keyboard-response","456","541769","0.0-456.0","","","null","","","","","","","",""
"484.80000001192093","","image-keyboard-response","457","542255","0.0-457.0","","img/set2/S3.jpg","72","3","structured_load","72","random,structured_load,structured_incentive,structured_normal","2,3,2,1,3,4","true","",""
"null","","html-keyboard-response","458","542607","0.0-458.0","","<img src=""img/set2/S3.jpg"" width=""540"" height = ""360"" style=""border:16px solid orange"">","null","","","","","","","",""
"null","","html-keyboard-response","459","542808","0.0-459.0","","","null","","","","","","","",""
"320.19999998807907","","image-keyboard-response","460","543129","0.0-460.0","","img/set2/S4.jpg","74","4","structured_load","74","random,structured_load,structured_incentive,structured_normal","2,3,2,1,3,4","true","",""
"null","","html-keyboard-response","461","543482","0.0-461.0","","<img src=""img/set2/S4.jpg"" width=""540"" height = ""360"" style=""border:16px solid orange"">","null","","","","","","","",""
"null","","html-keyboard-response","462","543683","0.0-462.0","","","null","","","","","","","",""
"628","","image-keyboard-response","463","544312","0.0-463.0","","img/set2/S2.jpg","68","2","structured_load","68","random,structured_load,structured_incentive,structured_normal","2,3,2,1,3,4","true","",""
"null","","html-keyboard-response","464","544663","0.0-464.0","","<img src=""img/set2/S2.jpg"" width=""540"" height = ""360"" style=""border:16px solid orange"">","null","","","","","","","",""
"null","","html-keyboard-response","465","544865","0.0-465.0","","","null","","","","","","","",""
"453.30000001192093","","image-keyboard-response","466","545319","0.0-466.0","","img/set2/S3.jpg","72","3","structured_load","72","random,structured_load,structured_incentive,structured_normal","2,3,2,1,3,4","true","",""
"null","","html-keyboard-response","467","545670","0.0-467.0","","<img src=""img/set2/S3.jpg"" width=""540"" height = ""360"" style=""border:16px solid orange"">","null","","","","","","","",""
"null","","html-keyboard-response","468","545871","0.0-468.0","","","null","","","","","","","",""
"715.3999999761581","","image-keyboard-response","469","546588","0.0-469.0","","img/set2/S1.jpg","83","1","structured_load","83","random,structured_load,structured_incentive,structured_normal","2,3,2,1,3,4","true","",""
"null","","html-keyboard-response","470","546940","0.0-470.0","","<img src=""img/set2/S1.jpg"" width=""540"" height = ""360"" style=""border:16px solid orange"">","null","","","","","","","",""
"null","","html-keyboard-response","471","547143","0.0-471.0","","","null","","","","","","","",""
"640.5","","image-keyboard-response","472","547784","0.0-472.0","","img/set2/S2.jpg","68","2","structured_load","68","random,structured_load,structured_incentive,structured_normal","2,3,2,1,3,4","true","",""
"null","","html-keyboard-response","473","548135","0.0-473.0","","<img src=""img/set2/S2.jpg"" width=""540"" height = ""360"" style=""border:16px solid orange"">","null","","","","","","","",""
"null","","html-keyboard-response","474","548336","0.0-474.0","","","null","","","","","","","",""
"555.5999999642372","","image-keyboard-response","475","548893","0.0-475.0","","img/set2/S3.jpg","72","3","structured_load","72","random,structured_load,structured_incentive,structured_normal","2,3,2,1,3,4","true","",""
"null","","html-keyboard-response","476","549245","0.0-476.0","","<img src=""img/set2/S3.jpg"" width=""540"" height = ""360"" style=""border:16px solid orange"">","null","","","","","","","",""
"null","","html-keyboard-response","477","549446","0.0-477.0","","","null","","","","","","","",""
"557.7000000476837","","image-keyboard-response","478","550004","0.0-478.0","","img/set2/S2.jpg","68","2","structured_load","68","random,structured_load,structured_incentive,structured_normal","2,3,2,1,3,4","true","",""
"null","","html-keyboard-response","479","550356","0.0-479.0","","<img src=""img/set2/S2.jpg"" width=""540"" height = ""360"" style=""border:16px solid orange"">","null","","","","","","","",""
"null","","html-keyboard-response","480","550557","0.0-480.0","","","null","","","","","","","",""
"411.30000001192093","","image-keyboard-response","481","550969","0.0-481.0","","img/set2/S3.jpg","72","3","structured_load","72","random,structured_load,structured_incentive,structured_normal","2,3,2,1,3,4","true","",""
"null","","html-keyboard-response","482","551322","0.0-482.0","","<img src=""img/set2/S3.jpg"" width=""540"" height = ""360"" style=""border:16px solid orange"">","null","","","","","","","",""
"null","","html-keyboard-response","483","551523","0.0-483.0","","","null","","","","","","","",""
"539.1000000238419","","image-keyboard-response","484","552063","0.0-484.0","","img/set2/S2.jpg","68","2","structured_load","68","random,structured_load,structured_incentive,structured_normal","2,3,2,1,3,4","true","",""
"null","","html-keyboard-response","485","552414","0.0-485.0","","<img src=""img/set2/S2.jpg"" width=""540"" height = ""360"" style=""border:16px solid orange"">","null","","","","","","","",""
"null","","html-keyboard-response","486","552616","0.0-486.0","","","null","","","","","","","",""
"426.30000001192093","","image-keyboard-response","487","553043","0.0-487.0","","img/set2/S3.jpg","72","3","structured_load","72","random,structured_load,structured_incentive,structured_normal","2,3,2,1,3,4","true","",""
"null","","html-keyboard-response","488","553395","0.0-488.0","","<img src=""img/set2/S3.jpg"" width=""540"" height = ""360"" style=""border:16px solid orange"">","null","","","","","","","",""
"null","","html-keyboard-response","489","553596","0.0-489.0","","","null","","","","","","","",""
"545.1999999880791","","image-keyboard-response","490","554141","0.0-490.0","","img/set2/S4.jpg","74","4","structured_load","74","random,structured_load,structured_incentive,structured_normal","2,3,2,1,3,4","true","",""
"null","","html-keyboard-response","491","554493","0.0-491.0","","<img src=""img/set2/S4.jpg"" width=""540"" height = ""360"" style=""border:16px solid orange"">","null","","","","","","","",""
"null","","html-keyboard-response","492","554694","0.0-492.0","","","null","","","","","","","",""
"412.19999998807907","","image-keyboard-response","493","555107","0.0-493.0","","img/set2/S4.jpg","74","4","structured_load","74","random,structured_load,structured_incentive,structured_normal","2,3,2,1,3,4","true","",""
"null","","html-keyboard-response","494","555459","0.0-494.0","","<img src=""img/set2/S4.jpg"" width=""540"" height = ""360"" style=""border:16px solid orange"">","null","","","","","","","",""
"null","","html-keyboard-response","495","555660","0.0-495.0","","","null","","","","","","","",""
"453","","image-keyboard-response","496","556114","0.0-496.0","","img/set2/S2.jpg","72","2","structured_load","68","random,structured_load,structured_incentive,structured_normal","2,3,2,1,3,4","false","",""
"null","","html-keyboard-response","497","556465","0.0-497.0","","<img src=""img/set2/S2.jpg"" width=""540"" height = ""360"">","null","","","","","","","",""
"null","","html-keyboard-response","498","556666","0.0-498.0","","","null","","","","","","","",""
"477.10000002384186","","image-keyboard-response","499","557144","0.0-499.0","","img/set2/S3.jpg","72","3","structured_load","72","random,structured_load,structured_incentive,structured_normal","2,3,2,1,3,4","true","",""
"null","","html-keyboard-response","500","557497","0.0-500.0","","<img src=""img/set2/S3.jpg"" width=""540"" height = ""360"" style=""border:16px solid orange"">","null","","","","","","","",""
"null","","html-keyboard-response","501","557698","0.0-501.0","","","null","","","","","","","",""
"521.6999999880791","","image-keyboard-response","502","558221","0.0-502.0","","img/set2/S4.jpg","74","4","structured_load","74","random,structured_load,structured_incentive,structured_normal","2,3,2,1,3,4","true","",""
"null","","html-keyboard-response","503","558573","0.0-503.0","","<img src=""img/set2/S4.jpg"" width=""540"" height = ""360"" style=""border:16px solid orange"">","null","","","","","","","",""
"null","","html-keyboard-response","504","558774","0.0-504.0","","","null","","","","","","","",""
"463.39999997615814","","image-keyboard-response","505","559238","0.0-505.0","","img/set2/S4.jpg","74","4","structured_load","74","random,structured_load,structured_incentive,structured_normal","2,3,2,1,3,4","true","",""
"null","","html-keyboard-response","506","559591","0.0-506.0","","<img src=""img/set2/S4.jpg"" width=""540"" height = ""360"" style=""border:16px solid orange"">","null","","","","","","","",""
"null","","html-keyboard-response","507","559792","0.0-507.0","","","null","","","","","","","",""
"365.89999997615814","","image-keyboard-response","508","560158","0.0-508.0","","img/set2/S4.jpg","74","4","structured_load","74","random,structured_load,structured_incentive,structured_normal","2,3,2,1,3,4","true","",""
"null","","html-keyboard-response","509","560510","0.0-509.0","","<img src=""img/set2/S4.jpg"" width=""540"" height = ""360"" style=""border:16px solid orange"">","null","","","","","","","",""
"null","","html-keyboard-response","510","560711","0.0-510.0","","","null","","","","","","","",""
"636.5","","image-keyboard-response","511","561348","0.0-511.0","","img/set2/S2.jpg","68","2","structured_load","68","random,structured_load,structured_incentive,structured_normal","2,3,2,1,3,4","true","",""
"null","","html-keyboard-response","512","561700","0.0-512.0","","<img src=""img/set2/S2.jpg"" width=""540"" height = ""360"" style=""border:16px solid orange"">","null","","","","","","","",""
"null","","html-keyboard-response","513","561901","0.0-513.0","","","null","","","","","","","",""
"567.3999999761581","","image-keyboard-response","514","562470","0.0-514.0","","img/set2/S3.jpg","72","3","structured_load","72","random,structured_load,structured_incentive,structured_normal","2,3,2,1,3,4","true","",""
"null","","html-keyboard-response","515","562822","0.0-515.0","","<img src=""img/set2/S3.jpg"" width=""540"" height = ""360"" style=""border:16px solid orange"">","null","","","","","","","",""
"null","","html-keyboard-response","516","563024","0.0-516.0","","","null","","","","","","","",""
"492.60000002384186","","image-keyboard-response","517","563517","0.0-517.0","","img/set2/S4.jpg","74","4","structured_load","74","random,structured_load,structured_incentive,structured_normal","2,3,2,1,3,4","true","",""
"null","","html-keyboard-response","518","563869","0.0-518.0","","<img src=""img/set2/S4.jpg"" width=""540"" height = ""360"" style=""border:16px solid orange"">","null","","","","","","","",""
"null","","html-keyboard-response","519","564070","0.0-519.0","","","null","","","","","","","",""
"491.39999997615814","","image-keyboard-response","520","564562","0.0-520.0","","img/set2/S2.jpg","68","2","structured_load","68","random,structured_load,structured_incentive,structured_normal","2,3,2,1,3,4","true","",""
"null","","html-keyboard-response","521","564914","0.0-521.0","","<img src=""img/set2/S2.jpg"" width=""540"" height = ""360"" style=""border:16px solid orange"">","null","","","","","","","",""
"null","","html-keyboard-response","522","565115","0.0-522.0","","","null","","","","","","","",""
"498.80000001192093","","image-keyboard-response","523","565615","0.0-523.0","","img/set2/S3.jpg","72","3","structured_load","72","random,structured_load,structured_incentive,structured_normal","2,3,2,1,3,4","true","",""
"null","","html-keyboard-response","524","565967","0.0-524.0","","<img src=""img/set2/S3.jpg"" width=""540"" height = ""360"" style=""border:16px solid orange"">","null","","","","","","","",""
"null","","html-keyboard-response","525","566168","0.0-525.0","","","null","","","","","","","",""
"657","","image-keyboard-response","526","566826","0.0-526.0","","img/set2/S2.jpg","68","2","structured_load","68","random,structured_load,structured_incentive,structured_normal","2,3,2,1,3,4","true","",""
"null","","html-keyboard-response","527","567178","0.0-527.0","","<img src=""img/set2/S2.jpg"" width=""540"" height = ""360"" style=""border:16px solid orange"">","null","","","","","","","",""
"null","","html-keyboard-response","528","567379","0.0-528.0","","","null","","","","","","","",""
"419.0999999642372","","image-keyboard-response","529","567799","0.0-529.0","","img/set2/S3.jpg","72","3","structured_load","72","random,structured_load,structured_incentive,structured_normal","2,3,2,1,3,4","true","",""
"null","","html-keyboard-response","530","568150","0.0-530.0","","<img src=""img/set2/S3.jpg"" width=""540"" height = ""360"" style=""border:16px solid orange"">","null","","","","","","","",""
"null","","html-keyboard-response","531","568351","0.0-531.0","","","null","","","","","","","",""
"473.2000000476837","","image-keyboard-response","532","568825","0.0-532.0","","img/set2/S4.jpg","72","4","structured_load","74","random,structured_load,structured_incentive,structured_normal","2,3,2,1,3,4","false","",""
"null","","html-keyboard-response","533","569176","0.0-533.0","","<img src=""img/set2/S4.jpg"" width=""540"" height = ""360"">","null","","","","","","","",""
"null","","html-keyboard-response","534","569379","0.0-534.0","","","null","","","","","","","",""
"505.89999997615814","","image-keyboard-response","535","569886","0.0-535.0","","img/set2/S2.jpg","68","2","structured_load","68","random,structured_load,structured_incentive,structured_normal","2,3,2,1,3,4","true","",""
"null","","html-keyboard-response","536","570237","0.0-536.0","","<img src=""img/set2/S2.jpg"" width=""540"" height = ""360"" style=""border:16px solid orange"">","null","","","","","","","",""
"null","","html-keyboard-response","537","570438","0.0-537.0","","","null","","","","","","","",""
"573","","image-keyboard-response","538","571012","0.0-538.0","","img/set2/S3.jpg","72","3","structured_load","72","random,structured_load,structured_incentive,structured_normal","2,3,2,1,3,4","true","",""
"null","","html-keyboard-response","539","571363","0.0-539.0","","<img src=""img/set2/S3.jpg"" width=""540"" height = ""360"" style=""border:16px solid orange"">","null","","","","","","","",""
"null","","html-keyboard-response","540","571564","0.0-540.0","","","null","","","","","","","",""
"671.5","","image-keyboard-response","541","572237","0.0-541.0","","img/set2/S2.jpg","68","2","structured_load","68","random,structured_load,structured_incentive,structured_normal","2,3,2,1,3,4","true","",""
"null","","html-keyboard-response","542","572588","0.0-542.0","","<img src=""img/set2/S2.jpg"" width=""540"" height = ""360"" style=""border:16px solid orange"">","null","","","","","","","",""
"null","","html-keyboard-response","543","572789","0.0-543.0","","","null","","","","","","","",""
"409.9000000357628","","image-keyboard-response","544","573199","0.0-544.0","","img/set2/S3.jpg","72","3","structured_load","72","random,structured_load,structured_incentive,structured_normal","2,3,2,1,3,4","true","",""
"null","","html-keyboard-response","545","573551","0.0-545.0","","<img src=""img/set2/S3.jpg"" width=""540"" height = ""360"" style=""border:16px solid orange"">","null","","","","","","","",""
"null","","html-keyboard-response","546","573753","0.0-546.0","","","null","","","","","","","",""
"503.2000000476837","","image-keyboard-response","547","574257","0.0-547.0","","img/set2/S1.jpg","83","1","structured_load","83","random,structured_load,structured_incentive,structured_normal","2,3,2,1,3,4","true","",""
"null","","html-keyboard-response","548","574608","0.0-548.0","","<img src=""img/set2/S1.jpg"" width=""540"" height = ""360"" style=""border:16px solid orange"">","null","","","","","","","",""
"null","","html-keyboard-response","549","574810","0.0-549.0","","","null","","","","","","","",""
"417.39999997615814","","image-keyboard-response","550","575228","0.0-550.0","","img/set2/S1.jpg","83","1","structured_load","83","random,structured_load,structured_incentive,structured_normal","2,3,2,1,3,4","true","",""
"null","","html-keyboard-response","551","575579","0.0-551.0","","<img src=""img/set2/S1.jpg"" width=""540"" height = ""360"" style=""border:16px solid orange"">","null","","","","","","","",""
"null","","html-keyboard-response","552","575781","0.0-552.0","","","null","","","","","","","",""
"493","","image-keyboard-response","553","576275","0.0-553.0","","img/set2/S2.jpg","72","2","structured_load","68","random,structured_load,structured_incentive,structured_normal","2,3,2,1,3,4","false","",""
"null","","html-keyboard-response","554","576627","0.0-554.0","","<img src=""img/set2/S2.jpg"" width=""540"" height = ""360"">","null","","","","","","","",""
"null","","html-keyboard-response","555","576828","0.0-555.0","","","null","","","","","","","",""
"553.0999999642372","","image-keyboard-response","556","577382","0.0-556.0","","img/set2/S3.jpg","72","3","structured_load","72","random,structured_load,structured_incentive,structured_normal","2,3,2,1,3,4","true","",""
"null","","html-keyboard-response","557","577733","0.0-557.0","","<img src=""img/set2/S3.jpg"" width=""540"" height = ""360"" style=""border:16px solid orange"">","null","","","","","","","",""
"null","","html-keyboard-response","558","577934","0.0-558.0","","","null","","","","","","","",""
"530.1000000238419","","image-keyboard-response","559","578465","0.0-559.0","","img/set2/S1.jpg","83","1","structured_load","83","random,structured_load,structured_incentive,structured_normal","2,3,2,1,3,4","true","",""
"null","","html-keyboard-response","560","578816","0.0-560.0","","<img src=""img/set2/S1.jpg"" width=""540"" height = ""360"" style=""border:16px solid orange"">","null","","","","","","","",""
"null","","html-keyboard-response","561","579017","0.0-561.0","","","null","","","","","","","",""
"599.5","","image-keyboard-response","562","579618","0.0-562.0","","img/set2/S2.jpg","68","2","structured_load","68","random,structured_load,structured_incentive,structured_normal","2,3,2,1,3,4","true","",""
"null","","html-keyboard-response","563","579970","0.0-563.0","","<img src=""img/set2/S2.jpg"" width=""540"" height = ""360"" style=""border:16px solid orange"">","null","","","","","","","",""
"null","","html-keyboard-response","564","580171","0.0-564.0","","","null","","","","","","","",""
"421.69999998807907","","image-keyboard-response","565","580594","0.0-565.0","","img/set2/S3.jpg","72","3","structured_load","72","random,structured_load,structured_incentive,structured_normal","2,3,2,1,3,4","true","",""
"null","","html-keyboard-response","566","580946","0.0-566.0","","<img src=""img/set2/S3.jpg"" width=""540"" height = ""360"" style=""border:16px solid orange"">","null","","","","","","","",""
"null","","html-keyboard-response","567","581147","0.0-567.0","","","null","","","","","","","",""
"1032.9000000357628","","image-keyboard-response","568","582180","0.0-568.0","","img/set2/S2.jpg","68","2","structured_load","68","random,structured_load,structured_incentive,structured_normal","2,3,2,1,3,4","true","",""
"null","","html-keyboard-response","569","582532","0.0-569.0","","<img src=""img/set2/S2.jpg"" width=""540"" height = ""360"" style=""border:16px solid orange"">","null","","","","","","","",""
"null","","html-keyboard-response","570","582734","0.0-570.0","","","null","","","","","","","",""
"418.60000002384186","","image-keyboard-response","571","583153","0.0-571.0","","img/set2/S3.jpg","72","3","structured_load","72","random,structured_load,structured_incentive,structured_normal","2,3,2,1,3,4","true","",""
"null","","html-keyboard-response","572","583505","0.0-572.0","","<img src=""img/set2/S3.jpg"" width=""540"" height = ""360"" style=""border:16px solid orange"">","null","","","","","","","",""
"null","","html-keyboard-response","573","583706","0.0-573.0","","","null","","","","","","","",""
"711.5","","image-keyboard-response","574","584418","0.0-574.0","","img/set2/S2.jpg","68","2","structured_load","68","random,structured_load,structured_incentive,structured_normal","2,3,2,1,3,4","true","",""
"null","","html-keyboard-response","575","584770","0.0-575.0","","<img src=""img/set2/S2.jpg"" width=""540"" height = ""360"" style=""border:16px solid orange"">","null","","","","","","","",""
"null","","html-keyboard-response","576","584971","0.0-576.0","","","null","","","","","","","",""
"330.2000000476837","","image-keyboard-response","577","585302","0.0-577.0","","img/set2/S3.jpg","72","3","structured_load","72","random,structured_load,structured_incentive,structured_normal","2,3,2,1,3,4","true","",""
"null","","html-keyboard-response","578","585653","0.0-578.0","","<img src=""img/set2/S3.jpg"" width=""540"" height = ""360"" style=""border:16px solid orange"">","null","","","","","","","",""
"null","","html-keyboard-response","579","585854","0.0-579.0","","","null","","","","","","","",""
"490.5","","image-keyboard-response","580","586345","0.0-580.0","","img/set2/S1.jpg","83","1","structured_load","83","random,structured_load,structured_incentive,structured_normal","2,3,2,1,3,4","true","",""
"null","","html-keyboard-response","581","586697","0.0-581.0","","<img src=""img/set2/S1.jpg"" width=""540"" height = ""360"" style=""border:16px solid orange"">","null","","","","","","","",""
"null","","html-keyboard-response","582","586898","0.0-582.0","","","null","","","","","","","",""
"462.0999999642372","","image-keyboard-response","583","587361","0.0-583.0","","img/set2/S4.jpg","74","4","structured_load","74","random,structured_load,structured_incentive,structured_normal","2,3,2,1,3,4","true","",""
"null","","html-keyboard-response","584","587712","0.0-584.0","","<img src=""img/set2/S4.jpg"" width=""540"" height = ""360"" style=""border:16px solid orange"">","null","","","","","","","",""
"null","","html-keyboard-response","585","587913","0.0-585.0","","","null","","","","","","","",""
"529.6000000238419","","image-keyboard-response","586","588444","0.0-586.0","","img/set2/S2.jpg","68","2","structured_load","68","random,structured_load,structured_incentive,structured_normal","2,3,2,1,3,4","true","",""
"null","","html-keyboard-response","587","588797","0.0-587.0","","<img src=""img/set2/S2.jpg"" width=""540"" height = ""360"" style=""border:16px solid orange"">","null","","","","","","","",""
"null","","html-keyboard-response","588","588998","0.0-588.0","","","null","","","","","","","",""
"615.3999999761581","","image-keyboard-response","589","589614","0.0-589.0","","img/set2/S3.jpg","72","3","structured_load","72","random,structured_load,structured_incentive,structured_normal","2,3,2,1,3,4","true","",""
"null","","html-keyboard-response","590","589966","0.0-590.0","","<img src=""img/set2/S3.jpg"" width=""540"" height = ""360"" style=""border:16px solid orange"">","null","","","","","","","",""
"null","","html-keyboard-response","591","590167","0.0-591.0","","","null","","","","","","","",""
