"rt","url","trial_type","trial_index","time_elapsed","internal_node_id","assignmentID","mturkID","hitID","view_history","stimulus","key_press","state","test_part","correct_response","order_block","order_chunk","order_freq","correct","responses","question_order","bonus"
"4704.9000000059605","consent.html","external-html","0","4772","0.0-0.0","3I0BTBYZAY78BMDW6NFRHKJT3QK0YI","A39VZ93N96XB6O","388CL5C1RJ9X03EZUESK4LKS9TSHL1","","","","","","","","","","","","",""
"67705.19999998808","","instructions","1","72479","0.0-1.0","3I0BTBYZAY78BMDW6NFRHKJT3QK0YI","A39VZ93N96XB6O","388CL5C1RJ9X03EZUESK4LKS9TSHL1","[{""page_index"":0,""viewing_time"":5503.399999976158},{""page_index"":1,""viewing_time"":6642.4000000059605},{""page_index"":2,""viewing_time"":3155.4000000059605},{""page_index"":3,""viewing_time"":15594.90000000596},{""page_index"":4,""viewing_time"":18040.19999998808},{""page_index"":5,""viewing_time"":10110.200000017881},{""page_index"":6,""viewing_time"":8657}]","","","","","","","","","","","",""
"9668","","instructions","2","82148","0.0-2.0","3I0BTBYZAY78BMDW6NFRHKJT3QK0YI","A39VZ93N96XB6O","388CL5C1RJ9X03EZUESK4LKS9TSHL1","[{""page_index"":0,""viewing_time"":9667.5}]","","","","","","","","","","","",""
"6711.300000011921","","instructions","3","88861","0.0-3.0","3I0BTBYZAY78BMDW6NFRHKJT3QK0YI","A39VZ93N96XB6O","388CL5C1RJ9X03EZUESK4LKS9TSHL1","[{""page_index"":0,""viewing_time"":6710.600000023842}]","","","","","","","","","","","",""
"987.7000000178814","","image-keyboard-response","4","89853","0.0-4.0","3I0BTBYZAY78BMDW6NFRHKJT3QK0YI","A39VZ93N96XB6O","388CL5C1RJ9X03EZUESK4LKS9TSHL1","","img/set1/S1.jpg","72","1","random","83","random,structured_incentive,structured_load,structured_normal","2,3,3,4,2,1","1,4,2,3","false","","",""
"null","","html-keyboard-response","5","90209","0.0-5.0","3I0BTBYZAY78BMDW6NFRHKJT3QK0YI","A39VZ93N96XB6O","388CL5C1RJ9X03EZUESK4LKS9TSHL1","","<img src=""img/set1/S1.jpg"" width=""540"" height = ""360"">","null","","","","","","","","","",""
"null","","html-keyboard-response","6","90412","0.0-6.0","3I0BTBYZAY78BMDW6NFRHKJT3QK0YI","A39VZ93N96XB6O","388CL5C1RJ9X03EZUESK4LKS9TSHL1","","","null","","","","","","","","","",""
"730","","image-keyboard-response","7","91146","0.0-7.0","3I0BTBYZAY78BMDW6NFRHKJT3QK0YI","A39VZ93N96XB6O","388CL5C1RJ9X03EZUESK4LKS9TSHL1","","img/set1/S4.jpg","83","4","random","74","random,structured_incentive,structured_load,structured_normal","2,3,3,4,2,1","1,4,2,3","false","","",""
"null","","html-keyboard-response","8","91515","0.0-8.0","3I0BTBYZAY78BMDW6NFRHKJT3QK0YI","A39VZ93N96XB6O","388CL5C1RJ9X03EZUESK4LKS9TSHL1","","<img src=""img/set1/S4.jpg"" width=""540"" height = ""360"">","null","","","","","","","","","",""
"null","","html-keyboard-response","9","91731","0.0-9.0","3I0BTBYZAY78BMDW6NFRHKJT3QK0YI","A39VZ93N96XB6O","388CL5C1RJ9X03EZUESK4LKS9TSHL1","","","null","","","","","","","","","",""
"562.9000000059605","","image-keyboard-response","10","92296","0.0-10.0","3I0BTBYZAY78BMDW6NFRHKJT3QK0YI","A39VZ93N96XB6O","388CL5C1RJ9X03EZUESK4LKS9TSHL1","","img/set1/S3.jpg","74","3","random","72","random,structured_incentive,structured_load,structured_normal","2,3,3,4,2,1","1,4,2,3","false","","",""
"null","","html-keyboard-response","11","92653","0.0-11.0","3I0BTBYZAY78BMDW6NFRHKJT3QK0YI","A39VZ93N96XB6O","388CL5C1RJ9X03EZUESK4LKS9TSHL1","","<img src=""img/set1/S3.jpg"" width=""540"" height = ""360"">","null","","","","","","","","","",""
"null","","html-keyboard-response","12","92870","0.0-12.0","3I0BTBYZAY78BMDW6NFRHKJT3QK0YI","A39VZ93N96XB6O","388CL5C1RJ9X03EZUESK4LKS9TSHL1","","","null","","","","","","","","","",""
"420.60000002384186","","image-keyboard-response","13","93293","0.0-13.0","3I0BTBYZAY78BMDW6NFRHKJT3QK0YI","A39VZ93N96XB6O","388CL5C1RJ9X03EZUESK4LKS9TSHL1","","img/set1/S1.jpg","68","1","random","83","random,structured_incentive,structured_load,structured_normal","2,3,3,4,2,1","1,4,2,3","false","","",""
"null","","html-keyboard-response","14","93650","0.0-14.0","3I0BTBYZAY78BMDW6NFRHKJT3QK0YI","A39VZ93N96XB6O","388CL5C1RJ9X03EZUESK4LKS9TSHL1","","<img src=""img/set1/S1.jpg"" width=""540"" height = ""360"">","null","","","","","","","","","",""
"null","","html-keyboard-response","15","93866","0.0-15.0","3I0BTBYZAY78BMDW6NFRHKJT3QK0YI","A39VZ93N96XB6O","388CL5C1RJ9X03EZUESK4LKS9TSHL1","","","null","","","","","","","","","",""
"404.30000001192093","","image-keyboard-response","16","94273","0.0-16.0","3I0BTBYZAY78BMDW6NFRHKJT3QK0YI","A39VZ93N96XB6O","388CL5C1RJ9X03EZUESK4LKS9TSHL1","","img/set1/S2.jpg","72","2","random","68","random,structured_incentive,structured_load,structured_normal","2,3,3,4,2,1","1,4,2,3","false","","",""
"null","","html-keyboard-response","17","94629","0.0-17.0","3I0BTBYZAY78BMDW6NFRHKJT3QK0YI","A39VZ93N96XB6O","388CL5C1RJ9X03EZUESK4LKS9TSHL1","","<img src=""img/set1/S2.jpg"" width=""540"" height = ""360"">","null","","","","","","","","","",""
"null","","html-keyboard-response","18","94846","0.0-18.0","3I0BTBYZAY78BMDW6NFRHKJT3QK0YI","A39VZ93N96XB6O","388CL5C1RJ9X03EZUESK4LKS9TSHL1","","","null","","","","","","","","","",""
"450.80000001192093","","image-keyboard-response","19","95299","0.0-19.0","3I0BTBYZAY78BMDW6NFRHKJT3QK0YI","A39VZ93N96XB6O","388CL5C1RJ9X03EZUESK4LKS9TSHL1","","img/set1/S2.jpg","74","2","random","68","random,structured_incentive,structured_load,structured_normal","2,3,3,4,2,1","1,4,2,3","false","","",""
"null","","html-keyboard-response","20","95655","0.0-20.0","3I0BTBYZAY78BMDW6NFRHKJT3QK0YI","A39VZ93N96XB6O","388CL5C1RJ9X03EZUESK4LKS9TSHL1","","<img src=""img/set1/S2.jpg"" width=""540"" height = ""360"">","null","","","","","","","","","",""
"null","","html-keyboard-response","21","95857","0.0-21.0","3I0BTBYZAY78BMDW6NFRHKJT3QK0YI","A39VZ93N96XB6O","388CL5C1RJ9X03EZUESK4LKS9TSHL1","","","null","","","","","","","","","",""
"528.2999999821186","","image-keyboard-response","22","96387","0.0-22.0","3I0BTBYZAY78BMDW6NFRHKJT3QK0YI","A39VZ93N96XB6O","388CL5C1RJ9X03EZUESK4LKS9TSHL1","","img/set1/S2.jpg","74","2","random","68","random,structured_incentive,structured_load,structured_normal","2,3,3,4,2,1","1,4,2,3","false","","",""
"null","","html-keyboard-response","23","96742","0.0-23.0","3I0BTBYZAY78BMDW6NFRHKJT3QK0YI","A39VZ93N96XB6O","388CL5C1RJ9X03EZUESK4LKS9TSHL1","","<img src=""img/set1/S2.jpg"" width=""540"" height = ""360"">","null","","","","","","","","","",""
"null","","html-keyboard-response","24","96944","0.0-24.0","3I0BTBYZAY78BMDW6NFRHKJT3QK0YI","A39VZ93N96XB6O","388CL5C1RJ9X03EZUESK4LKS9TSHL1","","","null","","","","","","","","","",""
"356.7999999821186","","image-keyboard-response","25","97302","0.0-25.0","3I0BTBYZAY78BMDW6NFRHKJT3QK0YI","A39VZ93N96XB6O","388CL5C1RJ9X03EZUESK4LKS9TSHL1","","img/set1/S4.jpg","83","4","random","74","random,structured_incentive,structured_load,structured_normal","2,3,3,4,2,1","1,4,2,3","false","","",""
"null","","html-keyboard-response","26","97658","0.0-26.0","3I0BTBYZAY78BMDW6NFRHKJT3QK0YI","A39VZ93N96XB6O","388CL5C1RJ9X03EZUESK4LKS9TSHL1","","<img src=""img/set1/S4.jpg"" width=""540"" height = ""360"">","null","","","","","","","","","",""
"null","","html-keyboard-response","27","97875","0.0-27.0","3I0BTBYZAY78BMDW6NFRHKJT3QK0YI","A39VZ93N96XB6O","388CL5C1RJ9X03EZUESK4LKS9TSHL1","","","null","","","","","","","","","",""
"670.7999999821186","","image-keyboard-response","28","98548","0.0-28.0","3I0BTBYZAY78BMDW6NFRHKJT3QK0YI","A39VZ93N96XB6O","388CL5C1RJ9X03EZUESK4LKS9TSHL1","","img/set1/S4.jpg","68","4","random","74","random,structured_incentive,structured_load,structured_normal","2,3,3,4,2,1","1,4,2,3","false","","",""
"null","","html-keyboard-response","29","98904","0.0-29.0","3I0BTBYZAY78BMDW6NFRHKJT3QK0YI","A39VZ93N96XB6O","388CL5C1RJ9X03EZUESK4LKS9TSHL1","","<img src=""img/set1/S4.jpg"" width=""540"" height = ""360"">","null","","","","","","","","","",""
"null","","html-keyboard-response","30","99107","0.0-30.0","3I0BTBYZAY78BMDW6NFRHKJT3QK0YI","A39VZ93N96XB6O","388CL5C1RJ9X03EZUESK4LKS9TSHL1","","","null","","","","","","","","","",""
"325.80000001192093","","image-keyboard-response","31","99435","0.0-31.0","3I0BTBYZAY78BMDW6NFRHKJT3QK0YI","A39VZ93N96XB6O","388CL5C1RJ9X03EZUESK4LKS9TSHL1","","img/set1/S4.jpg","72","4","random","74","random,structured_incentive,structured_load,structured_normal","2,3,3,4,2,1","1,4,2,3","false","","",""
"null","","html-keyboard-response","32","99789","0.0-32.0","3I0BTBYZAY78BMDW6NFRHKJT3QK0YI","A39VZ93N96XB6O","388CL5C1RJ9X03EZUESK4LKS9TSHL1","","<img src=""img/set1/S4.jpg"" width=""540"" height = ""360"">","null","","","","","","","","","",""
"null","","html-keyboard-response","33","99993","0.0-33.0","3I0BTBYZAY78BMDW6NFRHKJT3QK0YI","A39VZ93N96XB6O","388CL5C1RJ9X03EZUESK4LKS9TSHL1","","","null","","","","","","","","","",""
"314.40000000596046","","image-keyboard-response","34","100310","0.0-34.0","3I0BTBYZAY78BMDW6NFRHKJT3QK0YI","A39VZ93N96XB6O","388CL5C1RJ9X03EZUESK4LKS9TSHL1","","img/set1/S4.jpg","74","4","random","74","random,structured_incentive,structured_load,structured_normal","2,3,3,4,2,1","1,4,2,3","true","","",""
"null","","html-keyboard-response","35","100667","0.0-35.0","3I0BTBYZAY78BMDW6NFRHKJT3QK0YI","A39VZ93N96XB6O","388CL5C1RJ9X03EZUESK4LKS9TSHL1","","<img src=""img/set1/S4.jpg"" width=""540"" height = ""360"" style=""border:16px solid orange"">","null","","","","","","","","","",""
"null","","html-keyboard-response","36","100883","0.0-36.0","3I0BTBYZAY78BMDW6NFRHKJT3QK0YI","A39VZ93N96XB6O","388CL5C1RJ9X03EZUESK4LKS9TSHL1","","","null","","","","","","","","","",""
"655.5","","image-keyboard-response","37","101541","0.0-37.0","3I0BTBYZAY78BMDW6NFRHKJT3QK0YI","A39VZ93N96XB6O","388CL5C1RJ9X03EZUESK4LKS9TSHL1","","img/set1/S1.jpg","68","1","random","83","random,structured_incentive,structured_load,structured_normal","2,3,3,4,2,1","1,4,2,3","false","","",""
"null","","html-keyboard-response","38","101900","0.0-38.0","3I0BTBYZAY78BMDW6NFRHKJT3QK0YI","A39VZ93N96XB6O","388CL5C1RJ9X03EZUESK4LKS9TSHL1","","<img src=""img/set1/S1.jpg"" width=""540"" height = ""360"">","null","","","","","","","","","",""
"null","","html-keyboard-response","39","102117","0.0-39.0","3I0BTBYZAY78BMDW6NFRHKJT3QK0YI","A39VZ93N96XB6O","388CL5C1RJ9X03EZUESK4LKS9TSHL1","","","null","","","","","","","","","",""
"640.5999999940395","","image-keyboard-response","40","102759","0.0-40.0","3I0BTBYZAY78BMDW6NFRHKJT3QK0YI","A39VZ93N96XB6O","388CL5C1RJ9X03EZUESK4LKS9TSHL1","","img/set1/S3.jpg","83","3","random","72","random,structured_incentive,structured_load,structured_normal","2,3,3,4,2,1","1,4,2,3","false","","",""
"null","","html-keyboard-response","41","103116","0.0-41.0","3I0BTBYZAY78BMDW6NFRHKJT3QK0YI","A39VZ93N96XB6O","388CL5C1RJ9X03EZUESK4LKS9TSHL1","","<img src=""img/set1/S3.jpg"" width=""540"" height = ""360"">","null","","","","","","","","","",""
"null","","html-keyboard-response","42","103319","0.0-42.0","3I0BTBYZAY78BMDW6NFRHKJT3QK0YI","A39VZ93N96XB6O","388CL5C1RJ9X03EZUESK4LKS9TSHL1","","","null","","","","","","","","","",""
"607.0999999940395","","image-keyboard-response","43","103929","0.0-43.0","3I0BTBYZAY78BMDW6NFRHKJT3QK0YI","A39VZ93N96XB6O","388CL5C1RJ9X03EZUESK4LKS9TSHL1","","img/set1/S4.jpg","74","4","random","74","random,structured_incentive,structured_load,structured_normal","2,3,3,4,2,1","1,4,2,3","true","","",""
"null","","html-keyboard-response","44","104284","0.0-44.0","3I0BTBYZAY78BMDW6NFRHKJT3QK0YI","A39VZ93N96XB6O","388CL5C1RJ9X03EZUESK4LKS9TSHL1","","<img src=""img/set1/S4.jpg"" width=""540"" height = ""360"" style=""border:16px solid orange"">","null","","","","","","","","","",""
"null","","html-keyboard-response","45","104486","0.0-45.0","3I0BTBYZAY78BMDW6NFRHKJT3QK0YI","A39VZ93N96XB6O","388CL5C1RJ9X03EZUESK4LKS9TSHL1","","","null","","","","","","","","","",""
"429.90000000596046","","image-keyboard-response","46","104918","0.0-46.0","3I0BTBYZAY78BMDW6NFRHKJT3QK0YI","A39VZ93N96XB6O","388CL5C1RJ9X03EZUESK4LKS9TSHL1","","img/set1/S3.jpg","72","3","random","72","random,structured_incentive,structured_load,structured_normal","2,3,3,4,2,1","1,4,2,3","true","","",""
"null","","html-keyboard-response","47","105273","0.0-47.0","3I0BTBYZAY78BMDW6NFRHKJT3QK0YI","A39VZ93N96XB6O","388CL5C1RJ9X03EZUESK4LKS9TSHL1","","<img src=""img/set1/S3.jpg"" width=""540"" height = ""360"" style=""border:16px solid orange"">","null","","","","","","","","","",""
"null","","html-keyboard-response","48","105475","0.0-48.0","3I0BTBYZAY78BMDW6NFRHKJT3QK0YI","A39VZ93N96XB6O","388CL5C1RJ9X03EZUESK4LKS9TSHL1","","","null","","","","","","","","","",""
"515.7000000178814","","image-keyboard-response","49","105992","0.0-49.0","3I0BTBYZAY78BMDW6NFRHKJT3QK0YI","A39VZ93N96XB6O","388CL5C1RJ9X03EZUESK4LKS9TSHL1","","img/set1/S3.jpg","72","3","random","72","random,structured_incentive,structured_load,structured_normal","2,3,3,4,2,1","1,4,2,3","true","","",""
"null","","html-keyboard-response","50","106346","0.0-50.0","3I0BTBYZAY78BMDW6NFRHKJT3QK0YI","A39VZ93N96XB6O","388CL5C1RJ9X03EZUESK4LKS9TSHL1","","<img src=""img/set1/S3.jpg"" width=""540"" height = ""360"" style=""border:16px solid orange"">","null","","","","","","","","","",""
"null","","html-keyboard-response","51","106549","0.0-51.0","3I0BTBYZAY78BMDW6NFRHKJT3QK0YI","A39VZ93N96XB6O","388CL5C1RJ9X03EZUESK4LKS9TSHL1","","","null","","","","","","","","","",""
"513.9000000059605","","image-keyboard-response","52","107065","0.0-52.0","3I0BTBYZAY78BMDW6NFRHKJT3QK0YI","A39VZ93N96XB6O","388CL5C1RJ9X03EZUESK4LKS9TSHL1","","img/set1/S4.jpg","74","4","random","74","random,structured_incentive,structured_load,structured_normal","2,3,3,4,2,1","1,4,2,3","true","","",""
"null","","html-keyboard-response","53","107421","0.0-53.0","3I0BTBYZAY78BMDW6NFRHKJT3QK0YI","A39VZ93N96XB6O","388CL5C1RJ9X03EZUESK4LKS9TSHL1","","<img src=""img/set1/S4.jpg"" width=""540"" height = ""360"" style=""border:16px solid orange"">","null","","","","","","","","","",""
"null","","html-keyboard-response","54","107637","0.0-54.0","3I0BTBYZAY78BMDW6NFRHKJT3QK0YI","A39VZ93N96XB6O","388CL5C1RJ9X03EZUESK4LKS9TSHL1","","","null","","","","","","","","","",""
"592.1999999880791","","image-keyboard-response","55","108231","0.0-55.0","3I0BTBYZAY78BMDW6NFRHKJT3QK0YI","A39VZ93N96XB6O","388CL5C1RJ9X03EZUESK4LKS9TSHL1","","img/set1/S2.jpg","68","2","random","68","random,structured_incentive,structured_load,structured_normal","2,3,3,4,2,1","1,4,2,3","true","","",""
"null","","html-keyboard-response","56","108586","0.0-56.0","3I0BTBYZAY78BMDW6NFRHKJT3QK0YI","A39VZ93N96XB6O","388CL5C1RJ9X03EZUESK4LKS9TSHL1","","<img src=""img/set1/S2.jpg"" width=""540"" height = ""360"" style=""border:16px solid orange"">","null","","","","","","","","","",""
"null","","html-keyboard-response","57","108800","0.0-57.0","3I0BTBYZAY78BMDW6NFRHKJT3QK0YI","A39VZ93N96XB6O","388CL5C1RJ9X03EZUESK4LKS9TSHL1","","","null","","","","","","","","","",""
"813.7000000178814","","image-keyboard-response","58","109616","0.0-58.0","3I0BTBYZAY78BMDW6NFRHKJT3QK0YI","A39VZ93N96XB6O","388CL5C1RJ9X03EZUESK4LKS9TSHL1","","img/set1/S3.jpg","72","3","random","72","random,structured_incentive,structured_load,structured_normal","2,3,3,4,2,1","1,4,2,3","true","","",""
"null","","html-keyboard-response","59","109971","0.0-59.0","3I0BTBYZAY78BMDW6NFRHKJT3QK0YI","A39VZ93N96XB6O","388CL5C1RJ9X03EZUESK4LKS9TSHL1","","<img src=""img/set1/S3.jpg"" width=""540"" height = ""360"" style=""border:16px solid orange"">","null","","","","","","","","","",""
"null","","html-keyboard-response","60","110173","0.0-60.0","3I0BTBYZAY78BMDW6NFRHKJT3QK0YI","A39VZ93N96XB6O","388CL5C1RJ9X03EZUESK4LKS9TSHL1","","","null","","","","","","","","","",""
"650.3000000119209","","image-keyboard-response","61","110826","0.0-61.0","3I0BTBYZAY78BMDW6NFRHKJT3QK0YI","A39VZ93N96XB6O","388CL5C1RJ9X03EZUESK4LKS9TSHL1","","img/set1/S2.jpg","68","2","random","68","random,structured_incentive,structured_load,structured_normal","2,3,3,4,2,1","1,4,2,3","true","","",""
"null","","html-keyboard-response","62","111180","0.0-62.0","3I0BTBYZAY78BMDW6NFRHKJT3QK0YI","A39VZ93N96XB6O","388CL5C1RJ9X03EZUESK4LKS9TSHL1","","<img src=""img/set1/S2.jpg"" width=""540"" height = ""360"" style=""border:16px solid orange"">","null","","","","","","","","","",""
"null","","html-keyboard-response","63","111383","0.0-63.0","3I0BTBYZAY78BMDW6NFRHKJT3QK0YI","A39VZ93N96XB6O","388CL5C1RJ9X03EZUESK4LKS9TSHL1","","","null","","","","","","","","","",""
"513.2000000178814","","image-keyboard-response","64","111898","0.0-64.0","3I0BTBYZAY78BMDW6NFRHKJT3QK0YI","A39VZ93N96XB6O","388CL5C1RJ9X03EZUESK4LKS9TSHL1","","img/set1/S4.jpg","74","4","random","74","random,structured_incentive,structured_load,structured_normal","2,3,3,4,2,1","1,4,2,3","true","","",""
"null","","html-keyboard-response","65","112257","0.0-65.0","3I0BTBYZAY78BMDW6NFRHKJT3QK0YI","A39VZ93N96XB6O","388CL5C1RJ9X03EZUESK4LKS9TSHL1","","<img src=""img/set1/S4.jpg"" width=""540"" height = ""360"" style=""border:16px solid orange"">","null","","","","","","","","","",""
"null","","html-keyboard-response","66","112473","0.0-66.0","3I0BTBYZAY78BMDW6NFRHKJT3QK0YI","A39VZ93N96XB6O","388CL5C1RJ9X03EZUESK4LKS9TSHL1","","","null","","","","","","","","","",""
"668","","image-keyboard-response","67","113143","0.0-67.0","3I0BTBYZAY78BMDW6NFRHKJT3QK0YI","A39VZ93N96XB6O","388CL5C1RJ9X03EZUESK4LKS9TSHL1","","img/set1/S2.jpg","68","2","random","68","random,structured_incentive,structured_load,structured_normal","2,3,3,4,2,1","1,4,2,3","true","","",""
"null","","html-keyboard-response","68","113500","0.0-68.0","3I0BTBYZAY78BMDW6NFRHKJT3QK0YI","A39VZ93N96XB6O","388CL5C1RJ9X03EZUESK4LKS9TSHL1","","<img src=""img/set1/S2.jpg"" width=""540"" height = ""360"" style=""border:16px solid orange"">","null","","","","","","","","","",""
"null","","html-keyboard-response","69","113716","0.0-69.0","3I0BTBYZAY78BMDW6NFRHKJT3QK0YI","A39VZ93N96XB6O","388CL5C1RJ9X03EZUESK4LKS9TSHL1","","","null","","","","","","","","","",""
"544.5","","image-keyboard-response","70","114265","0.0-70.0","3I0BTBYZAY78BMDW6NFRHKJT3QK0YI","A39VZ93N96XB6O","388CL5C1RJ9X03EZUESK4LKS9TSHL1","","img/set1/S1.jpg","83","1","random","83","random,structured_incentive,structured_load,structured_normal","2,3,3,4,2,1","1,4,2,3","true","","",""
"null","","html-keyboard-response","71","114621","0.0-71.0","3I0BTBYZAY78BMDW6NFRHKJT3QK0YI","A39VZ93N96XB6O","388CL5C1RJ9X03EZUESK4LKS9TSHL1","","<img src=""img/set1/S1.jpg"" width=""540"" height = ""360"" style=""border:16px solid orange"">","null","","","","","","","","","",""
"null","","html-keyboard-response","72","114823","0.0-72.0","3I0BTBYZAY78BMDW6NFRHKJT3QK0YI","A39VZ93N96XB6O","388CL5C1RJ9X03EZUESK4LKS9TSHL1","","","null","","","","","","","","","",""
"779.4000000059605","","image-keyboard-response","73","115604","0.0-73.0","3I0BTBYZAY78BMDW6NFRHKJT3QK0YI","A39VZ93N96XB6O","388CL5C1RJ9X03EZUESK4LKS9TSHL1","","img/set1/S3.jpg","72","3","random","72","random,structured_incentive,structured_load,structured_normal","2,3,3,4,2,1","1,4,2,3","true","","",""
"null","","html-keyboard-response","74","115958","0.0-74.0","3I0BTBYZAY78BMDW6NFRHKJT3QK0YI","A39VZ93N96XB6O","388CL5C1RJ9X03EZUESK4LKS9TSHL1","","<img src=""img/set1/S3.jpg"" width=""540"" height = ""360"" style=""border:16px solid orange"">","null","","","","","","","","","",""
"null","","html-keyboard-response","75","116160","0.0-75.0","3I0BTBYZAY78BMDW6NFRHKJT3QK0YI","A39VZ93N96XB6O","388CL5C1RJ9X03EZUESK4LKS9TSHL1","","","null","","","","","","","","","",""
"421.39999997615814","","image-keyboard-response","76","116583","0.0-76.0","3I0BTBYZAY78BMDW6NFRHKJT3QK0YI","A39VZ93N96XB6O","388CL5C1RJ9X03EZUESK4LKS9TSHL1","","img/set1/S3.jpg","72","3","random","72","random,structured_incentive,structured_load,structured_normal","2,3,3,4,2,1","1,4,2,3","true","","",""
"null","","html-keyboard-response","77","116939","0.0-77.0","3I0BTBYZAY78BMDW6NFRHKJT3QK0YI","A39VZ93N96XB6O","388CL5C1RJ9X03EZUESK4LKS9TSHL1","","<img src=""img/set1/S3.jpg"" width=""540"" height = ""360"" style=""border:16px solid orange"">","null","","","","","","","","","",""
"null","","html-keyboard-response","78","117155","0.0-78.0","3I0BTBYZAY78BMDW6NFRHKJT3QK0YI","A39VZ93N96XB6O","388CL5C1RJ9X03EZUESK4LKS9TSHL1","","","null","","","","","","","","","",""
"746.5999999940395","","image-keyboard-response","79","117904","0.0-79.0","3I0BTBYZAY78BMDW6NFRHKJT3QK0YI","A39VZ93N96XB6O","388CL5C1RJ9X03EZUESK4LKS9TSHL1","","img/set1/S2.jpg","68","2","random","68","random,structured_incentive,structured_load,structured_normal","2,3,3,4,2,1","1,4,2,3","true","","",""
"null","","html-keyboard-response","80","118259","0.0-80.0","3I0BTBYZAY78BMDW6NFRHKJT3QK0YI","A39VZ93N96XB6O","388CL5C1RJ9X03EZUESK4LKS9TSHL1","","<img src=""img/set1/S2.jpg"" width=""540"" height = ""360"" style=""border:16px solid orange"">","null","","","","","","","","","",""
"null","","html-keyboard-response","81","118463","0.0-81.0","3I0BTBYZAY78BMDW6NFRHKJT3QK0YI","A39VZ93N96XB6O","388CL5C1RJ9X03EZUESK4LKS9TSHL1","","","null","","","","","","","","","",""
"604.9000000059605","","image-keyboard-response","82","119070","0.0-82.0","3I0BTBYZAY78BMDW6NFRHKJT3QK0YI","A39VZ93N96XB6O","388CL5C1RJ9X03EZUESK4LKS9TSHL1","","img/set1/S1.jpg","83","1","random","83","random,structured_incentive,structured_load,structured_normal","2,3,3,4,2,1","1,4,2,3","true","","",""
"null","","html-keyboard-response","83","119427","0.0-83.0","3I0BTBYZAY78BMDW6NFRHKJT3QK0YI","A39VZ93N96XB6O","388CL5C1RJ9X03EZUESK4LKS9TSHL1","","<img src=""img/set1/S1.jpg"" width=""540"" height = ""360"" style=""border:16px solid orange"">","null","","","","","","","","","",""
"null","","html-keyboard-response","84","119644","0.0-84.0","3I0BTBYZAY78BMDW6NFRHKJT3QK0YI","A39VZ93N96XB6O","388CL5C1RJ9X03EZUESK4LKS9TSHL1","","","null","","","","","","","","","",""
"636.4000000059605","","image-keyboard-response","85","120283","0.0-85.0","3I0BTBYZAY78BMDW6NFRHKJT3QK0YI","A39VZ93N96XB6O","388CL5C1RJ9X03EZUESK4LKS9TSHL1","","img/set1/S3.jpg","72","3","random","72","random,structured_incentive,structured_load,structured_normal","2,3,3,4,2,1","1,4,2,3","true","","",""
"null","","html-keyboard-response","86","120639","0.0-86.0","3I0BTBYZAY78BMDW6NFRHKJT3QK0YI","A39VZ93N96XB6O","388CL5C1RJ9X03EZUESK4LKS9TSHL1","","<img src=""img/set1/S3.jpg"" width=""540"" height = ""360"" style=""border:16px solid orange"">","null","","","","","","","","","",""
"null","","html-keyboard-response","87","120855","0.0-87.0","3I0BTBYZAY78BMDW6NFRHKJT3QK0YI","A39VZ93N96XB6O","388CL5C1RJ9X03EZUESK4LKS9TSHL1","","","null","","","","","","","","","",""
"465.80000001192093","","image-keyboard-response","88","121323","0.0-88.0","3I0BTBYZAY78BMDW6NFRHKJT3QK0YI","A39VZ93N96XB6O","388CL5C1RJ9X03EZUESK4LKS9TSHL1","","img/set1/S4.jpg","74","4","random","74","random,structured_incentive,structured_load,structured_normal","2,3,3,4,2,1","1,4,2,3","true","","",""
"null","","html-keyboard-response","89","121679","0.0-89.0","3I0BTBYZAY78BMDW6NFRHKJT3QK0YI","A39VZ93N96XB6O","388CL5C1RJ9X03EZUESK4LKS9TSHL1","","<img src=""img/set1/S4.jpg"" width=""540"" height = ""360"" style=""border:16px solid orange"">","null","","","","","","","","","",""
"null","","html-keyboard-response","90","121883","0.0-90.0","3I0BTBYZAY78BMDW6NFRHKJT3QK0YI","A39VZ93N96XB6O","388CL5C1RJ9X03EZUESK4LKS9TSHL1","","","null","","","","","","","","","",""
"495.2999999821186","","image-keyboard-response","91","122380","0.0-91.0","3I0BTBYZAY78BMDW6NFRHKJT3QK0YI","A39VZ93N96XB6O","388CL5C1RJ9X03EZUESK4LKS9TSHL1","","img/set1/S4.jpg","74","4","random","74","random,structured_incentive,structured_load,structured_normal","2,3,3,4,2,1","1,4,2,3","true","","",""
"null","","html-keyboard-response","92","122739","0.0-92.0","3I0BTBYZAY78BMDW6NFRHKJT3QK0YI","A39VZ93N96XB6O","388CL5C1RJ9X03EZUESK4LKS9TSHL1","","<img src=""img/set1/S4.jpg"" width=""540"" height = ""360"" style=""border:16px solid orange"">","null","","","","","","","","","",""
"null","","html-keyboard-response","93","122956","0.0-93.0","3I0BTBYZAY78BMDW6NFRHKJT3QK0YI","A39VZ93N96XB6O","388CL5C1RJ9X03EZUESK4LKS9TSHL1","","","null","","","","","","","","","",""
"608.1000000238419","","image-keyboard-response","94","123567","0.0-94.0","3I0BTBYZAY78BMDW6NFRHKJT3QK0YI","A39VZ93N96XB6O","388CL5C1RJ9X03EZUESK4LKS9TSHL1","","img/set1/S2.jpg","68","2","random","68","random,structured_incentive,structured_load,structured_normal","2,3,3,4,2,1","1,4,2,3","true","","",""
"null","","html-keyboard-response","95","123922","0.0-95.0","3I0BTBYZAY78BMDW6NFRHKJT3QK0YI","A39VZ93N96XB6O","388CL5C1RJ9X03EZUESK4LKS9TSHL1","","<img src=""img/set1/S2.jpg"" width=""540"" height = ""360"" style=""border:16px solid orange"">","null","","","","","","","","","",""
"null","","html-keyboard-response","96","124125","0.0-96.0","3I0BTBYZAY78BMDW6NFRHKJT3QK0YI","A39VZ93N96XB6O","388CL5C1RJ9X03EZUESK4LKS9TSHL1","","","null","","","","","","","","","",""
"438.09999999403954","","image-keyboard-response","97","124565","0.0-97.0","3I0BTBYZAY78BMDW6NFRHKJT3QK0YI","A39VZ93N96XB6O","388CL5C1RJ9X03EZUESK4LKS9TSHL1","","img/set1/S1.jpg","83","1","random","83","random,structured_incentive,structured_load,structured_normal","2,3,3,4,2,1","1,4,2,3","true","","",""
"null","","html-keyboard-response","98","124922","0.0-98.0","3I0BTBYZAY78BMDW6NFRHKJT3QK0YI","A39VZ93N96XB6O","388CL5C1RJ9X03EZUESK4LKS9TSHL1","","<img src=""img/set1/S1.jpg"" width=""540"" height = ""360"" style=""border:16px solid orange"">","null","","","","","","","","","",""
"null","","html-keyboard-response","99","125125","0.0-99.0","3I0BTBYZAY78BMDW6NFRHKJT3QK0YI","A39VZ93N96XB6O","388CL5C1RJ9X03EZUESK4LKS9TSHL1","","","null","","","","","","","","","",""
"372.60000002384186","","image-keyboard-response","100","125499","0.0-100.0","3I0BTBYZAY78BMDW6NFRHKJT3QK0YI","A39VZ93N96XB6O","388CL5C1RJ9X03EZUESK4LKS9TSHL1","","img/set1/S2.jpg","68","2","random","68","random,structured_incentive,structured_load,structured_normal","2,3,3,4,2,1","1,4,2,3","true","","",""
"null","","html-keyboard-response","101","125856","0.0-101.0","3I0BTBYZAY78BMDW6NFRHKJT3QK0YI","A39VZ93N96XB6O","388CL5C1RJ9X03EZUESK4LKS9TSHL1","","<img src=""img/set1/S2.jpg"" width=""540"" height = ""360"" style=""border:16px solid orange"">","null","","","","","","","","","",""
"null","","html-keyboard-response","102","126058","0.0-102.0","3I0BTBYZAY78BMDW6NFRHKJT3QK0YI","A39VZ93N96XB6O","388CL5C1RJ9X03EZUESK4LKS9TSHL1","","","null","","","","","","","","","",""
"437.19999998807907","","image-keyboard-response","103","126497","0.0-103.0","3I0BTBYZAY78BMDW6NFRHKJT3QK0YI","A39VZ93N96XB6O","388CL5C1RJ9X03EZUESK4LKS9TSHL1","","img/set1/S3.jpg","72","3","random","72","random,structured_incentive,structured_load,structured_normal","2,3,3,4,2,1","1,4,2,3","true","","",""
"null","","html-keyboard-response","104","126855","0.0-104.0","3I0BTBYZAY78BMDW6NFRHKJT3QK0YI","A39VZ93N96XB6O","388CL5C1RJ9X03EZUESK4LKS9TSHL1","","<img src=""img/set1/S3.jpg"" width=""540"" height = ""360"" style=""border:16px solid orange"">","null","","","","","","","","","",""
"null","","html-keyboard-response","105","127071","0.0-105.0","3I0BTBYZAY78BMDW6NFRHKJT3QK0YI","A39VZ93N96XB6O","388CL5C1RJ9X03EZUESK4LKS9TSHL1","","","null","","","","","","","","","",""
"762.0999999940395","","image-keyboard-response","106","127835","0.0-106.0","3I0BTBYZAY78BMDW6NFRHKJT3QK0YI","A39VZ93N96XB6O","388CL5C1RJ9X03EZUESK4LKS9TSHL1","","img/set1/S2.jpg","68","2","random","68","random,structured_incentive,structured_load,structured_normal","2,3,3,4,2,1","1,4,2,3","true","","",""
"null","","html-keyboard-response","107","128191","0.0-107.0","3I0BTBYZAY78BMDW6NFRHKJT3QK0YI","A39VZ93N96XB6O","388CL5C1RJ9X03EZUESK4LKS9TSHL1","","<img src=""img/set1/S2.jpg"" width=""540"" height = ""360"" style=""border:16px solid orange"">","null","","","","","","","","","",""
"null","","html-keyboard-response","108","128393","0.0-108.0","3I0BTBYZAY78BMDW6NFRHKJT3QK0YI","A39VZ93N96XB6O","388CL5C1RJ9X03EZUESK4LKS9TSHL1","","","null","","","","","","","","","",""
"512.8000000119209","","image-keyboard-response","109","128908","0.0-109.0","3I0BTBYZAY78BMDW6NFRHKJT3QK0YI","A39VZ93N96XB6O","388CL5C1RJ9X03EZUESK4LKS9TSHL1","","img/set1/S1.jpg","68","1","random","83","random,structured_incentive,structured_load,structured_normal","2,3,3,4,2,1","1,4,2,3","false","","",""
"null","","html-keyboard-response","110","129263","0.0-110.0","3I0BTBYZAY78BMDW6NFRHKJT3QK0YI","A39VZ93N96XB6O","388CL5C1RJ9X03EZUESK4LKS9TSHL1","","<img src=""img/set1/S1.jpg"" width=""540"" height = ""360"">","null","","","","","","","","","",""
"null","","html-keyboard-response","111","129466","0.0-111.0","3I0BTBYZAY78BMDW6NFRHKJT3QK0YI","A39VZ93N96XB6O","388CL5C1RJ9X03EZUESK4LKS9TSHL1","","","null","","","","","","","","","",""
"1025.5","","image-keyboard-response","112","130493","0.0-112.0","3I0BTBYZAY78BMDW6NFRHKJT3QK0YI","A39VZ93N96XB6O","388CL5C1RJ9X03EZUESK4LKS9TSHL1","","img/set1/S3.jpg","72","3","random","72","random,structured_incentive,structured_load,structured_normal","2,3,3,4,2,1","1,4,2,3","true","","",""
"null","","html-keyboard-response","113","130847","0.0-113.0","3I0BTBYZAY78BMDW6NFRHKJT3QK0YI","A39VZ93N96XB6O","388CL5C1RJ9X03EZUESK4LKS9TSHL1","","<img src=""img/set1/S3.jpg"" width=""540"" height = ""360"" style=""border:16px solid orange"">","null","","","","","","","","","",""
"null","","html-keyboard-response","114","131049","0.0-114.0","3I0BTBYZAY78BMDW6NFRHKJT3QK0YI","A39VZ93N96XB6O","388CL5C1RJ9X03EZUESK4LKS9TSHL1","","","null","","","","","","","","","",""
"634.8000000119209","","image-keyboard-response","115","131686","0.0-115.0","3I0BTBYZAY78BMDW6NFRHKJT3QK0YI","A39VZ93N96XB6O","388CL5C1RJ9X03EZUESK4LKS9TSHL1","","img/set1/S4.jpg","74","4","random","74","random,structured_incentive,structured_load,structured_normal","2,3,3,4,2,1","1,4,2,3","true","","",""
"null","","html-keyboard-response","116","132044","0.0-116.0","3I0BTBYZAY78BMDW6NFRHKJT3QK0YI","A39VZ93N96XB6O","388CL5C1RJ9X03EZUESK4LKS9TSHL1","","<img src=""img/set1/S4.jpg"" width=""540"" height = ""360"" style=""border:16px solid orange"">","null","","","","","","","","","",""
"null","","html-keyboard-response","117","132260","0.0-117.0","3I0BTBYZAY78BMDW6NFRHKJT3QK0YI","A39VZ93N96XB6O","388CL5C1RJ9X03EZUESK4LKS9TSHL1","","","null","","","","","","","","","",""
"731.0999999940395","","image-keyboard-response","118","132993","0.0-118.0","3I0BTBYZAY78BMDW6NFRHKJT3QK0YI","A39VZ93N96XB6O","388CL5C1RJ9X03EZUESK4LKS9TSHL1","","img/set1/S2.jpg","68","2","random","68","random,structured_incentive,structured_load,structured_normal","2,3,3,4,2,1","1,4,2,3","true","","",""
"null","","html-keyboard-response","119","133349","0.0-119.0","3I0BTBYZAY78BMDW6NFRHKJT3QK0YI","A39VZ93N96XB6O","388CL5C1RJ9X03EZUESK4LKS9TSHL1","","<img src=""img/set1/S2.jpg"" width=""540"" height = ""360"" style=""border:16px solid orange"">","null","","","","","","","","","",""
"null","","html-keyboard-response","120","133552","0.0-120.0","3I0BTBYZAY78BMDW6NFRHKJT3QK0YI","A39VZ93N96XB6O","388CL5C1RJ9X03EZUESK4LKS9TSHL1","","","null","","","","","","","","","",""
"562.8000000119209","","image-keyboard-response","121","134116","0.0-121.0","3I0BTBYZAY78BMDW6NFRHKJT3QK0YI","A39VZ93N96XB6O","388CL5C1RJ9X03EZUESK4LKS9TSHL1","","img/set1/S3.jpg","72","3","random","72","random,structured_incentive,structured_load,structured_normal","2,3,3,4,2,1","1,4,2,3","true","","",""
"null","","html-keyboard-response","122","134474","0.0-122.0","3I0BTBYZAY78BMDW6NFRHKJT3QK0YI","A39VZ93N96XB6O","388CL5C1RJ9X03EZUESK4LKS9TSHL1","","<img src=""img/set1/S3.jpg"" width=""540"" height = ""360"" style=""border:16px solid orange"">","null","","","","","","","","","",""
"null","","html-keyboard-response","123","134678","0.0-123.0","3I0BTBYZAY78BMDW6NFRHKJT3QK0YI","A39VZ93N96XB6O","388CL5C1RJ9X03EZUESK4LKS9TSHL1","","","null","","","","","","","","","",""
"607.1000000238419","","image-keyboard-response","124","135286","0.0-124.0","3I0BTBYZAY78BMDW6NFRHKJT3QK0YI","A39VZ93N96XB6O","388CL5C1RJ9X03EZUESK4LKS9TSHL1","","img/set1/S1.jpg","83","1","random","83","random,structured_incentive,structured_load,structured_normal","2,3,3,4,2,1","1,4,2,3","true","","",""
"null","","html-keyboard-response","125","135644","0.0-125.0","3I0BTBYZAY78BMDW6NFRHKJT3QK0YI","A39VZ93N96XB6O","388CL5C1RJ9X03EZUESK4LKS9TSHL1","","<img src=""img/set1/S1.jpg"" width=""540"" height = ""360"" style=""border:16px solid orange"">","null","","","","","","","","","",""
"null","","html-keyboard-response","126","135861","0.0-126.0","3I0BTBYZAY78BMDW6NFRHKJT3QK0YI","A39VZ93N96XB6O","388CL5C1RJ9X03EZUESK4LKS9TSHL1","","","null","","","","","","","","","",""
"668.8000000119209","","image-keyboard-response","127","136531","0.0-127.0","3I0BTBYZAY78BMDW6NFRHKJT3QK0YI","A39VZ93N96XB6O","388CL5C1RJ9X03EZUESK4LKS9TSHL1","","img/set1/S4.jpg","72","4","random","74","random,structured_incentive,structured_load,structured_normal","2,3,3,4,2,1","1,4,2,3","false","","",""
"null","","html-keyboard-response","128","136884","0.0-128.0","3I0BTBYZAY78BMDW6NFRHKJT3QK0YI","A39VZ93N96XB6O","388CL5C1RJ9X03EZUESK4LKS9TSHL1","","<img src=""img/set1/S4.jpg"" width=""540"" height = ""360"">","null","","","","","","","","","",""
"null","","html-keyboard-response","129","137087","0.0-129.0","3I0BTBYZAY78BMDW6NFRHKJT3QK0YI","A39VZ93N96XB6O","388CL5C1RJ9X03EZUESK4LKS9TSHL1","","","null","","","","","","","","","",""
"716.3000000119209","","image-keyboard-response","130","137805","0.0-130.0","3I0BTBYZAY78BMDW6NFRHKJT3QK0YI","A39VZ93N96XB6O","388CL5C1RJ9X03EZUESK4LKS9TSHL1","","img/set1/S1.jpg","83","1","random","83","random,structured_incentive,structured_load,structured_normal","2,3,3,4,2,1","1,4,2,3","true","","",""
"null","","html-keyboard-response","131","138164","0.0-131.0","3I0BTBYZAY78BMDW6NFRHKJT3QK0YI","A39VZ93N96XB6O","388CL5C1RJ9X03EZUESK4LKS9TSHL1","","<img src=""img/set1/S1.jpg"" width=""540"" height = ""360"" style=""border:16px solid orange"">","null","","","","","","","","","",""
"null","","html-keyboard-response","132","138366","0.0-132.0","3I0BTBYZAY78BMDW6NFRHKJT3QK0YI","A39VZ93N96XB6O","388CL5C1RJ9X03EZUESK4LKS9TSHL1","","","null","","","","","","","","","",""
"640.7999999821186","","image-keyboard-response","133","139009","0.0-133.0","3I0BTBYZAY78BMDW6NFRHKJT3QK0YI","A39VZ93N96XB6O","388CL5C1RJ9X03EZUESK4LKS9TSHL1","","img/set1/S1.jpg","83","1","random","83","random,structured_incentive,structured_load,structured_normal","2,3,3,4,2,1","1,4,2,3","true","","",""
"null","","html-keyboard-response","134","139363","0.0-134.0","3I0BTBYZAY78BMDW6NFRHKJT3QK0YI","A39VZ93N96XB6O","388CL5C1RJ9X03EZUESK4LKS9TSHL1","","<img src=""img/set1/S1.jpg"" width=""540"" height = ""360"" style=""border:16px solid orange"">","null","","","","","","","","","",""
"null","","html-keyboard-response","135","139581","0.0-135.0","3I0BTBYZAY78BMDW6NFRHKJT3QK0YI","A39VZ93N96XB6O","388CL5C1RJ9X03EZUESK4LKS9TSHL1","","","null","","","","","","","","","",""
"576.1999999880791","","image-keyboard-response","136","140159","0.0-136.0","3I0BTBYZAY78BMDW6NFRHKJT3QK0YI","A39VZ93N96XB6O","388CL5C1RJ9X03EZUESK4LKS9TSHL1","","img/set1/S4.jpg","74","4","random","74","random,structured_incentive,structured_load,structured_normal","2,3,3,4,2,1","1,4,2,3","true","","",""
"null","","html-keyboard-response","137","140514","0.0-137.0","3I0BTBYZAY78BMDW6NFRHKJT3QK0YI","A39VZ93N96XB6O","388CL5C1RJ9X03EZUESK4LKS9TSHL1","","<img src=""img/set1/S4.jpg"" width=""540"" height = ""360"" style=""border:16px solid orange"">","null","","","","","","","","","",""
"null","","html-keyboard-response","138","140730","0.0-138.0","3I0BTBYZAY78BMDW6NFRHKJT3QK0YI","A39VZ93N96XB6O","388CL5C1RJ9X03EZUESK4LKS9TSHL1","","","null","","","","","","","","","",""
"402.69999998807907","","image-keyboard-response","139","141134","0.0-139.0","3I0BTBYZAY78BMDW6NFRHKJT3QK0YI","A39VZ93N96XB6O","388CL5C1RJ9X03EZUESK4LKS9TSHL1","","img/set1/S4.jpg","74","4","random","74","random,structured_incentive,structured_load,structured_normal","2,3,3,4,2,1","1,4,2,3","true","","",""
"null","","html-keyboard-response","140","141495","0.0-140.0","3I0BTBYZAY78BMDW6NFRHKJT3QK0YI","A39VZ93N96XB6O","388CL5C1RJ9X03EZUESK4LKS9TSHL1","","<img src=""img/set1/S4.jpg"" width=""540"" height = ""360"" style=""border:16px solid orange"">","null","","","","","","","","","",""
"null","","html-keyboard-response","141","141709","0.0-141.0","3I0BTBYZAY78BMDW6NFRHKJT3QK0YI","A39VZ93N96XB6O","388CL5C1RJ9X03EZUESK4LKS9TSHL1","","","null","","","","","","","","","",""
"823.2000000178814","","image-keyboard-response","142","142534","0.0-142.0","3I0BTBYZAY78BMDW6NFRHKJT3QK0YI","A39VZ93N96XB6O","388CL5C1RJ9X03EZUESK4LKS9TSHL1","","img/set1/S2.jpg","68","2","random","68","random,structured_incentive,structured_load,structured_normal","2,3,3,4,2,1","1,4,2,3","true","","",""
"null","","html-keyboard-response","143","142891","0.0-143.0","3I0BTBYZAY78BMDW6NFRHKJT3QK0YI","A39VZ93N96XB6O","388CL5C1RJ9X03EZUESK4LKS9TSHL1","","<img src=""img/set1/S2.jpg"" width=""540"" height = ""360"" style=""border:16px solid orange"">","null","","","","","","","","","",""
"null","","html-keyboard-response","144","143108","0.0-144.0","3I0BTBYZAY78BMDW6NFRHKJT3QK0YI","A39VZ93N96XB6O","388CL5C1RJ9X03EZUESK4LKS9TSHL1","","","null","","","","","","","","","",""
"745.1000000238419","","image-keyboard-response","145","143854","0.0-145.0","3I0BTBYZAY78BMDW6NFRHKJT3QK0YI","A39VZ93N96XB6O","388CL5C1RJ9X03EZUESK4LKS9TSHL1","","img/set1/S3.jpg","72","3","random","72","random,structured_incentive,structured_load,structured_normal","2,3,3,4,2,1","1,4,2,3","true","","",""
"null","","html-keyboard-response","146","144212","0.0-146.0","3I0BTBYZAY78BMDW6NFRHKJT3QK0YI","A39VZ93N96XB6O","388CL5C1RJ9X03EZUESK4LKS9TSHL1","","<img src=""img/set1/S3.jpg"" width=""540"" height = ""360"" style=""border:16px solid orange"">","null","","","","","","","","","",""
"null","","html-keyboard-response","147","144427","0.0-147.0","3I0BTBYZAY78BMDW6NFRHKJT3QK0YI","A39VZ93N96XB6O","388CL5C1RJ9X03EZUESK4LKS9TSHL1","","","null","","","","","","","","","",""
"609.5","","image-keyboard-response","148","145038","0.0-148.0","3I0BTBYZAY78BMDW6NFRHKJT3QK0YI","A39VZ93N96XB6O","388CL5C1RJ9X03EZUESK4LKS9TSHL1","","img/set1/S1.jpg","83","1","random","83","random,structured_incentive,structured_load,structured_normal","2,3,3,4,2,1","1,4,2,3","true","","",""
"null","","html-keyboard-response","149","145394","0.0-149.0","3I0BTBYZAY78BMDW6NFRHKJT3QK0YI","A39VZ93N96XB6O","388CL5C1RJ9X03EZUESK4LKS9TSHL1","","<img src=""img/set1/S1.jpg"" width=""540"" height = ""360"" style=""border:16px solid orange"">","null","","","","","","","","","",""
"null","","html-keyboard-response","150","145612","0.0-150.0","3I0BTBYZAY78BMDW6NFRHKJT3QK0YI","A39VZ93N96XB6O","388CL5C1RJ9X03EZUESK4LKS9TSHL1","","","null","","","","","","","","","",""
"842.8000000119209","","image-keyboard-response","151","146457","0.0-151.0","3I0BTBYZAY78BMDW6NFRHKJT3QK0YI","A39VZ93N96XB6O","388CL5C1RJ9X03EZUESK4LKS9TSHL1","","img/set1/S3.jpg","72","3","random","72","random,structured_incentive,structured_load,structured_normal","2,3,3,4,2,1","1,4,2,3","true","","",""
"null","","html-keyboard-response","152","146824","0.0-152.0","3I0BTBYZAY78BMDW6NFRHKJT3QK0YI","A39VZ93N96XB6O","388CL5C1RJ9X03EZUESK4LKS9TSHL1","","<img src=""img/set1/S3.jpg"" width=""540"" height = ""360"" style=""border:16px solid orange"">","null","","","","","","","","","",""
"null","","html-keyboard-response","153","147026","0.0-153.0","3I0BTBYZAY78BMDW6NFRHKJT3QK0YI","A39VZ93N96XB6O","388CL5C1RJ9X03EZUESK4LKS9TSHL1","","","null","","","","","","","","","",""
"498","","image-keyboard-response","154","147526","0.0-154.0","3I0BTBYZAY78BMDW6NFRHKJT3QK0YI","A39VZ93N96XB6O","388CL5C1RJ9X03EZUESK4LKS9TSHL1","","img/set1/S3.jpg","72","3","random","72","random,structured_incentive,structured_load,structured_normal","2,3,3,4,2,1","1,4,2,3","true","","",""
"null","","html-keyboard-response","155","147883","0.0-155.0","3I0BTBYZAY78BMDW6NFRHKJT3QK0YI","A39VZ93N96XB6O","388CL5C1RJ9X03EZUESK4LKS9TSHL1","","<img src=""img/set1/S3.jpg"" width=""540"" height = ""360"" style=""border:16px solid orange"">","null","","","","","","","","","",""
"null","","html-keyboard-response","156","148099","0.0-156.0","3I0BTBYZAY78BMDW6NFRHKJT3QK0YI","A39VZ93N96XB6O","388CL5C1RJ9X03EZUESK4LKS9TSHL1","","","null","","","","","","","","","",""
"561.5999999940395","","image-keyboard-response","157","148663","0.0-157.0","3I0BTBYZAY78BMDW6NFRHKJT3QK0YI","A39VZ93N96XB6O","388CL5C1RJ9X03EZUESK4LKS9TSHL1","","img/set1/S1.jpg","83","1","random","83","random,structured_incentive,structured_load,structured_normal","2,3,3,4,2,1","1,4,2,3","true","","",""
"null","","html-keyboard-response","158","149017","0.0-158.0","3I0BTBYZAY78BMDW6NFRHKJT3QK0YI","A39VZ93N96XB6O","388CL5C1RJ9X03EZUESK4LKS9TSHL1","","<img src=""img/set1/S1.jpg"" width=""540"" height = ""360"" style=""border:16px solid orange"">","null","","","","","","","","","",""
"null","","html-keyboard-response","159","149233","0.0-159.0","3I0BTBYZAY78BMDW6NFRHKJT3QK0YI","A39VZ93N96XB6O","388CL5C1RJ9X03EZUESK4LKS9TSHL1","","","null","","","","","","","","","",""
"544.0999999940395","","image-keyboard-response","160","149779","0.0-160.0","3I0BTBYZAY78BMDW6NFRHKJT3QK0YI","A39VZ93N96XB6O","388CL5C1RJ9X03EZUESK4LKS9TSHL1","","img/set1/S4.jpg","74","4","random","74","random,structured_incentive,structured_load,structured_normal","2,3,3,4,2,1","1,4,2,3","true","","",""
"null","","html-keyboard-response","161","150137","0.0-161.0","3I0BTBYZAY78BMDW6NFRHKJT3QK0YI","A39VZ93N96XB6O","388CL5C1RJ9X03EZUESK4LKS9TSHL1","","<img src=""img/set1/S4.jpg"" width=""540"" height = ""360"" style=""border:16px solid orange"">","null","","","","","","","","","",""
"null","","html-keyboard-response","162","150341","0.0-162.0","3I0BTBYZAY78BMDW6NFRHKJT3QK0YI","A39VZ93N96XB6O","388CL5C1RJ9X03EZUESK4LKS9TSHL1","","","null","","","","","","","","","",""
"700.6999999880791","","image-keyboard-response","163","151043","0.0-163.0","3I0BTBYZAY78BMDW6NFRHKJT3QK0YI","A39VZ93N96XB6O","388CL5C1RJ9X03EZUESK4LKS9TSHL1","","img/set1/S1.jpg","83","1","random","83","random,structured_incentive,structured_load,structured_normal","2,3,3,4,2,1","1,4,2,3","true","","",""
"null","","html-keyboard-response","164","151400","0.0-164.0","3I0BTBYZAY78BMDW6NFRHKJT3QK0YI","A39VZ93N96XB6O","388CL5C1RJ9X03EZUESK4LKS9TSHL1","","<img src=""img/set1/S1.jpg"" width=""540"" height = ""360"" style=""border:16px solid orange"">","null","","","","","","","","","",""
"null","","html-keyboard-response","165","151617","0.0-165.0","3I0BTBYZAY78BMDW6NFRHKJT3QK0YI","A39VZ93N96XB6O","388CL5C1RJ9X03EZUESK4LKS9TSHL1","","","null","","","","","","","","","",""
"637.3000000119209","","image-keyboard-response","166","152256","0.0-166.0","3I0BTBYZAY78BMDW6NFRHKJT3QK0YI","A39VZ93N96XB6O","388CL5C1RJ9X03EZUESK4LKS9TSHL1","","img/set1/S4.jpg","74","4","random","74","random,structured_incentive,structured_load,structured_normal","2,3,3,4,2,1","1,4,2,3","true","","",""
"null","","html-keyboard-response","167","152611","0.0-167.0","3I0BTBYZAY78BMDW6NFRHKJT3QK0YI","A39VZ93N96XB6O","388CL5C1RJ9X03EZUESK4LKS9TSHL1","","<img src=""img/set1/S4.jpg"" width=""540"" height = ""360"" style=""border:16px solid orange"">","null","","","","","","","","","",""
"null","","html-keyboard-response","168","152826","0.0-168.0","3I0BTBYZAY78BMDW6NFRHKJT3QK0YI","A39VZ93N96XB6O","388CL5C1RJ9X03EZUESK4LKS9TSHL1","","","null","","","","","","","","","",""
"622.0999999940395","","image-keyboard-response","169","153450","0.0-169.0","3I0BTBYZAY78BMDW6NFRHKJT3QK0YI","A39VZ93N96XB6O","388CL5C1RJ9X03EZUESK4LKS9TSHL1","","img/set1/S1.jpg","68","1","random","83","random,structured_incentive,structured_load,structured_normal","2,3,3,4,2,1","1,4,2,3","false","","",""
"null","","html-keyboard-response","170","153806","0.0-170.0","3I0BTBYZAY78BMDW6NFRHKJT3QK0YI","A39VZ93N96XB6O","388CL5C1RJ9X03EZUESK4LKS9TSHL1","","<img src=""img/set1/S1.jpg"" width=""540"" height = ""360"">","null","","","","","","","","","",""
"null","","html-keyboard-response","171","154022","0.0-171.0","3I0BTBYZAY78BMDW6NFRHKJT3QK0YI","A39VZ93N96XB6O","388CL5C1RJ9X03EZUESK4LKS9TSHL1","","","null","","","","","","","","","",""
"680.3000000119209","","image-keyboard-response","172","154704","0.0-172.0","3I0BTBYZAY78BMDW6NFRHKJT3QK0YI","A39VZ93N96XB6O","388CL5C1RJ9X03EZUESK4LKS9TSHL1","","img/set1/S2.jpg","68","2","random","68","random,structured_incentive,structured_load,structured_normal","2,3,3,4,2,1","1,4,2,3","true","","",""
"null","","html-keyboard-response","173","155060","0.0-173.0","3I0BTBYZAY78BMDW6NFRHKJT3QK0YI","A39VZ93N96XB6O","388CL5C1RJ9X03EZUESK4LKS9TSHL1","","<img src=""img/set1/S2.jpg"" width=""540"" height = ""360"" style=""border:16px solid orange"">","null","","","","","","","","","",""
"null","","html-keyboard-response","174","155275","0.0-174.0","3I0BTBYZAY78BMDW6NFRHKJT3QK0YI","A39VZ93N96XB6O","388CL5C1RJ9X03EZUESK4LKS9TSHL1","","","null","","","","","","","","","",""
"404.40000000596046","","image-keyboard-response","175","155681","0.0-175.0","3I0BTBYZAY78BMDW6NFRHKJT3QK0YI","A39VZ93N96XB6O","388CL5C1RJ9X03EZUESK4LKS9TSHL1","","img/set1/S2.jpg","68","2","random","68","random,structured_incentive,structured_load,structured_normal","2,3,3,4,2,1","1,4,2,3","true","","",""
"null","","html-keyboard-response","176","156038","0.0-176.0","3I0BTBYZAY78BMDW6NFRHKJT3QK0YI","A39VZ93N96XB6O","388CL5C1RJ9X03EZUESK4LKS9TSHL1","","<img src=""img/set1/S2.jpg"" width=""540"" height = ""360"" style=""border:16px solid orange"">","null","","","","","","","","","",""
"null","","html-keyboard-response","177","156242","0.0-177.0","3I0BTBYZAY78BMDW6NFRHKJT3QK0YI","A39VZ93N96XB6O","388CL5C1RJ9X03EZUESK4LKS9TSHL1","","","null","","","","","","","","","",""
"543.3000000119209","","image-keyboard-response","178","156786","0.0-178.0","3I0BTBYZAY78BMDW6NFRHKJT3QK0YI","A39VZ93N96XB6O","388CL5C1RJ9X03EZUESK4LKS9TSHL1","","img/set1/S1.jpg","83","1","random","83","random,structured_incentive,structured_load,structured_normal","2,3,3,4,2,1","1,4,2,3","true","","",""
"null","","html-keyboard-response","179","157141","0.0-179.0","3I0BTBYZAY78BMDW6NFRHKJT3QK0YI","A39VZ93N96XB6O","388CL5C1RJ9X03EZUESK4LKS9TSHL1","","<img src=""img/set1/S1.jpg"" width=""540"" height = ""360"" style=""border:16px solid orange"">","null","","","","","","","","","",""
"null","","html-keyboard-response","180","157344","0.0-180.0","3I0BTBYZAY78BMDW6NFRHKJT3QK0YI","A39VZ93N96XB6O","388CL5C1RJ9X03EZUESK4LKS9TSHL1","","","null","","","","","","","","","",""
"466.5","","image-keyboard-response","181","157813","0.0-181.0","3I0BTBYZAY78BMDW6NFRHKJT3QK0YI","A39VZ93N96XB6O","388CL5C1RJ9X03EZUESK4LKS9TSHL1","","img/set1/S3.jpg","72","3","random","72","random,structured_incentive,structured_load,structured_normal","2,3,3,4,2,1","1,4,2,3","true","","",""
"null","","html-keyboard-response","182","158169","0.0-182.0","3I0BTBYZAY78BMDW6NFRHKJT3QK0YI","A39VZ93N96XB6O","388CL5C1RJ9X03EZUESK4LKS9TSHL1","","<img src=""img/set1/S3.jpg"" width=""540"" height = ""360"" style=""border:16px solid orange"">","null","","","","","","","","","",""
"null","","html-keyboard-response","183","158371","0.0-183.0","3I0BTBYZAY78BMDW6NFRHKJT3QK0YI","A39VZ93N96XB6O","388CL5C1RJ9X03EZUESK4LKS9TSHL1","","","null","","","","","","","","","",""
"467.30000001192093","","image-keyboard-response","184","158841","0.0-184.0","3I0BTBYZAY78BMDW6NFRHKJT3QK0YI","A39VZ93N96XB6O","388CL5C1RJ9X03EZUESK4LKS9TSHL1","","img/set1/S3.jpg","72","3","random","72","random,structured_incentive,structured_load,structured_normal","2,3,3,4,2,1","1,4,2,3","true","","",""
"null","","html-keyboard-response","185","159199","0.0-185.0","3I0BTBYZAY78BMDW6NFRHKJT3QK0YI","A39VZ93N96XB6O","388CL5C1RJ9X03EZUESK4LKS9TSHL1","","<img src=""img/set1/S3.jpg"" width=""540"" height = ""360"" style=""border:16px solid orange"">","null","","","","","","","","","",""
"null","","html-keyboard-response","186","159401","0.0-186.0","3I0BTBYZAY78BMDW6NFRHKJT3QK0YI","A39VZ93N96XB6O","388CL5C1RJ9X03EZUESK4LKS9TSHL1","","","null","","","","","","","","","",""
"528.1999999880791","","image-keyboard-response","187","159931","0.0-187.0","3I0BTBYZAY78BMDW6NFRHKJT3QK0YI","A39VZ93N96XB6O","388CL5C1RJ9X03EZUESK4LKS9TSHL1","","img/set1/S2.jpg","83","2","random","68","random,structured_incentive,structured_load,structured_normal","2,3,3,4,2,1","1,4,2,3","false","","",""
"null","","html-keyboard-response","188","160290","0.0-188.0","3I0BTBYZAY78BMDW6NFRHKJT3QK0YI","A39VZ93N96XB6O","388CL5C1RJ9X03EZUESK4LKS9TSHL1","","<img src=""img/set1/S2.jpg"" width=""540"" height = ""360"">","null","","","","","","","","","",""
"null","","html-keyboard-response","189","160493","0.0-189.0","3I0BTBYZAY78BMDW6NFRHKJT3QK0YI","A39VZ93N96XB6O","388CL5C1RJ9X03EZUESK4LKS9TSHL1","","","null","","","","","","","","","",""
"432.90000000596046","","image-keyboard-response","190","160927","0.0-190.0","3I0BTBYZAY78BMDW6NFRHKJT3QK0YI","A39VZ93N96XB6O","388CL5C1RJ9X03EZUESK4LKS9TSHL1","","img/set1/S2.jpg","68","2","random","68","random,structured_incentive,structured_load,structured_normal","2,3,3,4,2,1","1,4,2,3","true","","",""
"null","","html-keyboard-response","191","161284","0.0-191.0","3I0BTBYZAY78BMDW6NFRHKJT3QK0YI","A39VZ93N96XB6O","388CL5C1RJ9X03EZUESK4LKS9TSHL1","","<img src=""img/set1/S2.jpg"" width=""540"" height = ""360"" style=""border:16px solid orange"">","null","","","","","","","","","",""
"null","","html-keyboard-response","192","161489","0.0-192.0","3I0BTBYZAY78BMDW6NFRHKJT3QK0YI","A39VZ93N96XB6O","388CL5C1RJ9X03EZUESK4LKS9TSHL1","","","null","","","","","","","","","",""
"571.0999999940395","","image-keyboard-response","193","162062","0.0-193.0","3I0BTBYZAY78BMDW6NFRHKJT3QK0YI","A39VZ93N96XB6O","388CL5C1RJ9X03EZUESK4LKS9TSHL1","","img/set1/S1.jpg","83","1","random","83","random,structured_incentive,structured_load,structured_normal","2,3,3,4,2,1","1,4,2,3","true","","",""
"null","","html-keyboard-response","194","162421","0.0-194.0","3I0BTBYZAY78BMDW6NFRHKJT3QK0YI","A39VZ93N96XB6O","388CL5C1RJ9X03EZUESK4LKS9TSHL1","","<img src=""img/set1/S1.jpg"" width=""540"" height = ""360"" style=""border:16px solid orange"">","null","","","","","","","","","",""
"null","","html-keyboard-response","195","162624","0.0-195.0","3I0BTBYZAY78BMDW6NFRHKJT3QK0YI","A39VZ93N96XB6O","388CL5C1RJ9X03EZUESK4LKS9TSHL1","","","null","","","","","","","","","",""
"443.2000000178814","","image-keyboard-response","196","163069","0.0-196.0","3I0BTBYZAY78BMDW6NFRHKJT3QK0YI","A39VZ93N96XB6O","388CL5C1RJ9X03EZUESK4LKS9TSHL1","","img/set1/S1.jpg","68","1","random","83","random,structured_incentive,structured_load,structured_normal","2,3,3,4,2,1","1,4,2,3","false","","",""
"null","","html-keyboard-response","197","163434","0.0-197.0","3I0BTBYZAY78BMDW6NFRHKJT3QK0YI","A39VZ93N96XB6O","388CL5C1RJ9X03EZUESK4LKS9TSHL1","","<img src=""img/set1/S1.jpg"" width=""540"" height = ""360"">","null","","","","","","","","","",""
"null","","html-keyboard-response","198","163637","0.0-198.0","3I0BTBYZAY78BMDW6NFRHKJT3QK0YI","A39VZ93N96XB6O","388CL5C1RJ9X03EZUESK4LKS9TSHL1","","","null","","","","","","","","","",""
"466.5","","image-keyboard-response","199","164106","0.0-199.0","3I0BTBYZAY78BMDW6NFRHKJT3QK0YI","A39VZ93N96XB6O","388CL5C1RJ9X03EZUESK4LKS9TSHL1","","img/set1/S1.jpg","83","1","random","83","random,structured_incentive,structured_load,structured_normal","2,3,3,4,2,1","1,4,2,3","true","","",""
"null","","html-keyboard-response","200","164462","0.0-200.0","3I0BTBYZAY78BMDW6NFRHKJT3QK0YI","A39VZ93N96XB6O","388CL5C1RJ9X03EZUESK4LKS9TSHL1","","<img src=""img/set1/S1.jpg"" width=""540"" height = ""360"" style=""border:16px solid orange"">","null","","","","","","","","","",""
"null","","html-keyboard-response","201","164665","0.0-201.0","3I0BTBYZAY78BMDW6NFRHKJT3QK0YI","A39VZ93N96XB6O","388CL5C1RJ9X03EZUESK4LKS9TSHL1","","","null","","","","","","","","","",""
"590.2999999821186","","image-keyboard-response","202","165257","0.0-202.0","3I0BTBYZAY78BMDW6NFRHKJT3QK0YI","A39VZ93N96XB6O","388CL5C1RJ9X03EZUESK4LKS9TSHL1","","img/set1/S3.jpg","72","3","random","72","random,structured_incentive,structured_load,structured_normal","2,3,3,4,2,1","1,4,2,3","true","","",""
"null","","html-keyboard-response","203","165611","0.0-203.0","3I0BTBYZAY78BMDW6NFRHKJT3QK0YI","A39VZ93N96XB6O","388CL5C1RJ9X03EZUESK4LKS9TSHL1","","<img src=""img/set1/S3.jpg"" width=""540"" height = ""360"" style=""border:16px solid orange"">","null","","","","","","","","","",""
"null","","html-keyboard-response","204","165813","0.0-204.0","3I0BTBYZAY78BMDW6NFRHKJT3QK0YI","A39VZ93N96XB6O","388CL5C1RJ9X03EZUESK4LKS9TSHL1","","","null","","","","","","","","","",""
"637.2999999821186","","image-keyboard-response","205","166452","0.0-205.0","3I0BTBYZAY78BMDW6NFRHKJT3QK0YI","A39VZ93N96XB6O","388CL5C1RJ9X03EZUESK4LKS9TSHL1","","img/set1/S2.jpg","68","2","random","68","random,structured_incentive,structured_load,structured_normal","2,3,3,4,2,1","1,4,2,3","true","","",""
"null","","html-keyboard-response","206","166808","0.0-206.0","3I0BTBYZAY78BMDW6NFRHKJT3QK0YI","A39VZ93N96XB6O","388CL5C1RJ9X03EZUESK4LKS9TSHL1","","<img src=""img/set1/S2.jpg"" width=""540"" height = ""360"" style=""border:16px solid orange"">","null","","","","","","","","","",""
"null","","html-keyboard-response","207","167011","0.0-207.0","3I0BTBYZAY78BMDW6NFRHKJT3QK0YI","A39VZ93N96XB6O","388CL5C1RJ9X03EZUESK4LKS9TSHL1","","","null","","","","","","","","","",""
"544.2000000178814","","image-keyboard-response","208","167558","0.0-208.0","3I0BTBYZAY78BMDW6NFRHKJT3QK0YI","A39VZ93N96XB6O","388CL5C1RJ9X03EZUESK4LKS9TSHL1","","img/set1/S3.jpg","72","3","random","72","random,structured_incentive,structured_load,structured_normal","2,3,3,4,2,1","1,4,2,3","true","","",""
"null","","html-keyboard-response","209","167911","0.0-209.0","3I0BTBYZAY78BMDW6NFRHKJT3QK0YI","A39VZ93N96XB6O","388CL5C1RJ9X03EZUESK4LKS9TSHL1","","<img src=""img/set1/S3.jpg"" width=""540"" height = ""360"" style=""border:16px solid orange"">","null","","","","","","","","","",""
"null","","html-keyboard-response","210","168113","0.0-210.0","3I0BTBYZAY78BMDW6NFRHKJT3QK0YI","A39VZ93N96XB6O","388CL5C1RJ9X03EZUESK4LKS9TSHL1","","","null","","","","","","","","","",""
"668.9000000059605","","image-keyboard-response","211","168784","0.0-211.0","3I0BTBYZAY78BMDW6NFRHKJT3QK0YI","A39VZ93N96XB6O","388CL5C1RJ9X03EZUESK4LKS9TSHL1","","img/set1/S4.jpg","74","4","random","74","random,structured_incentive,structured_load,structured_normal","2,3,3,4,2,1","1,4,2,3","true","","",""
"null","","html-keyboard-response","212","169142","0.0-212.0","3I0BTBYZAY78BMDW6NFRHKJT3QK0YI","A39VZ93N96XB6O","388CL5C1RJ9X03EZUESK4LKS9TSHL1","","<img src=""img/set1/S4.jpg"" width=""540"" height = ""360"" style=""border:16px solid orange"">","null","","","","","","","","","",""
"null","","html-keyboard-response","213","169345","0.0-213.0","3I0BTBYZAY78BMDW6NFRHKJT3QK0YI","A39VZ93N96XB6O","388CL5C1RJ9X03EZUESK4LKS9TSHL1","","","null","","","","","","","","","",""
"554.1000000238419","","image-keyboard-response","214","169901","0.0-214.0","3I0BTBYZAY78BMDW6NFRHKJT3QK0YI","A39VZ93N96XB6O","388CL5C1RJ9X03EZUESK4LKS9TSHL1","","img/set1/S3.jpg","68","3","random","72","random,structured_incentive,structured_load,structured_normal","2,3,3,4,2,1","1,4,2,3","false","","",""
"null","","html-keyboard-response","215","170256","0.0-215.0","3I0BTBYZAY78BMDW6NFRHKJT3QK0YI","A39VZ93N96XB6O","388CL5C1RJ9X03EZUESK4LKS9TSHL1","","<img src=""img/set1/S3.jpg"" width=""540"" height = ""360"">","null","","","","","","","","","",""
"null","","html-keyboard-response","216","170459","0.0-216.0","3I0BTBYZAY78BMDW6NFRHKJT3QK0YI","A39VZ93N96XB6O","388CL5C1RJ9X03EZUESK4LKS9TSHL1","","","null","","","","","","","","","",""
"621.5","","image-keyboard-response","217","171083","0.0-217.0","3I0BTBYZAY78BMDW6NFRHKJT3QK0YI","A39VZ93N96XB6O","388CL5C1RJ9X03EZUESK4LKS9TSHL1","","img/set1/S2.jpg","68","2","random","68","random,structured_incentive,structured_load,structured_normal","2,3,3,4,2,1","1,4,2,3","true","","",""
"null","","html-keyboard-response","218","171440","0.0-218.0","3I0BTBYZAY78BMDW6NFRHKJT3QK0YI","A39VZ93N96XB6O","388CL5C1RJ9X03EZUESK4LKS9TSHL1","","<img src=""img/set1/S2.jpg"" width=""540"" height = ""360"" style=""border:16px solid orange"">","null","","","","","","","","","",""
"null","","html-keyboard-response","219","171643","0.0-219.0","3I0BTBYZAY78BMDW6NFRHKJT3QK0YI","A39VZ93N96XB6O","388CL5C1RJ9X03EZUESK4LKS9TSHL1","","","null","","","","","","","","","",""
"531.5","","image-keyboard-response","220","172176","0.0-220.0","3I0BTBYZAY78BMDW6NFRHKJT3QK0YI","A39VZ93N96XB6O","388CL5C1RJ9X03EZUESK4LKS9TSHL1","","img/set1/S1.jpg","68","1","random","83","random,structured_incentive,structured_load,structured_normal","2,3,3,4,2,1","1,4,2,3","false","","",""
"null","","html-keyboard-response","221","172533","0.0-221.0","3I0BTBYZAY78BMDW6NFRHKJT3QK0YI","A39VZ93N96XB6O","388CL5C1RJ9X03EZUESK4LKS9TSHL1","","<img src=""img/set1/S1.jpg"" width=""540"" height = ""360"">","null","","","","","","","","","",""
"null","","html-keyboard-response","222","172735","0.0-222.0","3I0BTBYZAY78BMDW6NFRHKJT3QK0YI","A39VZ93N96XB6O","388CL5C1RJ9X03EZUESK4LKS9TSHL1","","","null","","","","","","","","","",""
"604.7000000178814","","image-keyboard-response","223","173341","0.0-223.0","3I0BTBYZAY78BMDW6NFRHKJT3QK0YI","A39VZ93N96XB6O","388CL5C1RJ9X03EZUESK4LKS9TSHL1","","img/set1/S4.jpg","74","4","random","74","random,structured_incentive,structured_load,structured_normal","2,3,3,4,2,1","1,4,2,3","true","","",""
"null","","html-keyboard-response","224","173696","0.0-224.0","3I0BTBYZAY78BMDW6NFRHKJT3QK0YI","A39VZ93N96XB6O","388CL5C1RJ9X03EZUESK4LKS9TSHL1","","<img src=""img/set1/S4.jpg"" width=""540"" height = ""360"" style=""border:16px solid orange"">","null","","","","","","","","","",""
"null","","html-keyboard-response","225","173913","0.0-225.0","3I0BTBYZAY78BMDW6NFRHKJT3QK0YI","A39VZ93N96XB6O","388CL5C1RJ9X03EZUESK4LKS9TSHL1","","","null","","","","","","","","","",""
"766.5","","image-keyboard-response","226","174681","0.0-226.0","3I0BTBYZAY78BMDW6NFRHKJT3QK0YI","A39VZ93N96XB6O","388CL5C1RJ9X03EZUESK4LKS9TSHL1","","img/set1/S1.jpg","83","1","random","83","random,structured_incentive,structured_load,structured_normal","2,3,3,4,2,1","1,4,2,3","true","","",""
"null","","html-keyboard-response","227","175049","0.0-227.0","3I0BTBYZAY78BMDW6NFRHKJT3QK0YI","A39VZ93N96XB6O","388CL5C1RJ9X03EZUESK4LKS9TSHL1","","<img src=""img/set1/S1.jpg"" width=""540"" height = ""360"" style=""border:16px solid orange"">","null","","","","","","","","","",""
"null","","html-keyboard-response","228","175251","0.0-228.0","3I0BTBYZAY78BMDW6NFRHKJT3QK0YI","A39VZ93N96XB6O","388CL5C1RJ9X03EZUESK4LKS9TSHL1","","","null","","","","","","","","","",""
"466","","image-keyboard-response","229","175719","0.0-229.0","3I0BTBYZAY78BMDW6NFRHKJT3QK0YI","A39VZ93N96XB6O","388CL5C1RJ9X03EZUESK4LKS9TSHL1","","img/set1/S1.jpg","83","1","random","83","random,structured_incentive,structured_load,structured_normal","2,3,3,4,2,1","1,4,2,3","true","","",""
"null","","html-keyboard-response","230","176075","0.0-230.0","3I0BTBYZAY78BMDW6NFRHKJT3QK0YI","A39VZ93N96XB6O","388CL5C1RJ9X03EZUESK4LKS9TSHL1","","<img src=""img/set1/S1.jpg"" width=""540"" height = ""360"" style=""border:16px solid orange"">","null","","","","","","","","","",""
"null","","html-keyboard-response","231","176277","0.0-231.0","3I0BTBYZAY78BMDW6NFRHKJT3QK0YI","A39VZ93N96XB6O","388CL5C1RJ9X03EZUESK4LKS9TSHL1","","","null","","","","","","","","","",""
"514.0999999940395","","image-keyboard-response","232","176794","0.0-232.0","3I0BTBYZAY78BMDW6NFRHKJT3QK0YI","A39VZ93N96XB6O","388CL5C1RJ9X03EZUESK4LKS9TSHL1","","img/set1/S2.jpg","68","2","random","68","random,structured_incentive,structured_load,structured_normal","2,3,3,4,2,1","1,4,2,3","true","","",""
"null","","html-keyboard-response","233","177150","0.0-233.0","3I0BTBYZAY78BMDW6NFRHKJT3QK0YI","A39VZ93N96XB6O","388CL5C1RJ9X03EZUESK4LKS9TSHL1","","<img src=""img/set1/S2.jpg"" width=""540"" height = ""360"" style=""border:16px solid orange"">","null","","","","","","","","","",""
"null","","html-keyboard-response","234","177366","0.0-234.0","3I0BTBYZAY78BMDW6NFRHKJT3QK0YI","A39VZ93N96XB6O","388CL5C1RJ9X03EZUESK4LKS9TSHL1","","","null","","","","","","","","","",""
"591","","image-keyboard-response","235","177959","0.0-235.0","3I0BTBYZAY78BMDW6NFRHKJT3QK0YI","A39VZ93N96XB6O","388CL5C1RJ9X03EZUESK4LKS9TSHL1","","img/set1/S1.jpg","83","1","random","83","random,structured_incentive,structured_load,structured_normal","2,3,3,4,2,1","1,4,2,3","true","","",""
"null","","html-keyboard-response","236","178316","0.0-236.0","3I0BTBYZAY78BMDW6NFRHKJT3QK0YI","A39VZ93N96XB6O","388CL5C1RJ9X03EZUESK4LKS9TSHL1","","<img src=""img/set1/S1.jpg"" width=""540"" height = ""360"" style=""border:16px solid orange"">","null","","","","","","","","","",""
"null","","html-keyboard-response","237","178519","0.0-237.0","3I0BTBYZAY78BMDW6NFRHKJT3QK0YI","A39VZ93N96XB6O","388CL5C1RJ9X03EZUESK4LKS9TSHL1","","","null","","","","","","","","","",""
"510.90000000596046","","image-keyboard-response","238","179032","0.0-238.0","3I0BTBYZAY78BMDW6NFRHKJT3QK0YI","A39VZ93N96XB6O","388CL5C1RJ9X03EZUESK4LKS9TSHL1","","img/set1/S3.jpg","72","3","random","72","random,structured_incentive,structured_load,structured_normal","2,3,3,4,2,1","1,4,2,3","true","","",""
"null","","html-keyboard-response","239","179387","0.0-239.0","3I0BTBYZAY78BMDW6NFRHKJT3QK0YI","A39VZ93N96XB6O","388CL5C1RJ9X03EZUESK4LKS9TSHL1","","<img src=""img/set1/S3.jpg"" width=""540"" height = ""360"" style=""border:16px solid orange"">","null","","","","","","","","","",""
"null","","html-keyboard-response","240","179590","0.0-240.0","3I0BTBYZAY78BMDW6NFRHKJT3QK0YI","A39VZ93N96XB6O","388CL5C1RJ9X03EZUESK4LKS9TSHL1","","","null","","","","","","","","","",""
"605.5999999940395","","image-keyboard-response","241","180196","0.0-241.0","3I0BTBYZAY78BMDW6NFRHKJT3QK0YI","A39VZ93N96XB6O","388CL5C1RJ9X03EZUESK4LKS9TSHL1","","img/set1/S2.jpg","68","2","random","68","random,structured_incentive,structured_load,structured_normal","2,3,3,4,2,1","1,4,2,3","true","","",""
"null","","html-keyboard-response","242","180553","0.0-242.0","3I0BTBYZAY78BMDW6NFRHKJT3QK0YI","A39VZ93N96XB6O","388CL5C1RJ9X03EZUESK4LKS9TSHL1","","<img src=""img/set1/S2.jpg"" width=""540"" height = ""360"" style=""border:16px solid orange"">","null","","","","","","","","","",""
"null","","html-keyboard-response","243","180761","0.0-243.0","3I0BTBYZAY78BMDW6NFRHKJT3QK0YI","A39VZ93N96XB6O","388CL5C1RJ9X03EZUESK4LKS9TSHL1","","","null","","","","","","","","","",""
"411.10000002384186","","image-keyboard-response","244","181174","0.0-244.0","3I0BTBYZAY78BMDW6NFRHKJT3QK0YI","A39VZ93N96XB6O","388CL5C1RJ9X03EZUESK4LKS9TSHL1","","img/set1/S4.jpg","74","4","random","74","random,structured_incentive,structured_load,structured_normal","2,3,3,4,2,1","1,4,2,3","true","","",""
"null","","html-keyboard-response","245","181532","0.0-245.0","3I0BTBYZAY78BMDW6NFRHKJT3QK0YI","A39VZ93N96XB6O","388CL5C1RJ9X03EZUESK4LKS9TSHL1","","<img src=""img/set1/S4.jpg"" width=""540"" height = ""360"" style=""border:16px solid orange"">","null","","","","","","","","","",""
"null","","html-keyboard-response","246","181750","0.0-246.0","3I0BTBYZAY78BMDW6NFRHKJT3QK0YI","A39VZ93N96XB6O","388CL5C1RJ9X03EZUESK4LKS9TSHL1","","","null","","","","","","","","","",""
"575.9000000059605","","image-keyboard-response","247","182328","0.0-247.0","3I0BTBYZAY78BMDW6NFRHKJT3QK0YI","A39VZ93N96XB6O","388CL5C1RJ9X03EZUESK4LKS9TSHL1","","img/set1/S2.jpg","68","2","random","68","random,structured_incentive,structured_load,structured_normal","2,3,3,4,2,1","1,4,2,3","true","","",""
"null","","html-keyboard-response","248","182684","0.0-248.0","3I0BTBYZAY78BMDW6NFRHKJT3QK0YI","A39VZ93N96XB6O","388CL5C1RJ9X03EZUESK4LKS9TSHL1","","<img src=""img/set1/S2.jpg"" width=""540"" height = ""360"" style=""border:16px solid orange"">","null","","","","","","","","","",""
"null","","html-keyboard-response","249","182900","0.0-249.0","3I0BTBYZAY78BMDW6NFRHKJT3QK0YI","A39VZ93N96XB6O","388CL5C1RJ9X03EZUESK4LKS9TSHL1","","","null","","","","","","","","","",""
"699.1999999880791","","image-keyboard-response","250","183601","0.0-250.0","3I0BTBYZAY78BMDW6NFRHKJT3QK0YI","A39VZ93N96XB6O","388CL5C1RJ9X03EZUESK4LKS9TSHL1","","img/set1/S4.jpg","74","4","random","74","random,structured_incentive,structured_load,structured_normal","2,3,3,4,2,1","1,4,2,3","true","","",""
"null","","html-keyboard-response","251","183955","0.0-251.0","3I0BTBYZAY78BMDW6NFRHKJT3QK0YI","A39VZ93N96XB6O","388CL5C1RJ9X03EZUESK4LKS9TSHL1","","<img src=""img/set1/S4.jpg"" width=""540"" height = ""360"" style=""border:16px solid orange"">","null","","","","","","","","","",""
"null","","html-keyboard-response","252","184172","0.0-252.0","3I0BTBYZAY78BMDW6NFRHKJT3QK0YI","A39VZ93N96XB6O","388CL5C1RJ9X03EZUESK4LKS9TSHL1","","","null","","","","","","","","","",""
"652","","image-keyboard-response","253","184826","0.0-253.0","3I0BTBYZAY78BMDW6NFRHKJT3QK0YI","A39VZ93N96XB6O","388CL5C1RJ9X03EZUESK4LKS9TSHL1","","img/set1/S3.jpg","72","3","random","72","random,structured_incentive,structured_load,structured_normal","2,3,3,4,2,1","1,4,2,3","true","","",""
"null","","html-keyboard-response","254","185181","0.0-254.0","3I0BTBYZAY78BMDW6NFRHKJT3QK0YI","A39VZ93N96XB6O","388CL5C1RJ9X03EZUESK4LKS9TSHL1","","<img src=""img/set1/S3.jpg"" width=""540"" height = ""360"" style=""border:16px solid orange"">","null","","","","","","","","","",""
"null","","html-keyboard-response","255","185382","0.0-255.0","3I0BTBYZAY78BMDW6NFRHKJT3QK0YI","A39VZ93N96XB6O","388CL5C1RJ9X03EZUESK4LKS9TSHL1","","","null","","","","","","","","","",""
"555.6000000238419","","image-keyboard-response","256","185939","0.0-256.0","3I0BTBYZAY78BMDW6NFRHKJT3QK0YI","A39VZ93N96XB6O","388CL5C1RJ9X03EZUESK4LKS9TSHL1","","img/set1/S1.jpg","83","1","random","83","random,structured_incentive,structured_load,structured_normal","2,3,3,4,2,1","1,4,2,3","true","","",""
"null","","html-keyboard-response","257","186299","0.0-257.0","3I0BTBYZAY78BMDW6NFRHKJT3QK0YI","A39VZ93N96XB6O","388CL5C1RJ9X03EZUESK4LKS9TSHL1","","<img src=""img/set1/S1.jpg"" width=""540"" height = ""360"" style=""border:16px solid orange"">","null","","","","","","","","","",""
"null","","html-keyboard-response","258","186501","0.0-258.0","3I0BTBYZAY78BMDW6NFRHKJT3QK0YI","A39VZ93N96XB6O","388CL5C1RJ9X03EZUESK4LKS9TSHL1","","","null","","","","","","","","","",""
"513.2999999821186","","image-keyboard-response","259","187016","0.0-259.0","3I0BTBYZAY78BMDW6NFRHKJT3QK0YI","A39VZ93N96XB6O","388CL5C1RJ9X03EZUESK4LKS9TSHL1","","img/set1/S3.jpg","72","3","random","72","random,structured_incentive,structured_load,structured_normal","2,3,3,4,2,1","1,4,2,3","true","","",""
"null","","html-keyboard-response","260","187372","0.0-260.0","3I0BTBYZAY78BMDW6NFRHKJT3QK0YI","A39VZ93N96XB6O","388CL5C1RJ9X03EZUESK4LKS9TSHL1","","<img src=""img/set1/S3.jpg"" width=""540"" height = ""360"" style=""border:16px solid orange"">","null","","","","","","","","","",""
"null","","html-keyboard-response","261","187574","0.0-261.0","3I0BTBYZAY78BMDW6NFRHKJT3QK0YI","A39VZ93N96XB6O","388CL5C1RJ9X03EZUESK4LKS9TSHL1","","","null","","","","","","","","","",""
"621.7000000178814","","image-keyboard-response","262","188198","0.0-262.0","3I0BTBYZAY78BMDW6NFRHKJT3QK0YI","A39VZ93N96XB6O","388CL5C1RJ9X03EZUESK4LKS9TSHL1","","img/set1/S4.jpg","74","4","random","74","random,structured_incentive,structured_load,structured_normal","2,3,3,4,2,1","1,4,2,3","true","","",""
"null","","html-keyboard-response","263","188553","0.0-263.0","3I0BTBYZAY78BMDW6NFRHKJT3QK0YI","A39VZ93N96XB6O","388CL5C1RJ9X03EZUESK4LKS9TSHL1","","<img src=""img/set1/S4.jpg"" width=""540"" height = ""360"" style=""border:16px solid orange"">","null","","","","","","","","","",""
"null","","html-keyboard-response","264","188757","0.0-264.0","3I0BTBYZAY78BMDW6NFRHKJT3QK0YI","A39VZ93N96XB6O","388CL5C1RJ9X03EZUESK4LKS9TSHL1","","","null","","","","","","","","","",""
"541.4000000059605","","image-keyboard-response","265","189301","0.0-265.0","3I0BTBYZAY78BMDW6NFRHKJT3QK0YI","A39VZ93N96XB6O","388CL5C1RJ9X03EZUESK4LKS9TSHL1","","img/set1/S3.jpg","68","3","random","72","random,structured_incentive,structured_load,structured_normal","2,3,3,4,2,1","1,4,2,3","false","","",""
"null","","html-keyboard-response","266","189656","0.0-266.0","3I0BTBYZAY78BMDW6NFRHKJT3QK0YI","A39VZ93N96XB6O","388CL5C1RJ9X03EZUESK4LKS9TSHL1","","<img src=""img/set1/S3.jpg"" width=""540"" height = ""360"">","null","","","","","","","","","",""
"null","","html-keyboard-response","267","189872","0.0-267.0","3I0BTBYZAY78BMDW6NFRHKJT3QK0YI","A39VZ93N96XB6O","388CL5C1RJ9X03EZUESK4LKS9TSHL1","","","null","","","","","","","","","",""
"575.2999999821186","","image-keyboard-response","268","190450","0.0-268.0","3I0BTBYZAY78BMDW6NFRHKJT3QK0YI","A39VZ93N96XB6O","388CL5C1RJ9X03EZUESK4LKS9TSHL1","","img/set1/S3.jpg","68","3","random","72","random,structured_incentive,structured_load,structured_normal","2,3,3,4,2,1","1,4,2,3","false","","",""
"null","","html-keyboard-response","269","190805","0.0-269.0","3I0BTBYZAY78BMDW6NFRHKJT3QK0YI","A39VZ93N96XB6O","388CL5C1RJ9X03EZUESK4LKS9TSHL1","","<img src=""img/set1/S3.jpg"" width=""540"" height = ""360"">","null","","","","","","","","","",""
"null","","html-keyboard-response","270","191022","0.0-270.0","3I0BTBYZAY78BMDW6NFRHKJT3QK0YI","A39VZ93N96XB6O","388CL5C1RJ9X03EZUESK4LKS9TSHL1","","","null","","","","","","","","","",""
"605.1000000238419","","image-keyboard-response","271","191629","0.0-271.0","3I0BTBYZAY78BMDW6NFRHKJT3QK0YI","A39VZ93N96XB6O","388CL5C1RJ9X03EZUESK4LKS9TSHL1","","img/set1/S4.jpg","74","4","random","74","random,structured_incentive,structured_load,structured_normal","2,3,3,4,2,1","1,4,2,3","true","","",""
"null","","html-keyboard-response","272","191984","0.0-272.0","3I0BTBYZAY78BMDW6NFRHKJT3QK0YI","A39VZ93N96XB6O","388CL5C1RJ9X03EZUESK4LKS9TSHL1","","<img src=""img/set1/S4.jpg"" width=""540"" height = ""360"" style=""border:16px solid orange"">","null","","","","","","","","","",""
"null","","html-keyboard-response","273","192187","0.0-273.0","3I0BTBYZAY78BMDW6NFRHKJT3QK0YI","A39VZ93N96XB6O","388CL5C1RJ9X03EZUESK4LKS9TSHL1","","","null","","","","","","","","","",""
"639.5999999940395","","image-keyboard-response","274","192828","0.0-274.0","3I0BTBYZAY78BMDW6NFRHKJT3QK0YI","A39VZ93N96XB6O","388CL5C1RJ9X03EZUESK4LKS9TSHL1","","img/set1/S4.jpg","74","4","random","74","random,structured_incentive,structured_load,structured_normal","2,3,3,4,2,1","1,4,2,3","true","","",""
"null","","html-keyboard-response","275","193185","0.0-275.0","3I0BTBYZAY78BMDW6NFRHKJT3QK0YI","A39VZ93N96XB6O","388CL5C1RJ9X03EZUESK4LKS9TSHL1","","<img src=""img/set1/S4.jpg"" width=""540"" height = ""360"" style=""border:16px solid orange"">","null","","","","","","","","","",""
"null","","html-keyboard-response","276","193387","0.0-276.0","3I0BTBYZAY78BMDW6NFRHKJT3QK0YI","A39VZ93N96XB6O","388CL5C1RJ9X03EZUESK4LKS9TSHL1","","","null","","","","","","","","","",""
"526","","image-keyboard-response","277","193915","0.0-277.0","3I0BTBYZAY78BMDW6NFRHKJT3QK0YI","A39VZ93N96XB6O","388CL5C1RJ9X03EZUESK4LKS9TSHL1","","img/set1/S1.jpg","83","1","random","83","random,structured_incentive,structured_load,structured_normal","2,3,3,4,2,1","1,4,2,3","true","","",""
"null","","html-keyboard-response","278","194273","0.0-278.0","3I0BTBYZAY78BMDW6NFRHKJT3QK0YI","A39VZ93N96XB6O","388CL5C1RJ9X03EZUESK4LKS9TSHL1","","<img src=""img/set1/S1.jpg"" width=""540"" height = ""360"" style=""border:16px solid orange"">","null","","","","","","","","","",""
"null","","html-keyboard-response","279","194475","0.0-279.0","3I0BTBYZAY78BMDW6NFRHKJT3QK0YI","A39VZ93N96XB6O","388CL5C1RJ9X03EZUESK4LKS9TSHL1","","","null","","","","","","","","","",""
"472.69999998807907","","image-keyboard-response","280","194950","0.0-280.0","3I0BTBYZAY78BMDW6NFRHKJT3QK0YI","A39VZ93N96XB6O","388CL5C1RJ9X03EZUESK4LKS9TSHL1","","img/set1/S1.jpg","83","1","random","83","random,structured_incentive,structured_load,structured_normal","2,3,3,4,2,1","1,4,2,3","true","","",""
"null","","html-keyboard-response","281","195316","0.0-281.0","3I0BTBYZAY78BMDW6NFRHKJT3QK0YI","A39VZ93N96XB6O","388CL5C1RJ9X03EZUESK4LKS9TSHL1","","<img src=""img/set1/S1.jpg"" width=""540"" height = ""360"" style=""border:16px solid orange"">","null","","","","","","","","","",""
"null","","html-keyboard-response","282","195520","0.0-282.0","3I0BTBYZAY78BMDW6NFRHKJT3QK0YI","A39VZ93N96XB6O","388CL5C1RJ9X03EZUESK4LKS9TSHL1","","","null","","","","","","","","","",""
"565.5","","image-keyboard-response","283","196087","0.0-283.0","3I0BTBYZAY78BMDW6NFRHKJT3QK0YI","A39VZ93N96XB6O","388CL5C1RJ9X03EZUESK4LKS9TSHL1","","img/set1/S3.jpg","72","3","random","72","random,structured_incentive,structured_load,structured_normal","2,3,3,4,2,1","1,4,2,3","true","","",""
"null","","html-keyboard-response","284","196454","0.0-284.0","3I0BTBYZAY78BMDW6NFRHKJT3QK0YI","A39VZ93N96XB6O","388CL5C1RJ9X03EZUESK4LKS9TSHL1","","<img src=""img/set1/S3.jpg"" width=""540"" height = ""360"" style=""border:16px solid orange"">","null","","","","","","","","","",""
"null","","html-keyboard-response","285","196671","0.0-285.0","3I0BTBYZAY78BMDW6NFRHKJT3QK0YI","A39VZ93N96XB6O","388CL5C1RJ9X03EZUESK4LKS9TSHL1","","","null","","","","","","","","","",""
"558.6999999880791","","image-keyboard-response","286","197232","0.0-286.0","3I0BTBYZAY78BMDW6NFRHKJT3QK0YI","A39VZ93N96XB6O","388CL5C1RJ9X03EZUESK4LKS9TSHL1","","img/set1/S2.jpg","68","2","random","68","random,structured_incentive,structured_load,structured_normal","2,3,3,4,2,1","1,4,2,3","true","","",""
"null","","html-keyboard-response","287","197589","0.0-287.0","3I0BTBYZAY78BMDW6NFRHKJT3QK0YI","A39VZ93N96XB6O","388CL5C1RJ9X03EZUESK4LKS9TSHL1","","<img src=""img/set1/S2.jpg"" width=""540"" height = ""360"" style=""border:16px solid orange"">","null","","","","","","","","","",""
"null","","html-keyboard-response","288","197792","0.0-288.0","3I0BTBYZAY78BMDW6NFRHKJT3QK0YI","A39VZ93N96XB6O","388CL5C1RJ9X03EZUESK4LKS9TSHL1","","","null","","","","","","","","","",""
"577.4000000059605","","image-keyboard-response","289","198371","0.0-289.0","3I0BTBYZAY78BMDW6NFRHKJT3QK0YI","A39VZ93N96XB6O","388CL5C1RJ9X03EZUESK4LKS9TSHL1","","img/set1/S1.jpg","83","1","random","83","random,structured_incentive,structured_load,structured_normal","2,3,3,4,2,1","1,4,2,3","true","","",""
"null","","html-keyboard-response","290","198726","0.0-290.0","3I0BTBYZAY78BMDW6NFRHKJT3QK0YI","A39VZ93N96XB6O","388CL5C1RJ9X03EZUESK4LKS9TSHL1","","<img src=""img/set1/S1.jpg"" width=""540"" height = ""360"" style=""border:16px solid orange"">","null","","","","","","","","","",""
"null","","html-keyboard-response","291","198943","0.0-291.0","3I0BTBYZAY78BMDW6NFRHKJT3QK0YI","A39VZ93N96XB6O","388CL5C1RJ9X03EZUESK4LKS9TSHL1","","","null","","","","","","","","","",""
"715.0999999940395","","image-keyboard-response","292","199660","0.0-292.0","3I0BTBYZAY78BMDW6NFRHKJT3QK0YI","A39VZ93N96XB6O","388CL5C1RJ9X03EZUESK4LKS9TSHL1","","img/set1/S4.jpg","74","4","random","74","random,structured_incentive,structured_load,structured_normal","2,3,3,4,2,1","1,4,2,3","true","","",""
"null","","html-keyboard-response","293","200020","0.0-293.0","3I0BTBYZAY78BMDW6NFRHKJT3QK0YI","A39VZ93N96XB6O","388CL5C1RJ9X03EZUESK4LKS9TSHL1","","<img src=""img/set1/S4.jpg"" width=""540"" height = ""360"" style=""border:16px solid orange"">","null","","","","","","","","","",""
"null","","html-keyboard-response","294","200236","0.0-294.0","3I0BTBYZAY78BMDW6NFRHKJT3QK0YI","A39VZ93N96XB6O","388CL5C1RJ9X03EZUESK4LKS9TSHL1","","","null","","","","","","","","","",""
"717.9000000059605","","image-keyboard-response","295","200955","0.0-295.0","3I0BTBYZAY78BMDW6NFRHKJT3QK0YI","A39VZ93N96XB6O","388CL5C1RJ9X03EZUESK4LKS9TSHL1","","img/set1/S1.jpg","83","1","random","83","random,structured_incentive,structured_load,structured_normal","2,3,3,4,2,1","1,4,2,3","true","","",""
"null","","html-keyboard-response","296","201311","0.0-296.0","3I0BTBYZAY78BMDW6NFRHKJT3QK0YI","A39VZ93N96XB6O","388CL5C1RJ9X03EZUESK4LKS9TSHL1","","<img src=""img/set1/S1.jpg"" width=""540"" height = ""360"" style=""border:16px solid orange"">","null","","","","","","","","","",""
"null","","html-keyboard-response","297","201514","0.0-297.0","3I0BTBYZAY78BMDW6NFRHKJT3QK0YI","A39VZ93N96XB6O","388CL5C1RJ9X03EZUESK4LKS9TSHL1","","","null","","","","","","","","","",""
"589.2000000178814","","image-keyboard-response","298","202106","0.0-298.0","3I0BTBYZAY78BMDW6NFRHKJT3QK0YI","A39VZ93N96XB6O","388CL5C1RJ9X03EZUESK4LKS9TSHL1","","img/set1/S1.jpg","83","1","random","83","random,structured_incentive,structured_load,structured_normal","2,3,3,4,2,1","1,4,2,3","true","","",""
"null","","html-keyboard-response","299","202464","0.0-299.0","3I0BTBYZAY78BMDW6NFRHKJT3QK0YI","A39VZ93N96XB6O","388CL5C1RJ9X03EZUESK4LKS9TSHL1","","<img src=""img/set1/S1.jpg"" width=""540"" height = ""360"" style=""border:16px solid orange"">","null","","","","","","","","","",""
"null","","html-keyboard-response","300","202667","0.0-300.0","3I0BTBYZAY78BMDW6NFRHKJT3QK0YI","A39VZ93N96XB6O","388CL5C1RJ9X03EZUESK4LKS9TSHL1","","","null","","","","","","","","","",""
"622.6999999880791","","image-keyboard-response","301","203292","0.0-301.0","3I0BTBYZAY78BMDW6NFRHKJT3QK0YI","A39VZ93N96XB6O","388CL5C1RJ9X03EZUESK4LKS9TSHL1","","img/set1/S3.jpg","74","3","random","72","random,structured_incentive,structured_load,structured_normal","2,3,3,4,2,1","1,4,2,3","false","","",""
"null","","html-keyboard-response","302","203646","0.0-302.0","3I0BTBYZAY78BMDW6NFRHKJT3QK0YI","A39VZ93N96XB6O","388CL5C1RJ9X03EZUESK4LKS9TSHL1","","<img src=""img/set1/S3.jpg"" width=""540"" height = ""360"">","null","","","","","","","","","",""
"null","","html-keyboard-response","303","203863","0.0-303.0","3I0BTBYZAY78BMDW6NFRHKJT3QK0YI","A39VZ93N96XB6O","388CL5C1RJ9X03EZUESK4LKS9TSHL1","","","null","","","","","","","","","",""
"701.5999999940395","","image-keyboard-response","304","204566","0.0-304.0","3I0BTBYZAY78BMDW6NFRHKJT3QK0YI","A39VZ93N96XB6O","388CL5C1RJ9X03EZUESK4LKS9TSHL1","","img/set1/S1.jpg","83","1","random","83","random,structured_incentive,structured_load,structured_normal","2,3,3,4,2,1","1,4,2,3","true","","",""
"null","","html-keyboard-response","305","204921","0.0-305.0","3I0BTBYZAY78BMDW6NFRHKJT3QK0YI","A39VZ93N96XB6O","388CL5C1RJ9X03EZUESK4LKS9TSHL1","","<img src=""img/set1/S1.jpg"" width=""540"" height = ""360"" style=""border:16px solid orange"">","null","","","","","","","","","",""
"null","","html-keyboard-response","306","205125","0.0-306.0","3I0BTBYZAY78BMDW6NFRHKJT3QK0YI","A39VZ93N96XB6O","388CL5C1RJ9X03EZUESK4LKS9TSHL1","","","null","","","","","","","","","",""
"547.2000000178814","","image-keyboard-response","307","205673","0.0-307.0","3I0BTBYZAY78BMDW6NFRHKJT3QK0YI","A39VZ93N96XB6O","388CL5C1RJ9X03EZUESK4LKS9TSHL1","","img/set1/S3.jpg","72","3","random","72","random,structured_incentive,structured_load,structured_normal","2,3,3,4,2,1","1,4,2,3","true","","",""
"null","","html-keyboard-response","308","206032","0.0-308.0","3I0BTBYZAY78BMDW6NFRHKJT3QK0YI","A39VZ93N96XB6O","388CL5C1RJ9X03EZUESK4LKS9TSHL1","","<img src=""img/set1/S3.jpg"" width=""540"" height = ""360"" style=""border:16px solid orange"">","null","","","","","","","","","",""
"null","","html-keyboard-response","309","206247","0.0-309.0","3I0BTBYZAY78BMDW6NFRHKJT3QK0YI","A39VZ93N96XB6O","388CL5C1RJ9X03EZUESK4LKS9TSHL1","","","null","","","","","","","","","",""
"549.4000000059605","","image-keyboard-response","310","206798","0.0-310.0","3I0BTBYZAY78BMDW6NFRHKJT3QK0YI","A39VZ93N96XB6O","388CL5C1RJ9X03EZUESK4LKS9TSHL1","","img/set1/S1.jpg","83","1","random","83","random,structured_incentive,structured_load,structured_normal","2,3,3,4,2,1","1,4,2,3","true","","",""
"null","","html-keyboard-response","311","207150","0.0-311.0","3I0BTBYZAY78BMDW6NFRHKJT3QK0YI","A39VZ93N96XB6O","388CL5C1RJ9X03EZUESK4LKS9TSHL1","","<img src=""img/set1/S1.jpg"" width=""540"" height = ""360"" style=""border:16px solid orange"">","null","","","","","","","","","",""
"null","","html-keyboard-response","312","207365","0.0-312.0","3I0BTBYZAY78BMDW6NFRHKJT3QK0YI","A39VZ93N96XB6O","388CL5C1RJ9X03EZUESK4LKS9TSHL1","","","null","","","","","","","","","",""
"514.1999999880791","","image-keyboard-response","313","207881","0.0-313.0","3I0BTBYZAY78BMDW6NFRHKJT3QK0YI","A39VZ93N96XB6O","388CL5C1RJ9X03EZUESK4LKS9TSHL1","","img/set1/S1.jpg","83","1","random","83","random,structured_incentive,structured_load,structured_normal","2,3,3,4,2,1","1,4,2,3","true","","",""
"null","","html-keyboard-response","314","208236","0.0-314.0","3I0BTBYZAY78BMDW6NFRHKJT3QK0YI","A39VZ93N96XB6O","388CL5C1RJ9X03EZUESK4LKS9TSHL1","","<img src=""img/set1/S1.jpg"" width=""540"" height = ""360"" style=""border:16px solid orange"">","null","","","","","","","","","",""
"null","","html-keyboard-response","315","208440","0.0-315.0","3I0BTBYZAY78BMDW6NFRHKJT3QK0YI","A39VZ93N96XB6O","388CL5C1RJ9X03EZUESK4LKS9TSHL1","","","null","","","","","","","","","",""
"561.4000000059605","","image-keyboard-response","316","209003","0.0-316.0","3I0BTBYZAY78BMDW6NFRHKJT3QK0YI","A39VZ93N96XB6O","388CL5C1RJ9X03EZUESK4LKS9TSHL1","","img/set1/S2.jpg","72","2","random","68","random,structured_incentive,structured_load,structured_normal","2,3,3,4,2,1","1,4,2,3","false","","",""
"null","","html-keyboard-response","317","209358","0.0-317.0","3I0BTBYZAY78BMDW6NFRHKJT3QK0YI","A39VZ93N96XB6O","388CL5C1RJ9X03EZUESK4LKS9TSHL1","","<img src=""img/set1/S2.jpg"" width=""540"" height = ""360"">","null","","","","","","","","","",""
"null","","html-keyboard-response","318","209561","0.0-318.0","3I0BTBYZAY78BMDW6NFRHKJT3QK0YI","A39VZ93N96XB6O","388CL5C1RJ9X03EZUESK4LKS9TSHL1","","","null","","","","","","","","","",""
"574.5","","image-keyboard-response","319","210137","0.0-319.0","3I0BTBYZAY78BMDW6NFRHKJT3QK0YI","A39VZ93N96XB6O","388CL5C1RJ9X03EZUESK4LKS9TSHL1","","img/set1/S4.jpg","74","4","random","74","random,structured_incentive,structured_load,structured_normal","2,3,3,4,2,1","1,4,2,3","true","","",""
"null","","html-keyboard-response","320","210496","0.0-320.0","3I0BTBYZAY78BMDW6NFRHKJT3QK0YI","A39VZ93N96XB6O","388CL5C1RJ9X03EZUESK4LKS9TSHL1","","<img src=""img/set1/S4.jpg"" width=""540"" height = ""360"" style=""border:16px solid orange"">","null","","","","","","","","","",""
"null","","html-keyboard-response","321","210710","0.0-321.0","3I0BTBYZAY78BMDW6NFRHKJT3QK0YI","A39VZ93N96XB6O","388CL5C1RJ9X03EZUESK4LKS9TSHL1","","","null","","","","","","","","","",""
"602.5999999940395","","image-keyboard-response","322","211315","0.0-322.0","3I0BTBYZAY78BMDW6NFRHKJT3QK0YI","A39VZ93N96XB6O","388CL5C1RJ9X03EZUESK4LKS9TSHL1","","img/set1/S1.jpg","83","1","random","83","random,structured_incentive,structured_load,structured_normal","2,3,3,4,2,1","1,4,2,3","true","","",""
"null","","html-keyboard-response","323","211669","0.0-323.0","3I0BTBYZAY78BMDW6NFRHKJT3QK0YI","A39VZ93N96XB6O","388CL5C1RJ9X03EZUESK4LKS9TSHL1","","<img src=""img/set1/S1.jpg"" width=""540"" height = ""360"" style=""border:16px solid orange"">","null","","","","","","","","","",""
"null","","html-keyboard-response","324","211886","0.0-324.0","3I0BTBYZAY78BMDW6NFRHKJT3QK0YI","A39VZ93N96XB6O","388CL5C1RJ9X03EZUESK4LKS9TSHL1","","","null","","","","","","","","","",""
"514.9000000059605","","image-keyboard-response","325","212403","0.0-325.0","3I0BTBYZAY78BMDW6NFRHKJT3QK0YI","A39VZ93N96XB6O","388CL5C1RJ9X03EZUESK4LKS9TSHL1","","img/set1/S3.jpg","72","3","random","72","random,structured_incentive,structured_load,structured_normal","2,3,3,4,2,1","1,4,2,3","true","","",""
"null","","html-keyboard-response","326","212759","0.0-326.0","3I0BTBYZAY78BMDW6NFRHKJT3QK0YI","A39VZ93N96XB6O","388CL5C1RJ9X03EZUESK4LKS9TSHL1","","<img src=""img/set1/S3.jpg"" width=""540"" height = ""360"" style=""border:16px solid orange"">","null","","","","","","","","","",""
"null","","html-keyboard-response","327","212961","0.0-327.0","3I0BTBYZAY78BMDW6NFRHKJT3QK0YI","A39VZ93N96XB6O","388CL5C1RJ9X03EZUESK4LKS9TSHL1","","","null","","","","","","","","","",""
"824.9000000059605","","image-keyboard-response","328","213788","0.0-328.0","3I0BTBYZAY78BMDW6NFRHKJT3QK0YI","A39VZ93N96XB6O","388CL5C1RJ9X03EZUESK4LKS9TSHL1","","img/set1/S2.jpg","83","2","random","68","random,structured_incentive,structured_load,structured_normal","2,3,3,4,2,1","1,4,2,3","false","","",""
"null","","html-keyboard-response","329","214142","0.0-329.0","3I0BTBYZAY78BMDW6NFRHKJT3QK0YI","A39VZ93N96XB6O","388CL5C1RJ9X03EZUESK4LKS9TSHL1","","<img src=""img/set1/S2.jpg"" width=""540"" height = ""360"">","null","","","","","","","","","",""
"null","","html-keyboard-response","330","214346","0.0-330.0","3I0BTBYZAY78BMDW6NFRHKJT3QK0YI","A39VZ93N96XB6O","388CL5C1RJ9X03EZUESK4LKS9TSHL1","","","null","","","","","","","","","",""
"649.3000000119209","","image-keyboard-response","331","214997","0.0-331.0","3I0BTBYZAY78BMDW6NFRHKJT3QK0YI","A39VZ93N96XB6O","388CL5C1RJ9X03EZUESK4LKS9TSHL1","","img/set1/S3.jpg","72","3","random","72","random,structured_incentive,structured_load,structured_normal","2,3,3,4,2,1","1,4,2,3","true","","",""
"null","","html-keyboard-response","332","215356","0.0-332.0","3I0BTBYZAY78BMDW6NFRHKJT3QK0YI","A39VZ93N96XB6O","388CL5C1RJ9X03EZUESK4LKS9TSHL1","","<img src=""img/set1/S3.jpg"" width=""540"" height = ""360"" style=""border:16px solid orange"">","null","","","","","","","","","",""
"null","","html-keyboard-response","333","215573","0.0-333.0","3I0BTBYZAY78BMDW6NFRHKJT3QK0YI","A39VZ93N96XB6O","388CL5C1RJ9X03EZUESK4LKS9TSHL1","","","null","","","","","","","","","",""
"558.9000000059605","","image-keyboard-response","334","216134","0.0-334.0","3I0BTBYZAY78BMDW6NFRHKJT3QK0YI","A39VZ93N96XB6O","388CL5C1RJ9X03EZUESK4LKS9TSHL1","","img/set1/S2.jpg","68","2","random","68","random,structured_incentive,structured_load,structured_normal","2,3,3,4,2,1","1,4,2,3","true","","",""
"null","","html-keyboard-response","335","216490","0.0-335.0","3I0BTBYZAY78BMDW6NFRHKJT3QK0YI","A39VZ93N96XB6O","388CL5C1RJ9X03EZUESK4LKS9TSHL1","","<img src=""img/set1/S2.jpg"" width=""540"" height = ""360"" style=""border:16px solid orange"">","null","","","","","","","","","",""
"null","","html-keyboard-response","336","216706","0.0-336.0","3I0BTBYZAY78BMDW6NFRHKJT3QK0YI","A39VZ93N96XB6O","388CL5C1RJ9X03EZUESK4LKS9TSHL1","","","null","","","","","","","","","",""
"636.4000000059605","","image-keyboard-response","337","217344","0.0-337.0","3I0BTBYZAY78BMDW6NFRHKJT3QK0YI","A39VZ93N96XB6O","388CL5C1RJ9X03EZUESK4LKS9TSHL1","","img/set1/S3.jpg","72","3","random","72","random,structured_incentive,structured_load,structured_normal","2,3,3,4,2,1","1,4,2,3","true","","",""
"null","","html-keyboard-response","338","217700","0.0-338.0","3I0BTBYZAY78BMDW6NFRHKJT3QK0YI","A39VZ93N96XB6O","388CL5C1RJ9X03EZUESK4LKS9TSHL1","","<img src=""img/set1/S3.jpg"" width=""540"" height = ""360"" style=""border:16px solid orange"">","null","","","","","","","","","",""
"null","","html-keyboard-response","339","217917","0.0-339.0","3I0BTBYZAY78BMDW6NFRHKJT3QK0YI","A39VZ93N96XB6O","388CL5C1RJ9X03EZUESK4LKS9TSHL1","","","null","","","","","","","","","",""
"605.1999999880791","","image-keyboard-response","340","218525","0.0-340.0","3I0BTBYZAY78BMDW6NFRHKJT3QK0YI","A39VZ93N96XB6O","388CL5C1RJ9X03EZUESK4LKS9TSHL1","","img/set1/S4.jpg","74","4","random","74","random,structured_incentive,structured_load,structured_normal","2,3,3,4,2,1","1,4,2,3","true","","",""
"null","","html-keyboard-response","341","218879","0.0-341.0","3I0BTBYZAY78BMDW6NFRHKJT3QK0YI","A39VZ93N96XB6O","388CL5C1RJ9X03EZUESK4LKS9TSHL1","","<img src=""img/set1/S4.jpg"" width=""540"" height = ""360"" style=""border:16px solid orange"">","null","","","","","","","","","",""
"null","","html-keyboard-response","342","219080","0.0-342.0","3I0BTBYZAY78BMDW6NFRHKJT3QK0YI","A39VZ93N96XB6O","388CL5C1RJ9X03EZUESK4LKS9TSHL1","","","null","","","","","","","","","",""
"494.59999999403954","","image-keyboard-response","343","219577","0.0-343.0","3I0BTBYZAY78BMDW6NFRHKJT3QK0YI","A39VZ93N96XB6O","388CL5C1RJ9X03EZUESK4LKS9TSHL1","","img/set1/S4.jpg","74","4","random","74","random,structured_incentive,structured_load,structured_normal","2,3,3,4,2,1","1,4,2,3","true","","",""
"null","","html-keyboard-response","344","219932","0.0-344.0","3I0BTBYZAY78BMDW6NFRHKJT3QK0YI","A39VZ93N96XB6O","388CL5C1RJ9X03EZUESK4LKS9TSHL1","","<img src=""img/set1/S4.jpg"" width=""540"" height = ""360"" style=""border:16px solid orange"">","null","","","","","","","","","",""
"null","","html-keyboard-response","345","220147","0.0-345.0","3I0BTBYZAY78BMDW6NFRHKJT3QK0YI","A39VZ93N96XB6O","388CL5C1RJ9X03EZUESK4LKS9TSHL1","","","null","","","","","","","","","",""
"562.4000000059605","","image-keyboard-response","346","220712","0.0-346.0","3I0BTBYZAY78BMDW6NFRHKJT3QK0YI","A39VZ93N96XB6O","388CL5C1RJ9X03EZUESK4LKS9TSHL1","","img/set1/S2.jpg","68","2","random","68","random,structured_incentive,structured_load,structured_normal","2,3,3,4,2,1","1,4,2,3","true","","",""
"null","","html-keyboard-response","347","221067","0.0-347.0","3I0BTBYZAY78BMDW6NFRHKJT3QK0YI","A39VZ93N96XB6O","388CL5C1RJ9X03EZUESK4LKS9TSHL1","","<img src=""img/set1/S2.jpg"" width=""540"" height = ""360"" style=""border:16px solid orange"">","null","","","","","","","","","",""
"null","","html-keyboard-response","348","221270","0.0-348.0","3I0BTBYZAY78BMDW6NFRHKJT3QK0YI","A39VZ93N96XB6O","388CL5C1RJ9X03EZUESK4LKS9TSHL1","","","null","","","","","","","","","",""
"791.8000000119209","","image-keyboard-response","349","222064","0.0-349.0","3I0BTBYZAY78BMDW6NFRHKJT3QK0YI","A39VZ93N96XB6O","388CL5C1RJ9X03EZUESK4LKS9TSHL1","","img/set1/S3.jpg","72","3","random","72","random,structured_incentive,structured_load,structured_normal","2,3,3,4,2,1","1,4,2,3","true","","",""
"null","","html-keyboard-response","350","222420","0.0-350.0","3I0BTBYZAY78BMDW6NFRHKJT3QK0YI","A39VZ93N96XB6O","388CL5C1RJ9X03EZUESK4LKS9TSHL1","","<img src=""img/set1/S3.jpg"" width=""540"" height = ""360"" style=""border:16px solid orange"">","null","","","","","","","","","",""
"null","","html-keyboard-response","351","222636","0.0-351.0","3I0BTBYZAY78BMDW6NFRHKJT3QK0YI","A39VZ93N96XB6O","388CL5C1RJ9X03EZUESK4LKS9TSHL1","","","null","","","","","","","","","",""
"621.9000000059605","","image-keyboard-response","352","223260","0.0-352.0","3I0BTBYZAY78BMDW6NFRHKJT3QK0YI","A39VZ93N96XB6O","388CL5C1RJ9X03EZUESK4LKS9TSHL1","","img/set1/S4.jpg","74","4","random","74","random,structured_incentive,structured_load,structured_normal","2,3,3,4,2,1","1,4,2,3","true","","",""
"null","","html-keyboard-response","353","223618","0.0-353.0","3I0BTBYZAY78BMDW6NFRHKJT3QK0YI","A39VZ93N96XB6O","388CL5C1RJ9X03EZUESK4LKS9TSHL1","","<img src=""img/set1/S4.jpg"" width=""540"" height = ""360"" style=""border:16px solid orange"">","null","","","","","","","","","",""
"null","","html-keyboard-response","354","223834","0.0-354.0","3I0BTBYZAY78BMDW6NFRHKJT3QK0YI","A39VZ93N96XB6O","388CL5C1RJ9X03EZUESK4LKS9TSHL1","","","null","","","","","","","","","",""
"603.3999999761581","","image-keyboard-response","355","224439","0.0-355.0","3I0BTBYZAY78BMDW6NFRHKJT3QK0YI","A39VZ93N96XB6O","388CL5C1RJ9X03EZUESK4LKS9TSHL1","","img/set1/S2.jpg","68","2","random","68","random,structured_incentive,structured_load,structured_normal","2,3,3,4,2,1","1,4,2,3","true","","",""
"null","","html-keyboard-response","356","224792","0.0-356.0","3I0BTBYZAY78BMDW6NFRHKJT3QK0YI","A39VZ93N96XB6O","388CL5C1RJ9X03EZUESK4LKS9TSHL1","","<img src=""img/set1/S2.jpg"" width=""540"" height = ""360"" style=""border:16px solid orange"">","null","","","","","","","","","",""
"null","","html-keyboard-response","357","224996","0.0-357.0","3I0BTBYZAY78BMDW6NFRHKJT3QK0YI","A39VZ93N96XB6O","388CL5C1RJ9X03EZUESK4LKS9TSHL1","","","null","","","","","","","","","",""
"620.5","","image-keyboard-response","358","225618","0.0-358.0","3I0BTBYZAY78BMDW6NFRHKJT3QK0YI","A39VZ93N96XB6O","388CL5C1RJ9X03EZUESK4LKS9TSHL1","","img/set1/S4.jpg","74","4","random","74","random,structured_incentive,structured_load,structured_normal","2,3,3,4,2,1","1,4,2,3","true","","",""
"null","","html-keyboard-response","359","225973","0.0-359.0","3I0BTBYZAY78BMDW6NFRHKJT3QK0YI","A39VZ93N96XB6O","388CL5C1RJ9X03EZUESK4LKS9TSHL1","","<img src=""img/set1/S4.jpg"" width=""540"" height = ""360"" style=""border:16px solid orange"">","null","","","","","","","","","",""
"null","","html-keyboard-response","360","226176","0.0-360.0","3I0BTBYZAY78BMDW6NFRHKJT3QK0YI","A39VZ93N96XB6O","388CL5C1RJ9X03EZUESK4LKS9TSHL1","","","null","","","","","","","","","",""
"573","","image-keyboard-response","361","226750","0.0-361.0","3I0BTBYZAY78BMDW6NFRHKJT3QK0YI","A39VZ93N96XB6O","388CL5C1RJ9X03EZUESK4LKS9TSHL1","","img/set1/S2.jpg","68","2","random","68","random,structured_incentive,structured_load,structured_normal","2,3,3,4,2,1","1,4,2,3","true","","",""
"null","","html-keyboard-response","362","227106","0.0-362.0","3I0BTBYZAY78BMDW6NFRHKJT3QK0YI","A39VZ93N96XB6O","388CL5C1RJ9X03EZUESK4LKS9TSHL1","","<img src=""img/set1/S2.jpg"" width=""540"" height = ""360"" style=""border:16px solid orange"">","null","","","","","","","","","",""
"null","","html-keyboard-response","363","227322","0.0-363.0","3I0BTBYZAY78BMDW6NFRHKJT3QK0YI","A39VZ93N96XB6O","388CL5C1RJ9X03EZUESK4LKS9TSHL1","","","null","","","","","","","","","",""
"9608.699999988079","","html-keyboard-response","364","236933","0.0-364.0","3I0BTBYZAY78BMDW6NFRHKJT3QK0YI","A39VZ93N96XB6O","388CL5C1RJ9X03EZUESK4LKS9TSHL1","","<p class=""center-content"">You have completed a block! </p><p class=""center-content"">Press any key on the keyboard to continue, </p><p class=""center-content"">or wait for the automatic progression to the next block after one minute.</p>","32","","","","","","","","","",""
"4267","","instructions","365","241201","0.0-365.0","3I0BTBYZAY78BMDW6NFRHKJT3QK0YI","A39VZ93N96XB6O","388CL5C1RJ9X03EZUESK4LKS9TSHL1","[{""page_index"":0,""viewing_time"":4266.300000011921}]","","","","","","","","","","","",""
"26058","","instructions","366","267260","0.0-366.0","3I0BTBYZAY78BMDW6NFRHKJT3QK0YI","A39VZ93N96XB6O","388CL5C1RJ9X03EZUESK4LKS9TSHL1","[{""page_index"":0,""viewing_time"":12994.700000017881},{""page_index"":1,""viewing_time"":13062.59999999404}]","","","","","","","","","","","",""
"1031.2000000178814","","image-keyboard-response","367","268293","0.0-367.0","3I0BTBYZAY78BMDW6NFRHKJT3QK0YI","A39VZ93N96XB6O","388CL5C1RJ9X03EZUESK4LKS9TSHL1","","img/set2/S2.jpg","72","2","structured_incentive","68","random,structured_incentive,structured_load,structured_normal","2,3,3,4,2,1","1,4,2,3","false","","",""
"null","","html-keyboard-response","368","268649","0.0-368.0","3I0BTBYZAY78BMDW6NFRHKJT3QK0YI","A39VZ93N96XB6O","388CL5C1RJ9X03EZUESK4LKS9TSHL1","","<img src=""img/set2/S2.jpg"" width=""540"" height = ""360"">","null","","","","","","","","","",""
"null","","html-keyboard-response","369","268854","0.0-369.0","3I0BTBYZAY78BMDW6NFRHKJT3QK0YI","A39VZ93N96XB6O","388CL5C1RJ9X03EZUESK4LKS9TSHL1","","","null","","","","","","","","","",""
"729.6999999880791","","image-keyboard-response","370","269586","0.0-370.0","3I0BTBYZAY78BMDW6NFRHKJT3QK0YI","A39VZ93N96XB6O","388CL5C1RJ9X03EZUESK4LKS9TSHL1","","img/set2/S3.jpg","74","3","structured_incentive","72","random,structured_incentive,structured_load,structured_normal","2,3,3,4,2,1","1,4,2,3","false","","",""
"null","","html-keyboard-response","371","269942","0.0-371.0","3I0BTBYZAY78BMDW6NFRHKJT3QK0YI","A39VZ93N96XB6O","388CL5C1RJ9X03EZUESK4LKS9TSHL1","","<img src=""img/set2/S3.jpg"" width=""540"" height = ""360"">","null","","","","","","","","","",""
"null","","html-keyboard-response","372","270143","0.0-372.0","3I0BTBYZAY78BMDW6NFRHKJT3QK0YI","A39VZ93N96XB6O","388CL5C1RJ9X03EZUESK4LKS9TSHL1","","","null","","","","","","","","","",""
"554.3999999761581","","image-keyboard-response","373","270700","0.0-373.0","3I0BTBYZAY78BMDW6NFRHKJT3QK0YI","A39VZ93N96XB6O","388CL5C1RJ9X03EZUESK4LKS9TSHL1","","img/set2/S1.jpg","68","1","structured_incentive","83","random,structured_incentive,structured_load,structured_normal","2,3,3,4,2,1","1,4,2,3","false","","",""
"null","","html-keyboard-response","374","271055","0.0-374.0","3I0BTBYZAY78BMDW6NFRHKJT3QK0YI","A39VZ93N96XB6O","388CL5C1RJ9X03EZUESK4LKS9TSHL1","","<img src=""img/set2/S1.jpg"" width=""540"" height = ""360"">","null","","","","","","","","","",""
"null","","html-keyboard-response","375","271271","0.0-375.0","3I0BTBYZAY78BMDW6NFRHKJT3QK0YI","A39VZ93N96XB6O","388CL5C1RJ9X03EZUESK4LKS9TSHL1","","","null","","","","","","","","","",""
"655.0999999940395","","image-keyboard-response","376","271928","0.0-376.0","3I0BTBYZAY78BMDW6NFRHKJT3QK0YI","A39VZ93N96XB6O","388CL5C1RJ9X03EZUESK4LKS9TSHL1","","img/set2/S1.jpg","72","1","structured_incentive","83","random,structured_incentive,structured_load,structured_normal","2,3,3,4,2,1","1,4,2,3","false","","",""
"null","","html-keyboard-response","377","272282","0.0-377.0","3I0BTBYZAY78BMDW6NFRHKJT3QK0YI","A39VZ93N96XB6O","388CL5C1RJ9X03EZUESK4LKS9TSHL1","","<img src=""img/set2/S1.jpg"" width=""540"" height = ""360"">","null","","","","","","","","","",""
"null","","html-keyboard-response","378","272487","0.0-378.0","3I0BTBYZAY78BMDW6NFRHKJT3QK0YI","A39VZ93N96XB6O","388CL5C1RJ9X03EZUESK4LKS9TSHL1","","","null","","","","","","","","","",""
"541.5999999940395","","image-keyboard-response","379","273030","0.0-379.0","3I0BTBYZAY78BMDW6NFRHKJT3QK0YI","A39VZ93N96XB6O","388CL5C1RJ9X03EZUESK4LKS9TSHL1","","img/set2/S2.jpg","83","2","structured_incentive","68","random,structured_incentive,structured_load,structured_normal","2,3,3,4,2,1","1,4,2,3","false","","",""
"null","","html-keyboard-response","380","273386","0.0-380.0","3I0BTBYZAY78BMDW6NFRHKJT3QK0YI","A39VZ93N96XB6O","388CL5C1RJ9X03EZUESK4LKS9TSHL1","","<img src=""img/set2/S2.jpg"" width=""540"" height = ""360"">","null","","","","","","","","","",""
"null","","html-keyboard-response","381","273588","0.0-381.0","3I0BTBYZAY78BMDW6NFRHKJT3QK0YI","A39VZ93N96XB6O","388CL5C1RJ9X03EZUESK4LKS9TSHL1","","","null","","","","","","","","","",""
"622.8000000119209","","image-keyboard-response","382","274213","0.0-382.0","3I0BTBYZAY78BMDW6NFRHKJT3QK0YI","A39VZ93N96XB6O","388CL5C1RJ9X03EZUESK4LKS9TSHL1","","img/set2/S3.jpg","68","3","structured_incentive","72","random,structured_incentive,structured_load,structured_normal","2,3,3,4,2,1","1,4,2,3","false","","",""
"null","","html-keyboard-response","383","274568","0.0-383.0","3I0BTBYZAY78BMDW6NFRHKJT3QK0YI","A39VZ93N96XB6O","388CL5C1RJ9X03EZUESK4LKS9TSHL1","","<img src=""img/set2/S3.jpg"" width=""540"" height = ""360"">","null","","","","","","","","","",""
"null","","html-keyboard-response","384","274770","0.0-384.0","3I0BTBYZAY78BMDW6NFRHKJT3QK0YI","A39VZ93N96XB6O","388CL5C1RJ9X03EZUESK4LKS9TSHL1","","","null","","","","","","","","","",""
"547","","image-keyboard-response","385","275319","0.0-385.0","3I0BTBYZAY78BMDW6NFRHKJT3QK0YI","A39VZ93N96XB6O","388CL5C1RJ9X03EZUESK4LKS9TSHL1","","img/set2/S1.jpg","83","1","structured_incentive","83","random,structured_incentive,structured_load,structured_normal","2,3,3,4,2,1","1,4,2,3","true","","",""
