"rt","url","trial_type","trial_index","time_elapsed","internal_node_id","assignmentID","mturkID","hitID","view_history","stimulus","key_press","state","test_part","correct_response","order_block","order_chunk","order_freq","correct","responses","question_order","bonus"
"6239.299999999814","consent.html","external-html","0","6318","0.0-0.0","37TRT2X24RDJ0KL7I3BDRE0OJ6GJBZ","A3F5Z5S2AHMN2O","3GVPRXWRPHGYHD0HW29VLS36FVC7I4","","","","","","","","","","","","",""
"43393.700000000186","","instructions","1","49718","0.0-1.0","37TRT2X24RDJ0KL7I3BDRE0OJ6GJBZ","A3F5Z5S2AHMN2O","3GVPRXWRPHGYHD0HW29VLS36FVC7I4","[{""page_index"":0,""viewing_time"":2384.100000000093},{""page_index"":1,""viewing_time"":5254.899999999907},{""page_index"":2,""viewing_time"":7106.300000000279},{""page_index"":3,""viewing_time"":8424.299999999814},{""page_index"":4,""viewing_time"":3737.2000000001863},{""page_index"":5,""viewing_time"":9852.69999999972},{""page_index"":6,""viewing_time"":6632.800000000279}]","","","","","","","","","","","",""
"7865.5","","instructions","2","57585","0.0-2.0","37TRT2X24RDJ0KL7I3BDRE0OJ6GJBZ","A3F5Z5S2AHMN2O","3GVPRXWRPHGYHD0HW29VLS36FVC7I4","[{""page_index"":0,""viewing_time"":7865.100000000093}]","","","","","","","","","","","",""
"5914.600000000093","","instructions","3","63501","0.0-3.0","37TRT2X24RDJ0KL7I3BDRE0OJ6GJBZ","A3F5Z5S2AHMN2O","3GVPRXWRPHGYHD0HW29VLS36FVC7I4","[{""page_index"":0,""viewing_time"":5914.300000000279}]","","","","","","","","","","","",""
"null","","image-keyboard-response","4","66011","0.0-4.0","37TRT2X24RDJ0KL7I3BDRE0OJ6GJBZ","A3F5Z5S2AHMN2O","3GVPRXWRPHGYHD0HW29VLS36FVC7I4","","img/set1/S3.jpg","null","3","structured_normal","72","structured_normal,random,structured_load,structured_incentive","4,2,1,2,2,3","1,4,3,2","false","","",""
"null","","html-keyboard-response","5","66368","0.0-5.0","37TRT2X24RDJ0KL7I3BDRE0OJ6GJBZ","A3F5Z5S2AHMN2O","3GVPRXWRPHGYHD0HW29VLS36FVC7I4","","<img src=""img/set1/S3.jpg"" width=""540"" height = ""360"">","null","","","","","","","","","",""
"null","","html-keyboard-response","6","66575","0.0-6.0","37TRT2X24RDJ0KL7I3BDRE0OJ6GJBZ","A3F5Z5S2AHMN2O","3GVPRXWRPHGYHD0HW29VLS36FVC7I4","","","null","","","","","","","","","",""
"683.2999999998137","","image-keyboard-response","7","67261","0.0-7.0","37TRT2X24RDJ0KL7I3BDRE0OJ6GJBZ","A3F5Z5S2AHMN2O","3GVPRXWRPHGYHD0HW29VLS36FVC7I4","","img/set1/S1.jpg","68","1","structured_normal","83","structured_normal,random,structured_load,structured_incentive","4,2,1,2,2,3","1,4,3,2","false","","",""
"null","","html-keyboard-response","8","67618","0.0-8.0","37TRT2X24RDJ0KL7I3BDRE0OJ6GJBZ","A3F5Z5S2AHMN2O","3GVPRXWRPHGYHD0HW29VLS36FVC7I4","","<img src=""img/set1/S1.jpg"" width=""540"" height = ""360"">","null","","","","","","","","","",""
"null","","html-keyboard-response","9","67823","0.0-9.0","37TRT2X24RDJ0KL7I3BDRE0OJ6GJBZ","A3F5Z5S2AHMN2O","3GVPRXWRPHGYHD0HW29VLS36FVC7I4","","","null","","","","","","","","","",""
"529.3999999999069","","image-keyboard-response","10","68354","0.0-10.0","37TRT2X24RDJ0KL7I3BDRE0OJ6GJBZ","A3F5Z5S2AHMN2O","3GVPRXWRPHGYHD0HW29VLS36FVC7I4","","img/set1/S4.jpg","74","4","structured_normal","74","structured_normal,random,structured_load,structured_incentive","4,2,1,2,2,3","1,4,3,2","true","","",""
"null","","html-keyboard-response","11","68709","0.0-11.0","37TRT2X24RDJ0KL7I3BDRE0OJ6GJBZ","A3F5Z5S2AHMN2O","3GVPRXWRPHGYHD0HW29VLS36FVC7I4","","<img src=""img/set1/S4.jpg"" width=""540"" height = ""360"" style=""border:16px solid orange"">","null","","","","","","","","","",""
"null","","html-keyboard-response","12","68916","0.0-12.0","37TRT2X24RDJ0KL7I3BDRE0OJ6GJBZ","A3F5Z5S2AHMN2O","3GVPRXWRPHGYHD0HW29VLS36FVC7I4","","","null","","","","","","","","","",""
"535.3999999999069","","image-keyboard-response","13","69453","0.0-13.0","37TRT2X24RDJ0KL7I3BDRE0OJ6GJBZ","A3F5Z5S2AHMN2O","3GVPRXWRPHGYHD0HW29VLS36FVC7I4","","img/set1/S2.jpg","74","2","structured_normal","68","structured_normal,random,structured_load,structured_incentive","4,2,1,2,2,3","1,4,3,2","false","","",""
"null","","html-keyboard-response","14","69810","0.0-14.0","37TRT2X24RDJ0KL7I3BDRE0OJ6GJBZ","A3F5Z5S2AHMN2O","3GVPRXWRPHGYHD0HW29VLS36FVC7I4","","<img src=""img/set1/S2.jpg"" width=""540"" height = ""360"">","null","","","","","","","","","",""
"null","","html-keyboard-response","15","70015","0.0-15.0","37TRT2X24RDJ0KL7I3BDRE0OJ6GJBZ","A3F5Z5S2AHMN2O","3GVPRXWRPHGYHD0HW29VLS36FVC7I4","","","null","","","","","","","","","",""
"499.59999999962747","","image-keyboard-response","16","70516","0.0-16.0","37TRT2X24RDJ0KL7I3BDRE0OJ6GJBZ","A3F5Z5S2AHMN2O","3GVPRXWRPHGYHD0HW29VLS36FVC7I4","","img/set1/S2.jpg","72","2","structured_normal","68","structured_normal,random,structured_load,structured_incentive","4,2,1,2,2,3","1,4,3,2","false","","",""
"null","","html-keyboard-response","17","70873","0.0-17.0","37TRT2X24RDJ0KL7I3BDRE0OJ6GJBZ","A3F5Z5S2AHMN2O","3GVPRXWRPHGYHD0HW29VLS36FVC7I4","","<img src=""img/set1/S2.jpg"" width=""540"" height = ""360"">","null","","","","","","","","","",""
"null","","html-keyboard-response","18","71078","0.0-18.0","37TRT2X24RDJ0KL7I3BDRE0OJ6GJBZ","A3F5Z5S2AHMN2O","3GVPRXWRPHGYHD0HW29VLS36FVC7I4","","","null","","","","","","","","","",""
"503.89999999990687","","image-keyboard-response","19","71584","0.0-19.0","37TRT2X24RDJ0KL7I3BDRE0OJ6GJBZ","A3F5Z5S2AHMN2O","3GVPRXWRPHGYHD0HW29VLS36FVC7I4","","img/set1/S1.jpg","68","1","structured_normal","83","structured_normal,random,structured_load,structured_incentive","4,2,1,2,2,3","1,4,3,2","false","","",""
"null","","html-keyboard-response","20","71941","0.0-20.0","37TRT2X24RDJ0KL7I3BDRE0OJ6GJBZ","A3F5Z5S2AHMN2O","3GVPRXWRPHGYHD0HW29VLS36FVC7I4","","<img src=""img/set1/S1.jpg"" width=""540"" height = ""360"">","null","","","","","","","","","",""
"null","","html-keyboard-response","21","72148","0.0-21.0","37TRT2X24RDJ0KL7I3BDRE0OJ6GJBZ","A3F5Z5S2AHMN2O","3GVPRXWRPHGYHD0HW29VLS36FVC7I4","","","null","","","","","","","","","",""
"442.39999999990687","","image-keyboard-response","22","72592","0.0-22.0","37TRT2X24RDJ0KL7I3BDRE0OJ6GJBZ","A3F5Z5S2AHMN2O","3GVPRXWRPHGYHD0HW29VLS36FVC7I4","","img/set1/S4.jpg","83","4","structured_normal","74","structured_normal,random,structured_load,structured_incentive","4,2,1,2,2,3","1,4,3,2","false","","",""
"null","","html-keyboard-response","23","72948","0.0-23.0","37TRT2X24RDJ0KL7I3BDRE0OJ6GJBZ","A3F5Z5S2AHMN2O","3GVPRXWRPHGYHD0HW29VLS36FVC7I4","","<img src=""img/set1/S4.jpg"" width=""540"" height = ""360"">","null","","","","","","","","","",""
"null","","html-keyboard-response","24","73154","0.0-24.0","37TRT2X24RDJ0KL7I3BDRE0OJ6GJBZ","A3F5Z5S2AHMN2O","3GVPRXWRPHGYHD0HW29VLS36FVC7I4","","","null","","","","","","","","","",""
"396","","image-keyboard-response","25","73552","0.0-25.0","37TRT2X24RDJ0KL7I3BDRE0OJ6GJBZ","A3F5Z5S2AHMN2O","3GVPRXWRPHGYHD0HW29VLS36FVC7I4","","img/set1/S3.jpg","74","3","structured_normal","72","structured_normal,random,structured_load,structured_incentive","4,2,1,2,2,3","1,4,3,2","false","","",""
"null","","html-keyboard-response","26","73909","0.0-26.0","37TRT2X24RDJ0KL7I3BDRE0OJ6GJBZ","A3F5Z5S2AHMN2O","3GVPRXWRPHGYHD0HW29VLS36FVC7I4","","<img src=""img/set1/S3.jpg"" width=""540"" height = ""360"">","null","","","","","","","","","",""
"null","","html-keyboard-response","27","74111","0.0-27.0","37TRT2X24RDJ0KL7I3BDRE0OJ6GJBZ","A3F5Z5S2AHMN2O","3GVPRXWRPHGYHD0HW29VLS36FVC7I4","","","null","","","","","","","","","",""
"412.89999999990687","","image-keyboard-response","28","74525","0.0-28.0","37TRT2X24RDJ0KL7I3BDRE0OJ6GJBZ","A3F5Z5S2AHMN2O","3GVPRXWRPHGYHD0HW29VLS36FVC7I4","","img/set1/S4.jpg","72","4","structured_normal","74","structured_normal,random,structured_load,structured_incentive","4,2,1,2,2,3","1,4,3,2","false","","",""
"null","","html-keyboard-response","29","74878","0.0-29.0","37TRT2X24RDJ0KL7I3BDRE0OJ6GJBZ","A3F5Z5S2AHMN2O","3GVPRXWRPHGYHD0HW29VLS36FVC7I4","","<img src=""img/set1/S4.jpg"" width=""540"" height = ""360"">","null","","","","","","","","","",""
"null","","html-keyboard-response","30","75084","0.0-30.0","37TRT2X24RDJ0KL7I3BDRE0OJ6GJBZ","A3F5Z5S2AHMN2O","3GVPRXWRPHGYHD0HW29VLS36FVC7I4","","","null","","","","","","","","","",""
"369.29999999981374","","image-keyboard-response","31","75455","0.0-31.0","37TRT2X24RDJ0KL7I3BDRE0OJ6GJBZ","A3F5Z5S2AHMN2O","3GVPRXWRPHGYHD0HW29VLS36FVC7I4","","img/set1/S3.jpg","68","3","structured_normal","72","structured_normal,random,structured_load,structured_incentive","4,2,1,2,2,3","1,4,3,2","false","","",""
"null","","html-keyboard-response","32","75810","0.0-32.0","37TRT2X24RDJ0KL7I3BDRE0OJ6GJBZ","A3F5Z5S2AHMN2O","3GVPRXWRPHGYHD0HW29VLS36FVC7I4","","<img src=""img/set1/S3.jpg"" width=""540"" height = ""360"">","null","","","","","","","","","",""
"null","","html-keyboard-response","33","76012","0.0-33.0","37TRT2X24RDJ0KL7I3BDRE0OJ6GJBZ","A3F5Z5S2AHMN2O","3GVPRXWRPHGYHD0HW29VLS36FVC7I4","","","null","","","","","","","","","",""
"377.5","","image-keyboard-response","34","76391","0.0-34.0","37TRT2X24RDJ0KL7I3BDRE0OJ6GJBZ","A3F5Z5S2AHMN2O","3GVPRXWRPHGYHD0HW29VLS36FVC7I4","","img/set1/S3.jpg","83","3","structured_normal","72","structured_normal,random,structured_load,structured_incentive","4,2,1,2,2,3","1,4,3,2","false","","",""
"null","","html-keyboard-response","35","76745","0.0-35.0","37TRT2X24RDJ0KL7I3BDRE0OJ6GJBZ","A3F5Z5S2AHMN2O","3GVPRXWRPHGYHD0HW29VLS36FVC7I4","","<img src=""img/set1/S3.jpg"" width=""540"" height = ""360"">","null","","","","","","","","","",""
"null","","html-keyboard-response","36","76947","0.0-36.0","37TRT2X24RDJ0KL7I3BDRE0OJ6GJBZ","A3F5Z5S2AHMN2O","3GVPRXWRPHGYHD0HW29VLS36FVC7I4","","","null","","","","","","","","","",""
"1078.5","","image-keyboard-response","37","78027","0.0-37.0","37TRT2X24RDJ0KL7I3BDRE0OJ6GJBZ","A3F5Z5S2AHMN2O","3GVPRXWRPHGYHD0HW29VLS36FVC7I4","","img/set1/S1.jpg","68","1","structured_normal","83","structured_normal,random,structured_load,structured_incentive","4,2,1,2,2,3","1,4,3,2","false","","",""
"null","","html-keyboard-response","38","78384","0.0-38.0","37TRT2X24RDJ0KL7I3BDRE0OJ6GJBZ","A3F5Z5S2AHMN2O","3GVPRXWRPHGYHD0HW29VLS36FVC7I4","","<img src=""img/set1/S1.jpg"" width=""540"" height = ""360"">","null","","","","","","","","","",""
"null","","html-keyboard-response","39","78591","0.0-39.0","37TRT2X24RDJ0KL7I3BDRE0OJ6GJBZ","A3F5Z5S2AHMN2O","3GVPRXWRPHGYHD0HW29VLS36FVC7I4","","","null","","","","","","","","","",""
"601.6000000000931","","image-keyboard-response","40","79194","0.0-40.0","37TRT2X24RDJ0KL7I3BDRE0OJ6GJBZ","A3F5Z5S2AHMN2O","3GVPRXWRPHGYHD0HW29VLS36FVC7I4","","img/set1/S4.jpg","72","4","structured_normal","74","structured_normal,random,structured_load,structured_incentive","4,2,1,2,2,3","1,4,3,2","false","","",""
"null","","html-keyboard-response","41","79548","0.0-41.0","37TRT2X24RDJ0KL7I3BDRE0OJ6GJBZ","A3F5Z5S2AHMN2O","3GVPRXWRPHGYHD0HW29VLS36FVC7I4","","<img src=""img/set1/S4.jpg"" width=""540"" height = ""360"">","null","","","","","","","","","",""
"null","","html-keyboard-response","42","79755","0.0-42.0","37TRT2X24RDJ0KL7I3BDRE0OJ6GJBZ","A3F5Z5S2AHMN2O","3GVPRXWRPHGYHD0HW29VLS36FVC7I4","","","null","","","","","","","","","",""
"426.10000000009313","","image-keyboard-response","43","80182","0.0-43.0","37TRT2X24RDJ0KL7I3BDRE0OJ6GJBZ","A3F5Z5S2AHMN2O","3GVPRXWRPHGYHD0HW29VLS36FVC7I4","","img/set1/S2.jpg","74","2","structured_normal","68","structured_normal,random,structured_load,structured_incentive","4,2,1,2,2,3","1,4,3,2","false","","",""
"null","","html-keyboard-response","44","80535","0.0-44.0","37TRT2X24RDJ0KL7I3BDRE0OJ6GJBZ","A3F5Z5S2AHMN2O","3GVPRXWRPHGYHD0HW29VLS36FVC7I4","","<img src=""img/set1/S2.jpg"" width=""540"" height = ""360"">","null","","","","","","","","","",""
"null","","html-keyboard-response","45","80738","0.0-45.0","37TRT2X24RDJ0KL7I3BDRE0OJ6GJBZ","A3F5Z5S2AHMN2O","3GVPRXWRPHGYHD0HW29VLS36FVC7I4","","","null","","","","","","","","","",""
"1202.1999999997206","","image-keyboard-response","46","81942","0.0-46.0","37TRT2X24RDJ0KL7I3BDRE0OJ6GJBZ","A3F5Z5S2AHMN2O","3GVPRXWRPHGYHD0HW29VLS36FVC7I4","","img/set1/S1.jpg","74","1","structured_normal","83","structured_normal,random,structured_load,structured_incentive","4,2,1,2,2,3","1,4,3,2","false","","",""
"null","","html-keyboard-response","47","82299","0.0-47.0","37TRT2X24RDJ0KL7I3BDRE0OJ6GJBZ","A3F5Z5S2AHMN2O","3GVPRXWRPHGYHD0HW29VLS36FVC7I4","","<img src=""img/set1/S1.jpg"" width=""540"" height = ""360"">","null","","","","","","","","","",""
"null","","html-keyboard-response","48","82505","0.0-48.0","37TRT2X24RDJ0KL7I3BDRE0OJ6GJBZ","A3F5Z5S2AHMN2O","3GVPRXWRPHGYHD0HW29VLS36FVC7I4","","","null","","","","","","","","","",""
"375.79999999981374","","image-keyboard-response","49","82882","0.0-49.0","37TRT2X24RDJ0KL7I3BDRE0OJ6GJBZ","A3F5Z5S2AHMN2O","3GVPRXWRPHGYHD0HW29VLS36FVC7I4","","img/set1/S3.jpg","72","3","structured_normal","72","structured_normal,random,structured_load,structured_incentive","4,2,1,2,2,3","1,4,3,2","true","","",""
"null","","html-keyboard-response","50","83234","0.0-50.0","37TRT2X24RDJ0KL7I3BDRE0OJ6GJBZ","A3F5Z5S2AHMN2O","3GVPRXWRPHGYHD0HW29VLS36FVC7I4","","<img src=""img/set1/S3.jpg"" width=""540"" height = ""360"" style=""border:16px solid orange"">","null","","","","","","","","","",""
"null","","html-keyboard-response","51","83436","0.0-51.0","37TRT2X24RDJ0KL7I3BDRE0OJ6GJBZ","A3F5Z5S2AHMN2O","3GVPRXWRPHGYHD0HW29VLS36FVC7I4","","","null","","","","","","","","","",""
"517.2000000001863","","image-keyboard-response","52","83954","0.0-52.0","37TRT2X24RDJ0KL7I3BDRE0OJ6GJBZ","A3F5Z5S2AHMN2O","3GVPRXWRPHGYHD0HW29VLS36FVC7I4","","img/set1/S2.jpg","72","2","structured_normal","68","structured_normal,random,structured_load,structured_incentive","4,2,1,2,2,3","1,4,3,2","false","","",""
"null","","html-keyboard-response","53","84311","0.0-53.0","37TRT2X24RDJ0KL7I3BDRE0OJ6GJBZ","A3F5Z5S2AHMN2O","3GVPRXWRPHGYHD0HW29VLS36FVC7I4","","<img src=""img/set1/S2.jpg"" width=""540"" height = ""360"">","null","","","","","","","","","",""
"null","","html-keyboard-response","54","84514","0.0-54.0","37TRT2X24RDJ0KL7I3BDRE0OJ6GJBZ","A3F5Z5S2AHMN2O","3GVPRXWRPHGYHD0HW29VLS36FVC7I4","","","null","","","","","","","","","",""
"648.2000000001863","","image-keyboard-response","55","85163","0.0-55.0","37TRT2X24RDJ0KL7I3BDRE0OJ6GJBZ","A3F5Z5S2AHMN2O","3GVPRXWRPHGYHD0HW29VLS36FVC7I4","","img/set1/S3.jpg","83","3","structured_normal","72","structured_normal,random,structured_load,structured_incentive","4,2,1,2,2,3","1,4,3,2","false","","",""
"null","","html-keyboard-response","56","85515","0.0-56.0","37TRT2X24RDJ0KL7I3BDRE0OJ6GJBZ","A3F5Z5S2AHMN2O","3GVPRXWRPHGYHD0HW29VLS36FVC7I4","","<img src=""img/set1/S3.jpg"" width=""540"" height = ""360"">","null","","","","","","","","","",""
"null","","html-keyboard-response","57","85720","0.0-57.0","37TRT2X24RDJ0KL7I3BDRE0OJ6GJBZ","A3F5Z5S2AHMN2O","3GVPRXWRPHGYHD0HW29VLS36FVC7I4","","","null","","","","","","","","","",""
"832.7000000001863","","image-keyboard-response","58","86554","0.0-58.0","37TRT2X24RDJ0KL7I3BDRE0OJ6GJBZ","A3F5Z5S2AHMN2O","3GVPRXWRPHGYHD0HW29VLS36FVC7I4","","img/set1/S1.jpg","68","1","structured_normal","83","structured_normal,random,structured_load,structured_incentive","4,2,1,2,2,3","1,4,3,2","false","","",""
"null","","html-keyboard-response","59","86911","0.0-59.0","37TRT2X24RDJ0KL7I3BDRE0OJ6GJBZ","A3F5Z5S2AHMN2O","3GVPRXWRPHGYHD0HW29VLS36FVC7I4","","<img src=""img/set1/S1.jpg"" width=""540"" height = ""360"">","null","","","","","","","","","",""
"null","","html-keyboard-response","60","87117","0.0-60.0","37TRT2X24RDJ0KL7I3BDRE0OJ6GJBZ","A3F5Z5S2AHMN2O","3GVPRXWRPHGYHD0HW29VLS36FVC7I4","","","null","","","","","","","","","",""
"857.3999999999069","","image-keyboard-response","61","87976","0.0-61.0","37TRT2X24RDJ0KL7I3BDRE0OJ6GJBZ","A3F5Z5S2AHMN2O","3GVPRXWRPHGYHD0HW29VLS36FVC7I4","","img/set1/S4.jpg","74","4","structured_normal","74","structured_normal,random,structured_load,structured_incentive","4,2,1,2,2,3","1,4,3,2","true","","",""
"null","","html-keyboard-response","62","88328","0.0-62.0","37TRT2X24RDJ0KL7I3BDRE0OJ6GJBZ","A3F5Z5S2AHMN2O","3GVPRXWRPHGYHD0HW29VLS36FVC7I4","","<img src=""img/set1/S4.jpg"" width=""540"" height = ""360"" style=""border:16px solid orange"">","null","","","","","","","","","",""
"null","","html-keyboard-response","63","88530","0.0-63.0","37TRT2X24RDJ0KL7I3BDRE0OJ6GJBZ","A3F5Z5S2AHMN2O","3GVPRXWRPHGYHD0HW29VLS36FVC7I4","","","null","","","","","","","","","",""
"821.6000000000931","","image-keyboard-response","64","89353","0.0-64.0","37TRT2X24RDJ0KL7I3BDRE0OJ6GJBZ","A3F5Z5S2AHMN2O","3GVPRXWRPHGYHD0HW29VLS36FVC7I4","","img/set1/S2.jpg","72","2","structured_normal","68","structured_normal,random,structured_load,structured_incentive","4,2,1,2,2,3","1,4,3,2","false","","",""
"null","","html-keyboard-response","65","89706","0.0-65.0","37TRT2X24RDJ0KL7I3BDRE0OJ6GJBZ","A3F5Z5S2AHMN2O","3GVPRXWRPHGYHD0HW29VLS36FVC7I4","","<img src=""img/set1/S2.jpg"" width=""540"" height = ""360"">","null","","","","","","","","","",""
"null","","html-keyboard-response","66","89911","0.0-66.0","37TRT2X24RDJ0KL7I3BDRE0OJ6GJBZ","A3F5Z5S2AHMN2O","3GVPRXWRPHGYHD0HW29VLS36FVC7I4","","","null","","","","","","","","","",""
"855.1000000000931","","image-keyboard-response","67","90767","0.0-67.0","37TRT2X24RDJ0KL7I3BDRE0OJ6GJBZ","A3F5Z5S2AHMN2O","3GVPRXWRPHGYHD0HW29VLS36FVC7I4","","img/set1/S1.jpg","72","1","structured_normal","83","structured_normal,random,structured_load,structured_incentive","4,2,1,2,2,3","1,4,3,2","false","","",""
"null","","html-keyboard-response","68","91124","0.0-68.0","37TRT2X24RDJ0KL7I3BDRE0OJ6GJBZ","A3F5Z5S2AHMN2O","3GVPRXWRPHGYHD0HW29VLS36FVC7I4","","<img src=""img/set1/S1.jpg"" width=""540"" height = ""360"">","null","","","","","","","","","",""
"null","","html-keyboard-response","69","91330","0.0-69.0","37TRT2X24RDJ0KL7I3BDRE0OJ6GJBZ","A3F5Z5S2AHMN2O","3GVPRXWRPHGYHD0HW29VLS36FVC7I4","","","null","","","","","","","","","",""
"1033.6000000000931","","image-keyboard-response","70","92371","0.0-70.0","37TRT2X24RDJ0KL7I3BDRE0OJ6GJBZ","A3F5Z5S2AHMN2O","3GVPRXWRPHGYHD0HW29VLS36FVC7I4","","img/set1/S1.jpg","74","1","structured_normal","83","structured_normal,random,structured_load,structured_incentive","4,2,1,2,2,3","1,4,3,2","false","","",""
"null","","html-keyboard-response","71","92724","0.0-71.0","37TRT2X24RDJ0KL7I3BDRE0OJ6GJBZ","A3F5Z5S2AHMN2O","3GVPRXWRPHGYHD0HW29VLS36FVC7I4","","<img src=""img/set1/S1.jpg"" width=""540"" height = ""360"">","null","","","","","","","","","",""
"null","","html-keyboard-response","72","92926","0.0-72.0","37TRT2X24RDJ0KL7I3BDRE0OJ6GJBZ","A3F5Z5S2AHMN2O","3GVPRXWRPHGYHD0HW29VLS36FVC7I4","","","null","","","","","","","","","",""
"669.8000000002794","","image-keyboard-response","73","93597","0.0-73.0","37TRT2X24RDJ0KL7I3BDRE0OJ6GJBZ","A3F5Z5S2AHMN2O","3GVPRXWRPHGYHD0HW29VLS36FVC7I4","","img/set1/S1.jpg","83","1","structured_normal","83","structured_normal,random,structured_load,structured_incentive","4,2,1,2,2,3","1,4,3,2","true","","",""
"null","","html-keyboard-response","74","93954","0.0-74.0","37TRT2X24RDJ0KL7I3BDRE0OJ6GJBZ","A3F5Z5S2AHMN2O","3GVPRXWRPHGYHD0HW29VLS36FVC7I4","","<img src=""img/set1/S1.jpg"" width=""540"" height = ""360"" style=""border:16px solid orange"">","null","","","","","","","","","",""
"null","","html-keyboard-response","75","94161","0.0-75.0","37TRT2X24RDJ0KL7I3BDRE0OJ6GJBZ","A3F5Z5S2AHMN2O","3GVPRXWRPHGYHD0HW29VLS36FVC7I4","","","null","","","","","","","","","",""
"1128.5","","image-keyboard-response","76","95290","0.0-76.0","37TRT2X24RDJ0KL7I3BDRE0OJ6GJBZ","A3F5Z5S2AHMN2O","3GVPRXWRPHGYHD0HW29VLS36FVC7I4","","img/set1/S3.jpg","74","3","structured_normal","72","structured_normal,random,structured_load,structured_incentive","4,2,1,2,2,3","1,4,3,2","false","","",""
"null","","html-keyboard-response","77","95645","0.0-77.0","37TRT2X24RDJ0KL7I3BDRE0OJ6GJBZ","A3F5Z5S2AHMN2O","3GVPRXWRPHGYHD0HW29VLS36FVC7I4","","<img src=""img/set1/S3.jpg"" width=""540"" height = ""360"">","null","","","","","","","","","",""
"null","","html-keyboard-response","78","95849","0.0-78.0","37TRT2X24RDJ0KL7I3BDRE0OJ6GJBZ","A3F5Z5S2AHMN2O","3GVPRXWRPHGYHD0HW29VLS36FVC7I4","","","null","","","","","","","","","",""
"810.2999999998137","","image-keyboard-response","79","96660","0.0-79.0","37TRT2X24RDJ0KL7I3BDRE0OJ6GJBZ","A3F5Z5S2AHMN2O","3GVPRXWRPHGYHD0HW29VLS36FVC7I4","","img/set1/S1.jpg","83","1","structured_normal","83","structured_normal,random,structured_load,structured_incentive","4,2,1,2,2,3","1,4,3,2","true","","",""
"null","","html-keyboard-response","80","97014","0.0-80.0","37TRT2X24RDJ0KL7I3BDRE0OJ6GJBZ","A3F5Z5S2AHMN2O","3GVPRXWRPHGYHD0HW29VLS36FVC7I4","","<img src=""img/set1/S1.jpg"" width=""540"" height = ""360"" style=""border:16px solid orange"">","null","","","","","","","","","",""
"null","","html-keyboard-response","81","97216","0.0-81.0","37TRT2X24RDJ0KL7I3BDRE0OJ6GJBZ","A3F5Z5S2AHMN2O","3GVPRXWRPHGYHD0HW29VLS36FVC7I4","","","null","","","","","","","","","",""
"836.8999999999069","","image-keyboard-response","82","98055","0.0-82.0","37TRT2X24RDJ0KL7I3BDRE0OJ6GJBZ","A3F5Z5S2AHMN2O","3GVPRXWRPHGYHD0HW29VLS36FVC7I4","","img/set1/S3.jpg","72","3","structured_normal","72","structured_normal,random,structured_load,structured_incentive","4,2,1,2,2,3","1,4,3,2","true","","",""
"null","","html-keyboard-response","83","98411","0.0-83.0","37TRT2X24RDJ0KL7I3BDRE0OJ6GJBZ","A3F5Z5S2AHMN2O","3GVPRXWRPHGYHD0HW29VLS36FVC7I4","","<img src=""img/set1/S3.jpg"" width=""540"" height = ""360"" style=""border:16px solid orange"">","null","","","","","","","","","",""
"null","","html-keyboard-response","84","98613","0.0-84.0","37TRT2X24RDJ0KL7I3BDRE0OJ6GJBZ","A3F5Z5S2AHMN2O","3GVPRXWRPHGYHD0HW29VLS36FVC7I4","","","null","","","","","","","","","",""
"635.8000000002794","","image-keyboard-response","85","99250","0.0-85.0","37TRT2X24RDJ0KL7I3BDRE0OJ6GJBZ","A3F5Z5S2AHMN2O","3GVPRXWRPHGYHD0HW29VLS36FVC7I4","","img/set1/S3.jpg","72","3","structured_normal","72","structured_normal,random,structured_load,structured_incentive","4,2,1,2,2,3","1,4,3,2","true","","",""
"null","","html-keyboard-response","86","99607","0.0-86.0","37TRT2X24RDJ0KL7I3BDRE0OJ6GJBZ","A3F5Z5S2AHMN2O","3GVPRXWRPHGYHD0HW29VLS36FVC7I4","","<img src=""img/set1/S3.jpg"" width=""540"" height = ""360"" style=""border:16px solid orange"">","null","","","","","","","","","",""
"null","","html-keyboard-response","87","99813","0.0-87.0","37TRT2X24RDJ0KL7I3BDRE0OJ6GJBZ","A3F5Z5S2AHMN2O","3GVPRXWRPHGYHD0HW29VLS36FVC7I4","","","null","","","","","","","","","",""
"759.1000000000931","","image-keyboard-response","88","100573","0.0-88.0","37TRT2X24RDJ0KL7I3BDRE0OJ6GJBZ","A3F5Z5S2AHMN2O","3GVPRXWRPHGYHD0HW29VLS36FVC7I4","","img/set1/S1.jpg","83","1","structured_normal","83","structured_normal,random,structured_load,structured_incentive","4,2,1,2,2,3","1,4,3,2","true","","",""
"null","","html-keyboard-response","89","100929","0.0-89.0","37TRT2X24RDJ0KL7I3BDRE0OJ6GJBZ","A3F5Z5S2AHMN2O","3GVPRXWRPHGYHD0HW29VLS36FVC7I4","","<img src=""img/set1/S1.jpg"" width=""540"" height = ""360"" style=""border:16px solid orange"">","null","","","","","","","","","",""
"null","","html-keyboard-response","90","101132","0.0-90.0","37TRT2X24RDJ0KL7I3BDRE0OJ6GJBZ","A3F5Z5S2AHMN2O","3GVPRXWRPHGYHD0HW29VLS36FVC7I4","","","null","","","","","","","","","",""
"678.0999999996275","","image-keyboard-response","91","101812","0.0-91.0","37TRT2X24RDJ0KL7I3BDRE0OJ6GJBZ","A3F5Z5S2AHMN2O","3GVPRXWRPHGYHD0HW29VLS36FVC7I4","","img/set1/S3.jpg","72","3","structured_normal","72","structured_normal,random,structured_load,structured_incentive","4,2,1,2,2,3","1,4,3,2","true","","",""
"null","","html-keyboard-response","92","102168","0.0-92.0","37TRT2X24RDJ0KL7I3BDRE0OJ6GJBZ","A3F5Z5S2AHMN2O","3GVPRXWRPHGYHD0HW29VLS36FVC7I4","","<img src=""img/set1/S3.jpg"" width=""540"" height = ""360"" style=""border:16px solid orange"">","null","","","","","","","","","",""
"null","","html-keyboard-response","93","102374","0.0-93.0","37TRT2X24RDJ0KL7I3BDRE0OJ6GJBZ","A3F5Z5S2AHMN2O","3GVPRXWRPHGYHD0HW29VLS36FVC7I4","","","null","","","","","","","","","",""
"449.29999999981374","","image-keyboard-response","94","102825","0.0-94.0","37TRT2X24RDJ0KL7I3BDRE0OJ6GJBZ","A3F5Z5S2AHMN2O","3GVPRXWRPHGYHD0HW29VLS36FVC7I4","","img/set1/S3.jpg","72","3","structured_normal","72","structured_normal,random,structured_load,structured_incentive","4,2,1,2,2,3","1,4,3,2","true","","",""
"null","","html-keyboard-response","95","103182","0.0-95.0","37TRT2X24RDJ0KL7I3BDRE0OJ6GJBZ","A3F5Z5S2AHMN2O","3GVPRXWRPHGYHD0HW29VLS36FVC7I4","","<img src=""img/set1/S3.jpg"" width=""540"" height = ""360"" style=""border:16px solid orange"">","null","","","","","","","","","",""
"null","","html-keyboard-response","96","103388","0.0-96.0","37TRT2X24RDJ0KL7I3BDRE0OJ6GJBZ","A3F5Z5S2AHMN2O","3GVPRXWRPHGYHD0HW29VLS36FVC7I4","","","null","","","","","","","","","",""
"697.1000000000931","","image-keyboard-response","97","104086","0.0-97.0","37TRT2X24RDJ0KL7I3BDRE0OJ6GJBZ","A3F5Z5S2AHMN2O","3GVPRXWRPHGYHD0HW29VLS36FVC7I4","","img/set1/S4.jpg","68","4","structured_normal","74","structured_normal,random,structured_load,structured_incentive","4,2,1,2,2,3","1,4,3,2","false","","",""
"null","","html-keyboard-response","98","104444","0.0-98.0","37TRT2X24RDJ0KL7I3BDRE0OJ6GJBZ","A3F5Z5S2AHMN2O","3GVPRXWRPHGYHD0HW29VLS36FVC7I4","","<img src=""img/set1/S4.jpg"" width=""540"" height = ""360"">","null","","","","","","","","","",""
"null","","html-keyboard-response","99","104649","0.0-99.0","37TRT2X24RDJ0KL7I3BDRE0OJ6GJBZ","A3F5Z5S2AHMN2O","3GVPRXWRPHGYHD0HW29VLS36FVC7I4","","","null","","","","","","","","","",""
"1450.3999999999069","","image-keyboard-response","100","106101","0.0-100.0","37TRT2X24RDJ0KL7I3BDRE0OJ6GJBZ","A3F5Z5S2AHMN2O","3GVPRXWRPHGYHD0HW29VLS36FVC7I4","","img/set1/S2.jpg","68","2","structured_normal","68","structured_normal,random,structured_load,structured_incentive","4,2,1,2,2,3","1,4,3,2","true","","",""
"null","","html-keyboard-response","101","106458","0.0-101.0","37TRT2X24RDJ0KL7I3BDRE0OJ6GJBZ","A3F5Z5S2AHMN2O","3GVPRXWRPHGYHD0HW29VLS36FVC7I4","","<img src=""img/set1/S2.jpg"" width=""540"" height = ""360"" style=""border:16px solid orange"">","null","","","","","","","","","",""
"null","","html-keyboard-response","102","106661","0.0-102.0","37TRT2X24RDJ0KL7I3BDRE0OJ6GJBZ","A3F5Z5S2AHMN2O","3GVPRXWRPHGYHD0HW29VLS36FVC7I4","","","null","","","","","","","","","",""
"885.2999999998137","","image-keyboard-response","103","107548","0.0-103.0","37TRT2X24RDJ0KL7I3BDRE0OJ6GJBZ","A3F5Z5S2AHMN2O","3GVPRXWRPHGYHD0HW29VLS36FVC7I4","","img/set1/S4.jpg","74","4","structured_normal","74","structured_normal,random,structured_load,structured_incentive","4,2,1,2,2,3","1,4,3,2","true","","",""
"null","","html-keyboard-response","104","107903","0.0-104.0","37TRT2X24RDJ0KL7I3BDRE0OJ6GJBZ","A3F5Z5S2AHMN2O","3GVPRXWRPHGYHD0HW29VLS36FVC7I4","","<img src=""img/set1/S4.jpg"" width=""540"" height = ""360"" style=""border:16px solid orange"">","null","","","","","","","","","",""
"null","","html-keyboard-response","105","108105","0.0-105.0","37TRT2X24RDJ0KL7I3BDRE0OJ6GJBZ","A3F5Z5S2AHMN2O","3GVPRXWRPHGYHD0HW29VLS36FVC7I4","","","null","","","","","","","","","",""
"854.7999999998137","","image-keyboard-response","106","108961","0.0-106.0","37TRT2X24RDJ0KL7I3BDRE0OJ6GJBZ","A3F5Z5S2AHMN2O","3GVPRXWRPHGYHD0HW29VLS36FVC7I4","","img/set1/S2.jpg","68","2","structured_normal","68","structured_normal,random,structured_load,structured_incentive","4,2,1,2,2,3","1,4,3,2","true","","",""
"null","","html-keyboard-response","107","109318","0.0-107.0","37TRT2X24RDJ0KL7I3BDRE0OJ6GJBZ","A3F5Z5S2AHMN2O","3GVPRXWRPHGYHD0HW29VLS36FVC7I4","","<img src=""img/set1/S2.jpg"" width=""540"" height = ""360"" style=""border:16px solid orange"">","null","","","","","","","","","",""
"null","","html-keyboard-response","108","109524","0.0-108.0","37TRT2X24RDJ0KL7I3BDRE0OJ6GJBZ","A3F5Z5S2AHMN2O","3GVPRXWRPHGYHD0HW29VLS36FVC7I4","","","null","","","","","","","","","",""
"782.6999999997206","","image-keyboard-response","109","110308","0.0-109.0","37TRT2X24RDJ0KL7I3BDRE0OJ6GJBZ","A3F5Z5S2AHMN2O","3GVPRXWRPHGYHD0HW29VLS36FVC7I4","","img/set1/S4.jpg","74","4","structured_normal","74","structured_normal,random,structured_load,structured_incentive","4,2,1,2,2,3","1,4,3,2","true","","",""
"null","","html-keyboard-response","110","110662","0.0-110.0","37TRT2X24RDJ0KL7I3BDRE0OJ6GJBZ","A3F5Z5S2AHMN2O","3GVPRXWRPHGYHD0HW29VLS36FVC7I4","","<img src=""img/set1/S4.jpg"" width=""540"" height = ""360"" style=""border:16px solid orange"">","null","","","","","","","","","",""
"null","","html-keyboard-response","111","110868","0.0-111.0","37TRT2X24RDJ0KL7I3BDRE0OJ6GJBZ","A3F5Z5S2AHMN2O","3GVPRXWRPHGYHD0HW29VLS36FVC7I4","","","null","","","","","","","","","",""
"1002.3999999999069","","image-keyboard-response","112","111872","0.0-112.0","37TRT2X24RDJ0KL7I3BDRE0OJ6GJBZ","A3F5Z5S2AHMN2O","3GVPRXWRPHGYHD0HW29VLS36FVC7I4","","img/set1/S2.jpg","72","2","structured_normal","68","structured_normal,random,structured_load,structured_incentive","4,2,1,2,2,3","1,4,3,2","false","","",""
"null","","html-keyboard-response","113","112224","0.0-113.0","37TRT2X24RDJ0KL7I3BDRE0OJ6GJBZ","A3F5Z5S2AHMN2O","3GVPRXWRPHGYHD0HW29VLS36FVC7I4","","<img src=""img/set1/S2.jpg"" width=""540"" height = ""360"">","null","","","","","","","","","",""
"null","","html-keyboard-response","114","112425","0.0-114.0","37TRT2X24RDJ0KL7I3BDRE0OJ6GJBZ","A3F5Z5S2AHMN2O","3GVPRXWRPHGYHD0HW29VLS36FVC7I4","","","null","","","","","","","","","",""
"1564.3000000002794","","image-keyboard-response","115","113991","0.0-115.0","37TRT2X24RDJ0KL7I3BDRE0OJ6GJBZ","A3F5Z5S2AHMN2O","3GVPRXWRPHGYHD0HW29VLS36FVC7I4","","img/set1/S4.jpg","74","4","structured_normal","74","structured_normal,random,structured_load,structured_incentive","4,2,1,2,2,3","1,4,3,2","true","","",""
"null","","html-keyboard-response","116","114344","0.0-116.0","37TRT2X24RDJ0KL7I3BDRE0OJ6GJBZ","A3F5Z5S2AHMN2O","3GVPRXWRPHGYHD0HW29VLS36FVC7I4","","<img src=""img/set1/S4.jpg"" width=""540"" height = ""360"" style=""border:16px solid orange"">","null","","","","","","","","","",""
"null","","html-keyboard-response","117","114550","0.0-117.0","37TRT2X24RDJ0KL7I3BDRE0OJ6GJBZ","A3F5Z5S2AHMN2O","3GVPRXWRPHGYHD0HW29VLS36FVC7I4","","","null","","","","","","","","","",""
"766.7000000001863","","image-keyboard-response","118","115318","0.0-118.0","37TRT2X24RDJ0KL7I3BDRE0OJ6GJBZ","A3F5Z5S2AHMN2O","3GVPRXWRPHGYHD0HW29VLS36FVC7I4","","img/set1/S2.jpg","68","2","structured_normal","68","structured_normal,random,structured_load,structured_incentive","4,2,1,2,2,3","1,4,3,2","true","","",""
"null","","html-keyboard-response","119","115674","0.0-119.0","37TRT2X24RDJ0KL7I3BDRE0OJ6GJBZ","A3F5Z5S2AHMN2O","3GVPRXWRPHGYHD0HW29VLS36FVC7I4","","<img src=""img/set1/S2.jpg"" width=""540"" height = ""360"" style=""border:16px solid orange"">","null","","","","","","","","","",""
"null","","html-keyboard-response","120","115881","0.0-120.0","37TRT2X24RDJ0KL7I3BDRE0OJ6GJBZ","A3F5Z5S2AHMN2O","3GVPRXWRPHGYHD0HW29VLS36FVC7I4","","","null","","","","","","","","","",""
"788.3000000002794","","image-keyboard-response","121","116670","0.0-121.0","37TRT2X24RDJ0KL7I3BDRE0OJ6GJBZ","A3F5Z5S2AHMN2O","3GVPRXWRPHGYHD0HW29VLS36FVC7I4","","img/set1/S1.jpg","83","1","structured_normal","83","structured_normal,random,structured_load,structured_incentive","4,2,1,2,2,3","1,4,3,2","true","","",""
"null","","html-keyboard-response","122","117024","0.0-122.0","37TRT2X24RDJ0KL7I3BDRE0OJ6GJBZ","A3F5Z5S2AHMN2O","3GVPRXWRPHGYHD0HW29VLS36FVC7I4","","<img src=""img/set1/S1.jpg"" width=""540"" height = ""360"" style=""border:16px solid orange"">","null","","","","","","","","","",""
"null","","html-keyboard-response","123","117231","0.0-123.0","37TRT2X24RDJ0KL7I3BDRE0OJ6GJBZ","A3F5Z5S2AHMN2O","3GVPRXWRPHGYHD0HW29VLS36FVC7I4","","","null","","","","","","","","","",""
"1452.3999999999069","","image-keyboard-response","124","118684","0.0-124.0","37TRT2X24RDJ0KL7I3BDRE0OJ6GJBZ","A3F5Z5S2AHMN2O","3GVPRXWRPHGYHD0HW29VLS36FVC7I4","","img/set1/S4.jpg","74","4","structured_normal","74","structured_normal,random,structured_load,structured_incentive","4,2,1,2,2,3","1,4,3,2","true","","",""
"null","","html-keyboard-response","125","119042","0.0-125.0","37TRT2X24RDJ0KL7I3BDRE0OJ6GJBZ","A3F5Z5S2AHMN2O","3GVPRXWRPHGYHD0HW29VLS36FVC7I4","","<img src=""img/set1/S4.jpg"" width=""540"" height = ""360"" style=""border:16px solid orange"">","null","","","","","","","","","",""
"null","","html-keyboard-response","126","119247","0.0-126.0","37TRT2X24RDJ0KL7I3BDRE0OJ6GJBZ","A3F5Z5S2AHMN2O","3GVPRXWRPHGYHD0HW29VLS36FVC7I4","","","null","","","","","","","","","",""
"870.0999999996275","","image-keyboard-response","127","120119","0.0-127.0","37TRT2X24RDJ0KL7I3BDRE0OJ6GJBZ","A3F5Z5S2AHMN2O","3GVPRXWRPHGYHD0HW29VLS36FVC7I4","","img/set1/S2.jpg","68","2","structured_normal","68","structured_normal,random,structured_load,structured_incentive","4,2,1,2,2,3","1,4,3,2","true","","",""
"null","","html-keyboard-response","128","120474","0.0-128.0","37TRT2X24RDJ0KL7I3BDRE0OJ6GJBZ","A3F5Z5S2AHMN2O","3GVPRXWRPHGYHD0HW29VLS36FVC7I4","","<img src=""img/set1/S2.jpg"" width=""540"" height = ""360"" style=""border:16px solid orange"">","null","","","","","","","","","",""
"null","","html-keyboard-response","129","120681","0.0-129.0","37TRT2X24RDJ0KL7I3BDRE0OJ6GJBZ","A3F5Z5S2AHMN2O","3GVPRXWRPHGYHD0HW29VLS36FVC7I4","","","null","","","","","","","","","",""
"913.5","","image-keyboard-response","130","121596","0.0-130.0","37TRT2X24RDJ0KL7I3BDRE0OJ6GJBZ","A3F5Z5S2AHMN2O","3GVPRXWRPHGYHD0HW29VLS36FVC7I4","","img/set1/S4.jpg","74","4","structured_normal","74","structured_normal,random,structured_load,structured_incentive","4,2,1,2,2,3","1,4,3,2","true","","",""
"null","","html-keyboard-response","131","121949","0.0-131.0","37TRT2X24RDJ0KL7I3BDRE0OJ6GJBZ","A3F5Z5S2AHMN2O","3GVPRXWRPHGYHD0HW29VLS36FVC7I4","","<img src=""img/set1/S4.jpg"" width=""540"" height = ""360"" style=""border:16px solid orange"">","null","","","","","","","","","",""
"null","","html-keyboard-response","132","122156","0.0-132.0","37TRT2X24RDJ0KL7I3BDRE0OJ6GJBZ","A3F5Z5S2AHMN2O","3GVPRXWRPHGYHD0HW29VLS36FVC7I4","","","null","","","","","","","","","",""
"739.5","","image-keyboard-response","133","122897","0.0-133.0","37TRT2X24RDJ0KL7I3BDRE0OJ6GJBZ","A3F5Z5S2AHMN2O","3GVPRXWRPHGYHD0HW29VLS36FVC7I4","","img/set1/S2.jpg","68","2","structured_normal","68","structured_normal,random,structured_load,structured_incentive","4,2,1,2,2,3","1,4,3,2","true","","",""
"null","","html-keyboard-response","134","123249","0.0-134.0","37TRT2X24RDJ0KL7I3BDRE0OJ6GJBZ","A3F5Z5S2AHMN2O","3GVPRXWRPHGYHD0HW29VLS36FVC7I4","","<img src=""img/set1/S2.jpg"" width=""540"" height = ""360"" style=""border:16px solid orange"">","null","","","","","","","","","",""
"null","","html-keyboard-response","135","123452","0.0-135.0","37TRT2X24RDJ0KL7I3BDRE0OJ6GJBZ","A3F5Z5S2AHMN2O","3GVPRXWRPHGYHD0HW29VLS36FVC7I4","","","null","","","","","","","","","",""
"802.8999999999069","","image-keyboard-response","136","124257","0.0-136.0","37TRT2X24RDJ0KL7I3BDRE0OJ6GJBZ","A3F5Z5S2AHMN2O","3GVPRXWRPHGYHD0HW29VLS36FVC7I4","","img/set1/S1.jpg","83","1","structured_normal","83","structured_normal,random,structured_load,structured_incentive","4,2,1,2,2,3","1,4,3,2","true","","",""
"null","","html-keyboard-response","137","124613","0.0-137.0","37TRT2X24RDJ0KL7I3BDRE0OJ6GJBZ","A3F5Z5S2AHMN2O","3GVPRXWRPHGYHD0HW29VLS36FVC7I4","","<img src=""img/set1/S1.jpg"" width=""540"" height = ""360"" style=""border:16px solid orange"">","null","","","","","","","","","",""
"null","","html-keyboard-response","138","124819","0.0-138.0","37TRT2X24RDJ0KL7I3BDRE0OJ6GJBZ","A3F5Z5S2AHMN2O","3GVPRXWRPHGYHD0HW29VLS36FVC7I4","","","null","","","","","","","","","",""
"1024.3999999999069","","image-keyboard-response","139","125845","0.0-139.0","37TRT2X24RDJ0KL7I3BDRE0OJ6GJBZ","A3F5Z5S2AHMN2O","3GVPRXWRPHGYHD0HW29VLS36FVC7I4","","img/set1/S4.jpg","68","4","structured_normal","74","structured_normal,random,structured_load,structured_incentive","4,2,1,2,2,3","1,4,3,2","false","","",""
"null","","html-keyboard-response","140","126200","0.0-140.0","37TRT2X24RDJ0KL7I3BDRE0OJ6GJBZ","A3F5Z5S2AHMN2O","3GVPRXWRPHGYHD0HW29VLS36FVC7I4","","<img src=""img/set1/S4.jpg"" width=""540"" height = ""360"">","null","","","","","","","","","",""
"null","","html-keyboard-response","141","126403","0.0-141.0","37TRT2X24RDJ0KL7I3BDRE0OJ6GJBZ","A3F5Z5S2AHMN2O","3GVPRXWRPHGYHD0HW29VLS36FVC7I4","","","null","","","","","","","","","",""
"1000.3999999999069","","image-keyboard-response","142","127405","0.0-142.0","37TRT2X24RDJ0KL7I3BDRE0OJ6GJBZ","A3F5Z5S2AHMN2O","3GVPRXWRPHGYHD0HW29VLS36FVC7I4","","img/set1/S2.jpg","68","2","structured_normal","68","structured_normal,random,structured_load,structured_incentive","4,2,1,2,2,3","1,4,3,2","true","","",""
"null","","html-keyboard-response","143","127760","0.0-143.0","37TRT2X24RDJ0KL7I3BDRE0OJ6GJBZ","A3F5Z5S2AHMN2O","3GVPRXWRPHGYHD0HW29VLS36FVC7I4","","<img src=""img/set1/S2.jpg"" width=""540"" height = ""360"" style=""border:16px solid orange"">","null","","","","","","","","","",""
"null","","html-keyboard-response","144","127962","0.0-144.0","37TRT2X24RDJ0KL7I3BDRE0OJ6GJBZ","A3F5Z5S2AHMN2O","3GVPRXWRPHGYHD0HW29VLS36FVC7I4","","","null","","","","","","","","","",""
"747.1000000000931","","image-keyboard-response","145","128711","0.0-145.0","37TRT2X24RDJ0KL7I3BDRE0OJ6GJBZ","A3F5Z5S2AHMN2O","3GVPRXWRPHGYHD0HW29VLS36FVC7I4","","img/set1/S4.jpg","74","4","structured_normal","74","structured_normal,random,structured_load,structured_incentive","4,2,1,2,2,3","1,4,3,2","true","","",""
"null","","html-keyboard-response","146","129068","0.0-146.0","37TRT2X24RDJ0KL7I3BDRE0OJ6GJBZ","A3F5Z5S2AHMN2O","3GVPRXWRPHGYHD0HW29VLS36FVC7I4","","<img src=""img/set1/S4.jpg"" width=""540"" height = ""360"" style=""border:16px solid orange"">","null","","","","","","","","","",""
"null","","html-keyboard-response","147","129272","0.0-147.0","37TRT2X24RDJ0KL7I3BDRE0OJ6GJBZ","A3F5Z5S2AHMN2O","3GVPRXWRPHGYHD0HW29VLS36FVC7I4","","","null","","","","","","","","","",""
"636.8999999999069","","image-keyboard-response","148","129911","0.0-148.0","37TRT2X24RDJ0KL7I3BDRE0OJ6GJBZ","A3F5Z5S2AHMN2O","3GVPRXWRPHGYHD0HW29VLS36FVC7I4","","img/set1/S2.jpg","68","2","structured_normal","68","structured_normal,random,structured_load,structured_incentive","4,2,1,2,2,3","1,4,3,2","true","","",""
"null","","html-keyboard-response","149","130268","0.0-149.0","37TRT2X24RDJ0KL7I3BDRE0OJ6GJBZ","A3F5Z5S2AHMN2O","3GVPRXWRPHGYHD0HW29VLS36FVC7I4","","<img src=""img/set1/S2.jpg"" width=""540"" height = ""360"" style=""border:16px solid orange"">","null","","","","","","","","","",""
"null","","html-keyboard-response","150","130474","0.0-150.0","37TRT2X24RDJ0KL7I3BDRE0OJ6GJBZ","A3F5Z5S2AHMN2O","3GVPRXWRPHGYHD0HW29VLS36FVC7I4","","","null","","","","","","","","","",""
"692.6000000000931","","image-keyboard-response","151","131168","0.0-151.0","37TRT2X24RDJ0KL7I3BDRE0OJ6GJBZ","A3F5Z5S2AHMN2O","3GVPRXWRPHGYHD0HW29VLS36FVC7I4","","img/set1/S1.jpg","83","1","structured_normal","83","structured_normal,random,structured_load,structured_incentive","4,2,1,2,2,3","1,4,3,2","true","","",""
"null","","html-keyboard-response","152","131524","0.0-152.0","37TRT2X24RDJ0KL7I3BDRE0OJ6GJBZ","A3F5Z5S2AHMN2O","3GVPRXWRPHGYHD0HW29VLS36FVC7I4","","<img src=""img/set1/S1.jpg"" width=""540"" height = ""360"" style=""border:16px solid orange"">","null","","","","","","","","","",""
"null","","html-keyboard-response","153","131730","0.0-153.0","37TRT2X24RDJ0KL7I3BDRE0OJ6GJBZ","A3F5Z5S2AHMN2O","3GVPRXWRPHGYHD0HW29VLS36FVC7I4","","","null","","","","","","","","","",""
"736.7000000001863","","image-keyboard-response","154","132468","0.0-154.0","37TRT2X24RDJ0KL7I3BDRE0OJ6GJBZ","A3F5Z5S2AHMN2O","3GVPRXWRPHGYHD0HW29VLS36FVC7I4","","img/set1/S3.jpg","72","3","structured_normal","72","structured_normal,random,structured_load,structured_incentive","4,2,1,2,2,3","1,4,3,2","true","","",""
"null","","html-keyboard-response","155","132824","0.0-155.0","37TRT2X24RDJ0KL7I3BDRE0OJ6GJBZ","A3F5Z5S2AHMN2O","3GVPRXWRPHGYHD0HW29VLS36FVC7I4","","<img src=""img/set1/S3.jpg"" width=""540"" height = ""360"" style=""border:16px solid orange"">","null","","","","","","","","","",""
"null","","html-keyboard-response","156","133031","0.0-156.0","37TRT2X24RDJ0KL7I3BDRE0OJ6GJBZ","A3F5Z5S2AHMN2O","3GVPRXWRPHGYHD0HW29VLS36FVC7I4","","","null","","","","","","","","","",""
"979.2000000001863","","image-keyboard-response","157","134011","0.0-157.0","37TRT2X24RDJ0KL7I3BDRE0OJ6GJBZ","A3F5Z5S2AHMN2O","3GVPRXWRPHGYHD0HW29VLS36FVC7I4","","img/set1/S4.jpg","68","4","structured_normal","74","structured_normal,random,structured_load,structured_incentive","4,2,1,2,2,3","1,4,3,2","false","","",""
"null","","html-keyboard-response","158","134363","0.0-158.0","37TRT2X24RDJ0KL7I3BDRE0OJ6GJBZ","A3F5Z5S2AHMN2O","3GVPRXWRPHGYHD0HW29VLS36FVC7I4","","<img src=""img/set1/S4.jpg"" width=""540"" height = ""360"">","null","","","","","","","","","",""
"null","","html-keyboard-response","159","134569","0.0-159.0","37TRT2X24RDJ0KL7I3BDRE0OJ6GJBZ","A3F5Z5S2AHMN2O","3GVPRXWRPHGYHD0HW29VLS36FVC7I4","","","null","","","","","","","","","",""
"746.8000000002794","","image-keyboard-response","160","135317","0.0-160.0","37TRT2X24RDJ0KL7I3BDRE0OJ6GJBZ","A3F5Z5S2AHMN2O","3GVPRXWRPHGYHD0HW29VLS36FVC7I4","","img/set1/S2.jpg","68","2","structured_normal","68","structured_normal,random,structured_load,structured_incentive","4,2,1,2,2,3","1,4,3,2","true","","",""
"null","","html-keyboard-response","161","135672","0.0-161.0","37TRT2X24RDJ0KL7I3BDRE0OJ6GJBZ","A3F5Z5S2AHMN2O","3GVPRXWRPHGYHD0HW29VLS36FVC7I4","","<img src=""img/set1/S2.jpg"" width=""540"" height = ""360"" style=""border:16px solid orange"">","null","","","","","","","","","",""
"null","","html-keyboard-response","162","135873","0.0-162.0","37TRT2X24RDJ0KL7I3BDRE0OJ6GJBZ","A3F5Z5S2AHMN2O","3GVPRXWRPHGYHD0HW29VLS36FVC7I4","","","null","","","","","","","","","",""
"674.7999999998137","","image-keyboard-response","163","136550","0.0-163.0","37TRT2X24RDJ0KL7I3BDRE0OJ6GJBZ","A3F5Z5S2AHMN2O","3GVPRXWRPHGYHD0HW29VLS36FVC7I4","","img/set1/S1.jpg","83","1","structured_normal","83","structured_normal,random,structured_load,structured_incentive","4,2,1,2,2,3","1,4,3,2","true","","",""
"null","","html-keyboard-response","164","136906","0.0-164.0","37TRT2X24RDJ0KL7I3BDRE0OJ6GJBZ","A3F5Z5S2AHMN2O","3GVPRXWRPHGYHD0HW29VLS36FVC7I4","","<img src=""img/set1/S1.jpg"" width=""540"" height = ""360"" style=""border:16px solid orange"">","null","","","","","","","","","",""
"null","","html-keyboard-response","165","137108","0.0-165.0","37TRT2X24RDJ0KL7I3BDRE0OJ6GJBZ","A3F5Z5S2AHMN2O","3GVPRXWRPHGYHD0HW29VLS36FVC7I4","","","null","","","","","","","","","",""
"811","","image-keyboard-response","166","137920","0.0-166.0","37TRT2X24RDJ0KL7I3BDRE0OJ6GJBZ","A3F5Z5S2AHMN2O","3GVPRXWRPHGYHD0HW29VLS36FVC7I4","","img/set1/S4.jpg","74","4","structured_normal","74","structured_normal,random,structured_load,structured_incentive","4,2,1,2,2,3","1,4,3,2","true","","",""
"null","","html-keyboard-response","167","138277","0.0-167.0","37TRT2X24RDJ0KL7I3BDRE0OJ6GJBZ","A3F5Z5S2AHMN2O","3GVPRXWRPHGYHD0HW29VLS36FVC7I4","","<img src=""img/set1/S4.jpg"" width=""540"" height = ""360"" style=""border:16px solid orange"">","null","","","","","","","","","",""
"null","","html-keyboard-response","168","138484","0.0-168.0","37TRT2X24RDJ0KL7I3BDRE0OJ6GJBZ","A3F5Z5S2AHMN2O","3GVPRXWRPHGYHD0HW29VLS36FVC7I4","","","null","","","","","","","","","",""
"709.7999999998137","","image-keyboard-response","169","139195","0.0-169.0","37TRT2X24RDJ0KL7I3BDRE0OJ6GJBZ","A3F5Z5S2AHMN2O","3GVPRXWRPHGYHD0HW29VLS36FVC7I4","","img/set1/S2.jpg","68","2","structured_normal","68","structured_normal,random,structured_load,structured_incentive","4,2,1,2,2,3","1,4,3,2","true","","",""
"null","","html-keyboard-response","170","139548","0.0-170.0","37TRT2X24RDJ0KL7I3BDRE0OJ6GJBZ","A3F5Z5S2AHMN2O","3GVPRXWRPHGYHD0HW29VLS36FVC7I4","","<img src=""img/set1/S2.jpg"" width=""540"" height = ""360"" style=""border:16px solid orange"">","null","","","","","","","","","",""
"null","","html-keyboard-response","171","139750","0.0-171.0","37TRT2X24RDJ0KL7I3BDRE0OJ6GJBZ","A3F5Z5S2AHMN2O","3GVPRXWRPHGYHD0HW29VLS36FVC7I4","","","null","","","","","","","","","",""
"712.3999999999069","","image-keyboard-response","172","140464","0.0-172.0","37TRT2X24RDJ0KL7I3BDRE0OJ6GJBZ","A3F5Z5S2AHMN2O","3GVPRXWRPHGYHD0HW29VLS36FVC7I4","","img/set1/S1.jpg","83","1","structured_normal","83","structured_normal,random,structured_load,structured_incentive","4,2,1,2,2,3","1,4,3,2","true","","",""
"null","","html-keyboard-response","173","140821","0.0-173.0","37TRT2X24RDJ0KL7I3BDRE0OJ6GJBZ","A3F5Z5S2AHMN2O","3GVPRXWRPHGYHD0HW29VLS36FVC7I4","","<img src=""img/set1/S1.jpg"" width=""540"" height = ""360"" style=""border:16px solid orange"">","null","","","","","","","","","",""
"null","","html-keyboard-response","174","141027","0.0-174.0","37TRT2X24RDJ0KL7I3BDRE0OJ6GJBZ","A3F5Z5S2AHMN2O","3GVPRXWRPHGYHD0HW29VLS36FVC7I4","","","null","","","","","","","","","",""
"1693.8000000002794","","image-keyboard-response","175","142722","0.0-175.0","37TRT2X24RDJ0KL7I3BDRE0OJ6GJBZ","A3F5Z5S2AHMN2O","3GVPRXWRPHGYHD0HW29VLS36FVC7I4","","img/set1/S2.jpg","68","2","structured_normal","68","structured_normal,random,structured_load,structured_incentive","4,2,1,2,2,3","1,4,3,2","true","","",""
"null","","html-keyboard-response","176","143076","0.0-176.0","37TRT2X24RDJ0KL7I3BDRE0OJ6GJBZ","A3F5Z5S2AHMN2O","3GVPRXWRPHGYHD0HW29VLS36FVC7I4","","<img src=""img/set1/S2.jpg"" width=""540"" height = ""360"" style=""border:16px solid orange"">","null","","","","","","","","","",""
"null","","html-keyboard-response","177","143282","0.0-177.0","37TRT2X24RDJ0KL7I3BDRE0OJ6GJBZ","A3F5Z5S2AHMN2O","3GVPRXWRPHGYHD0HW29VLS36FVC7I4","","","null","","","","","","","","","",""
"776.7000000001863","","image-keyboard-response","178","144060","0.0-178.0","37TRT2X24RDJ0KL7I3BDRE0OJ6GJBZ","A3F5Z5S2AHMN2O","3GVPRXWRPHGYHD0HW29VLS36FVC7I4","","img/set1/S1.jpg","83","1","structured_normal","83","structured_normal,random,structured_load,structured_incentive","4,2,1,2,2,3","1,4,3,2","true","","",""
"null","","html-keyboard-response","179","144412","0.0-179.0","37TRT2X24RDJ0KL7I3BDRE0OJ6GJBZ","A3F5Z5S2AHMN2O","3GVPRXWRPHGYHD0HW29VLS36FVC7I4","","<img src=""img/set1/S1.jpg"" width=""540"" height = ""360"" style=""border:16px solid orange"">","null","","","","","","","","","",""
"null","","html-keyboard-response","180","144614","0.0-180.0","37TRT2X24RDJ0KL7I3BDRE0OJ6GJBZ","A3F5Z5S2AHMN2O","3GVPRXWRPHGYHD0HW29VLS36FVC7I4","","","null","","","","","","","","","",""
"645.8999999999069","","image-keyboard-response","181","145261","0.0-181.0","37TRT2X24RDJ0KL7I3BDRE0OJ6GJBZ","A3F5Z5S2AHMN2O","3GVPRXWRPHGYHD0HW29VLS36FVC7I4","","img/set1/S1.jpg","83","1","structured_normal","83","structured_normal,random,structured_load,structured_incentive","4,2,1,2,2,3","1,4,3,2","true","","",""
"null","","html-keyboard-response","182","145614","0.0-182.0","37TRT2X24RDJ0KL7I3BDRE0OJ6GJBZ","A3F5Z5S2AHMN2O","3GVPRXWRPHGYHD0HW29VLS36FVC7I4","","<img src=""img/set1/S1.jpg"" width=""540"" height = ""360"" style=""border:16px solid orange"">","null","","","","","","","","","",""
"null","","html-keyboard-response","183","145820","0.0-183.0","37TRT2X24RDJ0KL7I3BDRE0OJ6GJBZ","A3F5Z5S2AHMN2O","3GVPRXWRPHGYHD0HW29VLS36FVC7I4","","","null","","","","","","","","","",""
"574.0999999996275","","image-keyboard-response","184","146396","0.0-184.0","37TRT2X24RDJ0KL7I3BDRE0OJ6GJBZ","A3F5Z5S2AHMN2O","3GVPRXWRPHGYHD0HW29VLS36FVC7I4","","img/set1/S1.jpg","83","1","structured_normal","83","structured_normal,random,structured_load,structured_incentive","4,2,1,2,2,3","1,4,3,2","true","","",""
"null","","html-keyboard-response","185","146750","0.0-185.0","37TRT2X24RDJ0KL7I3BDRE0OJ6GJBZ","A3F5Z5S2AHMN2O","3GVPRXWRPHGYHD0HW29VLS36FVC7I4","","<img src=""img/set1/S1.jpg"" width=""540"" height = ""360"" style=""border:16px solid orange"">","null","","","","","","","","","",""
"null","","html-keyboard-response","186","146957","0.0-186.0","37TRT2X24RDJ0KL7I3BDRE0OJ6GJBZ","A3F5Z5S2AHMN2O","3GVPRXWRPHGYHD0HW29VLS36FVC7I4","","","null","","","","","","","","","",""
"463.29999999981374","","image-keyboard-response","187","147422","0.0-187.0","37TRT2X24RDJ0KL7I3BDRE0OJ6GJBZ","A3F5Z5S2AHMN2O","3GVPRXWRPHGYHD0HW29VLS36FVC7I4","","img/set1/S1.jpg","83","1","structured_normal","83","structured_normal,random,structured_load,structured_incentive","4,2,1,2,2,3","1,4,3,2","true","","",""
"null","","html-keyboard-response","188","147779","0.0-188.0","37TRT2X24RDJ0KL7I3BDRE0OJ6GJBZ","A3F5Z5S2AHMN2O","3GVPRXWRPHGYHD0HW29VLS36FVC7I4","","<img src=""img/set1/S1.jpg"" width=""540"" height = ""360"" style=""border:16px solid orange"">","null","","","","","","","","","",""
"null","","html-keyboard-response","189","147985","0.0-189.0","37TRT2X24RDJ0KL7I3BDRE0OJ6GJBZ","A3F5Z5S2AHMN2O","3GVPRXWRPHGYHD0HW29VLS36FVC7I4","","","null","","","","","","","","","",""
"1228.1000000000931","","image-keyboard-response","190","149215","0.0-190.0","37TRT2X24RDJ0KL7I3BDRE0OJ6GJBZ","A3F5Z5S2AHMN2O","3GVPRXWRPHGYHD0HW29VLS36FVC7I4","","img/set1/S3.jpg","72","3","structured_normal","72","structured_normal,random,structured_load,structured_incentive","4,2,1,2,2,3","1,4,3,2","true","","",""
"null","","html-keyboard-response","191","149568","0.0-191.0","37TRT2X24RDJ0KL7I3BDRE0OJ6GJBZ","A3F5Z5S2AHMN2O","3GVPRXWRPHGYHD0HW29VLS36FVC7I4","","<img src=""img/set1/S3.jpg"" width=""540"" height = ""360"" style=""border:16px solid orange"">","null","","","","","","","","","",""
"null","","html-keyboard-response","192","149770","0.0-192.0","37TRT2X24RDJ0KL7I3BDRE0OJ6GJBZ","A3F5Z5S2AHMN2O","3GVPRXWRPHGYHD0HW29VLS36FVC7I4","","","null","","","","","","","","","",""
"408.79999999981374","","image-keyboard-response","193","150180","0.0-193.0","37TRT2X24RDJ0KL7I3BDRE0OJ6GJBZ","A3F5Z5S2AHMN2O","3GVPRXWRPHGYHD0HW29VLS36FVC7I4","","img/set1/S3.jpg","72","3","structured_normal","72","structured_normal,random,structured_load,structured_incentive","4,2,1,2,2,3","1,4,3,2","true","","",""
"null","","html-keyboard-response","194","150537","0.0-194.0","37TRT2X24RDJ0KL7I3BDRE0OJ6GJBZ","A3F5Z5S2AHMN2O","3GVPRXWRPHGYHD0HW29VLS36FVC7I4","","<img src=""img/set1/S3.jpg"" width=""540"" height = ""360"" style=""border:16px solid orange"">","null","","","","","","","","","",""
"null","","html-keyboard-response","195","150744","0.0-195.0","37TRT2X24RDJ0KL7I3BDRE0OJ6GJBZ","A3F5Z5S2AHMN2O","3GVPRXWRPHGYHD0HW29VLS36FVC7I4","","","null","","","","","","","","","",""
"792.6999999997206","","image-keyboard-response","196","151538","0.0-196.0","37TRT2X24RDJ0KL7I3BDRE0OJ6GJBZ","A3F5Z5S2AHMN2O","3GVPRXWRPHGYHD0HW29VLS36FVC7I4","","img/set1/S4.jpg","74","4","structured_normal","74","structured_normal,random,structured_load,structured_incentive","4,2,1,2,2,3","1,4,3,2","true","","",""
"null","","html-keyboard-response","197","151894","0.0-197.0","37TRT2X24RDJ0KL7I3BDRE0OJ6GJBZ","A3F5Z5S2AHMN2O","3GVPRXWRPHGYHD0HW29VLS36FVC7I4","","<img src=""img/set1/S4.jpg"" width=""540"" height = ""360"" style=""border:16px solid orange"">","null","","","","","","","","","",""
"null","","html-keyboard-response","198","152100","0.0-198.0","37TRT2X24RDJ0KL7I3BDRE0OJ6GJBZ","A3F5Z5S2AHMN2O","3GVPRXWRPHGYHD0HW29VLS36FVC7I4","","","null","","","","","","","","","",""
"642.2000000001863","","image-keyboard-response","199","152744","0.0-199.0","37TRT2X24RDJ0KL7I3BDRE0OJ6GJBZ","A3F5Z5S2AHMN2O","3GVPRXWRPHGYHD0HW29VLS36FVC7I4","","img/set1/S2.jpg","68","2","structured_normal","68","structured_normal,random,structured_load,structured_incentive","4,2,1,2,2,3","1,4,3,2","true","","",""
"null","","html-keyboard-response","200","153100","0.0-200.0","37TRT2X24RDJ0KL7I3BDRE0OJ6GJBZ","A3F5Z5S2AHMN2O","3GVPRXWRPHGYHD0HW29VLS36FVC7I4","","<img src=""img/set1/S2.jpg"" width=""540"" height = ""360"" style=""border:16px solid orange"">","null","","","","","","","","","",""
"null","","html-keyboard-response","201","153307","0.0-201.0","37TRT2X24RDJ0KL7I3BDRE0OJ6GJBZ","A3F5Z5S2AHMN2O","3GVPRXWRPHGYHD0HW29VLS36FVC7I4","","","null","","","","","","","","","",""
"1296.8999999999069","","image-keyboard-response","202","154605","0.0-202.0","37TRT2X24RDJ0KL7I3BDRE0OJ6GJBZ","A3F5Z5S2AHMN2O","3GVPRXWRPHGYHD0HW29VLS36FVC7I4","","img/set1/S3.jpg","72","3","structured_normal","72","structured_normal,random,structured_load,structured_incentive","4,2,1,2,2,3","1,4,3,2","true","","",""
"null","","html-keyboard-response","203","154962","0.0-203.0","37TRT2X24RDJ0KL7I3BDRE0OJ6GJBZ","A3F5Z5S2AHMN2O","3GVPRXWRPHGYHD0HW29VLS36FVC7I4","","<img src=""img/set1/S3.jpg"" width=""540"" height = ""360"" style=""border:16px solid orange"">","null","","","","","","","","","",""
"null","","html-keyboard-response","204","155163","0.0-204.0","37TRT2X24RDJ0KL7I3BDRE0OJ6GJBZ","A3F5Z5S2AHMN2O","3GVPRXWRPHGYHD0HW29VLS36FVC7I4","","","null","","","","","","","","","",""
"607.6000000000931","","image-keyboard-response","205","155772","0.0-205.0","37TRT2X24RDJ0KL7I3BDRE0OJ6GJBZ","A3F5Z5S2AHMN2O","3GVPRXWRPHGYHD0HW29VLS36FVC7I4","","img/set1/S1.jpg","83","1","structured_normal","83","structured_normal,random,structured_load,structured_incentive","4,2,1,2,2,3","1,4,3,2","true","","",""
"null","","html-keyboard-response","206","156127","0.0-206.0","37TRT2X24RDJ0KL7I3BDRE0OJ6GJBZ","A3F5Z5S2AHMN2O","3GVPRXWRPHGYHD0HW29VLS36FVC7I4","","<img src=""img/set1/S1.jpg"" width=""540"" height = ""360"" style=""border:16px solid orange"">","null","","","","","","","","","",""
"null","","html-keyboard-response","207","156330","0.0-207.0","37TRT2X24RDJ0KL7I3BDRE0OJ6GJBZ","A3F5Z5S2AHMN2O","3GVPRXWRPHGYHD0HW29VLS36FVC7I4","","","null","","","","","","","","","",""
"664.2999999998137","","image-keyboard-response","208","156996","0.0-208.0","37TRT2X24RDJ0KL7I3BDRE0OJ6GJBZ","A3F5Z5S2AHMN2O","3GVPRXWRPHGYHD0HW29VLS36FVC7I4","","img/set1/S3.jpg","72","3","structured_normal","72","structured_normal,random,structured_load,structured_incentive","4,2,1,2,2,3","1,4,3,2","true","","",""
"null","","html-keyboard-response","209","157351","0.0-209.0","37TRT2X24RDJ0KL7I3BDRE0OJ6GJBZ","A3F5Z5S2AHMN2O","3GVPRXWRPHGYHD0HW29VLS36FVC7I4","","<img src=""img/set1/S3.jpg"" width=""540"" height = ""360"" style=""border:16px solid orange"">","null","","","","","","","","","",""
"null","","html-keyboard-response","210","157554","0.0-210.0","37TRT2X24RDJ0KL7I3BDRE0OJ6GJBZ","A3F5Z5S2AHMN2O","3GVPRXWRPHGYHD0HW29VLS36FVC7I4","","","null","","","","","","","","","",""
"1197.7999999998137","","image-keyboard-response","211","158753","0.0-211.0","37TRT2X24RDJ0KL7I3BDRE0OJ6GJBZ","A3F5Z5S2AHMN2O","3GVPRXWRPHGYHD0HW29VLS36FVC7I4","","img/set1/S4.jpg","74","4","structured_normal","74","structured_normal,random,structured_load,structured_incentive","4,2,1,2,2,3","1,4,3,2","true","","",""
"null","","html-keyboard-response","212","159110","0.0-212.0","37TRT2X24RDJ0KL7I3BDRE0OJ6GJBZ","A3F5Z5S2AHMN2O","3GVPRXWRPHGYHD0HW29VLS36FVC7I4","","<img src=""img/set1/S4.jpg"" width=""540"" height = ""360"" style=""border:16px solid orange"">","null","","","","","","","","","",""
"null","","html-keyboard-response","213","159313","0.0-213.0","37TRT2X24RDJ0KL7I3BDRE0OJ6GJBZ","A3F5Z5S2AHMN2O","3GVPRXWRPHGYHD0HW29VLS36FVC7I4","","","null","","","","","","","","","",""
"684.1000000000931","","image-keyboard-response","214","159998","0.0-214.0","37TRT2X24RDJ0KL7I3BDRE0OJ6GJBZ","A3F5Z5S2AHMN2O","3GVPRXWRPHGYHD0HW29VLS36FVC7I4","","img/set1/S2.jpg","68","2","structured_normal","68","structured_normal,random,structured_load,structured_incentive","4,2,1,2,2,3","1,4,3,2","true","","",""
"null","","html-keyboard-response","215","160352","0.0-215.0","37TRT2X24RDJ0KL7I3BDRE0OJ6GJBZ","A3F5Z5S2AHMN2O","3GVPRXWRPHGYHD0HW29VLS36FVC7I4","","<img src=""img/set1/S2.jpg"" width=""540"" height = ""360"" style=""border:16px solid orange"">","null","","","","","","","","","",""
"null","","html-keyboard-response","216","160555","0.0-216.0","37TRT2X24RDJ0KL7I3BDRE0OJ6GJBZ","A3F5Z5S2AHMN2O","3GVPRXWRPHGYHD0HW29VLS36FVC7I4","","","null","","","","","","","","","",""
"666.1000000000931","","image-keyboard-response","217","161222","0.0-217.0","37TRT2X24RDJ0KL7I3BDRE0OJ6GJBZ","A3F5Z5S2AHMN2O","3GVPRXWRPHGYHD0HW29VLS36FVC7I4","","img/set1/S1.jpg","83","1","structured_normal","83","structured_normal,random,structured_load,structured_incentive","4,2,1,2,2,3","1,4,3,2","true","","",""
"null","","html-keyboard-response","218","161579","0.0-218.0","37TRT2X24RDJ0KL7I3BDRE0OJ6GJBZ","A3F5Z5S2AHMN2O","3GVPRXWRPHGYHD0HW29VLS36FVC7I4","","<img src=""img/set1/S1.jpg"" width=""540"" height = ""360"" style=""border:16px solid orange"">","null","","","","","","","","","",""
"null","","html-keyboard-response","219","161781","0.0-219.0","37TRT2X24RDJ0KL7I3BDRE0OJ6GJBZ","A3F5Z5S2AHMN2O","3GVPRXWRPHGYHD0HW29VLS36FVC7I4","","","null","","","","","","","","","",""
"413.20000000018626","","image-keyboard-response","220","162196","0.0-220.0","37TRT2X24RDJ0KL7I3BDRE0OJ6GJBZ","A3F5Z5S2AHMN2O","3GVPRXWRPHGYHD0HW29VLS36FVC7I4","","img/set1/S1.jpg","83","1","structured_normal","83","structured_normal,random,structured_load,structured_incentive","4,2,1,2,2,3","1,4,3,2","true","","",""
"null","","html-keyboard-response","221","162551","0.0-221.0","37TRT2X24RDJ0KL7I3BDRE0OJ6GJBZ","A3F5Z5S2AHMN2O","3GVPRXWRPHGYHD0HW29VLS36FVC7I4","","<img src=""img/set1/S1.jpg"" width=""540"" height = ""360"" style=""border:16px solid orange"">","null","","","","","","","","","",""
"null","","html-keyboard-response","222","162752","0.0-222.0","37TRT2X24RDJ0KL7I3BDRE0OJ6GJBZ","A3F5Z5S2AHMN2O","3GVPRXWRPHGYHD0HW29VLS36FVC7I4","","","null","","","","","","","","","",""
"447.5","","image-keyboard-response","223","163201","0.0-223.0","37TRT2X24RDJ0KL7I3BDRE0OJ6GJBZ","A3F5Z5S2AHMN2O","3GVPRXWRPHGYHD0HW29VLS36FVC7I4","","img/set1/S1.jpg","83","1","structured_normal","83","structured_normal,random,structured_load,structured_incentive","4,2,1,2,2,3","1,4,3,2","true","","",""
"null","","html-keyboard-response","224","163557","0.0-224.0","37TRT2X24RDJ0KL7I3BDRE0OJ6GJBZ","A3F5Z5S2AHMN2O","3GVPRXWRPHGYHD0HW29VLS36FVC7I4","","<img src=""img/set1/S1.jpg"" width=""540"" height = ""360"" style=""border:16px solid orange"">","null","","","","","","","","","",""
"null","","html-keyboard-response","225","163763","0.0-225.0","37TRT2X24RDJ0KL7I3BDRE0OJ6GJBZ","A3F5Z5S2AHMN2O","3GVPRXWRPHGYHD0HW29VLS36FVC7I4","","","null","","","","","","","","","",""
"440.89999999990687","","image-keyboard-response","226","164206","0.0-226.0","37TRT2X24RDJ0KL7I3BDRE0OJ6GJBZ","A3F5Z5S2AHMN2O","3GVPRXWRPHGYHD0HW29VLS36FVC7I4","","img/set1/S1.jpg","83","1","structured_normal","83","structured_normal,random,structured_load,structured_incentive","4,2,1,2,2,3","1,4,3,2","true","","",""
"null","","html-keyboard-response","227","164562","0.0-227.0","37TRT2X24RDJ0KL7I3BDRE0OJ6GJBZ","A3F5Z5S2AHMN2O","3GVPRXWRPHGYHD0HW29VLS36FVC7I4","","<img src=""img/set1/S1.jpg"" width=""540"" height = ""360"" style=""border:16px solid orange"">","null","","","","","","","","","",""
"null","","html-keyboard-response","228","164768","0.0-228.0","37TRT2X24RDJ0KL7I3BDRE0OJ6GJBZ","A3F5Z5S2AHMN2O","3GVPRXWRPHGYHD0HW29VLS36FVC7I4","","","null","","","","","","","","","",""
"877.2999999998137","","image-keyboard-response","229","165647","0.0-229.0","37TRT2X24RDJ0KL7I3BDRE0OJ6GJBZ","A3F5Z5S2AHMN2O","3GVPRXWRPHGYHD0HW29VLS36FVC7I4","","img/set1/S3.jpg","72","3","structured_normal","72","structured_normal,random,structured_load,structured_incentive","4,2,1,2,2,3","1,4,3,2","true","","",""
"null","","html-keyboard-response","230","166001","0.0-230.0","37TRT2X24RDJ0KL7I3BDRE0OJ6GJBZ","A3F5Z5S2AHMN2O","3GVPRXWRPHGYHD0HW29VLS36FVC7I4","","<img src=""img/set1/S3.jpg"" width=""540"" height = ""360"" style=""border:16px solid orange"">","null","","","","","","","","","",""
"null","","html-keyboard-response","231","166207","0.0-231.0","37TRT2X24RDJ0KL7I3BDRE0OJ6GJBZ","A3F5Z5S2AHMN2O","3GVPRXWRPHGYHD0HW29VLS36FVC7I4","","","null","","","","","","","","","",""
"434.60000000009313","","image-keyboard-response","232","166645","0.0-232.0","37TRT2X24RDJ0KL7I3BDRE0OJ6GJBZ","A3F5Z5S2AHMN2O","3GVPRXWRPHGYHD0HW29VLS36FVC7I4","","img/set1/S3.jpg","72","3","structured_normal","72","structured_normal,random,structured_load,structured_incentive","4,2,1,2,2,3","1,4,3,2","true","","",""
"null","","html-keyboard-response","233","167001","0.0-233.0","37TRT2X24RDJ0KL7I3BDRE0OJ6GJBZ","A3F5Z5S2AHMN2O","3GVPRXWRPHGYHD0HW29VLS36FVC7I4","","<img src=""img/set1/S3.jpg"" width=""540"" height = ""360"" style=""border:16px solid orange"">","null","","","","","","","","","",""
"null","","html-keyboard-response","234","167207","0.0-234.0","37TRT2X24RDJ0KL7I3BDRE0OJ6GJBZ","A3F5Z5S2AHMN2O","3GVPRXWRPHGYHD0HW29VLS36FVC7I4","","","null","","","","","","","","","",""
"718.1000000000931","","image-keyboard-response","235","167926","0.0-235.0","37TRT2X24RDJ0KL7I3BDRE0OJ6GJBZ","A3F5Z5S2AHMN2O","3GVPRXWRPHGYHD0HW29VLS36FVC7I4","","img/set1/S4.jpg","74","4","structured_normal","74","structured_normal,random,structured_load,structured_incentive","4,2,1,2,2,3","1,4,3,2","true","","",""
"null","","html-keyboard-response","236","168279","0.0-236.0","37TRT2X24RDJ0KL7I3BDRE0OJ6GJBZ","A3F5Z5S2AHMN2O","3GVPRXWRPHGYHD0HW29VLS36FVC7I4","","<img src=""img/set1/S4.jpg"" width=""540"" height = ""360"" style=""border:16px solid orange"">","null","","","","","","","","","",""
"null","","html-keyboard-response","237","168486","0.0-237.0","37TRT2X24RDJ0KL7I3BDRE0OJ6GJBZ","A3F5Z5S2AHMN2O","3GVPRXWRPHGYHD0HW29VLS36FVC7I4","","","null","","","","","","","","","",""
"593.7000000001863","","image-keyboard-response","238","169081","0.0-238.0","37TRT2X24RDJ0KL7I3BDRE0OJ6GJBZ","A3F5Z5S2AHMN2O","3GVPRXWRPHGYHD0HW29VLS36FVC7I4","","img/set1/S2.jpg","68","2","structured_normal","68","structured_normal,random,structured_load,structured_incentive","4,2,1,2,2,3","1,4,3,2","true","","",""
"null","","html-keyboard-response","239","169438","0.0-239.0","37TRT2X24RDJ0KL7I3BDRE0OJ6GJBZ","A3F5Z5S2AHMN2O","3GVPRXWRPHGYHD0HW29VLS36FVC7I4","","<img src=""img/set1/S2.jpg"" width=""540"" height = ""360"" style=""border:16px solid orange"">","null","","","","","","","","","",""
"null","","html-keyboard-response","240","169644","0.0-240.0","37TRT2X24RDJ0KL7I3BDRE0OJ6GJBZ","A3F5Z5S2AHMN2O","3GVPRXWRPHGYHD0HW29VLS36FVC7I4","","","null","","","","","","","","","",""
"626.5","","image-keyboard-response","241","170272","0.0-241.0","37TRT2X24RDJ0KL7I3BDRE0OJ6GJBZ","A3F5Z5S2AHMN2O","3GVPRXWRPHGYHD0HW29VLS36FVC7I4","","img/set1/S3.jpg","74","3","structured_normal","72","structured_normal,random,structured_load,structured_incentive","4,2,1,2,2,3","1,4,3,2","false","","",""
"null","","html-keyboard-response","242","170624","0.0-242.0","37TRT2X24RDJ0KL7I3BDRE0OJ6GJBZ","A3F5Z5S2AHMN2O","3GVPRXWRPHGYHD0HW29VLS36FVC7I4","","<img src=""img/set1/S3.jpg"" width=""540"" height = ""360"">","null","","","","","","","","","",""
"null","","html-keyboard-response","243","170831","0.0-243.0","37TRT2X24RDJ0KL7I3BDRE0OJ6GJBZ","A3F5Z5S2AHMN2O","3GVPRXWRPHGYHD0HW29VLS36FVC7I4","","","null","","","","","","","","","",""
"485.60000000009313","","image-keyboard-response","244","171318","0.0-244.0","37TRT2X24RDJ0KL7I3BDRE0OJ6GJBZ","A3F5Z5S2AHMN2O","3GVPRXWRPHGYHD0HW29VLS36FVC7I4","","img/set1/S3.jpg","72","3","structured_normal","72","structured_normal,random,structured_load,structured_incentive","4,2,1,2,2,3","1,4,3,2","true","","",""
"null","","html-keyboard-response","245","171670","0.0-245.0","37TRT2X24RDJ0KL7I3BDRE0OJ6GJBZ","A3F5Z5S2AHMN2O","3GVPRXWRPHGYHD0HW29VLS36FVC7I4","","<img src=""img/set1/S3.jpg"" width=""540"" height = ""360"" style=""border:16px solid orange"">","null","","","","","","","","","",""
"null","","html-keyboard-response","246","171876","0.0-246.0","37TRT2X24RDJ0KL7I3BDRE0OJ6GJBZ","A3F5Z5S2AHMN2O","3GVPRXWRPHGYHD0HW29VLS36FVC7I4","","","null","","","","","","","","","",""
"741.2000000001863","","image-keyboard-response","247","172619","0.0-247.0","37TRT2X24RDJ0KL7I3BDRE0OJ6GJBZ","A3F5Z5S2AHMN2O","3GVPRXWRPHGYHD0HW29VLS36FVC7I4","","img/set1/S1.jpg","83","1","structured_normal","83","structured_normal,random,structured_load,structured_incentive","4,2,1,2,2,3","1,4,3,2","true","","",""
"null","","html-keyboard-response","248","172975","0.0-248.0","37TRT2X24RDJ0KL7I3BDRE0OJ6GJBZ","A3F5Z5S2AHMN2O","3GVPRXWRPHGYHD0HW29VLS36FVC7I4","","<img src=""img/set1/S1.jpg"" width=""540"" height = ""360"" style=""border:16px solid orange"">","null","","","","","","","","","",""
"null","","html-keyboard-response","249","173180","0.0-249.0","37TRT2X24RDJ0KL7I3BDRE0OJ6GJBZ","A3F5Z5S2AHMN2O","3GVPRXWRPHGYHD0HW29VLS36FVC7I4","","","null","","","","","","","","","",""
"1147.3999999999069","","image-keyboard-response","250","174329","0.0-250.0","37TRT2X24RDJ0KL7I3BDRE0OJ6GJBZ","A3F5Z5S2AHMN2O","3GVPRXWRPHGYHD0HW29VLS36FVC7I4","","img/set1/S4.jpg","74","4","structured_normal","74","structured_normal,random,structured_load,structured_incentive","4,2,1,2,2,3","1,4,3,2","true","","",""
"null","","html-keyboard-response","251","174682","0.0-251.0","37TRT2X24RDJ0KL7I3BDRE0OJ6GJBZ","A3F5Z5S2AHMN2O","3GVPRXWRPHGYHD0HW29VLS36FVC7I4","","<img src=""img/set1/S4.jpg"" width=""540"" height = ""360"" style=""border:16px solid orange"">","null","","","","","","","","","",""
"null","","html-keyboard-response","252","174888","0.0-252.0","37TRT2X24RDJ0KL7I3BDRE0OJ6GJBZ","A3F5Z5S2AHMN2O","3GVPRXWRPHGYHD0HW29VLS36FVC7I4","","","null","","","","","","","","","",""
"720.1999999997206","","image-keyboard-response","253","175610","0.0-253.0","37TRT2X24RDJ0KL7I3BDRE0OJ6GJBZ","A3F5Z5S2AHMN2O","3GVPRXWRPHGYHD0HW29VLS36FVC7I4","","img/set1/S2.jpg","68","2","structured_normal","68","structured_normal,random,structured_load,structured_incentive","4,2,1,2,2,3","1,4,3,2","true","","",""
"null","","html-keyboard-response","254","175962","0.0-254.0","37TRT2X24RDJ0KL7I3BDRE0OJ6GJBZ","A3F5Z5S2AHMN2O","3GVPRXWRPHGYHD0HW29VLS36FVC7I4","","<img src=""img/set1/S2.jpg"" width=""540"" height = ""360"" style=""border:16px solid orange"">","null","","","","","","","","","",""
"null","","html-keyboard-response","255","176168","0.0-255.0","37TRT2X24RDJ0KL7I3BDRE0OJ6GJBZ","A3F5Z5S2AHMN2O","3GVPRXWRPHGYHD0HW29VLS36FVC7I4","","","null","","","","","","","","","",""
"735.7000000001863","","image-keyboard-response","256","176905","0.0-256.0","37TRT2X24RDJ0KL7I3BDRE0OJ6GJBZ","A3F5Z5S2AHMN2O","3GVPRXWRPHGYHD0HW29VLS36FVC7I4","","img/set1/S4.jpg","74","4","structured_normal","74","structured_normal,random,structured_load,structured_incentive","4,2,1,2,2,3","1,4,3,2","true","","",""
"null","","html-keyboard-response","257","177259","0.0-257.0","37TRT2X24RDJ0KL7I3BDRE0OJ6GJBZ","A3F5Z5S2AHMN2O","3GVPRXWRPHGYHD0HW29VLS36FVC7I4","","<img src=""img/set1/S4.jpg"" width=""540"" height = ""360"" style=""border:16px solid orange"">","null","","","","","","","","","",""
"null","","html-keyboard-response","258","177463","0.0-258.0","37TRT2X24RDJ0KL7I3BDRE0OJ6GJBZ","A3F5Z5S2AHMN2O","3GVPRXWRPHGYHD0HW29VLS36FVC7I4","","","null","","","","","","","","","",""
"752.8999999999069","","image-keyboard-response","259","178218","0.0-259.0","37TRT2X24RDJ0KL7I3BDRE0OJ6GJBZ","A3F5Z5S2AHMN2O","3GVPRXWRPHGYHD0HW29VLS36FVC7I4","","img/set1/S2.jpg","68","2","structured_normal","68","structured_normal,random,structured_load,structured_incentive","4,2,1,2,2,3","1,4,3,2","true","","",""
"null","","html-keyboard-response","260","178575","0.0-260.0","37TRT2X24RDJ0KL7I3BDRE0OJ6GJBZ","A3F5Z5S2AHMN2O","3GVPRXWRPHGYHD0HW29VLS36FVC7I4","","<img src=""img/set1/S2.jpg"" width=""540"" height = ""360"" style=""border:16px solid orange"">","null","","","","","","","","","",""
"null","","html-keyboard-response","261","178777","0.0-261.0","37TRT2X24RDJ0KL7I3BDRE0OJ6GJBZ","A3F5Z5S2AHMN2O","3GVPRXWRPHGYHD0HW29VLS36FVC7I4","","","null","","","","","","","","","",""
"925","","image-keyboard-response","262","179704","0.0-262.0","37TRT2X24RDJ0KL7I3BDRE0OJ6GJBZ","A3F5Z5S2AHMN2O","3GVPRXWRPHGYHD0HW29VLS36FVC7I4","","img/set1/S3.jpg","72","3","structured_normal","72","structured_normal,random,structured_load,structured_incentive","4,2,1,2,2,3","1,4,3,2","true","","",""
"null","","html-keyboard-response","263","180057","0.0-263.0","37TRT2X24RDJ0KL7I3BDRE0OJ6GJBZ","A3F5Z5S2AHMN2O","3GVPRXWRPHGYHD0HW29VLS36FVC7I4","","<img src=""img/set1/S3.jpg"" width=""540"" height = ""360"" style=""border:16px solid orange"">","null","","","","","","","","","",""
"null","","html-keyboard-response","264","180263","0.0-264.0","37TRT2X24RDJ0KL7I3BDRE0OJ6GJBZ","A3F5Z5S2AHMN2O","3GVPRXWRPHGYHD0HW29VLS36FVC7I4","","","null","","","","","","","","","",""
"525.1000000000931","","image-keyboard-response","265","180790","0.0-265.0","37TRT2X24RDJ0KL7I3BDRE0OJ6GJBZ","A3F5Z5S2AHMN2O","3GVPRXWRPHGYHD0HW29VLS36FVC7I4","","img/set1/S1.jpg","83","1","structured_normal","83","structured_normal,random,structured_load,structured_incentive","4,2,1,2,2,3","1,4,3,2","true","","",""
"null","","html-keyboard-response","266","181143","0.0-266.0","37TRT2X24RDJ0KL7I3BDRE0OJ6GJBZ","A3F5Z5S2AHMN2O","3GVPRXWRPHGYHD0HW29VLS36FVC7I4","","<img src=""img/set1/S1.jpg"" width=""540"" height = ""360"" style=""border:16px solid orange"">","null","","","","","","","","","",""
"null","","html-keyboard-response","267","181344","0.0-267.0","37TRT2X24RDJ0KL7I3BDRE0OJ6GJBZ","A3F5Z5S2AHMN2O","3GVPRXWRPHGYHD0HW29VLS36FVC7I4","","","null","","","","","","","","","",""
"604","","image-keyboard-response","268","181950","0.0-268.0","37TRT2X24RDJ0KL7I3BDRE0OJ6GJBZ","A3F5Z5S2AHMN2O","3GVPRXWRPHGYHD0HW29VLS36FVC7I4","","img/set1/S1.jpg","83","1","structured_normal","83","structured_normal,random,structured_load,structured_incentive","4,2,1,2,2,3","1,4,3,2","true","","",""
"null","","html-keyboard-response","269","182304","0.0-269.0","37TRT2X24RDJ0KL7I3BDRE0OJ6GJBZ","A3F5Z5S2AHMN2O","3GVPRXWRPHGYHD0HW29VLS36FVC7I4","","<img src=""img/set1/S1.jpg"" width=""540"" height = ""360"" style=""border:16px solid orange"">","null","","","","","","","","","",""
"null","","html-keyboard-response","270","182510","0.0-270.0","37TRT2X24RDJ0KL7I3BDRE0OJ6GJBZ","A3F5Z5S2AHMN2O","3GVPRXWRPHGYHD0HW29VLS36FVC7I4","","","null","","","","","","","","","",""
"613","","image-keyboard-response","271","183124","0.0-271.0","37TRT2X24RDJ0KL7I3BDRE0OJ6GJBZ","A3F5Z5S2AHMN2O","3GVPRXWRPHGYHD0HW29VLS36FVC7I4","","img/set1/S1.jpg","83","1","structured_normal","83","structured_normal,random,structured_load,structured_incentive","4,2,1,2,2,3","1,4,3,2","true","","",""
"null","","html-keyboard-response","272","183482","0.0-272.0","37TRT2X24RDJ0KL7I3BDRE0OJ6GJBZ","A3F5Z5S2AHMN2O","3GVPRXWRPHGYHD0HW29VLS36FVC7I4","","<img src=""img/set1/S1.jpg"" width=""540"" height = ""360"" style=""border:16px solid orange"">","null","","","","","","","","","",""
"null","","html-keyboard-response","273","183683","0.0-273.0","37TRT2X24RDJ0KL7I3BDRE0OJ6GJBZ","A3F5Z5S2AHMN2O","3GVPRXWRPHGYHD0HW29VLS36FVC7I4","","","null","","","","","","","","","",""
"409","","image-keyboard-response","274","184094","0.0-274.0","37TRT2X24RDJ0KL7I3BDRE0OJ6GJBZ","A3F5Z5S2AHMN2O","3GVPRXWRPHGYHD0HW29VLS36FVC7I4","","img/set1/S3.jpg","83","3","structured_normal","72","structured_normal,random,structured_load,structured_incentive","4,2,1,2,2,3","1,4,3,2","false","","",""
"null","","html-keyboard-response","275","184449","0.0-275.0","37TRT2X24RDJ0KL7I3BDRE0OJ6GJBZ","A3F5Z5S2AHMN2O","3GVPRXWRPHGYHD0HW29VLS36FVC7I4","","<img src=""img/set1/S3.jpg"" width=""540"" height = ""360"">","null","","","","","","","","","",""
"null","","html-keyboard-response","276","184651","0.0-276.0","37TRT2X24RDJ0KL7I3BDRE0OJ6GJBZ","A3F5Z5S2AHMN2O","3GVPRXWRPHGYHD0HW29VLS36FVC7I4","","","null","","","","","","","","","",""
"987.6999999997206","","image-keyboard-response","277","185641","0.0-277.0","37TRT2X24RDJ0KL7I3BDRE0OJ6GJBZ","A3F5Z5S2AHMN2O","3GVPRXWRPHGYHD0HW29VLS36FVC7I4","","img/set1/S3.jpg","72","3","structured_normal","72","structured_normal,random,structured_load,structured_incentive","4,2,1,2,2,3","1,4,3,2","true","","",""
"null","","html-keyboard-response","278","185998","0.0-278.0","37TRT2X24RDJ0KL7I3BDRE0OJ6GJBZ","A3F5Z5S2AHMN2O","3GVPRXWRPHGYHD0HW29VLS36FVC7I4","","<img src=""img/set1/S3.jpg"" width=""540"" height = ""360"" style=""border:16px solid orange"">","null","","","","","","","","","",""
"null","","html-keyboard-response","279","186201","0.0-279.0","37TRT2X24RDJ0KL7I3BDRE0OJ6GJBZ","A3F5Z5S2AHMN2O","3GVPRXWRPHGYHD0HW29VLS36FVC7I4","","","null","","","","","","","","","",""
"731.8999999999069","","image-keyboard-response","280","186935","0.0-280.0","37TRT2X24RDJ0KL7I3BDRE0OJ6GJBZ","A3F5Z5S2AHMN2O","3GVPRXWRPHGYHD0HW29VLS36FVC7I4","","img/set1/S4.jpg","74","4","structured_normal","74","structured_normal,random,structured_load,structured_incentive","4,2,1,2,2,3","1,4,3,2","true","","",""
"null","","html-keyboard-response","281","187292","0.0-281.0","37TRT2X24RDJ0KL7I3BDRE0OJ6GJBZ","A3F5Z5S2AHMN2O","3GVPRXWRPHGYHD0HW29VLS36FVC7I4","","<img src=""img/set1/S4.jpg"" width=""540"" height = ""360"" style=""border:16px solid orange"">","null","","","","","","","","","",""
"null","","html-keyboard-response","282","187498","0.0-282.0","37TRT2X24RDJ0KL7I3BDRE0OJ6GJBZ","A3F5Z5S2AHMN2O","3GVPRXWRPHGYHD0HW29VLS36FVC7I4","","","null","","","","","","","","","",""
"540.2999999998137","","image-keyboard-response","283","188039","0.0-283.0","37TRT2X24RDJ0KL7I3BDRE0OJ6GJBZ","A3F5Z5S2AHMN2O","3GVPRXWRPHGYHD0HW29VLS36FVC7I4","","img/set1/S2.jpg","68","2","structured_normal","68","structured_normal,random,structured_load,structured_incentive","4,2,1,2,2,3","1,4,3,2","true","","",""
"null","","html-keyboard-response","284","188393","0.0-284.0","37TRT2X24RDJ0KL7I3BDRE0OJ6GJBZ","A3F5Z5S2AHMN2O","3GVPRXWRPHGYHD0HW29VLS36FVC7I4","","<img src=""img/set1/S2.jpg"" width=""540"" height = ""360"" style=""border:16px solid orange"">","null","","","","","","","","","",""
"null","","html-keyboard-response","285","188599","0.0-285.0","37TRT2X24RDJ0KL7I3BDRE0OJ6GJBZ","A3F5Z5S2AHMN2O","3GVPRXWRPHGYHD0HW29VLS36FVC7I4","","","null","","","","","","","","","",""
"644","","image-keyboard-response","286","189245","0.0-286.0","37TRT2X24RDJ0KL7I3BDRE0OJ6GJBZ","A3F5Z5S2AHMN2O","3GVPRXWRPHGYHD0HW29VLS36FVC7I4","","img/set1/S1.jpg","83","1","structured_normal","83","structured_normal,random,structured_load,structured_incentive","4,2,1,2,2,3","1,4,3,2","true","","",""
"null","","html-keyboard-response","287","189602","0.0-287.0","37TRT2X24RDJ0KL7I3BDRE0OJ6GJBZ","A3F5Z5S2AHMN2O","3GVPRXWRPHGYHD0HW29VLS36FVC7I4","","<img src=""img/set1/S1.jpg"" width=""540"" height = ""360"" style=""border:16px solid orange"">","null","","","","","","","","","",""
"null","","html-keyboard-response","288","189804","0.0-288.0","37TRT2X24RDJ0KL7I3BDRE0OJ6GJBZ","A3F5Z5S2AHMN2O","3GVPRXWRPHGYHD0HW29VLS36FVC7I4","","","null","","","","","","","","","",""
"350.6999999997206","","image-keyboard-response","289","190157","0.0-289.0","37TRT2X24RDJ0KL7I3BDRE0OJ6GJBZ","A3F5Z5S2AHMN2O","3GVPRXWRPHGYHD0HW29VLS36FVC7I4","","img/set1/S1.jpg","83","1","structured_normal","83","structured_normal,random,structured_load,structured_incentive","4,2,1,2,2,3","1,4,3,2","true","","",""
"null","","html-keyboard-response","290","190509","0.0-290.0","37TRT2X24RDJ0KL7I3BDRE0OJ6GJBZ","A3F5Z5S2AHMN2O","3GVPRXWRPHGYHD0HW29VLS36FVC7I4","","<img src=""img/set1/S1.jpg"" width=""540"" height = ""360"" style=""border:16px solid orange"">","null","","","","","","","","","",""
"null","","html-keyboard-response","291","190713","0.0-291.0","37TRT2X24RDJ0KL7I3BDRE0OJ6GJBZ","A3F5Z5S2AHMN2O","3GVPRXWRPHGYHD0HW29VLS36FVC7I4","","","null","","","","","","","","","",""
"848","","image-keyboard-response","292","191562","0.0-292.0","37TRT2X24RDJ0KL7I3BDRE0OJ6GJBZ","A3F5Z5S2AHMN2O","3GVPRXWRPHGYHD0HW29VLS36FVC7I4","","img/set1/S4.jpg","74","4","structured_normal","74","structured_normal,random,structured_load,structured_incentive","4,2,1,2,2,3","1,4,3,2","true","","",""
"null","","html-keyboard-response","293","191918","0.0-293.0","37TRT2X24RDJ0KL7I3BDRE0OJ6GJBZ","A3F5Z5S2AHMN2O","3GVPRXWRPHGYHD0HW29VLS36FVC7I4","","<img src=""img/set1/S4.jpg"" width=""540"" height = ""360"" style=""border:16px solid orange"">","null","","","","","","","","","",""
"null","","html-keyboard-response","294","192123","0.0-294.0","37TRT2X24RDJ0KL7I3BDRE0OJ6GJBZ","A3F5Z5S2AHMN2O","3GVPRXWRPHGYHD0HW29VLS36FVC7I4","","","null","","","","","","","","","",""
"572.6000000000931","","image-keyboard-response","295","192697","0.0-295.0","37TRT2X24RDJ0KL7I3BDRE0OJ6GJBZ","A3F5Z5S2AHMN2O","3GVPRXWRPHGYHD0HW29VLS36FVC7I4","","img/set1/S3.jpg","72","3","structured_normal","72","structured_normal,random,structured_load,structured_incentive","4,2,1,2,2,3","1,4,3,2","true","","",""
"null","","html-keyboard-response","296","193053","0.0-296.0","37TRT2X24RDJ0KL7I3BDRE0OJ6GJBZ","A3F5Z5S2AHMN2O","3GVPRXWRPHGYHD0HW29VLS36FVC7I4","","<img src=""img/set1/S3.jpg"" width=""540"" height = ""360"" style=""border:16px solid orange"">","null","","","","","","","","","",""
"null","","html-keyboard-response","297","193255","0.0-297.0","37TRT2X24RDJ0KL7I3BDRE0OJ6GJBZ","A3F5Z5S2AHMN2O","3GVPRXWRPHGYHD0HW29VLS36FVC7I4","","","null","","","","","","","","","",""
"539.8000000002794","","image-keyboard-response","298","193797","0.0-298.0","37TRT2X24RDJ0KL7I3BDRE0OJ6GJBZ","A3F5Z5S2AHMN2O","3GVPRXWRPHGYHD0HW29VLS36FVC7I4","","img/set1/S3.jpg","72","3","structured_normal","72","structured_normal,random,structured_load,structured_incentive","4,2,1,2,2,3","1,4,3,2","true","","",""
"null","","html-keyboard-response","299","194151","0.0-299.0","37TRT2X24RDJ0KL7I3BDRE0OJ6GJBZ","A3F5Z5S2AHMN2O","3GVPRXWRPHGYHD0HW29VLS36FVC7I4","","<img src=""img/set1/S3.jpg"" width=""540"" height = ""360"" style=""border:16px solid orange"">","null","","","","","","","","","",""
"null","","html-keyboard-response","300","194357","0.0-300.0","37TRT2X24RDJ0KL7I3BDRE0OJ6GJBZ","A3F5Z5S2AHMN2O","3GVPRXWRPHGYHD0HW29VLS36FVC7I4","","","null","","","","","","","","","",""
"523.3999999999069","","image-keyboard-response","301","194881","0.0-301.0","37TRT2X24RDJ0KL7I3BDRE0OJ6GJBZ","A3F5Z5S2AHMN2O","3GVPRXWRPHGYHD0HW29VLS36FVC7I4","","img/set1/S1.jpg","83","1","structured_normal","83","structured_normal,random,structured_load,structured_incentive","4,2,1,2,2,3","1,4,3,2","true","","",""
"null","","html-keyboard-response","302","195237","0.0-302.0","37TRT2X24RDJ0KL7I3BDRE0OJ6GJBZ","A3F5Z5S2AHMN2O","3GVPRXWRPHGYHD0HW29VLS36FVC7I4","","<img src=""img/set1/S1.jpg"" width=""540"" height = ""360"" style=""border:16px solid orange"">","null","","","","","","","","","",""
"null","","html-keyboard-response","303","195442","0.0-303.0","37TRT2X24RDJ0KL7I3BDRE0OJ6GJBZ","A3F5Z5S2AHMN2O","3GVPRXWRPHGYHD0HW29VLS36FVC7I4","","","null","","","","","","","","","",""
"426.8000000002794","","image-keyboard-response","304","195871","0.0-304.0","37TRT2X24RDJ0KL7I3BDRE0OJ6GJBZ","A3F5Z5S2AHMN2O","3GVPRXWRPHGYHD0HW29VLS36FVC7I4","","img/set1/S1.jpg","83","1","structured_normal","83","structured_normal,random,structured_load,structured_incentive","4,2,1,2,2,3","1,4,3,2","true","","",""
"null","","html-keyboard-response","305","196228","0.0-305.0","37TRT2X24RDJ0KL7I3BDRE0OJ6GJBZ","A3F5Z5S2AHMN2O","3GVPRXWRPHGYHD0HW29VLS36FVC7I4","","<img src=""img/set1/S1.jpg"" width=""540"" height = ""360"" style=""border:16px solid orange"">","null","","","","","","","","","",""
"null","","html-keyboard-response","306","196433","0.0-306.0","37TRT2X24RDJ0KL7I3BDRE0OJ6GJBZ","A3F5Z5S2AHMN2O","3GVPRXWRPHGYHD0HW29VLS36FVC7I4","","","null","","","","","","","","","",""
"706.2999999998137","","image-keyboard-response","307","197140","0.0-307.0","37TRT2X24RDJ0KL7I3BDRE0OJ6GJBZ","A3F5Z5S2AHMN2O","3GVPRXWRPHGYHD0HW29VLS36FVC7I4","","img/set1/S4.jpg","74","4","structured_normal","74","structured_normal,random,structured_load,structured_incentive","4,2,1,2,2,3","1,4,3,2","true","","",""
"null","","html-keyboard-response","308","197497","0.0-308.0","37TRT2X24RDJ0KL7I3BDRE0OJ6GJBZ","A3F5Z5S2AHMN2O","3GVPRXWRPHGYHD0HW29VLS36FVC7I4","","<img src=""img/set1/S4.jpg"" width=""540"" height = ""360"" style=""border:16px solid orange"">","null","","","","","","","","","",""
"null","","html-keyboard-response","309","197701","0.0-309.0","37TRT2X24RDJ0KL7I3BDRE0OJ6GJBZ","A3F5Z5S2AHMN2O","3GVPRXWRPHGYHD0HW29VLS36FVC7I4","","","null","","","","","","","","","",""
"570.6000000000931","","image-keyboard-response","310","198273","0.0-310.0","37TRT2X24RDJ0KL7I3BDRE0OJ6GJBZ","A3F5Z5S2AHMN2O","3GVPRXWRPHGYHD0HW29VLS36FVC7I4","","img/set1/S2.jpg","68","2","structured_normal","68","structured_normal,random,structured_load,structured_incentive","4,2,1,2,2,3","1,4,3,2","true","","",""
"null","","html-keyboard-response","311","198626","0.0-311.0","37TRT2X24RDJ0KL7I3BDRE0OJ6GJBZ","A3F5Z5S2AHMN2O","3GVPRXWRPHGYHD0HW29VLS36FVC7I4","","<img src=""img/set1/S2.jpg"" width=""540"" height = ""360"" style=""border:16px solid orange"">","null","","","","","","","","","",""
"null","","html-keyboard-response","312","198828","0.0-312.0","37TRT2X24RDJ0KL7I3BDRE0OJ6GJBZ","A3F5Z5S2AHMN2O","3GVPRXWRPHGYHD0HW29VLS36FVC7I4","","","null","","","","","","","","","",""
"604.6000000000931","","image-keyboard-response","313","199434","0.0-313.0","37TRT2X24RDJ0KL7I3BDRE0OJ6GJBZ","A3F5Z5S2AHMN2O","3GVPRXWRPHGYHD0HW29VLS36FVC7I4","","img/set1/S3.jpg","72","3","structured_normal","72","structured_normal,random,structured_load,structured_incentive","4,2,1,2,2,3","1,4,3,2","true","","",""
"null","","html-keyboard-response","314","199791","0.0-314.0","37TRT2X24RDJ0KL7I3BDRE0OJ6GJBZ","A3F5Z5S2AHMN2O","3GVPRXWRPHGYHD0HW29VLS36FVC7I4","","<img src=""img/set1/S3.jpg"" width=""540"" height = ""360"" style=""border:16px solid orange"">","null","","","","","","","","","",""
"null","","html-keyboard-response","315","199997","0.0-315.0","37TRT2X24RDJ0KL7I3BDRE0OJ6GJBZ","A3F5Z5S2AHMN2O","3GVPRXWRPHGYHD0HW29VLS36FVC7I4","","","null","","","","","","","","","",""
"415","","image-keyboard-response","316","200414","0.0-316.0","37TRT2X24RDJ0KL7I3BDRE0OJ6GJBZ","A3F5Z5S2AHMN2O","3GVPRXWRPHGYHD0HW29VLS36FVC7I4","","img/set1/S3.jpg","72","3","structured_normal","72","structured_normal,random,structured_load,structured_incentive","4,2,1,2,2,3","1,4,3,2","true","","",""
"null","","html-keyboard-response","317","200771","0.0-317.0","37TRT2X24RDJ0KL7I3BDRE0OJ6GJBZ","A3F5Z5S2AHMN2O","3GVPRXWRPHGYHD0HW29VLS36FVC7I4","","<img src=""img/set1/S3.jpg"" width=""540"" height = ""360"" style=""border:16px solid orange"">","null","","","","","","","","","",""
"null","","html-keyboard-response","318","200973","0.0-318.0","37TRT2X24RDJ0KL7I3BDRE0OJ6GJBZ","A3F5Z5S2AHMN2O","3GVPRXWRPHGYHD0HW29VLS36FVC7I4","","","null","","","","","","","","","",""
"421.1999999997206","","image-keyboard-response","319","201396","0.0-319.0","37TRT2X24RDJ0KL7I3BDRE0OJ6GJBZ","A3F5Z5S2AHMN2O","3GVPRXWRPHGYHD0HW29VLS36FVC7I4","","img/set1/S3.jpg","72","3","structured_normal","72","structured_normal,random,structured_load,structured_incentive","4,2,1,2,2,3","1,4,3,2","true","","",""
"null","","html-keyboard-response","320","201749","0.0-320.0","37TRT2X24RDJ0KL7I3BDRE0OJ6GJBZ","A3F5Z5S2AHMN2O","3GVPRXWRPHGYHD0HW29VLS36FVC7I4","","<img src=""img/set1/S3.jpg"" width=""540"" height = ""360"" style=""border:16px solid orange"">","null","","","","","","","","","",""
"null","","html-keyboard-response","321","201954","0.0-321.0","37TRT2X24RDJ0KL7I3BDRE0OJ6GJBZ","A3F5Z5S2AHMN2O","3GVPRXWRPHGYHD0HW29VLS36FVC7I4","","","null","","","","","","","","","",""
"658.3999999999069","","image-keyboard-response","322","202614","0.0-322.0","37TRT2X24RDJ0KL7I3BDRE0OJ6GJBZ","A3F5Z5S2AHMN2O","3GVPRXWRPHGYHD0HW29VLS36FVC7I4","","img/set1/S4.jpg","74","4","structured_normal","74","structured_normal,random,structured_load,structured_incentive","4,2,1,2,2,3","1,4,3,2","true","","",""
"null","","html-keyboard-response","323","202970","0.0-323.0","37TRT2X24RDJ0KL7I3BDRE0OJ6GJBZ","A3F5Z5S2AHMN2O","3GVPRXWRPHGYHD0HW29VLS36FVC7I4","","<img src=""img/set1/S4.jpg"" width=""540"" height = ""360"" style=""border:16px solid orange"">","null","","","","","","","","","",""
"null","","html-keyboard-response","324","203176","0.0-324.0","37TRT2X24RDJ0KL7I3BDRE0OJ6GJBZ","A3F5Z5S2AHMN2O","3GVPRXWRPHGYHD0HW29VLS36FVC7I4","","","null","","","","","","","","","",""
"633.5","","image-keyboard-response","325","203811","0.0-325.0","37TRT2X24RDJ0KL7I3BDRE0OJ6GJBZ","A3F5Z5S2AHMN2O","3GVPRXWRPHGYHD0HW29VLS36FVC7I4","","img/set1/S2.jpg","68","2","structured_normal","68","structured_normal,random,structured_load,structured_incentive","4,2,1,2,2,3","1,4,3,2","true","","",""
"null","","html-keyboard-response","326","204167","0.0-326.0","37TRT2X24RDJ0KL7I3BDRE0OJ6GJBZ","A3F5Z5S2AHMN2O","3GVPRXWRPHGYHD0HW29VLS36FVC7I4","","<img src=""img/set1/S2.jpg"" width=""540"" height = ""360"" style=""border:16px solid orange"">","null","","","","","","","","","",""
"null","","html-keyboard-response","327","204373","0.0-327.0","37TRT2X24RDJ0KL7I3BDRE0OJ6GJBZ","A3F5Z5S2AHMN2O","3GVPRXWRPHGYHD0HW29VLS36FVC7I4","","","null","","","","","","","","","",""
"585.2000000001863","","image-keyboard-response","328","204959","0.0-328.0","37TRT2X24RDJ0KL7I3BDRE0OJ6GJBZ","A3F5Z5S2AHMN2O","3GVPRXWRPHGYHD0HW29VLS36FVC7I4","","img/set1/S4.jpg","72","4","structured_normal","74","structured_normal,random,structured_load,structured_incentive","4,2,1,2,2,3","1,4,3,2","false","","",""
"null","","html-keyboard-response","329","205311","0.0-329.0","37TRT2X24RDJ0KL7I3BDRE0OJ6GJBZ","A3F5Z5S2AHMN2O","3GVPRXWRPHGYHD0HW29VLS36FVC7I4","","<img src=""img/set1/S4.jpg"" width=""540"" height = ""360"">","null","","","","","","","","","",""
"null","","html-keyboard-response","330","205513","0.0-330.0","37TRT2X24RDJ0KL7I3BDRE0OJ6GJBZ","A3F5Z5S2AHMN2O","3GVPRXWRPHGYHD0HW29VLS36FVC7I4","","","null","","","","","","","","","",""
"849.0999999996275","","image-keyboard-response","331","206363","0.0-331.0","37TRT2X24RDJ0KL7I3BDRE0OJ6GJBZ","A3F5Z5S2AHMN2O","3GVPRXWRPHGYHD0HW29VLS36FVC7I4","","img/set1/S2.jpg","68","2","structured_normal","68","structured_normal,random,structured_load,structured_incentive","4,2,1,2,2,3","1,4,3,2","true","","",""
"null","","html-keyboard-response","332","206716","0.0-332.0","37TRT2X24RDJ0KL7I3BDRE0OJ6GJBZ","A3F5Z5S2AHMN2O","3GVPRXWRPHGYHD0HW29VLS36FVC7I4","","<img src=""img/set1/S2.jpg"" width=""540"" height = ""360"" style=""border:16px solid orange"">","null","","","","","","","","","",""
"null","","html-keyboard-response","333","206920","0.0-333.0","37TRT2X24RDJ0KL7I3BDRE0OJ6GJBZ","A3F5Z5S2AHMN2O","3GVPRXWRPHGYHD0HW29VLS36FVC7I4","","","null","","","","","","","","","",""
"736.8999999999069","","image-keyboard-response","334","207658","0.0-334.0","37TRT2X24RDJ0KL7I3BDRE0OJ6GJBZ","A3F5Z5S2AHMN2O","3GVPRXWRPHGYHD0HW29VLS36FVC7I4","","img/set1/S4.jpg","74","4","structured_normal","74","structured_normal,random,structured_load,structured_incentive","4,2,1,2,2,3","1,4,3,2","true","","",""
"null","","html-keyboard-response","335","208014","0.0-335.0","37TRT2X24RDJ0KL7I3BDRE0OJ6GJBZ","A3F5Z5S2AHMN2O","3GVPRXWRPHGYHD0HW29VLS36FVC7I4","","<img src=""img/set1/S4.jpg"" width=""540"" height = ""360"" style=""border:16px solid orange"">","null","","","","","","","","","",""
"null","","html-keyboard-response","336","208218","0.0-336.0","37TRT2X24RDJ0KL7I3BDRE0OJ6GJBZ","A3F5Z5S2AHMN2O","3GVPRXWRPHGYHD0HW29VLS36FVC7I4","","","null","","","","","","","","","",""
"644.7000000001863","","image-keyboard-response","337","208864","0.0-337.0","37TRT2X24RDJ0KL7I3BDRE0OJ6GJBZ","A3F5Z5S2AHMN2O","3GVPRXWRPHGYHD0HW29VLS36FVC7I4","","img/set1/S2.jpg","68","2","structured_normal","68","structured_normal,random,structured_load,structured_incentive","4,2,1,2,2,3","1,4,3,2","true","","",""
"null","","html-keyboard-response","338","209217","0.0-338.0","37TRT2X24RDJ0KL7I3BDRE0OJ6GJBZ","A3F5Z5S2AHMN2O","3GVPRXWRPHGYHD0HW29VLS36FVC7I4","","<img src=""img/set1/S2.jpg"" width=""540"" height = ""360"" style=""border:16px solid orange"">","null","","","","","","","","","",""
"null","","html-keyboard-response","339","209420","0.0-339.0","37TRT2X24RDJ0KL7I3BDRE0OJ6GJBZ","A3F5Z5S2AHMN2O","3GVPRXWRPHGYHD0HW29VLS36FVC7I4","","","null","","","","","","","","","",""
"669.2000000001863","","image-keyboard-response","340","210091","0.0-340.0","37TRT2X24RDJ0KL7I3BDRE0OJ6GJBZ","A3F5Z5S2AHMN2O","3GVPRXWRPHGYHD0HW29VLS36FVC7I4","","img/set1/S3.jpg","72","3","structured_normal","72","structured_normal,random,structured_load,structured_incentive","4,2,1,2,2,3","1,4,3,2","true","","",""
"null","","html-keyboard-response","341","210447","0.0-341.0","37TRT2X24RDJ0KL7I3BDRE0OJ6GJBZ","A3F5Z5S2AHMN2O","3GVPRXWRPHGYHD0HW29VLS36FVC7I4","","<img src=""img/set1/S3.jpg"" width=""540"" height = ""360"" style=""border:16px solid orange"">","null","","","","","","","","","",""
"null","","html-keyboard-response","342","210652","0.0-342.0","37TRT2X24RDJ0KL7I3BDRE0OJ6GJBZ","A3F5Z5S2AHMN2O","3GVPRXWRPHGYHD0HW29VLS36FVC7I4","","","null","","","","","","","","","",""
"559.5","","image-keyboard-response","343","211213","0.0-343.0","37TRT2X24RDJ0KL7I3BDRE0OJ6GJBZ","A3F5Z5S2AHMN2O","3GVPRXWRPHGYHD0HW29VLS36FVC7I4","","img/set1/S4.jpg","74","4","structured_normal","74","structured_normal,random,structured_load,structured_incentive","4,2,1,2,2,3","1,4,3,2","true","","",""
"null","","html-keyboard-response","344","211570","0.0-344.0","37TRT2X24RDJ0KL7I3BDRE0OJ6GJBZ","A3F5Z5S2AHMN2O","3GVPRXWRPHGYHD0HW29VLS36FVC7I4","","<img src=""img/set1/S4.jpg"" width=""540"" height = ""360"" style=""border:16px solid orange"">","null","","","","","","","","","",""
"null","","html-keyboard-response","345","211773","0.0-345.0","37TRT2X24RDJ0KL7I3BDRE0OJ6GJBZ","A3F5Z5S2AHMN2O","3GVPRXWRPHGYHD0HW29VLS36FVC7I4","","","null","","","","","","","","","",""
"1020.2000000001863","","image-keyboard-response","346","212795","0.0-346.0","37TRT2X24RDJ0KL7I3BDRE0OJ6GJBZ","A3F5Z5S2AHMN2O","3GVPRXWRPHGYHD0HW29VLS36FVC7I4","","img/set1/S2.jpg","68","2","structured_normal","68","structured_normal,random,structured_load,structured_incentive","4,2,1,2,2,3","1,4,3,2","true","","",""
"null","","html-keyboard-response","347","213152","0.0-347.0","37TRT2X24RDJ0KL7I3BDRE0OJ6GJBZ","A3F5Z5S2AHMN2O","3GVPRXWRPHGYHD0HW29VLS36FVC7I4","","<img src=""img/set1/S2.jpg"" width=""540"" height = ""360"" style=""border:16px solid orange"">","null","","","","","","","","","",""
"null","","html-keyboard-response","348","213355","0.0-348.0","37TRT2X24RDJ0KL7I3BDRE0OJ6GJBZ","A3F5Z5S2AHMN2O","3GVPRXWRPHGYHD0HW29VLS36FVC7I4","","","null","","","","","","","","","",""
"782.3000000002794","","image-keyboard-response","349","214139","0.0-349.0","37TRT2X24RDJ0KL7I3BDRE0OJ6GJBZ","A3F5Z5S2AHMN2O","3GVPRXWRPHGYHD0HW29VLS36FVC7I4","","img/set1/S3.jpg","72","3","structured_normal","72","structured_normal,random,structured_load,structured_incentive","4,2,1,2,2,3","1,4,3,2","true","","",""
"null","","html-keyboard-response","350","214495","0.0-350.0","37TRT2X24RDJ0KL7I3BDRE0OJ6GJBZ","A3F5Z5S2AHMN2O","3GVPRXWRPHGYHD0HW29VLS36FVC7I4","","<img src=""img/set1/S3.jpg"" width=""540"" height = ""360"" style=""border:16px solid orange"">","null","","","","","","","","","",""
"null","","html-keyboard-response","351","214698","0.0-351.0","37TRT2X24RDJ0KL7I3BDRE0OJ6GJBZ","A3F5Z5S2AHMN2O","3GVPRXWRPHGYHD0HW29VLS36FVC7I4","","","null","","","","","","","","","",""
"432.1999999997206","","image-keyboard-response","352","215132","0.0-352.0","37TRT2X24RDJ0KL7I3BDRE0OJ6GJBZ","A3F5Z5S2AHMN2O","3GVPRXWRPHGYHD0HW29VLS36FVC7I4","","img/set1/S3.jpg","72","3","structured_normal","72","structured_normal,random,structured_load,structured_incentive","4,2,1,2,2,3","1,4,3,2","true","","",""
"null","","html-keyboard-response","353","215486","0.0-353.0","37TRT2X24RDJ0KL7I3BDRE0OJ6GJBZ","A3F5Z5S2AHMN2O","3GVPRXWRPHGYHD0HW29VLS36FVC7I4","","<img src=""img/set1/S3.jpg"" width=""540"" height = ""360"" style=""border:16px solid orange"">","null","","","","","","","","","",""
"null","","html-keyboard-response","354","215693","0.0-354.0","37TRT2X24RDJ0KL7I3BDRE0OJ6GJBZ","A3F5Z5S2AHMN2O","3GVPRXWRPHGYHD0HW29VLS36FVC7I4","","","null","","","","","","","","","",""
"650.0999999996275","","image-keyboard-response","355","216344","0.0-355.0","37TRT2X24RDJ0KL7I3BDRE0OJ6GJBZ","A3F5Z5S2AHMN2O","3GVPRXWRPHGYHD0HW29VLS36FVC7I4","","img/set1/S4.jpg","74","4","structured_normal","74","structured_normal,random,structured_load,structured_incentive","4,2,1,2,2,3","1,4,3,2","true","","",""
"null","","html-keyboard-response","356","216697","0.0-356.0","37TRT2X24RDJ0KL7I3BDRE0OJ6GJBZ","A3F5Z5S2AHMN2O","3GVPRXWRPHGYHD0HW29VLS36FVC7I4","","<img src=""img/set1/S4.jpg"" width=""540"" height = ""360"" style=""border:16px solid orange"">","null","","","","","","","","","",""
"null","","html-keyboard-response","357","216902","0.0-357.0","37TRT2X24RDJ0KL7I3BDRE0OJ6GJBZ","A3F5Z5S2AHMN2O","3GVPRXWRPHGYHD0HW29VLS36FVC7I4","","","null","","","","","","","","","",""
"606.6000000000931","","image-keyboard-response","358","217510","0.0-358.0","37TRT2X24RDJ0KL7I3BDRE0OJ6GJBZ","A3F5Z5S2AHMN2O","3GVPRXWRPHGYHD0HW29VLS36FVC7I4","","img/set1/S2.jpg","68","2","structured_normal","68","structured_normal,random,structured_load,structured_incentive","4,2,1,2,2,3","1,4,3,2","true","","",""
"null","","html-keyboard-response","359","217862","0.0-359.0","37TRT2X24RDJ0KL7I3BDRE0OJ6GJBZ","A3F5Z5S2AHMN2O","3GVPRXWRPHGYHD0HW29VLS36FVC7I4","","<img src=""img/set1/S2.jpg"" width=""540"" height = ""360"" style=""border:16px solid orange"">","null","","","","","","","","","",""
"null","","html-keyboard-response","360","218065","0.0-360.0","37TRT2X24RDJ0KL7I3BDRE0OJ6GJBZ","A3F5Z5S2AHMN2O","3GVPRXWRPHGYHD0HW29VLS36FVC7I4","","","null","","","","","","","","","",""
"721.8999999999069","","image-keyboard-response","361","218788","0.0-361.0","37TRT2X24RDJ0KL7I3BDRE0OJ6GJBZ","A3F5Z5S2AHMN2O","3GVPRXWRPHGYHD0HW29VLS36FVC7I4","","img/set1/S3.jpg","72","3","structured_normal","72","structured_normal,random,structured_load,structured_incentive","4,2,1,2,2,3","1,4,3,2","true","","",""
"null","","html-keyboard-response","362","219145","0.0-362.0","37TRT2X24RDJ0KL7I3BDRE0OJ6GJBZ","A3F5Z5S2AHMN2O","3GVPRXWRPHGYHD0HW29VLS36FVC7I4","","<img src=""img/set1/S3.jpg"" width=""540"" height = ""360"" style=""border:16px solid orange"">","null","","","","","","","","","",""
"null","","html-keyboard-response","363","219351","0.0-363.0","37TRT2X24RDJ0KL7I3BDRE0OJ6GJBZ","A3F5Z5S2AHMN2O","3GVPRXWRPHGYHD0HW29VLS36FVC7I4","","","null","","","","","","","","","",""
"647.5","","image-keyboard-response","364","220000","0.0-364.0","37TRT2X24RDJ0KL7I3BDRE0OJ6GJBZ","A3F5Z5S2AHMN2O","3GVPRXWRPHGYHD0HW29VLS36FVC7I4","","img/set1/S4.jpg","74","4","structured_normal","74","structured_normal,random,structured_load,structured_incentive","4,2,1,2,2,3","1,4,3,2","true","","",""
"null","","html-keyboard-response","365","220357","0.0-365.0","37TRT2X24RDJ0KL7I3BDRE0OJ6GJBZ","A3F5Z5S2AHMN2O","3GVPRXWRPHGYHD0HW29VLS36FVC7I4","","<img src=""img/set1/S4.jpg"" width=""540"" height = ""360"" style=""border:16px solid orange"">","null","","","","","","","","","",""
"null","","html-keyboard-response","366","220563","0.0-366.0","37TRT2X24RDJ0KL7I3BDRE0OJ6GJBZ","A3F5Z5S2AHMN2O","3GVPRXWRPHGYHD0HW29VLS36FVC7I4","","","null","","","","","","","","","",""
"519.2000000001863","","image-keyboard-response","367","221084","0.0-367.0","37TRT2X24RDJ0KL7I3BDRE0OJ6GJBZ","A3F5Z5S2AHMN2O","3GVPRXWRPHGYHD0HW29VLS36FVC7I4","","img/set1/S2.jpg","68","2","structured_normal","68","structured_normal,random,structured_load,structured_incentive","4,2,1,2,2,3","1,4,3,2","true","","",""
"null","","html-keyboard-response","368","221441","0.0-368.0","37TRT2X24RDJ0KL7I3BDRE0OJ6GJBZ","A3F5Z5S2AHMN2O","3GVPRXWRPHGYHD0HW29VLS36FVC7I4","","<img src=""img/set1/S2.jpg"" width=""540"" height = ""360"" style=""border:16px solid orange"">","null","","","","","","","","","",""
"null","","html-keyboard-response","369","221645","0.0-369.0","37TRT2X24RDJ0KL7I3BDRE0OJ6GJBZ","A3F5Z5S2AHMN2O","3GVPRXWRPHGYHD0HW29VLS36FVC7I4","","","null","","","","","","","","","",""
"822.8999999999069","","image-keyboard-response","370","222471","0.0-370.0","37TRT2X24RDJ0KL7I3BDRE0OJ6GJBZ","A3F5Z5S2AHMN2O","3GVPRXWRPHGYHD0HW29VLS36FVC7I4","","img/set1/S4.jpg","74","4","structured_normal","74","structured_normal,random,structured_load,structured_incentive","4,2,1,2,2,3","1,4,3,2","true","","",""
"null","","html-keyboard-response","371","222824","0.0-371.0","37TRT2X24RDJ0KL7I3BDRE0OJ6GJBZ","A3F5Z5S2AHMN2O","3GVPRXWRPHGYHD0HW29VLS36FVC7I4","","<img src=""img/set1/S4.jpg"" width=""540"" height = ""360"" style=""border:16px solid orange"">","null","","","","","","","","","",""
"null","","html-keyboard-response","372","223030","0.0-372.0","37TRT2X24RDJ0KL7I3BDRE0OJ6GJBZ","A3F5Z5S2AHMN2O","3GVPRXWRPHGYHD0HW29VLS36FVC7I4","","","null","","","","","","","","","",""
"609.3000000002794","","image-keyboard-response","373","223641","0.0-373.0","37TRT2X24RDJ0KL7I3BDRE0OJ6GJBZ","A3F5Z5S2AHMN2O","3GVPRXWRPHGYHD0HW29VLS36FVC7I4","","img/set1/S2.jpg","68","2","structured_normal","68","structured_normal,random,structured_load,structured_incentive","4,2,1,2,2,3","1,4,3,2","true","","",""
"null","","html-keyboard-response","374","223993","0.0-374.0","37TRT2X24RDJ0KL7I3BDRE0OJ6GJBZ","A3F5Z5S2AHMN2O","3GVPRXWRPHGYHD0HW29VLS36FVC7I4","","<img src=""img/set1/S2.jpg"" width=""540"" height = ""360"" style=""border:16px solid orange"">","null","","","","","","","","","",""
"null","","html-keyboard-response","375","224200","0.0-375.0","37TRT2X24RDJ0KL7I3BDRE0OJ6GJBZ","A3F5Z5S2AHMN2O","3GVPRXWRPHGYHD0HW29VLS36FVC7I4","","","null","","","","","","","","","",""
"434.60000000009313","","image-keyboard-response","376","224636","0.0-376.0","37TRT2X24RDJ0KL7I3BDRE0OJ6GJBZ","A3F5Z5S2AHMN2O","3GVPRXWRPHGYHD0HW29VLS36FVC7I4","","img/set1/S1.jpg","83","1","structured_normal","83","structured_normal,random,structured_load,structured_incentive","4,2,1,2,2,3","1,4,3,2","true","","",""
"null","","html-keyboard-response","377","224990","0.0-377.0","37TRT2X24RDJ0KL7I3BDRE0OJ6GJBZ","A3F5Z5S2AHMN2O","3GVPRXWRPHGYHD0HW29VLS36FVC7I4","","<img src=""img/set1/S1.jpg"" width=""540"" height = ""360"" style=""border:16px solid orange"">","null","","","","","","","","","",""
"null","","html-keyboard-response","378","225196","0.0-378.0","37TRT2X24RDJ0KL7I3BDRE0OJ6GJBZ","A3F5Z5S2AHMN2O","3GVPRXWRPHGYHD0HW29VLS36FVC7I4","","","null","","","","","","","","","",""
"376.39999999990687","","image-keyboard-response","379","225574","0.0-379.0","37TRT2X24RDJ0KL7I3BDRE0OJ6GJBZ","A3F5Z5S2AHMN2O","3GVPRXWRPHGYHD0HW29VLS36FVC7I4","","img/set1/S2.jpg","83","2","structured_normal","68","structured_normal,random,structured_load,structured_incentive","4,2,1,2,2,3","1,4,3,2","false","","",""
"null","","html-keyboard-response","380","225929","0.0-380.0","37TRT2X24RDJ0KL7I3BDRE0OJ6GJBZ","A3F5Z5S2AHMN2O","3GVPRXWRPHGYHD0HW29VLS36FVC7I4","","<img src=""img/set1/S2.jpg"" width=""540"" height = ""360"">","null","","","","","","","","","",""
"null","","html-keyboard-response","381","226131","0.0-381.0","37TRT2X24RDJ0KL7I3BDRE0OJ6GJBZ","A3F5Z5S2AHMN2O","3GVPRXWRPHGYHD0HW29VLS36FVC7I4","","","null","","","","","","","","","",""
