"rt","url","trial_type","trial_index","time_elapsed","internal_node_id","assignmentID","mturkID","hitID","view_history","stimulus","key_press","state","test_part","correct_response","order_block","order_chunk","order_freq","correct","responses","question_order","bonus"
"11020.699999988079","consent.html","external-html","0","11130","0.0-0.0","3S06PH7KSSQ5K03N6AWDI4S2SAS1DK","A3FY6THWKRYN9M","3G9UA71JVVGUCOKNEKUVXTI6SA17JG","","","","","","","","","","","","",""
"61351.19999998808","","instructions","1","72482","0.0-1.0","3S06PH7KSSQ5K03N6AWDI4S2SAS1DK","A3FY6THWKRYN9M","3G9UA71JVVGUCOKNEKUVXTI6SA17JG","[{""page_index"":0,""viewing_time"":2816.300000011921},{""page_index"":1,""viewing_time"":7781.799999952316},{""page_index"":2,""viewing_time"":10470.800000011921},{""page_index"":3,""viewing_time"":9122.300000011921},{""page_index"":4,""viewing_time"":11609.600000023842},{""page_index"":5,""viewing_time"":13658.799999952316},{""page_index"":6,""viewing_time"":5890.900000035763}]","","","","","","","","","","","",""
"15452.5","","instructions","2","87936","0.0-2.0","3S06PH7KSSQ5K03N6AWDI4S2SAS1DK","A3FY6THWKRYN9M","3G9UA71JVVGUCOKNEKUVXTI6SA17JG","[{""page_index"":0,""viewing_time"":15452.400000035763}]","","","","","","","","","","","",""
"14409.599999964237","","instructions","3","102346","0.0-3.0","3S06PH7KSSQ5K03N6AWDI4S2SAS1DK","A3FY6THWKRYN9M","3G9UA71JVVGUCOKNEKUVXTI6SA17JG","[{""page_index"":0,""viewing_time"":9360.5},{""page_index"":1,""viewing_time"":5048.899999976158}]","","","","","","","","","","","",""
"null","","image-keyboard-response","4","104851","0.0-4.0","3S06PH7KSSQ5K03N6AWDI4S2SAS1DK","A3FY6THWKRYN9M","3G9UA71JVVGUCOKNEKUVXTI6SA17JG","","img/set1/S4.jpg","null","4","structured_incentive","74","structured_incentive,structured_normal,structured_load,random","2,3,4,2,1,2","3,2,4,1","false","","",""
"null","","html-keyboard-response","5","105209","0.0-5.0","3S06PH7KSSQ5K03N6AWDI4S2SAS1DK","A3FY6THWKRYN9M","3G9UA71JVVGUCOKNEKUVXTI6SA17JG","","<img src=""img/set1/S4.jpg"" width=""540"" height = ""360"">","null","","","","","","","","","",""
"null","","html-keyboard-response","6","105428","0.0-6.0","3S06PH7KSSQ5K03N6AWDI4S2SAS1DK","A3FY6THWKRYN9M","3G9UA71JVVGUCOKNEKUVXTI6SA17JG","","","null","","","","","","","","","",""
"null","","image-keyboard-response","7","107931","0.0-7.0","3S06PH7KSSQ5K03N6AWDI4S2SAS1DK","A3FY6THWKRYN9M","3G9UA71JVVGUCOKNEKUVXTI6SA17JG","","img/set1/S2.jpg","null","2","structured_incentive","68","structured_incentive,structured_normal,structured_load,random","2,3,4,2,1,2","3,2,4,1","false","","",""
"null","","html-keyboard-response","8","108289","0.0-8.0","3S06PH7KSSQ5K03N6AWDI4S2SAS1DK","A3FY6THWKRYN9M","3G9UA71JVVGUCOKNEKUVXTI6SA17JG","","<img src=""img/set1/S2.jpg"" width=""540"" height = ""360"">","null","","","","","","","","","",""
"null","","html-keyboard-response","9","108505","0.0-9.0","3S06PH7KSSQ5K03N6AWDI4S2SAS1DK","A3FY6THWKRYN9M","3G9UA71JVVGUCOKNEKUVXTI6SA17JG","","","null","","","","","","","","","",""
"875.2999999523163","","image-keyboard-response","10","109382","0.0-10.0","3S06PH7KSSQ5K03N6AWDI4S2SAS1DK","A3FY6THWKRYN9M","3G9UA71JVVGUCOKNEKUVXTI6SA17JG","","img/set1/S3.jpg","72","3","structured_incentive","72","structured_incentive,structured_normal,structured_load,random","2,3,4,2,1,2","3,2,4,1","true","","",""
"null","","html-keyboard-response","11","109742","0.0-11.0","3S06PH7KSSQ5K03N6AWDI4S2SAS1DK","A3FY6THWKRYN9M","3G9UA71JVVGUCOKNEKUVXTI6SA17JG","","<img src=""img/set1/S3.jpg"" width=""540"" height = ""360"" style=""border:16px solid orange"">","null","","","","","","","","","",""
"null","","html-keyboard-response","12","109946","0.0-12.0","3S06PH7KSSQ5K03N6AWDI4S2SAS1DK","A3FY6THWKRYN9M","3G9UA71JVVGUCOKNEKUVXTI6SA17JG","","","null","","","","","","","","","",""
"639.3999999761581","","image-keyboard-response","13","110586","0.0-13.0","3S06PH7KSSQ5K03N6AWDI4S2SAS1DK","A3FY6THWKRYN9M","3G9UA71JVVGUCOKNEKUVXTI6SA17JG","","img/set1/S4.jpg","68","4","structured_incentive","74","structured_incentive,structured_normal,structured_load,random","2,3,4,2,1,2","3,2,4,1","false","","",""
"null","","html-keyboard-response","14","110938","0.0-14.0","3S06PH7KSSQ5K03N6AWDI4S2SAS1DK","A3FY6THWKRYN9M","3G9UA71JVVGUCOKNEKUVXTI6SA17JG","","<img src=""img/set1/S4.jpg"" width=""540"" height = ""360"">","null","","","","","","","","","",""
"null","","html-keyboard-response","15","111140","0.0-15.0","3S06PH7KSSQ5K03N6AWDI4S2SAS1DK","A3FY6THWKRYN9M","3G9UA71JVVGUCOKNEKUVXTI6SA17JG","","","null","","","","","","","","","",""
"750.2999999523163","","image-keyboard-response","16","111891","0.0-16.0","3S06PH7KSSQ5K03N6AWDI4S2SAS1DK","A3FY6THWKRYN9M","3G9UA71JVVGUCOKNEKUVXTI6SA17JG","","img/set1/S2.jpg","72","2","structured_incentive","68","structured_incentive,structured_normal,structured_load,random","2,3,4,2,1,2","3,2,4,1","false","","",""
"null","","html-keyboard-response","17","112256","0.0-17.0","3S06PH7KSSQ5K03N6AWDI4S2SAS1DK","A3FY6THWKRYN9M","3G9UA71JVVGUCOKNEKUVXTI6SA17JG","","<img src=""img/set1/S2.jpg"" width=""540"" height = ""360"">","null","","","","","","","","","",""
"null","","html-keyboard-response","18","112471","0.0-18.0","3S06PH7KSSQ5K03N6AWDI4S2SAS1DK","A3FY6THWKRYN9M","3G9UA71JVVGUCOKNEKUVXTI6SA17JG","","","null","","","","","","","","","",""
"19.899999976158142","","image-keyboard-response","19","112492","0.0-19.0","3S06PH7KSSQ5K03N6AWDI4S2SAS1DK","A3FY6THWKRYN9M","3G9UA71JVVGUCOKNEKUVXTI6SA17JG","","img/set1/S3.jpg","74","3","structured_incentive","72","structured_incentive,structured_normal,structured_load,random","2,3,4,2,1,2","3,2,4,1","false","","",""
"null","","html-keyboard-response","20","112847","0.0-20.0","3S06PH7KSSQ5K03N6AWDI4S2SAS1DK","A3FY6THWKRYN9M","3G9UA71JVVGUCOKNEKUVXTI6SA17JG","","<img src=""img/set1/S3.jpg"" width=""540"" height = ""360"">","null","","","","","","","","","",""
"null","","html-keyboard-response","21","113062","0.0-21.0","3S06PH7KSSQ5K03N6AWDI4S2SAS1DK","A3FY6THWKRYN9M","3G9UA71JVVGUCOKNEKUVXTI6SA17JG","","","null","","","","","","","","","",""
"396.30000001192093","","image-keyboard-response","22","113460","0.0-22.0","3S06PH7KSSQ5K03N6AWDI4S2SAS1DK","A3FY6THWKRYN9M","3G9UA71JVVGUCOKNEKUVXTI6SA17JG","","img/set1/S2.jpg","68","2","structured_incentive","68","structured_incentive,structured_normal,structured_load,random","2,3,4,2,1,2","3,2,4,1","true","","",""
"null","","html-keyboard-response","23","113823","0.0-23.0","3S06PH7KSSQ5K03N6AWDI4S2SAS1DK","A3FY6THWKRYN9M","3G9UA71JVVGUCOKNEKUVXTI6SA17JG","","<img src=""img/set1/S2.jpg"" width=""540"" height = ""360"" style=""border:16px solid orange"">","null","","","","","","","","","",""
"null","","html-keyboard-response","24","114025","0.0-24.0","3S06PH7KSSQ5K03N6AWDI4S2SAS1DK","A3FY6THWKRYN9M","3G9UA71JVVGUCOKNEKUVXTI6SA17JG","","","null","","","","","","","","","",""
"472.80000001192093","","image-keyboard-response","25","114499","0.0-25.0","3S06PH7KSSQ5K03N6AWDI4S2SAS1DK","A3FY6THWKRYN9M","3G9UA71JVVGUCOKNEKUVXTI6SA17JG","","img/set1/S3.jpg","68","3","structured_incentive","72","structured_incentive,structured_normal,structured_load,random","2,3,4,2,1,2","3,2,4,1","false","","",""
"null","","html-keyboard-response","26","114864","0.0-26.0","3S06PH7KSSQ5K03N6AWDI4S2SAS1DK","A3FY6THWKRYN9M","3G9UA71JVVGUCOKNEKUVXTI6SA17JG","","<img src=""img/set1/S3.jpg"" width=""540"" height = ""360"">","null","","","","","","","","","",""
"null","","html-keyboard-response","27","115069","0.0-27.0","3S06PH7KSSQ5K03N6AWDI4S2SAS1DK","A3FY6THWKRYN9M","3G9UA71JVVGUCOKNEKUVXTI6SA17JG","","","null","","","","","","","","","",""
"851.1999999880791","","image-keyboard-response","28","115921","0.0-28.0","3S06PH7KSSQ5K03N6AWDI4S2SAS1DK","A3FY6THWKRYN9M","3G9UA71JVVGUCOKNEKUVXTI6SA17JG","","img/set1/S4.jpg","72","4","structured_incentive","74","structured_incentive,structured_normal,structured_load,random","2,3,4,2,1,2","3,2,4,1","false","","",""
"null","","html-keyboard-response","29","116275","0.0-29.0","3S06PH7KSSQ5K03N6AWDI4S2SAS1DK","A3FY6THWKRYN9M","3G9UA71JVVGUCOKNEKUVXTI6SA17JG","","<img src=""img/set1/S4.jpg"" width=""540"" height = ""360"">","null","","","","","","","","","",""
"null","","html-keyboard-response","30","116478","0.0-30.0","3S06PH7KSSQ5K03N6AWDI4S2SAS1DK","A3FY6THWKRYN9M","3G9UA71JVVGUCOKNEKUVXTI6SA17JG","","","null","","","","","","","","","",""
"284.5999999642372","","image-keyboard-response","31","116764","0.0-31.0","3S06PH7KSSQ5K03N6AWDI4S2SAS1DK","A3FY6THWKRYN9M","3G9UA71JVVGUCOKNEKUVXTI6SA17JG","","img/set1/S3.jpg","74","3","structured_incentive","72","structured_incentive,structured_normal,structured_load,random","2,3,4,2,1,2","3,2,4,1","false","","",""
"null","","html-keyboard-response","32","117129","0.0-32.0","3S06PH7KSSQ5K03N6AWDI4S2SAS1DK","A3FY6THWKRYN9M","3G9UA71JVVGUCOKNEKUVXTI6SA17JG","","<img src=""img/set1/S3.jpg"" width=""540"" height = ""360"">","null","","","","","","","","","",""
"null","","html-keyboard-response","33","117345","0.0-33.0","3S06PH7KSSQ5K03N6AWDI4S2SAS1DK","A3FY6THWKRYN9M","3G9UA71JVVGUCOKNEKUVXTI6SA17JG","","","null","","","","","","","","","",""
"497.5999999642372","","image-keyboard-response","34","117843","0.0-34.0","3S06PH7KSSQ5K03N6AWDI4S2SAS1DK","A3FY6THWKRYN9M","3G9UA71JVVGUCOKNEKUVXTI6SA17JG","","img/set1/S4.jpg","68","4","structured_incentive","74","structured_incentive,structured_normal,structured_load,random","2,3,4,2,1,2","3,2,4,1","false","","",""
"null","","html-keyboard-response","35","118200","0.0-35.0","3S06PH7KSSQ5K03N6AWDI4S2SAS1DK","A3FY6THWKRYN9M","3G9UA71JVVGUCOKNEKUVXTI6SA17JG","","<img src=""img/set1/S4.jpg"" width=""540"" height = ""360"">","null","","","","","","","","","",""
"null","","html-keyboard-response","36","118401","0.0-36.0","3S06PH7KSSQ5K03N6AWDI4S2SAS1DK","A3FY6THWKRYN9M","3G9UA71JVVGUCOKNEKUVXTI6SA17JG","","","null","","","","","","","","","",""
"532.1000000238419","","image-keyboard-response","37","118934","0.0-37.0","3S06PH7KSSQ5K03N6AWDI4S2SAS1DK","A3FY6THWKRYN9M","3G9UA71JVVGUCOKNEKUVXTI6SA17JG","","img/set1/S4.jpg","68","4","structured_incentive","74","structured_incentive,structured_normal,structured_load,random","2,3,4,2,1,2","3,2,4,1","false","","",""
"null","","html-keyboard-response","38","119288","0.0-38.0","3S06PH7KSSQ5K03N6AWDI4S2SAS1DK","A3FY6THWKRYN9M","3G9UA71JVVGUCOKNEKUVXTI6SA17JG","","<img src=""img/set1/S4.jpg"" width=""540"" height = ""360"">","null","","","","","","","","","",""
"null","","html-keyboard-response","39","119503","0.0-39.0","3S06PH7KSSQ5K03N6AWDI4S2SAS1DK","A3FY6THWKRYN9M","3G9UA71JVVGUCOKNEKUVXTI6SA17JG","","","null","","","","","","","","","",""
"1905.699999988079","","image-keyboard-response","40","121410","0.0-40.0","3S06PH7KSSQ5K03N6AWDI4S2SAS1DK","A3FY6THWKRYN9M","3G9UA71JVVGUCOKNEKUVXTI6SA17JG","","img/set1/S2.jpg","72","2","structured_incentive","68","structured_incentive,structured_normal,structured_load,random","2,3,4,2,1,2","3,2,4,1","false","","",""
"null","","html-keyboard-response","41","121764","0.0-41.0","3S06PH7KSSQ5K03N6AWDI4S2SAS1DK","A3FY6THWKRYN9M","3G9UA71JVVGUCOKNEKUVXTI6SA17JG","","<img src=""img/set1/S2.jpg"" width=""540"" height = ""360"">","null","","","","","","","","","",""
"null","","html-keyboard-response","42","121980","0.0-42.0","3S06PH7KSSQ5K03N6AWDI4S2SAS1DK","A3FY6THWKRYN9M","3G9UA71JVVGUCOKNEKUVXTI6SA17JG","","","null","","","","","","","","","",""
"559.5","","image-keyboard-response","43","122540","0.0-43.0","3S06PH7KSSQ5K03N6AWDI4S2SAS1DK","A3FY6THWKRYN9M","3G9UA71JVVGUCOKNEKUVXTI6SA17JG","","img/set1/S3.jpg","74","3","structured_incentive","72","structured_incentive,structured_normal,structured_load,random","2,3,4,2,1,2","3,2,4,1","false","","",""
"null","","html-keyboard-response","44","122894","0.0-44.0","3S06PH7KSSQ5K03N6AWDI4S2SAS1DK","A3FY6THWKRYN9M","3G9UA71JVVGUCOKNEKUVXTI6SA17JG","","<img src=""img/set1/S3.jpg"" width=""540"" height = ""360"">","null","","","","","","","","","",""
"null","","html-keyboard-response","45","123095","0.0-45.0","3S06PH7KSSQ5K03N6AWDI4S2SAS1DK","A3FY6THWKRYN9M","3G9UA71JVVGUCOKNEKUVXTI6SA17JG","","","null","","","","","","","","","",""
"1441.5999999642372","","image-keyboard-response","46","124538","0.0-46.0","3S06PH7KSSQ5K03N6AWDI4S2SAS1DK","A3FY6THWKRYN9M","3G9UA71JVVGUCOKNEKUVXTI6SA17JG","","img/set1/S4.jpg","72","4","structured_incentive","74","structured_incentive,structured_normal,structured_load,random","2,3,4,2,1,2","3,2,4,1","false","","",""
"null","","html-keyboard-response","47","124893","0.0-47.0","3S06PH7KSSQ5K03N6AWDI4S2SAS1DK","A3FY6THWKRYN9M","3G9UA71JVVGUCOKNEKUVXTI6SA17JG","","<img src=""img/set1/S4.jpg"" width=""540"" height = ""360"">","null","","","","","","","","","",""
"null","","html-keyboard-response","48","125109","0.0-48.0","3S06PH7KSSQ5K03N6AWDI4S2SAS1DK","A3FY6THWKRYN9M","3G9UA71JVVGUCOKNEKUVXTI6SA17JG","","","null","","","","","","","","","",""
"919.6999999880791","","image-keyboard-response","49","126030","0.0-49.0","3S06PH7KSSQ5K03N6AWDI4S2SAS1DK","A3FY6THWKRYN9M","3G9UA71JVVGUCOKNEKUVXTI6SA17JG","","img/set1/S1.jpg","68","1","structured_incentive","83","structured_incentive,structured_normal,structured_load,random","2,3,4,2,1,2","3,2,4,1","false","","",""
"null","","html-keyboard-response","50","126395","0.0-50.0","3S06PH7KSSQ5K03N6AWDI4S2SAS1DK","A3FY6THWKRYN9M","3G9UA71JVVGUCOKNEKUVXTI6SA17JG","","<img src=""img/set1/S1.jpg"" width=""540"" height = ""360"">","null","","","","","","","","","",""
"null","","html-keyboard-response","51","126609","0.0-51.0","3S06PH7KSSQ5K03N6AWDI4S2SAS1DK","A3FY6THWKRYN9M","3G9UA71JVVGUCOKNEKUVXTI6SA17JG","","","null","","","","","","","","","",""
"1018.7000000476837","","image-keyboard-response","52","127629","0.0-52.0","3S06PH7KSSQ5K03N6AWDI4S2SAS1DK","A3FY6THWKRYN9M","3G9UA71JVVGUCOKNEKUVXTI6SA17JG","","img/set1/S2.jpg","72","2","structured_incentive","68","structured_incentive,structured_normal,structured_load,random","2,3,4,2,1,2","3,2,4,1","false","","",""
"null","","html-keyboard-response","53","127992","0.0-53.0","3S06PH7KSSQ5K03N6AWDI4S2SAS1DK","A3FY6THWKRYN9M","3G9UA71JVVGUCOKNEKUVXTI6SA17JG","","<img src=""img/set1/S2.jpg"" width=""540"" height = ""360"">","null","","","","","","","","","",""
"null","","html-keyboard-response","54","128208","0.0-54.0","3S06PH7KSSQ5K03N6AWDI4S2SAS1DK","A3FY6THWKRYN9M","3G9UA71JVVGUCOKNEKUVXTI6SA17JG","","","null","","","","","","","","","",""
"1372.1000000238419","","image-keyboard-response","55","129581","0.0-55.0","3S06PH7KSSQ5K03N6AWDI4S2SAS1DK","A3FY6THWKRYN9M","3G9UA71JVVGUCOKNEKUVXTI6SA17JG","","img/set1/S3.jpg","72","3","structured_incentive","72","structured_incentive,structured_normal,structured_load,random","2,3,4,2,1,2","3,2,4,1","true","","",""
"null","","html-keyboard-response","56","129934","0.0-56.0","3S06PH7KSSQ5K03N6AWDI4S2SAS1DK","A3FY6THWKRYN9M","3G9UA71JVVGUCOKNEKUVXTI6SA17JG","","<img src=""img/set1/S3.jpg"" width=""540"" height = ""360"" style=""border:16px solid orange"">","null","","","","","","","","","",""
"null","","html-keyboard-response","57","130136","0.0-57.0","3S06PH7KSSQ5K03N6AWDI4S2SAS1DK","A3FY6THWKRYN9M","3G9UA71JVVGUCOKNEKUVXTI6SA17JG","","","null","","","","","","","","","",""
"892.3000000119209","","image-keyboard-response","58","131029","0.0-58.0","3S06PH7KSSQ5K03N6AWDI4S2SAS1DK","A3FY6THWKRYN9M","3G9UA71JVVGUCOKNEKUVXTI6SA17JG","","img/set1/S4.jpg","72","4","structured_incentive","74","structured_incentive,structured_normal,structured_load,random","2,3,4,2,1,2","3,2,4,1","false","","",""
"null","","html-keyboard-response","59","131391","0.0-59.0","3S06PH7KSSQ5K03N6AWDI4S2SAS1DK","A3FY6THWKRYN9M","3G9UA71JVVGUCOKNEKUVXTI6SA17JG","","<img src=""img/set1/S4.jpg"" width=""540"" height = ""360"">","null","","","","","","","","","",""
"null","","html-keyboard-response","60","131595","0.0-60.0","3S06PH7KSSQ5K03N6AWDI4S2SAS1DK","A3FY6THWKRYN9M","3G9UA71JVVGUCOKNEKUVXTI6SA17JG","","","null","","","","","","","","","",""
"null","","image-keyboard-response","61","134102","0.0-61.0","3S06PH7KSSQ5K03N6AWDI4S2SAS1DK","A3FY6THWKRYN9M","3G9UA71JVVGUCOKNEKUVXTI6SA17JG","","img/set1/S3.jpg","null","3","structured_incentive","72","structured_incentive,structured_normal,structured_load,random","2,3,4,2,1,2","3,2,4,1","false","","",""
"null","","html-keyboard-response","62","134455","0.0-62.0","3S06PH7KSSQ5K03N6AWDI4S2SAS1DK","A3FY6THWKRYN9M","3G9UA71JVVGUCOKNEKUVXTI6SA17JG","","<img src=""img/set1/S3.jpg"" width=""540"" height = ""360"">","null","","","","","","","","","",""
"null","","html-keyboard-response","63","134656","0.0-63.0","3S06PH7KSSQ5K03N6AWDI4S2SAS1DK","A3FY6THWKRYN9M","3G9UA71JVVGUCOKNEKUVXTI6SA17JG","","","null","","","","","","","","","",""
"780","","image-keyboard-response","64","135437","0.0-64.0","3S06PH7KSSQ5K03N6AWDI4S2SAS1DK","A3FY6THWKRYN9M","3G9UA71JVVGUCOKNEKUVXTI6SA17JG","","img/set1/S4.jpg","72","4","structured_incentive","74","structured_incentive,structured_normal,structured_load,random","2,3,4,2,1,2","3,2,4,1","false","","",""
"null","","html-keyboard-response","65","135801","0.0-65.0","3S06PH7KSSQ5K03N6AWDI4S2SAS1DK","A3FY6THWKRYN9M","3G9UA71JVVGUCOKNEKUVXTI6SA17JG","","<img src=""img/set1/S4.jpg"" width=""540"" height = ""360"">","null","","","","","","","","","",""
"null","","html-keyboard-response","66","136005","0.0-66.0","3S06PH7KSSQ5K03N6AWDI4S2SAS1DK","A3FY6THWKRYN9M","3G9UA71JVVGUCOKNEKUVXTI6SA17JG","","","null","","","","","","","","","",""
"1019.3000000119209","","image-keyboard-response","67","137025","0.0-67.0","3S06PH7KSSQ5K03N6AWDI4S2SAS1DK","A3FY6THWKRYN9M","3G9UA71JVVGUCOKNEKUVXTI6SA17JG","","img/set1/S2.jpg","68","2","structured_incentive","68","structured_incentive,structured_normal,structured_load,random","2,3,4,2,1,2","3,2,4,1","true","","",""
"null","","html-keyboard-response","68","137385","0.0-68.0","3S06PH7KSSQ5K03N6AWDI4S2SAS1DK","A3FY6THWKRYN9M","3G9UA71JVVGUCOKNEKUVXTI6SA17JG","","<img src=""img/set1/S2.jpg"" width=""540"" height = ""360"" style=""border:16px solid orange"">","null","","","","","","","","","",""
"null","","html-keyboard-response","69","137590","0.0-69.0","3S06PH7KSSQ5K03N6AWDI4S2SAS1DK","A3FY6THWKRYN9M","3G9UA71JVVGUCOKNEKUVXTI6SA17JG","","","null","","","","","","","","","",""
"null","","image-keyboard-response","70","140104","0.0-70.0","3S06PH7KSSQ5K03N6AWDI4S2SAS1DK","A3FY6THWKRYN9M","3G9UA71JVVGUCOKNEKUVXTI6SA17JG","","img/set1/S4.jpg","null","4","structured_incentive","74","structured_incentive,structured_normal,structured_load,random","2,3,4,2,1,2","3,2,4,1","false","","",""
"null","","html-keyboard-response","71","140465","0.0-71.0","3S06PH7KSSQ5K03N6AWDI4S2SAS1DK","A3FY6THWKRYN9M","3G9UA71JVVGUCOKNEKUVXTI6SA17JG","","<img src=""img/set1/S4.jpg"" width=""540"" height = ""360"">","null","","","","","","","","","",""
"null","","html-keyboard-response","72","140681","0.0-72.0","3S06PH7KSSQ5K03N6AWDI4S2SAS1DK","A3FY6THWKRYN9M","3G9UA71JVVGUCOKNEKUVXTI6SA17JG","","","null","","","","","","","","","",""
"953.3999999761581","","image-keyboard-response","73","141635","0.0-73.0","3S06PH7KSSQ5K03N6AWDI4S2SAS1DK","A3FY6THWKRYN9M","3G9UA71JVVGUCOKNEKUVXTI6SA17JG","","img/set1/S4.jpg","74","4","structured_incentive","74","structured_incentive,structured_normal,structured_load,random","2,3,4,2,1,2","3,2,4,1","true","","",""
"null","","html-keyboard-response","74","141989","0.0-74.0","3S06PH7KSSQ5K03N6AWDI4S2SAS1DK","A3FY6THWKRYN9M","3G9UA71JVVGUCOKNEKUVXTI6SA17JG","","<img src=""img/set1/S4.jpg"" width=""540"" height = ""360"" style=""border:16px solid Violet"">","null","","","","","","","","","",""
"null","","html-keyboard-response","75","142192","0.0-75.0","3S06PH7KSSQ5K03N6AWDI4S2SAS1DK","A3FY6THWKRYN9M","3G9UA71JVVGUCOKNEKUVXTI6SA17JG","","","null","","","","","","","","","",""
"1097.5999999642372","","image-keyboard-response","76","143291","0.0-76.0","3S06PH7KSSQ5K03N6AWDI4S2SAS1DK","A3FY6THWKRYN9M","3G9UA71JVVGUCOKNEKUVXTI6SA17JG","","img/set1/S1.jpg","68","1","structured_incentive","83","structured_incentive,structured_normal,structured_load,random","2,3,4,2,1,2","3,2,4,1","false","","",""
"null","","html-keyboard-response","77","143658","0.0-77.0","3S06PH7KSSQ5K03N6AWDI4S2SAS1DK","A3FY6THWKRYN9M","3G9UA71JVVGUCOKNEKUVXTI6SA17JG","","<img src=""img/set1/S1.jpg"" width=""540"" height = ""360"">","null","","","","","","","","","",""
"null","","html-keyboard-response","78","143875","0.0-78.0","3S06PH7KSSQ5K03N6AWDI4S2SAS1DK","A3FY6THWKRYN9M","3G9UA71JVVGUCOKNEKUVXTI6SA17JG","","","null","","","","","","","","","",""
"1351.3999999761581","","image-keyboard-response","79","145228","0.0-79.0","3S06PH7KSSQ5K03N6AWDI4S2SAS1DK","A3FY6THWKRYN9M","3G9UA71JVVGUCOKNEKUVXTI6SA17JG","","img/set1/S2.jpg","68","2","structured_incentive","68","structured_incentive,structured_normal,structured_load,random","2,3,4,2,1,2","3,2,4,1","true","","",""
"null","","html-keyboard-response","80","145586","0.0-80.0","3S06PH7KSSQ5K03N6AWDI4S2SAS1DK","A3FY6THWKRYN9M","3G9UA71JVVGUCOKNEKUVXTI6SA17JG","","<img src=""img/set1/S2.jpg"" width=""540"" height = ""360"" style=""border:16px solid orange"">","null","","","","","","","","","",""
"null","","html-keyboard-response","81","145800","0.0-81.0","3S06PH7KSSQ5K03N6AWDI4S2SAS1DK","A3FY6THWKRYN9M","3G9UA71JVVGUCOKNEKUVXTI6SA17JG","","","null","","","","","","","","","",""
"1255.8999999761581","","image-keyboard-response","82","147057","0.0-82.0","3S06PH7KSSQ5K03N6AWDI4S2SAS1DK","A3FY6THWKRYN9M","3G9UA71JVVGUCOKNEKUVXTI6SA17JG","","img/set1/S3.jpg","72","3","structured_incentive","72","structured_incentive,structured_normal,structured_load,random","2,3,4,2,1,2","3,2,4,1","true","","",""
"null","","html-keyboard-response","83","147423","0.0-83.0","3S06PH7KSSQ5K03N6AWDI4S2SAS1DK","A3FY6THWKRYN9M","3G9UA71JVVGUCOKNEKUVXTI6SA17JG","","<img src=""img/set1/S3.jpg"" width=""540"" height = ""360"" style=""border:16px solid orange"">","null","","","","","","","","","",""
"null","","html-keyboard-response","84","147638","0.0-84.0","3S06PH7KSSQ5K03N6AWDI4S2SAS1DK","A3FY6THWKRYN9M","3G9UA71JVVGUCOKNEKUVXTI6SA17JG","","","null","","","","","","","","","",""
"735.6999999880791","","image-keyboard-response","85","148375","0.0-85.0","3S06PH7KSSQ5K03N6AWDI4S2SAS1DK","A3FY6THWKRYN9M","3G9UA71JVVGUCOKNEKUVXTI6SA17JG","","img/set1/S4.jpg","74","4","structured_incentive","74","structured_incentive,structured_normal,structured_load,random","2,3,4,2,1,2","3,2,4,1","true","","",""
"null","","html-keyboard-response","86","148739","0.0-86.0","3S06PH7KSSQ5K03N6AWDI4S2SAS1DK","A3FY6THWKRYN9M","3G9UA71JVVGUCOKNEKUVXTI6SA17JG","","<img src=""img/set1/S4.jpg"" width=""540"" height = ""360"" style=""border:16px solid Violet"">","null","","","","","","","","","",""
"null","","html-keyboard-response","87","148941","0.0-87.0","3S06PH7KSSQ5K03N6AWDI4S2SAS1DK","A3FY6THWKRYN9M","3G9UA71JVVGUCOKNEKUVXTI6SA17JG","","","null","","","","","","","","","",""
"null","","image-keyboard-response","88","151455","0.0-88.0","3S06PH7KSSQ5K03N6AWDI4S2SAS1DK","A3FY6THWKRYN9M","3G9UA71JVVGUCOKNEKUVXTI6SA17JG","","img/set1/S2.jpg","null","2","structured_incentive","68","structured_incentive,structured_normal,structured_load,random","2,3,4,2,1,2","3,2,4,1","false","","",""
"null","","html-keyboard-response","89","151819","0.0-89.0","3S06PH7KSSQ5K03N6AWDI4S2SAS1DK","A3FY6THWKRYN9M","3G9UA71JVVGUCOKNEKUVXTI6SA17JG","","<img src=""img/set1/S2.jpg"" width=""540"" height = ""360"">","null","","","","","","","","","",""
"null","","html-keyboard-response","90","152020","0.0-90.0","3S06PH7KSSQ5K03N6AWDI4S2SAS1DK","A3FY6THWKRYN9M","3G9UA71JVVGUCOKNEKUVXTI6SA17JG","","","null","","","","","","","","","",""
"897.6000000238419","","image-keyboard-response","91","152918","0.0-91.0","3S06PH7KSSQ5K03N6AWDI4S2SAS1DK","A3FY6THWKRYN9M","3G9UA71JVVGUCOKNEKUVXTI6SA17JG","","img/set1/S3.jpg","68","3","structured_incentive","72","structured_incentive,structured_normal,structured_load,random","2,3,4,2,1,2","3,2,4,1","false","","",""
"null","","html-keyboard-response","92","153270","0.0-92.0","3S06PH7KSSQ5K03N6AWDI4S2SAS1DK","A3FY6THWKRYN9M","3G9UA71JVVGUCOKNEKUVXTI6SA17JG","","<img src=""img/set1/S3.jpg"" width=""540"" height = ""360"">","null","","","","","","","","","",""
"null","","html-keyboard-response","93","153472","0.0-93.0","3S06PH7KSSQ5K03N6AWDI4S2SAS1DK","A3FY6THWKRYN9M","3G9UA71JVVGUCOKNEKUVXTI6SA17JG","","","null","","","","","","","","","",""
"1110.300000011921","","image-keyboard-response","94","154584","0.0-94.0","3S06PH7KSSQ5K03N6AWDI4S2SAS1DK","A3FY6THWKRYN9M","3G9UA71JVVGUCOKNEKUVXTI6SA17JG","","img/set1/S2.jpg","74","2","structured_incentive","68","structured_incentive,structured_normal,structured_load,random","2,3,4,2,1,2","3,2,4,1","false","","",""
"null","","html-keyboard-response","95","154942","0.0-95.0","3S06PH7KSSQ5K03N6AWDI4S2SAS1DK","A3FY6THWKRYN9M","3G9UA71JVVGUCOKNEKUVXTI6SA17JG","","<img src=""img/set1/S2.jpg"" width=""540"" height = ""360"">","null","","","","","","","","","",""
"null","","html-keyboard-response","96","155144","0.0-96.0","3S06PH7KSSQ5K03N6AWDI4S2SAS1DK","A3FY6THWKRYN9M","3G9UA71JVVGUCOKNEKUVXTI6SA17JG","","","null","","","","","","","","","",""
"592.8999999761581","","image-keyboard-response","97","155738","0.0-97.0","3S06PH7KSSQ5K03N6AWDI4S2SAS1DK","A3FY6THWKRYN9M","3G9UA71JVVGUCOKNEKUVXTI6SA17JG","","img/set1/S4.jpg","72","4","structured_incentive","74","structured_incentive,structured_normal,structured_load,random","2,3,4,2,1,2","3,2,4,1","false","","",""
"null","","html-keyboard-response","98","156101","0.0-98.0","3S06PH7KSSQ5K03N6AWDI4S2SAS1DK","A3FY6THWKRYN9M","3G9UA71JVVGUCOKNEKUVXTI6SA17JG","","<img src=""img/set1/S4.jpg"" width=""540"" height = ""360"">","null","","","","","","","","","",""
"null","","html-keyboard-response","99","156316","0.0-99.0","3S06PH7KSSQ5K03N6AWDI4S2SAS1DK","A3FY6THWKRYN9M","3G9UA71JVVGUCOKNEKUVXTI6SA17JG","","","null","","","","","","","","","",""
"807.8000000119209","","image-keyboard-response","100","157125","0.0-100.0","3S06PH7KSSQ5K03N6AWDI4S2SAS1DK","A3FY6THWKRYN9M","3G9UA71JVVGUCOKNEKUVXTI6SA17JG","","img/set1/S4.jpg","74","4","structured_incentive","74","structured_incentive,structured_normal,structured_load,random","2,3,4,2,1,2","3,2,4,1","true","","",""
"null","","html-keyboard-response","101","157489","0.0-101.0","3S06PH7KSSQ5K03N6AWDI4S2SAS1DK","A3FY6THWKRYN9M","3G9UA71JVVGUCOKNEKUVXTI6SA17JG","","<img src=""img/set1/S4.jpg"" width=""540"" height = ""360"" style=""border:16px solid Violet"">","null","","","","","","","","","",""
"null","","html-keyboard-response","102","157704","0.0-102.0","3S06PH7KSSQ5K03N6AWDI4S2SAS1DK","A3FY6THWKRYN9M","3G9UA71JVVGUCOKNEKUVXTI6SA17JG","","","null","","","","","","","","","",""
"null","","image-keyboard-response","103","160220","0.0-103.0","3S06PH7KSSQ5K03N6AWDI4S2SAS1DK","A3FY6THWKRYN9M","3G9UA71JVVGUCOKNEKUVXTI6SA17JG","","img/set1/S3.jpg","null","3","structured_incentive","72","structured_incentive,structured_normal,structured_load,random","2,3,4,2,1,2","3,2,4,1","false","","",""
"null","","html-keyboard-response","104","160582","0.0-104.0","3S06PH7KSSQ5K03N6AWDI4S2SAS1DK","A3FY6THWKRYN9M","3G9UA71JVVGUCOKNEKUVXTI6SA17JG","","<img src=""img/set1/S3.jpg"" width=""540"" height = ""360"">","null","","","","","","","","","",""
"null","","html-keyboard-response","105","160785","0.0-105.0","3S06PH7KSSQ5K03N6AWDI4S2SAS1DK","A3FY6THWKRYN9M","3G9UA71JVVGUCOKNEKUVXTI6SA17JG","","","null","","","","","","","","","",""
"843.1000000238419","","image-keyboard-response","106","161629","0.0-106.0","3S06PH7KSSQ5K03N6AWDI4S2SAS1DK","A3FY6THWKRYN9M","3G9UA71JVVGUCOKNEKUVXTI6SA17JG","","img/set1/S2.jpg","68","2","structured_incentive","68","structured_incentive,structured_normal,structured_load,random","2,3,4,2,1,2","3,2,4,1","true","","",""
"null","","html-keyboard-response","107","161987","0.0-107.0","3S06PH7KSSQ5K03N6AWDI4S2SAS1DK","A3FY6THWKRYN9M","3G9UA71JVVGUCOKNEKUVXTI6SA17JG","","<img src=""img/set1/S2.jpg"" width=""540"" height = ""360"" style=""border:16px solid orange"">","null","","","","","","","","","",""
"null","","html-keyboard-response","108","162201","0.0-108.0","3S06PH7KSSQ5K03N6AWDI4S2SAS1DK","A3FY6THWKRYN9M","3G9UA71JVVGUCOKNEKUVXTI6SA17JG","","","null","","","","","","","","","",""
"1535.7999999523163","","image-keyboard-response","109","163737","0.0-109.0","3S06PH7KSSQ5K03N6AWDI4S2SAS1DK","A3FY6THWKRYN9M","3G9UA71JVVGUCOKNEKUVXTI6SA17JG","","img/set1/S3.jpg","68","3","structured_incentive","72","structured_incentive,structured_normal,structured_load,random","2,3,4,2,1,2","3,2,4,1","false","","",""
"null","","html-keyboard-response","110","164104","0.0-110.0","3S06PH7KSSQ5K03N6AWDI4S2SAS1DK","A3FY6THWKRYN9M","3G9UA71JVVGUCOKNEKUVXTI6SA17JG","","<img src=""img/set1/S3.jpg"" width=""540"" height = ""360"">","null","","","","","","","","","",""
"null","","html-keyboard-response","111","164308","0.0-111.0","3S06PH7KSSQ5K03N6AWDI4S2SAS1DK","A3FY6THWKRYN9M","3G9UA71JVVGUCOKNEKUVXTI6SA17JG","","","null","","","","","","","","","",""
"null","","image-keyboard-response","112","166825","0.0-112.0","3S06PH7KSSQ5K03N6AWDI4S2SAS1DK","A3FY6THWKRYN9M","3G9UA71JVVGUCOKNEKUVXTI6SA17JG","","img/set1/S2.jpg","null","2","structured_incentive","68","structured_incentive,structured_normal,structured_load,random","2,3,4,2,1,2","3,2,4,1","false","","",""
"null","","html-keyboard-response","113","167191","0.0-113.0","3S06PH7KSSQ5K03N6AWDI4S2SAS1DK","A3FY6THWKRYN9M","3G9UA71JVVGUCOKNEKUVXTI6SA17JG","","<img src=""img/set1/S2.jpg"" width=""540"" height = ""360"">","null","","","","","","","","","",""
"null","","html-keyboard-response","114","167392","0.0-114.0","3S06PH7KSSQ5K03N6AWDI4S2SAS1DK","A3FY6THWKRYN9M","3G9UA71JVVGUCOKNEKUVXTI6SA17JG","","","null","","","","","","","","","",""
"1141.300000011921","","image-keyboard-response","115","168535","0.0-115.0","3S06PH7KSSQ5K03N6AWDI4S2SAS1DK","A3FY6THWKRYN9M","3G9UA71JVVGUCOKNEKUVXTI6SA17JG","","img/set1/S3.jpg","72","3","structured_incentive","72","structured_incentive,structured_normal,structured_load,random","2,3,4,2,1,2","3,2,4,1","true","","",""
"null","","html-keyboard-response","116","168892","0.0-116.0","3S06PH7KSSQ5K03N6AWDI4S2SAS1DK","A3FY6THWKRYN9M","3G9UA71JVVGUCOKNEKUVXTI6SA17JG","","<img src=""img/set1/S3.jpg"" width=""540"" height = ""360"" style=""border:16px solid orange"">","null","","","","","","","","","",""
"null","","html-keyboard-response","117","169108","0.0-117.0","3S06PH7KSSQ5K03N6AWDI4S2SAS1DK","A3FY6THWKRYN9M","3G9UA71JVVGUCOKNEKUVXTI6SA17JG","","","null","","","","","","","","","",""
"1019.1000000238419","","image-keyboard-response","118","170128","0.0-118.0","3S06PH7KSSQ5K03N6AWDI4S2SAS1DK","A3FY6THWKRYN9M","3G9UA71JVVGUCOKNEKUVXTI6SA17JG","","img/set1/S2.jpg","68","2","structured_incentive","68","structured_incentive,structured_normal,structured_load,random","2,3,4,2,1,2","3,2,4,1","true","","",""
"null","","html-keyboard-response","119","170495","0.0-119.0","3S06PH7KSSQ5K03N6AWDI4S2SAS1DK","A3FY6THWKRYN9M","3G9UA71JVVGUCOKNEKUVXTI6SA17JG","","<img src=""img/set1/S2.jpg"" width=""540"" height = ""360"" style=""border:16px solid orange"">","null","","","","","","","","","",""
"null","","html-keyboard-response","120","170710","0.0-120.0","3S06PH7KSSQ5K03N6AWDI4S2SAS1DK","A3FY6THWKRYN9M","3G9UA71JVVGUCOKNEKUVXTI6SA17JG","","","null","","","","","","","","","",""
"1004.5","","image-keyboard-response","121","171716","0.0-121.0","3S06PH7KSSQ5K03N6AWDI4S2SAS1DK","A3FY6THWKRYN9M","3G9UA71JVVGUCOKNEKUVXTI6SA17JG","","img/set1/S3.jpg","72","3","structured_incentive","72","structured_incentive,structured_normal,structured_load,random","2,3,4,2,1,2","3,2,4,1","true","","",""
"null","","html-keyboard-response","122","172073","0.0-122.0","3S06PH7KSSQ5K03N6AWDI4S2SAS1DK","A3FY6THWKRYN9M","3G9UA71JVVGUCOKNEKUVXTI6SA17JG","","<img src=""img/set1/S3.jpg"" width=""540"" height = ""360"" style=""border:16px solid orange"">","null","","","","","","","","","",""
"null","","html-keyboard-response","123","172287","0.0-123.0","3S06PH7KSSQ5K03N6AWDI4S2SAS1DK","A3FY6THWKRYN9M","3G9UA71JVVGUCOKNEKUVXTI6SA17JG","","","null","","","","","","","","","",""
"null","","image-keyboard-response","124","174802","0.0-124.0","3S06PH7KSSQ5K03N6AWDI4S2SAS1DK","A3FY6THWKRYN9M","3G9UA71JVVGUCOKNEKUVXTI6SA17JG","","img/set1/S1.jpg","null","1","structured_incentive","83","structured_incentive,structured_normal,structured_load,random","2,3,4,2,1,2","3,2,4,1","false","","",""
"null","","html-keyboard-response","125","175158","0.0-125.0","3S06PH7KSSQ5K03N6AWDI4S2SAS1DK","A3FY6THWKRYN9M","3G9UA71JVVGUCOKNEKUVXTI6SA17JG","","<img src=""img/set1/S1.jpg"" width=""540"" height = ""360"">","null","","","","","","","","","",""
"null","","html-keyboard-response","126","175373","0.0-126.0","3S06PH7KSSQ5K03N6AWDI4S2SAS1DK","A3FY6THWKRYN9M","3G9UA71JVVGUCOKNEKUVXTI6SA17JG","","","null","","","","","","","","","",""
"1023","","image-keyboard-response","127","176397","0.0-127.0","3S06PH7KSSQ5K03N6AWDI4S2SAS1DK","A3FY6THWKRYN9M","3G9UA71JVVGUCOKNEKUVXTI6SA17JG","","img/set1/S2.jpg","72","2","structured_incentive","68","structured_incentive,structured_normal,structured_load,random","2,3,4,2,1,2","3,2,4,1","false","","",""
"null","","html-keyboard-response","128","176752","0.0-128.0","3S06PH7KSSQ5K03N6AWDI4S2SAS1DK","A3FY6THWKRYN9M","3G9UA71JVVGUCOKNEKUVXTI6SA17JG","","<img src=""img/set1/S2.jpg"" width=""540"" height = ""360"">","null","","","","","","","","","",""
"null","","html-keyboard-response","129","176954","0.0-129.0","3S06PH7KSSQ5K03N6AWDI4S2SAS1DK","A3FY6THWKRYN9M","3G9UA71JVVGUCOKNEKUVXTI6SA17JG","","","null","","","","","","","","","",""
"864.3999999761581","","image-keyboard-response","130","177819","0.0-130.0","3S06PH7KSSQ5K03N6AWDI4S2SAS1DK","A3FY6THWKRYN9M","3G9UA71JVVGUCOKNEKUVXTI6SA17JG","","img/set1/S4.jpg","74","4","structured_incentive","74","structured_incentive,structured_normal,structured_load,random","2,3,4,2,1,2","3,2,4,1","true","","",""
"null","","html-keyboard-response","131","178171","0.0-131.0","3S06PH7KSSQ5K03N6AWDI4S2SAS1DK","A3FY6THWKRYN9M","3G9UA71JVVGUCOKNEKUVXTI6SA17JG","","<img src=""img/set1/S4.jpg"" width=""540"" height = ""360"" style=""border:16px solid Violet"">","null","","","","","","","","","",""
"null","","html-keyboard-response","132","178373","0.0-132.0","3S06PH7KSSQ5K03N6AWDI4S2SAS1DK","A3FY6THWKRYN9M","3G9UA71JVVGUCOKNEKUVXTI6SA17JG","","","null","","","","","","","","","",""
"933.5","","image-keyboard-response","133","179307","0.0-133.0","3S06PH7KSSQ5K03N6AWDI4S2SAS1DK","A3FY6THWKRYN9M","3G9UA71JVVGUCOKNEKUVXTI6SA17JG","","img/set1/S1.jpg","68","1","structured_incentive","83","structured_incentive,structured_normal,structured_load,random","2,3,4,2,1,2","3,2,4,1","false","","",""
"null","","html-keyboard-response","134","179659","0.0-134.0","3S06PH7KSSQ5K03N6AWDI4S2SAS1DK","A3FY6THWKRYN9M","3G9UA71JVVGUCOKNEKUVXTI6SA17JG","","<img src=""img/set1/S1.jpg"" width=""540"" height = ""360"">","null","","","","","","","","","",""
"null","","html-keyboard-response","135","179876","0.0-135.0","3S06PH7KSSQ5K03N6AWDI4S2SAS1DK","A3FY6THWKRYN9M","3G9UA71JVVGUCOKNEKUVXTI6SA17JG","","","null","","","","","","","","","",""
"886.0999999642372","","image-keyboard-response","136","180763","0.0-136.0","3S06PH7KSSQ5K03N6AWDI4S2SAS1DK","A3FY6THWKRYN9M","3G9UA71JVVGUCOKNEKUVXTI6SA17JG","","img/set1/S2.jpg","68","2","structured_incentive","68","structured_incentive,structured_normal,structured_load,random","2,3,4,2,1,2","3,2,4,1","true","","",""
"null","","html-keyboard-response","137","181121","0.0-137.0","3S06PH7KSSQ5K03N6AWDI4S2SAS1DK","A3FY6THWKRYN9M","3G9UA71JVVGUCOKNEKUVXTI6SA17JG","","<img src=""img/set1/S2.jpg"" width=""540"" height = ""360"" style=""border:16px solid orange"">","null","","","","","","","","","",""
"null","","html-keyboard-response","138","181322","0.0-138.0","3S06PH7KSSQ5K03N6AWDI4S2SAS1DK","A3FY6THWKRYN9M","3G9UA71JVVGUCOKNEKUVXTI6SA17JG","","","null","","","","","","","","","",""
"null","","image-keyboard-response","139","183833","0.0-139.0","3S06PH7KSSQ5K03N6AWDI4S2SAS1DK","A3FY6THWKRYN9M","3G9UA71JVVGUCOKNEKUVXTI6SA17JG","","img/set1/S3.jpg","null","3","structured_incentive","72","structured_incentive,structured_normal,structured_load,random","2,3,4,2,1,2","3,2,4,1","false","","",""
"null","","html-keyboard-response","140","184187","0.0-140.0","3S06PH7KSSQ5K03N6AWDI4S2SAS1DK","A3FY6THWKRYN9M","3G9UA71JVVGUCOKNEKUVXTI6SA17JG","","<img src=""img/set1/S3.jpg"" width=""540"" height = ""360"">","null","","","","","","","","","",""
"null","","html-keyboard-response","141","184389","0.0-141.0","3S06PH7KSSQ5K03N6AWDI4S2SAS1DK","A3FY6THWKRYN9M","3G9UA71JVVGUCOKNEKUVXTI6SA17JG","","","null","","","","","","","","","",""
"951.6999999880791","","image-keyboard-response","142","185342","0.0-142.0","3S06PH7KSSQ5K03N6AWDI4S2SAS1DK","A3FY6THWKRYN9M","3G9UA71JVVGUCOKNEKUVXTI6SA17JG","","img/set1/S2.jpg","74","2","structured_incentive","68","structured_incentive,structured_normal,structured_load,random","2,3,4,2,1,2","3,2,4,1","false","","",""
"null","","html-keyboard-response","143","185694","0.0-143.0","3S06PH7KSSQ5K03N6AWDI4S2SAS1DK","A3FY6THWKRYN9M","3G9UA71JVVGUCOKNEKUVXTI6SA17JG","","<img src=""img/set1/S2.jpg"" width=""540"" height = ""360"">","null","","","","","","","","","",""
"null","","html-keyboard-response","144","185896","0.0-144.0","3S06PH7KSSQ5K03N6AWDI4S2SAS1DK","A3FY6THWKRYN9M","3G9UA71JVVGUCOKNEKUVXTI6SA17JG","","","null","","","","","","","","","",""
"634.4000000357628","","image-keyboard-response","145","186537","0.0-145.0","3S06PH7KSSQ5K03N6AWDI4S2SAS1DK","A3FY6THWKRYN9M","3G9UA71JVVGUCOKNEKUVXTI6SA17JG","","img/set1/S3.jpg","68","3","structured_incentive","72","structured_incentive,structured_normal,structured_load,random","2,3,4,2,1,2","3,2,4,1","false","","",""
"null","","html-keyboard-response","146","186889","0.0-146.0","3S06PH7KSSQ5K03N6AWDI4S2SAS1DK","A3FY6THWKRYN9M","3G9UA71JVVGUCOKNEKUVXTI6SA17JG","","<img src=""img/set1/S3.jpg"" width=""540"" height = ""360"">","null","","","","","","","","","",""
"null","","html-keyboard-response","147","187094","0.0-147.0","3S06PH7KSSQ5K03N6AWDI4S2SAS1DK","A3FY6THWKRYN9M","3G9UA71JVVGUCOKNEKUVXTI6SA17JG","","","null","","","","","","","","","",""
"null","","image-keyboard-response","148","189598","0.0-148.0","3S06PH7KSSQ5K03N6AWDI4S2SAS1DK","A3FY6THWKRYN9M","3G9UA71JVVGUCOKNEKUVXTI6SA17JG","","img/set1/S3.jpg","null","3","structured_incentive","72","structured_incentive,structured_normal,structured_load,random","2,3,4,2,1,2","3,2,4,1","false","","",""
"null","","html-keyboard-response","149","189953","0.0-149.0","3S06PH7KSSQ5K03N6AWDI4S2SAS1DK","A3FY6THWKRYN9M","3G9UA71JVVGUCOKNEKUVXTI6SA17JG","","<img src=""img/set1/S3.jpg"" width=""540"" height = ""360"">","null","","","","","","","","","",""
"null","","html-keyboard-response","150","190169","0.0-150.0","3S06PH7KSSQ5K03N6AWDI4S2SAS1DK","A3FY6THWKRYN9M","3G9UA71JVVGUCOKNEKUVXTI6SA17JG","","","null","","","","","","","","","",""
"1320","","image-keyboard-response","151","191490","0.0-151.0","3S06PH7KSSQ5K03N6AWDI4S2SAS1DK","A3FY6THWKRYN9M","3G9UA71JVVGUCOKNEKUVXTI6SA17JG","","img/set1/S1.jpg","74","1","structured_incentive","83","structured_incentive,structured_normal,structured_load,random","2,3,4,2,1,2","3,2,4,1","false","","",""
"null","","html-keyboard-response","152","191855","0.0-152.0","3S06PH7KSSQ5K03N6AWDI4S2SAS1DK","A3FY6THWKRYN9M","3G9UA71JVVGUCOKNEKUVXTI6SA17JG","","<img src=""img/set1/S1.jpg"" width=""540"" height = ""360"">","null","","","","","","","","","",""
"null","","html-keyboard-response","153","192056","0.0-153.0","3S06PH7KSSQ5K03N6AWDI4S2SAS1DK","A3FY6THWKRYN9M","3G9UA71JVVGUCOKNEKUVXTI6SA17JG","","","null","","","","","","","","","",""
"855.6999999880791","","image-keyboard-response","154","192913","0.0-154.0","3S06PH7KSSQ5K03N6AWDI4S2SAS1DK","A3FY6THWKRYN9M","3G9UA71JVVGUCOKNEKUVXTI6SA17JG","","img/set1/S1.jpg","72","1","structured_incentive","83","structured_incentive,structured_normal,structured_load,random","2,3,4,2,1,2","3,2,4,1","false","","",""
"null","","html-keyboard-response","155","193273","0.0-155.0","3S06PH7KSSQ5K03N6AWDI4S2SAS1DK","A3FY6THWKRYN9M","3G9UA71JVVGUCOKNEKUVXTI6SA17JG","","<img src=""img/set1/S1.jpg"" width=""540"" height = ""360"">","null","","","","","","","","","",""
"null","","html-keyboard-response","156","193477","0.0-156.0","3S06PH7KSSQ5K03N6AWDI4S2SAS1DK","A3FY6THWKRYN9M","3G9UA71JVVGUCOKNEKUVXTI6SA17JG","","","null","","","","","","","","","",""
"686.3000000119209","","image-keyboard-response","157","194165","0.0-157.0","3S06PH7KSSQ5K03N6AWDI4S2SAS1DK","A3FY6THWKRYN9M","3G9UA71JVVGUCOKNEKUVXTI6SA17JG","","img/set1/S4.jpg","74","4","structured_incentive","74","structured_incentive,structured_normal,structured_load,random","2,3,4,2,1,2","3,2,4,1","true","","",""
"null","","html-keyboard-response","158","194519","0.0-158.0","3S06PH7KSSQ5K03N6AWDI4S2SAS1DK","A3FY6THWKRYN9M","3G9UA71JVVGUCOKNEKUVXTI6SA17JG","","<img src=""img/set1/S4.jpg"" width=""540"" height = ""360"" style=""border:16px solid Violet"">","null","","","","","","","","","",""
"null","","html-keyboard-response","159","194720","0.0-159.0","3S06PH7KSSQ5K03N6AWDI4S2SAS1DK","A3FY6THWKRYN9M","3G9UA71JVVGUCOKNEKUVXTI6SA17JG","","","null","","","","","","","","","",""
"588.5999999642372","","image-keyboard-response","160","195310","0.0-160.0","3S06PH7KSSQ5K03N6AWDI4S2SAS1DK","A3FY6THWKRYN9M","3G9UA71JVVGUCOKNEKUVXTI6SA17JG","","img/set1/S2.jpg","68","2","structured_incentive","68","structured_incentive,structured_normal,structured_load,random","2,3,4,2,1,2","3,2,4,1","true","","",""
"null","","html-keyboard-response","161","195665","0.0-161.0","3S06PH7KSSQ5K03N6AWDI4S2SAS1DK","A3FY6THWKRYN9M","3G9UA71JVVGUCOKNEKUVXTI6SA17JG","","<img src=""img/set1/S2.jpg"" width=""540"" height = ""360"" style=""border:16px solid orange"">","null","","","","","","","","","",""
"null","","html-keyboard-response","162","195868","0.0-162.0","3S06PH7KSSQ5K03N6AWDI4S2SAS1DK","A3FY6THWKRYN9M","3G9UA71JVVGUCOKNEKUVXTI6SA17JG","","","null","","","","","","","","","",""
"1258.8999999761581","","image-keyboard-response","163","197128","0.0-163.0","3S06PH7KSSQ5K03N6AWDI4S2SAS1DK","A3FY6THWKRYN9M","3G9UA71JVVGUCOKNEKUVXTI6SA17JG","","img/set1/S4.jpg","74","4","structured_incentive","74","structured_incentive,structured_normal,structured_load,random","2,3,4,2,1,2","3,2,4,1","true","","",""
"null","","html-keyboard-response","164","197486","0.0-164.0","3S06PH7KSSQ5K03N6AWDI4S2SAS1DK","A3FY6THWKRYN9M","3G9UA71JVVGUCOKNEKUVXTI6SA17JG","","<img src=""img/set1/S4.jpg"" width=""540"" height = ""360"" style=""border:16px solid Violet"">","null","","","","","","","","","",""
"null","","html-keyboard-response","165","197689","0.0-165.0","3S06PH7KSSQ5K03N6AWDI4S2SAS1DK","A3FY6THWKRYN9M","3G9UA71JVVGUCOKNEKUVXTI6SA17JG","","","null","","","","","","","","","",""
"2338","","image-keyboard-response","166","200028","0.0-166.0","3S06PH7KSSQ5K03N6AWDI4S2SAS1DK","A3FY6THWKRYN9M","3G9UA71JVVGUCOKNEKUVXTI6SA17JG","","img/set1/S3.jpg","72","3","structured_incentive","72","structured_incentive,structured_normal,structured_load,random","2,3,4,2,1,2","3,2,4,1","true","","",""
"null","","html-keyboard-response","167","200394","0.0-167.0","3S06PH7KSSQ5K03N6AWDI4S2SAS1DK","A3FY6THWKRYN9M","3G9UA71JVVGUCOKNEKUVXTI6SA17JG","","<img src=""img/set1/S3.jpg"" width=""540"" height = ""360"" style=""border:16px solid orange"">","null","","","","","","","","","",""
"null","","html-keyboard-response","168","200598","0.0-168.0","3S06PH7KSSQ5K03N6AWDI4S2SAS1DK","A3FY6THWKRYN9M","3G9UA71JVVGUCOKNEKUVXTI6SA17JG","","","null","","","","","","","","","",""
"550.6999999880791","","image-keyboard-response","169","201150","0.0-169.0","3S06PH7KSSQ5K03N6AWDI4S2SAS1DK","A3FY6THWKRYN9M","3G9UA71JVVGUCOKNEKUVXTI6SA17JG","","img/set1/S1.jpg","68","1","structured_incentive","83","structured_incentive,structured_normal,structured_load,random","2,3,4,2,1,2","3,2,4,1","false","","",""
"null","","html-keyboard-response","170","201507","0.0-170.0","3S06PH7KSSQ5K03N6AWDI4S2SAS1DK","A3FY6THWKRYN9M","3G9UA71JVVGUCOKNEKUVXTI6SA17JG","","<img src=""img/set1/S1.jpg"" width=""540"" height = ""360"">","null","","","","","","","","","",""
"null","","html-keyboard-response","171","201713","0.0-171.0","3S06PH7KSSQ5K03N6AWDI4S2SAS1DK","A3FY6THWKRYN9M","3G9UA71JVVGUCOKNEKUVXTI6SA17JG","","","null","","","","","","","","","",""
"0.10000002384185791","","image-keyboard-response","172","201714","0.0-172.0","3S06PH7KSSQ5K03N6AWDI4S2SAS1DK","A3FY6THWKRYN9M","3G9UA71JVVGUCOKNEKUVXTI6SA17JG","","img/set1/S4.jpg","72","4","structured_incentive","74","structured_incentive,structured_normal,structured_load,random","2,3,4,2,1,2","3,2,4,1","false","","",""
"null","","html-keyboard-response","173","202070","0.0-173.0","3S06PH7KSSQ5K03N6AWDI4S2SAS1DK","A3FY6THWKRYN9M","3G9UA71JVVGUCOKNEKUVXTI6SA17JG","","<img src=""img/set1/S4.jpg"" width=""540"" height = ""360"">","null","","","","","","","","","",""
"null","","html-keyboard-response","174","202273","0.0-174.0","3S06PH7KSSQ5K03N6AWDI4S2SAS1DK","A3FY6THWKRYN9M","3G9UA71JVVGUCOKNEKUVXTI6SA17JG","","","null","","","","","","","","","",""
"357.7999999523163","","image-keyboard-response","175","202632","0.0-175.0","3S06PH7KSSQ5K03N6AWDI4S2SAS1DK","A3FY6THWKRYN9M","3G9UA71JVVGUCOKNEKUVXTI6SA17JG","","img/set1/S4.jpg","74","4","structured_incentive","74","structured_incentive,structured_normal,structured_load,random","2,3,4,2,1,2","3,2,4,1","true","","",""
"null","","html-keyboard-response","176","202992","0.0-176.0","3S06PH7KSSQ5K03N6AWDI4S2SAS1DK","A3FY6THWKRYN9M","3G9UA71JVVGUCOKNEKUVXTI6SA17JG","","<img src=""img/set1/S4.jpg"" width=""540"" height = ""360"" style=""border:16px solid Violet"">","null","","","","","","","","","",""
"null","","html-keyboard-response","177","203194","0.0-177.0","3S06PH7KSSQ5K03N6AWDI4S2SAS1DK","A3FY6THWKRYN9M","3G9UA71JVVGUCOKNEKUVXTI6SA17JG","","","null","","","","","","","","","",""
"727.3000000119209","","image-keyboard-response","178","203923","0.0-178.0","3S06PH7KSSQ5K03N6AWDI4S2SAS1DK","A3FY6THWKRYN9M","3G9UA71JVVGUCOKNEKUVXTI6SA17JG","","img/set1/S1.jpg","68","1","structured_incentive","83","structured_incentive,structured_normal,structured_load,random","2,3,4,2,1,2","3,2,4,1","false","","",""
"null","","html-keyboard-response","179","204286","0.0-179.0","3S06PH7KSSQ5K03N6AWDI4S2SAS1DK","A3FY6THWKRYN9M","3G9UA71JVVGUCOKNEKUVXTI6SA17JG","","<img src=""img/set1/S1.jpg"" width=""540"" height = ""360"">","null","","","","","","","","","",""
"null","","html-keyboard-response","180","204488","0.0-180.0","3S06PH7KSSQ5K03N6AWDI4S2SAS1DK","A3FY6THWKRYN9M","3G9UA71JVVGUCOKNEKUVXTI6SA17JG","","","null","","","","","","","","","",""
"639","","image-keyboard-response","181","205128","0.0-181.0","3S06PH7KSSQ5K03N6AWDI4S2SAS1DK","A3FY6THWKRYN9M","3G9UA71JVVGUCOKNEKUVXTI6SA17JG","","img/set1/S1.jpg","72","1","structured_incentive","83","structured_incentive,structured_normal,structured_load,random","2,3,4,2,1,2","3,2,4,1","false","","",""
"null","","html-keyboard-response","182","205481","0.0-182.0","3S06PH7KSSQ5K03N6AWDI4S2SAS1DK","A3FY6THWKRYN9M","3G9UA71JVVGUCOKNEKUVXTI6SA17JG","","<img src=""img/set1/S1.jpg"" width=""540"" height = ""360"">","null","","","","","","","","","",""
"null","","html-keyboard-response","183","205682","0.0-183.0","3S06PH7KSSQ5K03N6AWDI4S2SAS1DK","A3FY6THWKRYN9M","3G9UA71JVVGUCOKNEKUVXTI6SA17JG","","","null","","","","","","","","","",""
"1201.199999988079","","image-keyboard-response","184","206884","0.0-184.0","3S06PH7KSSQ5K03N6AWDI4S2SAS1DK","A3FY6THWKRYN9M","3G9UA71JVVGUCOKNEKUVXTI6SA17JG","","img/set1/S2.jpg","68","2","structured_incentive","68","structured_incentive,structured_normal,structured_load,random","2,3,4,2,1,2","3,2,4,1","true","","",""
"null","","html-keyboard-response","185","207246","0.0-185.0","3S06PH7KSSQ5K03N6AWDI4S2SAS1DK","A3FY6THWKRYN9M","3G9UA71JVVGUCOKNEKUVXTI6SA17JG","","<img src=""img/set1/S2.jpg"" width=""540"" height = ""360"" style=""border:16px solid orange"">","null","","","","","","","","","",""
"null","","html-keyboard-response","186","207449","0.0-186.0","3S06PH7KSSQ5K03N6AWDI4S2SAS1DK","A3FY6THWKRYN9M","3G9UA71JVVGUCOKNEKUVXTI6SA17JG","","","null","","","","","","","","","",""
"355.4000000357628","","image-keyboard-response","187","207806","0.0-187.0","3S06PH7KSSQ5K03N6AWDI4S2SAS1DK","A3FY6THWKRYN9M","3G9UA71JVVGUCOKNEKUVXTI6SA17JG","","img/set1/S3.jpg","74","3","structured_incentive","72","structured_incentive,structured_normal,structured_load,random","2,3,4,2,1,2","3,2,4,1","false","","",""
"null","","html-keyboard-response","188","208168","0.0-188.0","3S06PH7KSSQ5K03N6AWDI4S2SAS1DK","A3FY6THWKRYN9M","3G9UA71JVVGUCOKNEKUVXTI6SA17JG","","<img src=""img/set1/S3.jpg"" width=""540"" height = ""360"">","null","","","","","","","","","",""
"null","","html-keyboard-response","189","208370","0.0-189.0","3S06PH7KSSQ5K03N6AWDI4S2SAS1DK","A3FY6THWKRYN9M","3G9UA71JVVGUCOKNEKUVXTI6SA17JG","","","null","","","","","","","","","",""
"852.3999999761581","","image-keyboard-response","190","209224","0.0-190.0","3S06PH7KSSQ5K03N6AWDI4S2SAS1DK","A3FY6THWKRYN9M","3G9UA71JVVGUCOKNEKUVXTI6SA17JG","","img/set1/S4.jpg","74","4","structured_incentive","74","structured_incentive,structured_normal,structured_load,random","2,3,4,2,1,2","3,2,4,1","true","","",""
"null","","html-keyboard-response","191","209582","0.0-191.0","3S06PH7KSSQ5K03N6AWDI4S2SAS1DK","A3FY6THWKRYN9M","3G9UA71JVVGUCOKNEKUVXTI6SA17JG","","<img src=""img/set1/S4.jpg"" width=""540"" height = ""360"" style=""border:16px solid Violet"">","null","","","","","","","","","",""
"null","","html-keyboard-response","192","209798","0.0-192.0","3S06PH7KSSQ5K03N6AWDI4S2SAS1DK","A3FY6THWKRYN9M","3G9UA71JVVGUCOKNEKUVXTI6SA17JG","","","null","","","","","","","","","",""
"615.0999999642372","","image-keyboard-response","193","210414","0.0-193.0","3S06PH7KSSQ5K03N6AWDI4S2SAS1DK","A3FY6THWKRYN9M","3G9UA71JVVGUCOKNEKUVXTI6SA17JG","","img/set1/S4.jpg","74","4","structured_incentive","74","structured_incentive,structured_normal,structured_load,random","2,3,4,2,1,2","3,2,4,1","true","","",""
"null","","html-keyboard-response","194","210773","0.0-194.0","3S06PH7KSSQ5K03N6AWDI4S2SAS1DK","A3FY6THWKRYN9M","3G9UA71JVVGUCOKNEKUVXTI6SA17JG","","<img src=""img/set1/S4.jpg"" width=""540"" height = ""360"" style=""border:16px solid Violet"">","null","","","","","","","","","",""
"null","","html-keyboard-response","195","210989","0.0-195.0","3S06PH7KSSQ5K03N6AWDI4S2SAS1DK","A3FY6THWKRYN9M","3G9UA71JVVGUCOKNEKUVXTI6SA17JG","","","null","","","","","","","","","",""
"735.8000000119209","","image-keyboard-response","196","211726","0.0-196.0","3S06PH7KSSQ5K03N6AWDI4S2SAS1DK","A3FY6THWKRYN9M","3G9UA71JVVGUCOKNEKUVXTI6SA17JG","","img/set1/S1.jpg","72","1","structured_incentive","83","structured_incentive,structured_normal,structured_load,random","2,3,4,2,1,2","3,2,4,1","false","","",""
"null","","html-keyboard-response","197","212090","0.0-197.0","3S06PH7KSSQ5K03N6AWDI4S2SAS1DK","A3FY6THWKRYN9M","3G9UA71JVVGUCOKNEKUVXTI6SA17JG","","<img src=""img/set1/S1.jpg"" width=""540"" height = ""360"">","null","","","","","","","","","",""
"null","","html-keyboard-response","198","212306","0.0-198.0","3S06PH7KSSQ5K03N6AWDI4S2SAS1DK","A3FY6THWKRYN9M","3G9UA71JVVGUCOKNEKUVXTI6SA17JG","","","null","","","","","","","","","",""
"600.1999999880791","","image-keyboard-response","199","212907","0.0-199.0","3S06PH7KSSQ5K03N6AWDI4S2SAS1DK","A3FY6THWKRYN9M","3G9UA71JVVGUCOKNEKUVXTI6SA17JG","","img/set1/S1.jpg","74","1","structured_incentive","83","structured_incentive,structured_normal,structured_load,random","2,3,4,2,1,2","3,2,4,1","false","","",""
"null","","html-keyboard-response","200","213268","0.0-200.0","3S06PH7KSSQ5K03N6AWDI4S2SAS1DK","A3FY6THWKRYN9M","3G9UA71JVVGUCOKNEKUVXTI6SA17JG","","<img src=""img/set1/S1.jpg"" width=""540"" height = ""360"">","null","","","","","","","","","",""
"null","","html-keyboard-response","201","213483","0.0-201.0","3S06PH7KSSQ5K03N6AWDI4S2SAS1DK","A3FY6THWKRYN9M","3G9UA71JVVGUCOKNEKUVXTI6SA17JG","","","null","","","","","","","","","",""
"null","","image-keyboard-response","202","215995","0.0-202.0","3S06PH7KSSQ5K03N6AWDI4S2SAS1DK","A3FY6THWKRYN9M","3G9UA71JVVGUCOKNEKUVXTI6SA17JG","","img/set1/S1.jpg","null","1","structured_incentive","83","structured_incentive,structured_normal,structured_load,random","2,3,4,2,1,2","3,2,4,1","false","","",""
"null","","html-keyboard-response","203","216351","0.0-203.0","3S06PH7KSSQ5K03N6AWDI4S2SAS1DK","A3FY6THWKRYN9M","3G9UA71JVVGUCOKNEKUVXTI6SA17JG","","<img src=""img/set1/S1.jpg"" width=""540"" height = ""360"">","null","","","","","","","","","",""
"null","","html-keyboard-response","204","216553","0.0-204.0","3S06PH7KSSQ5K03N6AWDI4S2SAS1DK","A3FY6THWKRYN9M","3G9UA71JVVGUCOKNEKUVXTI6SA17JG","","","null","","","","","","","","","",""
"984.4000000357628","","image-keyboard-response","205","217538","0.0-205.0","3S06PH7KSSQ5K03N6AWDI4S2SAS1DK","A3FY6THWKRYN9M","3G9UA71JVVGUCOKNEKUVXTI6SA17JG","","img/set1/S3.jpg","74","3","structured_incentive","72","structured_incentive,structured_normal,structured_load,random","2,3,4,2,1,2","3,2,4,1","false","","",""
"null","","html-keyboard-response","206","217901","0.0-206.0","3S06PH7KSSQ5K03N6AWDI4S2SAS1DK","A3FY6THWKRYN9M","3G9UA71JVVGUCOKNEKUVXTI6SA17JG","","<img src=""img/set1/S3.jpg"" width=""540"" height = ""360"">","null","","","","","","","","","",""
"null","","html-keyboard-response","207","218117","0.0-207.0","3S06PH7KSSQ5K03N6AWDI4S2SAS1DK","A3FY6THWKRYN9M","3G9UA71JVVGUCOKNEKUVXTI6SA17JG","","","null","","","","","","","","","",""
"700.3000000119209","","image-keyboard-response","208","218819","0.0-208.0","3S06PH7KSSQ5K03N6AWDI4S2SAS1DK","A3FY6THWKRYN9M","3G9UA71JVVGUCOKNEKUVXTI6SA17JG","","img/set1/S4.jpg","74","4","structured_incentive","74","structured_incentive,structured_normal,structured_load,random","2,3,4,2,1,2","3,2,4,1","true","","",""
"null","","html-keyboard-response","209","219174","0.0-209.0","3S06PH7KSSQ5K03N6AWDI4S2SAS1DK","A3FY6THWKRYN9M","3G9UA71JVVGUCOKNEKUVXTI6SA17JG","","<img src=""img/set1/S4.jpg"" width=""540"" height = ""360"" style=""border:16px solid Violet"">","null","","","","","","","","","",""
"null","","html-keyboard-response","210","219376","0.0-210.0","3S06PH7KSSQ5K03N6AWDI4S2SAS1DK","A3FY6THWKRYN9M","3G9UA71JVVGUCOKNEKUVXTI6SA17JG","","","null","","","","","","","","","",""
"531.2999999523163","","image-keyboard-response","211","219909","0.0-211.0","3S06PH7KSSQ5K03N6AWDI4S2SAS1DK","A3FY6THWKRYN9M","3G9UA71JVVGUCOKNEKUVXTI6SA17JG","","img/set1/S2.jpg","68","2","structured_incentive","68","structured_incentive,structured_normal,structured_load,random","2,3,4,2,1,2","3,2,4,1","true","","",""
"null","","html-keyboard-response","212","220267","0.0-212.0","3S06PH7KSSQ5K03N6AWDI4S2SAS1DK","A3FY6THWKRYN9M","3G9UA71JVVGUCOKNEKUVXTI6SA17JG","","<img src=""img/set1/S2.jpg"" width=""540"" height = ""360"" style=""border:16px solid orange"">","null","","","","","","","","","",""
"null","","html-keyboard-response","213","220472","0.0-213.0","3S06PH7KSSQ5K03N6AWDI4S2SAS1DK","A3FY6THWKRYN9M","3G9UA71JVVGUCOKNEKUVXTI6SA17JG","","","null","","","","","","","","","",""
"897.5999999642372","","image-keyboard-response","214","221370","0.0-214.0","3S06PH7KSSQ5K03N6AWDI4S2SAS1DK","A3FY6THWKRYN9M","3G9UA71JVVGUCOKNEKUVXTI6SA17JG","","img/set1/S4.jpg","74","4","structured_incentive","74","structured_incentive,structured_normal,structured_load,random","2,3,4,2,1,2","3,2,4,1","true","","",""
"null","","html-keyboard-response","215","221726","0.0-215.0","3S06PH7KSSQ5K03N6AWDI4S2SAS1DK","A3FY6THWKRYN9M","3G9UA71JVVGUCOKNEKUVXTI6SA17JG","","<img src=""img/set1/S4.jpg"" width=""540"" height = ""360"" style=""border:16px solid Violet"">","null","","","","","","","","","",""
"null","","html-keyboard-response","216","221942","0.0-216.0","3S06PH7KSSQ5K03N6AWDI4S2SAS1DK","A3FY6THWKRYN9M","3G9UA71JVVGUCOKNEKUVXTI6SA17JG","","","null","","","","","","","","","",""
"709.6000000238419","","image-keyboard-response","217","222653","0.0-217.0","3S06PH7KSSQ5K03N6AWDI4S2SAS1DK","A3FY6THWKRYN9M","3G9UA71JVVGUCOKNEKUVXTI6SA17JG","","img/set1/S4.jpg","74","4","structured_incentive","74","structured_incentive,structured_normal,structured_load,random","2,3,4,2,1,2","3,2,4,1","true","","",""
"null","","html-keyboard-response","218","223011","0.0-218.0","3S06PH7KSSQ5K03N6AWDI4S2SAS1DK","A3FY6THWKRYN9M","3G9UA71JVVGUCOKNEKUVXTI6SA17JG","","<img src=""img/set1/S4.jpg"" width=""540"" height = ""360"" style=""border:16px solid Violet"">","null","","","","","","","","","",""
"null","","html-keyboard-response","219","223225","0.0-219.0","3S06PH7KSSQ5K03N6AWDI4S2SAS1DK","A3FY6THWKRYN9M","3G9UA71JVVGUCOKNEKUVXTI6SA17JG","","","null","","","","","","","","","",""
"1952.4000000357628","","image-keyboard-response","220","225179","0.0-220.0","3S06PH7KSSQ5K03N6AWDI4S2SAS1DK","A3FY6THWKRYN9M","3G9UA71JVVGUCOKNEKUVXTI6SA17JG","","img/set1/S2.jpg","68","2","structured_incentive","68","structured_incentive,structured_normal,structured_load,random","2,3,4,2,1,2","3,2,4,1","true","","",""
"null","","html-keyboard-response","221","225535","0.0-221.0","3S06PH7KSSQ5K03N6AWDI4S2SAS1DK","A3FY6THWKRYN9M","3G9UA71JVVGUCOKNEKUVXTI6SA17JG","","<img src=""img/set1/S2.jpg"" width=""540"" height = ""360"" style=""border:16px solid orange"">","null","","","","","","","","","",""
"null","","html-keyboard-response","222","225751","0.0-222.0","3S06PH7KSSQ5K03N6AWDI4S2SAS1DK","A3FY6THWKRYN9M","3G9UA71JVVGUCOKNEKUVXTI6SA17JG","","","null","","","","","","","","","",""
"704.1000000238419","","image-keyboard-response","223","226456","0.0-223.0","3S06PH7KSSQ5K03N6AWDI4S2SAS1DK","A3FY6THWKRYN9M","3G9UA71JVVGUCOKNEKUVXTI6SA17JG","","img/set1/S4.jpg","74","4","structured_incentive","74","structured_incentive,structured_normal,structured_load,random","2,3,4,2,1,2","3,2,4,1","true","","",""
"null","","html-keyboard-response","224","226809","0.0-224.0","3S06PH7KSSQ5K03N6AWDI4S2SAS1DK","A3FY6THWKRYN9M","3G9UA71JVVGUCOKNEKUVXTI6SA17JG","","<img src=""img/set1/S4.jpg"" width=""540"" height = ""360"" style=""border:16px solid Violet"">","null","","","","","","","","","",""
"null","","html-keyboard-response","225","227011","0.0-225.0","3S06PH7KSSQ5K03N6AWDI4S2SAS1DK","A3FY6THWKRYN9M","3G9UA71JVVGUCOKNEKUVXTI6SA17JG","","","null","","","","","","","","","",""
"477.89999997615814","","image-keyboard-response","226","227490","0.0-226.0","3S06PH7KSSQ5K03N6AWDI4S2SAS1DK","A3FY6THWKRYN9M","3G9UA71JVVGUCOKNEKUVXTI6SA17JG","","img/set1/S2.jpg","68","2","structured_incentive","68","structured_incentive,structured_normal,structured_load,random","2,3,4,2,1,2","3,2,4,1","true","","",""
"null","","html-keyboard-response","227","227856","0.0-227.0","3S06PH7KSSQ5K03N6AWDI4S2SAS1DK","A3FY6THWKRYN9M","3G9UA71JVVGUCOKNEKUVXTI6SA17JG","","<img src=""img/set1/S2.jpg"" width=""540"" height = ""360"" style=""border:16px solid orange"">","null","","","","","","","","","",""
"null","","html-keyboard-response","228","228056","0.0-228.0","3S06PH7KSSQ5K03N6AWDI4S2SAS1DK","A3FY6THWKRYN9M","3G9UA71JVVGUCOKNEKUVXTI6SA17JG","","","null","","","","","","","","","",""
"1585.2000000476837","","image-keyboard-response","229","229642","0.0-229.0","3S06PH7KSSQ5K03N6AWDI4S2SAS1DK","A3FY6THWKRYN9M","3G9UA71JVVGUCOKNEKUVXTI6SA17JG","","img/set1/S3.jpg","72","3","structured_incentive","72","structured_incentive,structured_normal,structured_load,random","2,3,4,2,1,2","3,2,4,1","true","","",""
"null","","html-keyboard-response","230","230002","0.0-230.0","3S06PH7KSSQ5K03N6AWDI4S2SAS1DK","A3FY6THWKRYN9M","3G9UA71JVVGUCOKNEKUVXTI6SA17JG","","<img src=""img/set1/S3.jpg"" width=""540"" height = ""360"" style=""border:16px solid orange"">","null","","","","","","","","","",""
"null","","html-keyboard-response","231","230218","0.0-231.0","3S06PH7KSSQ5K03N6AWDI4S2SAS1DK","A3FY6THWKRYN9M","3G9UA71JVVGUCOKNEKUVXTI6SA17JG","","","null","","","","","","","","","",""
"766.1999999880791","","image-keyboard-response","232","230985","0.0-232.0","3S06PH7KSSQ5K03N6AWDI4S2SAS1DK","A3FY6THWKRYN9M","3G9UA71JVVGUCOKNEKUVXTI6SA17JG","","img/set1/S4.jpg","74","4","structured_incentive","74","structured_incentive,structured_normal,structured_load,random","2,3,4,2,1,2","3,2,4,1","true","","",""
"null","","html-keyboard-response","233","231338","0.0-233.0","3S06PH7KSSQ5K03N6AWDI4S2SAS1DK","A3FY6THWKRYN9M","3G9UA71JVVGUCOKNEKUVXTI6SA17JG","","<img src=""img/set1/S4.jpg"" width=""540"" height = ""360"" style=""border:16px solid Violet"">","null","","","","","","","","","",""
"null","","html-keyboard-response","234","231541","0.0-234.0","3S06PH7KSSQ5K03N6AWDI4S2SAS1DK","A3FY6THWKRYN9M","3G9UA71JVVGUCOKNEKUVXTI6SA17JG","","","null","","","","","","","","","",""
"1786.8999999761581","","image-keyboard-response","235","233329","0.0-235.0","3S06PH7KSSQ5K03N6AWDI4S2SAS1DK","A3FY6THWKRYN9M","3G9UA71JVVGUCOKNEKUVXTI6SA17JG","","img/set1/S1.jpg","68","1","structured_incentive","83","structured_incentive,structured_normal,structured_load,random","2,3,4,2,1,2","3,2,4,1","false","","",""
"null","","html-keyboard-response","236","233683","0.0-236.0","3S06PH7KSSQ5K03N6AWDI4S2SAS1DK","A3FY6THWKRYN9M","3G9UA71JVVGUCOKNEKUVXTI6SA17JG","","<img src=""img/set1/S1.jpg"" width=""540"" height = ""360"">","null","","","","","","","","","",""
"null","","html-keyboard-response","237","233888","0.0-237.0","3S06PH7KSSQ5K03N6AWDI4S2SAS1DK","A3FY6THWKRYN9M","3G9UA71JVVGUCOKNEKUVXTI6SA17JG","","","null","","","","","","","","","",""
"29.600000023841858","","image-keyboard-response","238","233919","0.0-238.0","3S06PH7KSSQ5K03N6AWDI4S2SAS1DK","A3FY6THWKRYN9M","3G9UA71JVVGUCOKNEKUVXTI6SA17JG","","img/set1/S1.jpg","72","1","structured_incentive","83","structured_incentive,structured_normal,structured_load,random","2,3,4,2,1,2","3,2,4,1","false","","",""
"null","","html-keyboard-response","239","234276","0.0-239.0","3S06PH7KSSQ5K03N6AWDI4S2SAS1DK","A3FY6THWKRYN9M","3G9UA71JVVGUCOKNEKUVXTI6SA17JG","","<img src=""img/set1/S1.jpg"" width=""540"" height = ""360"">","null","","","","","","","","","",""
"null","","html-keyboard-response","240","234489","0.0-240.0","3S06PH7KSSQ5K03N6AWDI4S2SAS1DK","A3FY6THWKRYN9M","3G9UA71JVVGUCOKNEKUVXTI6SA17JG","","","null","","","","","","","","","",""
"618.5","","image-keyboard-response","241","235109","0.0-241.0","3S06PH7KSSQ5K03N6AWDI4S2SAS1DK","A3FY6THWKRYN9M","3G9UA71JVVGUCOKNEKUVXTI6SA17JG","","img/set1/S1.jpg","74","1","structured_incentive","83","structured_incentive,structured_normal,structured_load,random","2,3,4,2,1,2","3,2,4,1","false","","",""
"null","","html-keyboard-response","242","235471","0.0-242.0","3S06PH7KSSQ5K03N6AWDI4S2SAS1DK","A3FY6THWKRYN9M","3G9UA71JVVGUCOKNEKUVXTI6SA17JG","","<img src=""img/set1/S1.jpg"" width=""540"" height = ""360"">","null","","","","","","","","","",""
"null","","html-keyboard-response","243","235672","0.0-243.0","3S06PH7KSSQ5K03N6AWDI4S2SAS1DK","A3FY6THWKRYN9M","3G9UA71JVVGUCOKNEKUVXTI6SA17JG","","","null","","","","","","","","","",""
"825.2000000476837","","image-keyboard-response","244","236498","0.0-244.0","3S06PH7KSSQ5K03N6AWDI4S2SAS1DK","A3FY6THWKRYN9M","3G9UA71JVVGUCOKNEKUVXTI6SA17JG","","img/set1/S2.jpg","68","2","structured_incentive","68","structured_incentive,structured_normal,structured_load,random","2,3,4,2,1,2","3,2,4,1","true","","",""
"null","","html-keyboard-response","245","236850","0.0-245.0","3S06PH7KSSQ5K03N6AWDI4S2SAS1DK","A3FY6THWKRYN9M","3G9UA71JVVGUCOKNEKUVXTI6SA17JG","","<img src=""img/set1/S2.jpg"" width=""540"" height = ""360"" style=""border:16px solid orange"">","null","","","","","","","","","",""
"null","","html-keyboard-response","246","237052","0.0-246.0","3S06PH7KSSQ5K03N6AWDI4S2SAS1DK","A3FY6THWKRYN9M","3G9UA71JVVGUCOKNEKUVXTI6SA17JG","","","null","","","","","","","","","",""
"674.8999999761581","","image-keyboard-response","247","237728","0.0-247.0","3S06PH7KSSQ5K03N6AWDI4S2SAS1DK","A3FY6THWKRYN9M","3G9UA71JVVGUCOKNEKUVXTI6SA17JG","","img/set1/S4.jpg","74","4","structured_incentive","74","structured_incentive,structured_normal,structured_load,random","2,3,4,2,1,2","3,2,4,1","true","","",""
"null","","html-keyboard-response","248","238094","0.0-248.0","3S06PH7KSSQ5K03N6AWDI4S2SAS1DK","A3FY6THWKRYN9M","3G9UA71JVVGUCOKNEKUVXTI6SA17JG","","<img src=""img/set1/S4.jpg"" width=""540"" height = ""360"" style=""border:16px solid Violet"">","null","","","","","","","","","",""
"null","","html-keyboard-response","249","238299","0.0-249.0","3S06PH7KSSQ5K03N6AWDI4S2SAS1DK","A3FY6THWKRYN9M","3G9UA71JVVGUCOKNEKUVXTI6SA17JG","","","null","","","","","","","","","",""
"931.3999999761581","","image-keyboard-response","250","239231","0.0-250.0","3S06PH7KSSQ5K03N6AWDI4S2SAS1DK","A3FY6THWKRYN9M","3G9UA71JVVGUCOKNEKUVXTI6SA17JG","","img/set1/S1.jpg","72","1","structured_incentive","83","structured_incentive,structured_normal,structured_load,random","2,3,4,2,1,2","3,2,4,1","false","","",""
"null","","html-keyboard-response","251","239590","0.0-251.0","3S06PH7KSSQ5K03N6AWDI4S2SAS1DK","A3FY6THWKRYN9M","3G9UA71JVVGUCOKNEKUVXTI6SA17JG","","<img src=""img/set1/S1.jpg"" width=""540"" height = ""360"">","null","","","","","","","","","",""
"null","","html-keyboard-response","252","239804","0.0-252.0","3S06PH7KSSQ5K03N6AWDI4S2SAS1DK","A3FY6THWKRYN9M","3G9UA71JVVGUCOKNEKUVXTI6SA17JG","","","null","","","","","","","","","",""
"646.1000000238419","","image-keyboard-response","253","240451","0.0-253.0","3S06PH7KSSQ5K03N6AWDI4S2SAS1DK","A3FY6THWKRYN9M","3G9UA71JVVGUCOKNEKUVXTI6SA17JG","","img/set1/S1.jpg","74","1","structured_incentive","83","structured_incentive,structured_normal,structured_load,random","2,3,4,2,1,2","3,2,4,1","false","","",""
"null","","html-keyboard-response","254","240814","0.0-254.0","3S06PH7KSSQ5K03N6AWDI4S2SAS1DK","A3FY6THWKRYN9M","3G9UA71JVVGUCOKNEKUVXTI6SA17JG","","<img src=""img/set1/S1.jpg"" width=""540"" height = ""360"">","null","","","","","","","","","",""
"null","","html-keyboard-response","255","241016","0.0-255.0","3S06PH7KSSQ5K03N6AWDI4S2SAS1DK","A3FY6THWKRYN9M","3G9UA71JVVGUCOKNEKUVXTI6SA17JG","","","null","","","","","","","","","",""
"408.5","","image-keyboard-response","256","241425","0.0-256.0","3S06PH7KSSQ5K03N6AWDI4S2SAS1DK","A3FY6THWKRYN9M","3G9UA71JVVGUCOKNEKUVXTI6SA17JG","","img/set1/S1.jpg","68","1","structured_incentive","83","structured_incentive,structured_normal,structured_load,random","2,3,4,2,1,2","3,2,4,1","false","","",""
"null","","html-keyboard-response","257","241783","0.0-257.0","3S06PH7KSSQ5K03N6AWDI4S2SAS1DK","A3FY6THWKRYN9M","3G9UA71JVVGUCOKNEKUVXTI6SA17JG","","<img src=""img/set1/S1.jpg"" width=""540"" height = ""360"">","null","","","","","","","","","",""
"null","","html-keyboard-response","258","241997","0.0-258.0","3S06PH7KSSQ5K03N6AWDI4S2SAS1DK","A3FY6THWKRYN9M","3G9UA71JVVGUCOKNEKUVXTI6SA17JG","","","null","","","","","","","","","",""
"1409.1000000238419","","image-keyboard-response","259","243407","0.0-259.0","3S06PH7KSSQ5K03N6AWDI4S2SAS1DK","A3FY6THWKRYN9M","3G9UA71JVVGUCOKNEKUVXTI6SA17JG","","img/set1/S2.jpg","68","2","structured_incentive","68","structured_incentive,structured_normal,structured_load,random","2,3,4,2,1,2","3,2,4,1","true","","",""
"null","","html-keyboard-response","260","243772","0.0-260.0","3S06PH7KSSQ5K03N6AWDI4S2SAS1DK","A3FY6THWKRYN9M","3G9UA71JVVGUCOKNEKUVXTI6SA17JG","","<img src=""img/set1/S2.jpg"" width=""540"" height = ""360"" style=""border:16px solid orange"">","null","","","","","","","","","",""
"null","","html-keyboard-response","261","243974","0.0-261.0","3S06PH7KSSQ5K03N6AWDI4S2SAS1DK","A3FY6THWKRYN9M","3G9UA71JVVGUCOKNEKUVXTI6SA17JG","","","null","","","","","","","","","",""
"819.6999999880791","","image-keyboard-response","262","244795","0.0-262.0","3S06PH7KSSQ5K03N6AWDI4S2SAS1DK","A3FY6THWKRYN9M","3G9UA71JVVGUCOKNEKUVXTI6SA17JG","","img/set1/S3.jpg","72","3","structured_incentive","72","structured_incentive,structured_normal,structured_load,random","2,3,4,2,1,2","3,2,4,1","true","","",""
"null","","html-keyboard-response","263","245161","0.0-263.0","3S06PH7KSSQ5K03N6AWDI4S2SAS1DK","A3FY6THWKRYN9M","3G9UA71JVVGUCOKNEKUVXTI6SA17JG","","<img src=""img/set1/S3.jpg"" width=""540"" height = ""360"" style=""border:16px solid orange"">","null","","","","","","","","","",""
"null","","html-keyboard-response","264","245366","0.0-264.0","3S06PH7KSSQ5K03N6AWDI4S2SAS1DK","A3FY6THWKRYN9M","3G9UA71JVVGUCOKNEKUVXTI6SA17JG","","","null","","","","","","","","","",""
"678.1000000238419","","image-keyboard-response","265","246045","0.0-265.0","3S06PH7KSSQ5K03N6AWDI4S2SAS1DK","A3FY6THWKRYN9M","3G9UA71JVVGUCOKNEKUVXTI6SA17JG","","img/set1/S4.jpg","74","4","structured_incentive","74","structured_incentive,structured_normal,structured_load,random","2,3,4,2,1,2","3,2,4,1","true","","",""
"null","","html-keyboard-response","266","246402","0.0-266.0","3S06PH7KSSQ5K03N6AWDI4S2SAS1DK","A3FY6THWKRYN9M","3G9UA71JVVGUCOKNEKUVXTI6SA17JG","","<img src=""img/set1/S4.jpg"" width=""540"" height = ""360"" style=""border:16px solid Violet"">","null","","","","","","","","","",""
"null","","html-keyboard-response","267","246603","0.0-267.0","3S06PH7KSSQ5K03N6AWDI4S2SAS1DK","A3FY6THWKRYN9M","3G9UA71JVVGUCOKNEKUVXTI6SA17JG","","","null","","","","","","","","","",""
"849","","image-keyboard-response","268","247454","0.0-268.0","3S06PH7KSSQ5K03N6AWDI4S2SAS1DK","A3FY6THWKRYN9M","3G9UA71JVVGUCOKNEKUVXTI6SA17JG","","img/set1/S2.jpg","68","2","structured_incentive","68","structured_incentive,structured_normal,structured_load,random","2,3,4,2,1,2","3,2,4,1","true","","",""
"null","","html-keyboard-response","269","247812","0.0-269.0","3S06PH7KSSQ5K03N6AWDI4S2SAS1DK","A3FY6THWKRYN9M","3G9UA71JVVGUCOKNEKUVXTI6SA17JG","","<img src=""img/set1/S2.jpg"" width=""540"" height = ""360"" style=""border:16px solid orange"">","null","","","","","","","","","",""
"null","","html-keyboard-response","270","248017","0.0-270.0","3S06PH7KSSQ5K03N6AWDI4S2SAS1DK","A3FY6THWKRYN9M","3G9UA71JVVGUCOKNEKUVXTI6SA17JG","","","null","","","","","","","","","",""
"695.1999999880791","","image-keyboard-response","271","248713","0.0-271.0","3S06PH7KSSQ5K03N6AWDI4S2SAS1DK","A3FY6THWKRYN9M","3G9UA71JVVGUCOKNEKUVXTI6SA17JG","","img/set1/S3.jpg","72","3","structured_incentive","72","structured_incentive,structured_normal,structured_load,random","2,3,4,2,1,2","3,2,4,1","true","","",""
"null","","html-keyboard-response","272","249074","0.0-272.0","3S06PH7KSSQ5K03N6AWDI4S2SAS1DK","A3FY6THWKRYN9M","3G9UA71JVVGUCOKNEKUVXTI6SA17JG","","<img src=""img/set1/S3.jpg"" width=""540"" height = ""360"" style=""border:16px solid orange"">","null","","","","","","","","","",""
"null","","html-keyboard-response","273","249276","0.0-273.0","3S06PH7KSSQ5K03N6AWDI4S2SAS1DK","A3FY6THWKRYN9M","3G9UA71JVVGUCOKNEKUVXTI6SA17JG","","","null","","","","","","","","","",""
"642.3999999761581","","image-keyboard-response","274","249920","0.0-274.0","3S06PH7KSSQ5K03N6AWDI4S2SAS1DK","A3FY6THWKRYN9M","3G9UA71JVVGUCOKNEKUVXTI6SA17JG","","img/set1/S2.jpg","68","2","structured_incentive","68","structured_incentive,structured_normal,structured_load,random","2,3,4,2,1,2","3,2,4,1","true","","",""
"null","","html-keyboard-response","275","250288","0.0-275.0","3S06PH7KSSQ5K03N6AWDI4S2SAS1DK","A3FY6THWKRYN9M","3G9UA71JVVGUCOKNEKUVXTI6SA17JG","","<img src=""img/set1/S2.jpg"" width=""540"" height = ""360"" style=""border:16px solid orange"">","null","","","","","","","","","",""
"null","","html-keyboard-response","276","250491","0.0-276.0","3S06PH7KSSQ5K03N6AWDI4S2SAS1DK","A3FY6THWKRYN9M","3G9UA71JVVGUCOKNEKUVXTI6SA17JG","","","null","","","","","","","","","",""
"628.1000000238419","","image-keyboard-response","277","251120","0.0-277.0","3S06PH7KSSQ5K03N6AWDI4S2SAS1DK","A3FY6THWKRYN9M","3G9UA71JVVGUCOKNEKUVXTI6SA17JG","","img/set1/S3.jpg","72","3","structured_incentive","72","structured_incentive,structured_normal,structured_load,random","2,3,4,2,1,2","3,2,4,1","true","","",""
"null","","html-keyboard-response","278","251473","0.0-278.0","3S06PH7KSSQ5K03N6AWDI4S2SAS1DK","A3FY6THWKRYN9M","3G9UA71JVVGUCOKNEKUVXTI6SA17JG","","<img src=""img/set1/S3.jpg"" width=""540"" height = ""360"" style=""border:16px solid orange"">","null","","","","","","","","","",""
"null","","html-keyboard-response","279","251676","0.0-279.0","3S06PH7KSSQ5K03N6AWDI4S2SAS1DK","A3FY6THWKRYN9M","3G9UA71JVVGUCOKNEKUVXTI6SA17JG","","","null","","","","","","","","","",""
"null","","image-keyboard-response","280","254184","0.0-280.0","3S06PH7KSSQ5K03N6AWDI4S2SAS1DK","A3FY6THWKRYN9M","3G9UA71JVVGUCOKNEKUVXTI6SA17JG","","img/set1/S1.jpg","null","1","structured_incentive","83","structured_incentive,structured_normal,structured_load,random","2,3,4,2,1,2","3,2,4,1","false","","",""
"null","","html-keyboard-response","281","254540","0.0-281.0","3S06PH7KSSQ5K03N6AWDI4S2SAS1DK","A3FY6THWKRYN9M","3G9UA71JVVGUCOKNEKUVXTI6SA17JG","","<img src=""img/set1/S1.jpg"" width=""540"" height = ""360"">","null","","","","","","","","","",""
"null","","html-keyboard-response","282","254742","0.0-282.0","3S06PH7KSSQ5K03N6AWDI4S2SAS1DK","A3FY6THWKRYN9M","3G9UA71JVVGUCOKNEKUVXTI6SA17JG","","","null","","","","","","","","","",""
"512.1000000238419","","image-keyboard-response","283","255255","0.0-283.0","3S06PH7KSSQ5K03N6AWDI4S2SAS1DK","A3FY6THWKRYN9M","3G9UA71JVVGUCOKNEKUVXTI6SA17JG","","img/set1/S3.jpg","74","3","structured_incentive","72","structured_incentive,structured_normal,structured_load,random","2,3,4,2,1,2","3,2,4,1","false","","",""
"null","","html-keyboard-response","284","255609","0.0-284.0","3S06PH7KSSQ5K03N6AWDI4S2SAS1DK","A3FY6THWKRYN9M","3G9UA71JVVGUCOKNEKUVXTI6SA17JG","","<img src=""img/set1/S3.jpg"" width=""540"" height = ""360"">","null","","","","","","","","","",""
"null","","html-keyboard-response","285","255826","0.0-285.0","3S06PH7KSSQ5K03N6AWDI4S2SAS1DK","A3FY6THWKRYN9M","3G9UA71JVVGUCOKNEKUVXTI6SA17JG","","","null","","","","","","","","","",""
"647.6999999880791","","image-keyboard-response","286","256475","0.0-286.0","3S06PH7KSSQ5K03N6AWDI4S2SAS1DK","A3FY6THWKRYN9M","3G9UA71JVVGUCOKNEKUVXTI6SA17JG","","img/set1/S2.jpg","68","2","structured_incentive","68","structured_incentive,structured_normal,structured_load,random","2,3,4,2,1,2","3,2,4,1","true","","",""
"null","","html-keyboard-response","287","256834","0.0-287.0","3S06PH7KSSQ5K03N6AWDI4S2SAS1DK","A3FY6THWKRYN9M","3G9UA71JVVGUCOKNEKUVXTI6SA17JG","","<img src=""img/set1/S2.jpg"" width=""540"" height = ""360"" style=""border:16px solid orange"">","null","","","","","","","","","",""
"null","","html-keyboard-response","288","257036","0.0-288.0","3S06PH7KSSQ5K03N6AWDI4S2SAS1DK","A3FY6THWKRYN9M","3G9UA71JVVGUCOKNEKUVXTI6SA17JG","","","null","","","","","","","","","",""
"769.3000000119209","","image-keyboard-response","289","257807","0.0-289.0","3S06PH7KSSQ5K03N6AWDI4S2SAS1DK","A3FY6THWKRYN9M","3G9UA71JVVGUCOKNEKUVXTI6SA17JG","","img/set1/S3.jpg","72","3","structured_incentive","72","structured_incentive,structured_normal,structured_load,random","2,3,4,2,1,2","3,2,4,1","true","","",""
"null","","html-keyboard-response","290","258166","0.0-290.0","3S06PH7KSSQ5K03N6AWDI4S2SAS1DK","A3FY6THWKRYN9M","3G9UA71JVVGUCOKNEKUVXTI6SA17JG","","<img src=""img/set1/S3.jpg"" width=""540"" height = ""360"" style=""border:16px solid orange"">","null","","","","","","","","","",""
"null","","html-keyboard-response","291","258371","0.0-291.0","3S06PH7KSSQ5K03N6AWDI4S2SAS1DK","A3FY6THWKRYN9M","3G9UA71JVVGUCOKNEKUVXTI6SA17JG","","","null","","","","","","","","","",""
"1624.5","","image-keyboard-response","292","259996","0.0-292.0","3S06PH7KSSQ5K03N6AWDI4S2SAS1DK","A3FY6THWKRYN9M","3G9UA71JVVGUCOKNEKUVXTI6SA17JG","","img/set1/S1.jpg","74","1","structured_incentive","83","structured_incentive,structured_normal,structured_load,random","2,3,4,2,1,2","3,2,4,1","false","","",""
"null","","html-keyboard-response","293","260357","0.0-293.0","3S06PH7KSSQ5K03N6AWDI4S2SAS1DK","A3FY6THWKRYN9M","3G9UA71JVVGUCOKNEKUVXTI6SA17JG","","<img src=""img/set1/S1.jpg"" width=""540"" height = ""360"">","null","","","","","","","","","",""
"null","","html-keyboard-response","294","260561","0.0-294.0","3S06PH7KSSQ5K03N6AWDI4S2SAS1DK","A3FY6THWKRYN9M","3G9UA71JVVGUCOKNEKUVXTI6SA17JG","","","null","","","","","","","","","",""
"821.1000000238419","","image-keyboard-response","295","261383","0.0-295.0","3S06PH7KSSQ5K03N6AWDI4S2SAS1DK","A3FY6THWKRYN9M","3G9UA71JVVGUCOKNEKUVXTI6SA17JG","","img/set1/S2.jpg","68","2","structured_incentive","68","structured_incentive,structured_normal,structured_load,random","2,3,4,2,1,2","3,2,4,1","true","","",""
"null","","html-keyboard-response","296","261737","0.0-296.0","3S06PH7KSSQ5K03N6AWDI4S2SAS1DK","A3FY6THWKRYN9M","3G9UA71JVVGUCOKNEKUVXTI6SA17JG","","<img src=""img/set1/S2.jpg"" width=""540"" height = ""360"" style=""border:16px solid orange"">","null","","","","","","","","","",""
"null","","html-keyboard-response","297","261940","0.0-297.0","3S06PH7KSSQ5K03N6AWDI4S2SAS1DK","A3FY6THWKRYN9M","3G9UA71JVVGUCOKNEKUVXTI6SA17JG","","","null","","","","","","","","","",""
"485.5","","image-keyboard-response","298","262427","0.0-298.0","3S06PH7KSSQ5K03N6AWDI4S2SAS1DK","A3FY6THWKRYN9M","3G9UA71JVVGUCOKNEKUVXTI6SA17JG","","img/set1/S3.jpg","72","3","structured_incentive","72","structured_incentive,structured_normal,structured_load,random","2,3,4,2,1,2","3,2,4,1","true","","",""
"null","","html-keyboard-response","299","262784","0.0-299.0","3S06PH7KSSQ5K03N6AWDI4S2SAS1DK","A3FY6THWKRYN9M","3G9UA71JVVGUCOKNEKUVXTI6SA17JG","","<img src=""img/set1/S3.jpg"" width=""540"" height = ""360"" style=""border:16px solid orange"">","null","","","","","","","","","",""
"null","","html-keyboard-response","300","262986","0.0-300.0","3S06PH7KSSQ5K03N6AWDI4S2SAS1DK","A3FY6THWKRYN9M","3G9UA71JVVGUCOKNEKUVXTI6SA17JG","","","null","","","","","","","","","",""
"550.8000000119209","","image-keyboard-response","301","263538","0.0-301.0","3S06PH7KSSQ5K03N6AWDI4S2SAS1DK","A3FY6THWKRYN9M","3G9UA71JVVGUCOKNEKUVXTI6SA17JG","","img/set1/S2.jpg","68","2","structured_incentive","68","structured_incentive,structured_normal,structured_load,random","2,3,4,2,1,2","3,2,4,1","true","","",""
"null","","html-keyboard-response","302","263903","0.0-302.0","3S06PH7KSSQ5K03N6AWDI4S2SAS1DK","A3FY6THWKRYN9M","3G9UA71JVVGUCOKNEKUVXTI6SA17JG","","<img src=""img/set1/S2.jpg"" width=""540"" height = ""360"" style=""border:16px solid orange"">","null","","","","","","","","","",""
"null","","html-keyboard-response","303","264110","0.0-303.0","3S06PH7KSSQ5K03N6AWDI4S2SAS1DK","A3FY6THWKRYN9M","3G9UA71JVVGUCOKNEKUVXTI6SA17JG","","","null","","","","","","","","","",""
"636.1000000238419","","image-keyboard-response","304","264747","0.0-304.0","3S06PH7KSSQ5K03N6AWDI4S2SAS1DK","A3FY6THWKRYN9M","3G9UA71JVVGUCOKNEKUVXTI6SA17JG","","img/set1/S3.jpg","72","3","structured_incentive","72","structured_incentive,structured_normal,structured_load,random","2,3,4,2,1,2","3,2,4,1","true","","",""
"null","","html-keyboard-response","305","265112","0.0-305.0","3S06PH7KSSQ5K03N6AWDI4S2SAS1DK","A3FY6THWKRYN9M","3G9UA71JVVGUCOKNEKUVXTI6SA17JG","","<img src=""img/set1/S3.jpg"" width=""540"" height = ""360"" style=""border:16px solid orange"">","null","","","","","","","","","",""
"null","","html-keyboard-response","306","265329","0.0-306.0","3S06PH7KSSQ5K03N6AWDI4S2SAS1DK","A3FY6THWKRYN9M","3G9UA71JVVGUCOKNEKUVXTI6SA17JG","","","null","","","","","","","","","",""
"null","","image-keyboard-response","307","267845","0.0-307.0","3S06PH7KSSQ5K03N6AWDI4S2SAS1DK","A3FY6THWKRYN9M","3G9UA71JVVGUCOKNEKUVXTI6SA17JG","","img/set1/S1.jpg","null","1","structured_incentive","83","structured_incentive,structured_normal,structured_load,random","2,3,4,2,1,2","3,2,4,1","false","","",""
"null","","html-keyboard-response","308","268207","0.0-308.0","3S06PH7KSSQ5K03N6AWDI4S2SAS1DK","A3FY6THWKRYN9M","3G9UA71JVVGUCOKNEKUVXTI6SA17JG","","<img src=""img/set1/S1.jpg"" width=""540"" height = ""360"">","null","","","","","","","","","",""
"null","","html-keyboard-response","309","268412","0.0-309.0","3S06PH7KSSQ5K03N6AWDI4S2SAS1DK","A3FY6THWKRYN9M","3G9UA71JVVGUCOKNEKUVXTI6SA17JG","","","null","","","","","","","","","",""
"615.3999999761581","","image-keyboard-response","310","269028","0.0-310.0","3S06PH7KSSQ5K03N6AWDI4S2SAS1DK","A3FY6THWKRYN9M","3G9UA71JVVGUCOKNEKUVXTI6SA17JG","","img/set1/S4.jpg","74","4","structured_incentive","74","structured_incentive,structured_normal,structured_load,random","2,3,4,2,1,2","3,2,4,1","true","","",""
"null","","html-keyboard-response","311","269394","0.0-311.0","3S06PH7KSSQ5K03N6AWDI4S2SAS1DK","A3FY6THWKRYN9M","3G9UA71JVVGUCOKNEKUVXTI6SA17JG","","<img src=""img/set1/S4.jpg"" width=""540"" height = ""360"" style=""border:16px solid Violet"">","null","","","","","","","","","",""
"null","","html-keyboard-response","312","269595","0.0-312.0","3S06PH7KSSQ5K03N6AWDI4S2SAS1DK","A3FY6THWKRYN9M","3G9UA71JVVGUCOKNEKUVXTI6SA17JG","","","null","","","","","","","","","",""
"517.7999999523163","","image-keyboard-response","313","270114","0.0-313.0","3S06PH7KSSQ5K03N6AWDI4S2SAS1DK","A3FY6THWKRYN9M","3G9UA71JVVGUCOKNEKUVXTI6SA17JG","","img/set1/S1.jpg","74","1","structured_incentive","83","structured_incentive,structured_normal,structured_load,random","2,3,4,2,1,2","3,2,4,1","false","","",""
"null","","html-keyboard-response","314","270480","0.0-314.0","3S06PH7KSSQ5K03N6AWDI4S2SAS1DK","A3FY6THWKRYN9M","3G9UA71JVVGUCOKNEKUVXTI6SA17JG","","<img src=""img/set1/S1.jpg"" width=""540"" height = ""360"">","null","","","","","","","","","",""
"null","","html-keyboard-response","315","270683","0.0-315.0","3S06PH7KSSQ5K03N6AWDI4S2SAS1DK","A3FY6THWKRYN9M","3G9UA71JVVGUCOKNEKUVXTI6SA17JG","","","null","","","","","","","","","",""
"610.5","","image-keyboard-response","316","271294","0.0-316.0","3S06PH7KSSQ5K03N6AWDI4S2SAS1DK","A3FY6THWKRYN9M","3G9UA71JVVGUCOKNEKUVXTI6SA17JG","","img/set1/S2.jpg","68","2","structured_incentive","68","structured_incentive,structured_normal,structured_load,random","2,3,4,2,1,2","3,2,4,1","true","","",""
"null","","html-keyboard-response","317","271659","0.0-317.0","3S06PH7KSSQ5K03N6AWDI4S2SAS1DK","A3FY6THWKRYN9M","3G9UA71JVVGUCOKNEKUVXTI6SA17JG","","<img src=""img/set1/S2.jpg"" width=""540"" height = ""360"" style=""border:16px solid orange"">","null","","","","","","","","","",""
"null","","html-keyboard-response","318","271876","0.0-318.0","3S06PH7KSSQ5K03N6AWDI4S2SAS1DK","A3FY6THWKRYN9M","3G9UA71JVVGUCOKNEKUVXTI6SA17JG","","","null","","","","","","","","","",""
"526.6999999880791","","image-keyboard-response","319","272404","0.0-319.0","3S06PH7KSSQ5K03N6AWDI4S2SAS1DK","A3FY6THWKRYN9M","3G9UA71JVVGUCOKNEKUVXTI6SA17JG","","img/set1/S3.jpg","72","3","structured_incentive","72","structured_incentive,structured_normal,structured_load,random","2,3,4,2,1,2","3,2,4,1","true","","",""
"null","","html-keyboard-response","320","272768","0.0-320.0","3S06PH7KSSQ5K03N6AWDI4S2SAS1DK","A3FY6THWKRYN9M","3G9UA71JVVGUCOKNEKUVXTI6SA17JG","","<img src=""img/set1/S3.jpg"" width=""540"" height = ""360"" style=""border:16px solid orange"">","null","","","","","","","","","",""
"null","","html-keyboard-response","321","272970","0.0-321.0","3S06PH7KSSQ5K03N6AWDI4S2SAS1DK","A3FY6THWKRYN9M","3G9UA71JVVGUCOKNEKUVXTI6SA17JG","","","null","","","","","","","","","",""
"556.8000000119209","","image-keyboard-response","322","273528","0.0-322.0","3S06PH7KSSQ5K03N6AWDI4S2SAS1DK","A3FY6THWKRYN9M","3G9UA71JVVGUCOKNEKUVXTI6SA17JG","","img/set1/S2.jpg","68","2","structured_incentive","68","structured_incentive,structured_normal,structured_load,random","2,3,4,2,1,2","3,2,4,1","true","","",""
"null","","html-keyboard-response","323","273889","0.0-323.0","3S06PH7KSSQ5K03N6AWDI4S2SAS1DK","A3FY6THWKRYN9M","3G9UA71JVVGUCOKNEKUVXTI6SA17JG","","<img src=""img/set1/S2.jpg"" width=""540"" height = ""360"" style=""border:16px solid orange"">","null","","","","","","","","","",""
"null","","html-keyboard-response","324","274093","0.0-324.0","3S06PH7KSSQ5K03N6AWDI4S2SAS1DK","A3FY6THWKRYN9M","3G9UA71JVVGUCOKNEKUVXTI6SA17JG","","","null","","","","","","","","","",""
"746.8000000119209","","image-keyboard-response","325","274840","0.0-325.0","3S06PH7KSSQ5K03N6AWDI4S2SAS1DK","A3FY6THWKRYN9M","3G9UA71JVVGUCOKNEKUVXTI6SA17JG","","img/set1/S4.jpg","74","4","structured_incentive","74","structured_incentive,structured_normal,structured_load,random","2,3,4,2,1,2","3,2,4,1","true","","",""
"null","","html-keyboard-response","326","275194","0.0-326.0","3S06PH7KSSQ5K03N6AWDI4S2SAS1DK","A3FY6THWKRYN9M","3G9UA71JVVGUCOKNEKUVXTI6SA17JG","","<img src=""img/set1/S4.jpg"" width=""540"" height = ""360"" style=""border:16px solid Violet"">","null","","","","","","","","","",""
"null","","html-keyboard-response","327","275397","0.0-327.0","3S06PH7KSSQ5K03N6AWDI4S2SAS1DK","A3FY6THWKRYN9M","3G9UA71JVVGUCOKNEKUVXTI6SA17JG","","","null","","","","","","","","","",""
"1030.800000011921","","image-keyboard-response","328","276429","0.0-328.0","3S06PH7KSSQ5K03N6AWDI4S2SAS1DK","A3FY6THWKRYN9M","3G9UA71JVVGUCOKNEKUVXTI6SA17JG","","img/set1/S1.jpg","68","1","structured_incentive","83","structured_incentive,structured_normal,structured_load,random","2,3,4,2,1,2","3,2,4,1","false","","",""
"null","","html-keyboard-response","329","276784","0.0-329.0","3S06PH7KSSQ5K03N6AWDI4S2SAS1DK","A3FY6THWKRYN9M","3G9UA71JVVGUCOKNEKUVXTI6SA17JG","","<img src=""img/set1/S1.jpg"" width=""540"" height = ""360"">","null","","","","","","","","","",""
"null","","html-keyboard-response","330","277001","0.0-330.0","3S06PH7KSSQ5K03N6AWDI4S2SAS1DK","A3FY6THWKRYN9M","3G9UA71JVVGUCOKNEKUVXTI6SA17JG","","","null","","","","","","","","","",""
"704.1000000238419","","image-keyboard-response","331","277706","0.0-331.0","3S06PH7KSSQ5K03N6AWDI4S2SAS1DK","A3FY6THWKRYN9M","3G9UA71JVVGUCOKNEKUVXTI6SA17JG","","img/set1/S4.jpg","74","4","structured_incentive","74","structured_incentive,structured_normal,structured_load,random","2,3,4,2,1,2","3,2,4,1","true","","",""
"null","","html-keyboard-response","332","278060","0.0-332.0","3S06PH7KSSQ5K03N6AWDI4S2SAS1DK","A3FY6THWKRYN9M","3G9UA71JVVGUCOKNEKUVXTI6SA17JG","","<img src=""img/set1/S4.jpg"" width=""540"" height = ""360"" style=""border:16px solid Violet"">","null","","","","","","","","","",""
"null","","html-keyboard-response","333","278264","0.0-333.0","3S06PH7KSSQ5K03N6AWDI4S2SAS1DK","A3FY6THWKRYN9M","3G9UA71JVVGUCOKNEKUVXTI6SA17JG","","","null","","","","","","","","","",""
"766.2999999523163","","image-keyboard-response","334","279031","0.0-334.0","3S06PH7KSSQ5K03N6AWDI4S2SAS1DK","A3FY6THWKRYN9M","3G9UA71JVVGUCOKNEKUVXTI6SA17JG","","img/set1/S1.jpg","68","1","structured_incentive","83","structured_incentive,structured_normal,structured_load,random","2,3,4,2,1,2","3,2,4,1","false","","",""
"null","","html-keyboard-response","335","279396","0.0-335.0","3S06PH7KSSQ5K03N6AWDI4S2SAS1DK","A3FY6THWKRYN9M","3G9UA71JVVGUCOKNEKUVXTI6SA17JG","","<img src=""img/set1/S1.jpg"" width=""540"" height = ""360"">","null","","","","","","","","","",""
"null","","html-keyboard-response","336","279611","0.0-336.0","3S06PH7KSSQ5K03N6AWDI4S2SAS1DK","A3FY6THWKRYN9M","3G9UA71JVVGUCOKNEKUVXTI6SA17JG","","","null","","","","","","","","","",""
"1738.300000011921","","image-keyboard-response","337","281351","0.0-337.0","3S06PH7KSSQ5K03N6AWDI4S2SAS1DK","A3FY6THWKRYN9M","3G9UA71JVVGUCOKNEKUVXTI6SA17JG","","img/set1/S1.jpg","72","1","structured_incentive","83","structured_incentive,structured_normal,structured_load,random","2,3,4,2,1,2","3,2,4,1","false","","",""
"null","","html-keyboard-response","338","281705","0.0-338.0","3S06PH7KSSQ5K03N6AWDI4S2SAS1DK","A3FY6THWKRYN9M","3G9UA71JVVGUCOKNEKUVXTI6SA17JG","","<img src=""img/set1/S1.jpg"" width=""540"" height = ""360"">","null","","","","","","","","","",""
"null","","html-keyboard-response","339","281906","0.0-339.0","3S06PH7KSSQ5K03N6AWDI4S2SAS1DK","A3FY6THWKRYN9M","3G9UA71JVVGUCOKNEKUVXTI6SA17JG","","","null","","","","","","","","","",""
"719.7999999523163","","image-keyboard-response","340","282627","0.0-340.0","3S06PH7KSSQ5K03N6AWDI4S2SAS1DK","A3FY6THWKRYN9M","3G9UA71JVVGUCOKNEKUVXTI6SA17JG","","img/set1/S1.jpg","72","1","structured_incentive","83","structured_incentive,structured_normal,structured_load,random","2,3,4,2,1,2","3,2,4,1","false","","",""
"null","","html-keyboard-response","341","282988","0.0-341.0","3S06PH7KSSQ5K03N6AWDI4S2SAS1DK","A3FY6THWKRYN9M","3G9UA71JVVGUCOKNEKUVXTI6SA17JG","","<img src=""img/set1/S1.jpg"" width=""540"" height = ""360"">","null","","","","","","","","","",""
"null","","html-keyboard-response","342","283190","0.0-342.0","3S06PH7KSSQ5K03N6AWDI4S2SAS1DK","A3FY6THWKRYN9M","3G9UA71JVVGUCOKNEKUVXTI6SA17JG","","","null","","","","","","","","","",""
"721.1000000238419","","image-keyboard-response","343","283912","0.0-343.0","3S06PH7KSSQ5K03N6AWDI4S2SAS1DK","A3FY6THWKRYN9M","3G9UA71JVVGUCOKNEKUVXTI6SA17JG","","img/set1/S2.jpg","68","2","structured_incentive","68","structured_incentive,structured_normal,structured_load,random","2,3,4,2,1,2","3,2,4,1","true","","",""
"null","","html-keyboard-response","344","284275","0.0-344.0","3S06PH7KSSQ5K03N6AWDI4S2SAS1DK","A3FY6THWKRYN9M","3G9UA71JVVGUCOKNEKUVXTI6SA17JG","","<img src=""img/set1/S2.jpg"" width=""540"" height = ""360"" style=""border:16px solid orange"">","null","","","","","","","","","",""
"null","","html-keyboard-response","345","284476","0.0-345.0","3S06PH7KSSQ5K03N6AWDI4S2SAS1DK","A3FY6THWKRYN9M","3G9UA71JVVGUCOKNEKUVXTI6SA17JG","","","null","","","","","","","","","",""
"1408.9000000357628","","image-keyboard-response","346","285887","0.0-346.0","3S06PH7KSSQ5K03N6AWDI4S2SAS1DK","A3FY6THWKRYN9M","3G9UA71JVVGUCOKNEKUVXTI6SA17JG","","img/set1/S3.jpg","72","3","structured_incentive","72","structured_incentive,structured_normal,structured_load,random","2,3,4,2,1,2","3,2,4,1","true","","",""
"null","","html-keyboard-response","347","286240","0.0-347.0","3S06PH7KSSQ5K03N6AWDI4S2SAS1DK","A3FY6THWKRYN9M","3G9UA71JVVGUCOKNEKUVXTI6SA17JG","","<img src=""img/set1/S3.jpg"" width=""540"" height = ""360"" style=""border:16px solid orange"">","null","","","","","","","","","",""
"null","","html-keyboard-response","348","286456","0.0-348.0","3S06PH7KSSQ5K03N6AWDI4S2SAS1DK","A3FY6THWKRYN9M","3G9UA71JVVGUCOKNEKUVXTI6SA17JG","","","null","","","","","","","","","",""
"584.0999999642372","","image-keyboard-response","349","287042","0.0-349.0","3S06PH7KSSQ5K03N6AWDI4S2SAS1DK","A3FY6THWKRYN9M","3G9UA71JVVGUCOKNEKUVXTI6SA17JG","","img/set1/S4.jpg","74","4","structured_incentive","74","structured_incentive,structured_normal,structured_load,random","2,3,4,2,1,2","3,2,4,1","true","","",""
"null","","html-keyboard-response","350","287402","0.0-350.0","3S06PH7KSSQ5K03N6AWDI4S2SAS1DK","A3FY6THWKRYN9M","3G9UA71JVVGUCOKNEKUVXTI6SA17JG","","<img src=""img/set1/S4.jpg"" width=""540"" height = ""360"" style=""border:16px solid Violet"">","null","","","","","","","","","",""
"null","","html-keyboard-response","351","287616","0.0-351.0","3S06PH7KSSQ5K03N6AWDI4S2SAS1DK","A3FY6THWKRYN9M","3G9UA71JVVGUCOKNEKUVXTI6SA17JG","","","null","","","","","","","","","",""
"801.6000000238419","","image-keyboard-response","352","288418","0.0-352.0","3S06PH7KSSQ5K03N6AWDI4S2SAS1DK","A3FY6THWKRYN9M","3G9UA71JVVGUCOKNEKUVXTI6SA17JG","","img/set1/S2.jpg","68","2","structured_incentive","68","structured_incentive,structured_normal,structured_load,random","2,3,4,2,1,2","3,2,4,1","true","","",""
"null","","html-keyboard-response","353","288775","0.0-353.0","3S06PH7KSSQ5K03N6AWDI4S2SAS1DK","A3FY6THWKRYN9M","3G9UA71JVVGUCOKNEKUVXTI6SA17JG","","<img src=""img/set1/S2.jpg"" width=""540"" height = ""360"" style=""border:16px solid orange"">","null","","","","","","","","","",""
"null","","html-keyboard-response","354","288978","0.0-354.0","3S06PH7KSSQ5K03N6AWDI4S2SAS1DK","A3FY6THWKRYN9M","3G9UA71JVVGUCOKNEKUVXTI6SA17JG","","","null","","","","","","","","","",""
"668.6999999880791","","image-keyboard-response","355","289648","0.0-355.0","3S06PH7KSSQ5K03N6AWDI4S2SAS1DK","A3FY6THWKRYN9M","3G9UA71JVVGUCOKNEKUVXTI6SA17JG","","img/set1/S4.jpg","74","4","structured_incentive","74","structured_incentive,structured_normal,structured_load,random","2,3,4,2,1,2","3,2,4,1","true","","",""
"null","","html-keyboard-response","356","290003","0.0-356.0","3S06PH7KSSQ5K03N6AWDI4S2SAS1DK","A3FY6THWKRYN9M","3G9UA71JVVGUCOKNEKUVXTI6SA17JG","","<img src=""img/set1/S4.jpg"" width=""540"" height = ""360"" style=""border:16px solid Violet"">","null","","","","","","","","","",""
"null","","html-keyboard-response","357","290218","0.0-357.0","3S06PH7KSSQ5K03N6AWDI4S2SAS1DK","A3FY6THWKRYN9M","3G9UA71JVVGUCOKNEKUVXTI6SA17JG","","","null","","","","","","","","","",""
"477.80000001192093","","image-keyboard-response","358","290697","0.0-358.0","3S06PH7KSSQ5K03N6AWDI4S2SAS1DK","A3FY6THWKRYN9M","3G9UA71JVVGUCOKNEKUVXTI6SA17JG","","img/set1/S3.jpg","72","3","structured_incentive","72","structured_incentive,structured_normal,structured_load,random","2,3,4,2,1,2","3,2,4,1","true","","",""
"null","","html-keyboard-response","359","291053","0.0-359.0","3S06PH7KSSQ5K03N6AWDI4S2SAS1DK","A3FY6THWKRYN9M","3G9UA71JVVGUCOKNEKUVXTI6SA17JG","","<img src=""img/set1/S3.jpg"" width=""540"" height = ""360"" style=""border:16px solid orange"">","null","","","","","","","","","",""
"null","","html-keyboard-response","360","291256","0.0-360.0","3S06PH7KSSQ5K03N6AWDI4S2SAS1DK","A3FY6THWKRYN9M","3G9UA71JVVGUCOKNEKUVXTI6SA17JG","","","null","","","","","","","","","",""
"null","","image-keyboard-response","361","293761","0.0-361.0","3S06PH7KSSQ5K03N6AWDI4S2SAS1DK","A3FY6THWKRYN9M","3G9UA71JVVGUCOKNEKUVXTI6SA17JG","","img/set1/S1.jpg","null","1","structured_incentive","83","structured_incentive,structured_normal,structured_load,random","2,3,4,2,1,2","3,2,4,1","false","","",""
"null","","html-keyboard-response","362","294118","0.0-362.0","3S06PH7KSSQ5K03N6AWDI4S2SAS1DK","A3FY6THWKRYN9M","3G9UA71JVVGUCOKNEKUVXTI6SA17JG","","<img src=""img/set1/S1.jpg"" width=""540"" height = ""360"">","null","","","","","","","","","",""
"null","","html-keyboard-response","363","294335","0.0-363.0","3S06PH7KSSQ5K03N6AWDI4S2SAS1DK","A3FY6THWKRYN9M","3G9UA71JVVGUCOKNEKUVXTI6SA17JG","","","null","","","","","","","","","",""
"542.5","","image-keyboard-response","364","294879","0.0-364.0","3S06PH7KSSQ5K03N6AWDI4S2SAS1DK","A3FY6THWKRYN9M","3G9UA71JVVGUCOKNEKUVXTI6SA17JG","","img/set1/S4.jpg","74","4","structured_incentive","74","structured_incentive,structured_normal,structured_load,random","2,3,4,2,1,2","3,2,4,1","true","","",""
"null","","html-keyboard-response","365","295233","0.0-365.0","3S06PH7KSSQ5K03N6AWDI4S2SAS1DK","A3FY6THWKRYN9M","3G9UA71JVVGUCOKNEKUVXTI6SA17JG","","<img src=""img/set1/S4.jpg"" width=""540"" height = ""360"" style=""border:16px solid Violet"">","null","","","","","","","","","",""
"null","","html-keyboard-response","366","295436","0.0-366.0","3S06PH7KSSQ5K03N6AWDI4S2SAS1DK","A3FY6THWKRYN9M","3G9UA71JVVGUCOKNEKUVXTI6SA17JG","","","null","","","","","","","","","",""
"949.6000000238419","","image-keyboard-response","367","296387","0.0-367.0","3S06PH7KSSQ5K03N6AWDI4S2SAS1DK","A3FY6THWKRYN9M","3G9UA71JVVGUCOKNEKUVXTI6SA17JG","","img/set1/S3.jpg","72","3","structured_incentive","72","structured_incentive,structured_normal,structured_load,random","2,3,4,2,1,2","3,2,4,1","true","","",""
"null","","html-keyboard-response","368","296749","0.0-368.0","3S06PH7KSSQ5K03N6AWDI4S2SAS1DK","A3FY6THWKRYN9M","3G9UA71JVVGUCOKNEKUVXTI6SA17JG","","<img src=""img/set1/S3.jpg"" width=""540"" height = ""360"" style=""border:16px solid orange"">","null","","","","","","","","","",""
"null","","html-keyboard-response","369","296964","0.0-369.0","3S06PH7KSSQ5K03N6AWDI4S2SAS1DK","A3FY6THWKRYN9M","3G9UA71JVVGUCOKNEKUVXTI6SA17JG","","","null","","","","","","","","","",""
"550","","image-keyboard-response","370","297516","0.0-370.0","3S06PH7KSSQ5K03N6AWDI4S2SAS1DK","A3FY6THWKRYN9M","3G9UA71JVVGUCOKNEKUVXTI6SA17JG","","img/set1/S2.jpg","68","2","structured_incentive","68","structured_incentive,structured_normal,structured_load,random","2,3,4,2,1,2","3,2,4,1","true","","",""
"null","","html-keyboard-response","371","297876","0.0-371.0","3S06PH7KSSQ5K03N6AWDI4S2SAS1DK","A3FY6THWKRYN9M","3G9UA71JVVGUCOKNEKUVXTI6SA17JG","","<img src=""img/set1/S2.jpg"" width=""540"" height = ""360"" style=""border:16px solid orange"">","null","","","","","","","","","",""
"null","","html-keyboard-response","372","298079","0.0-372.0","3S06PH7KSSQ5K03N6AWDI4S2SAS1DK","A3FY6THWKRYN9M","3G9UA71JVVGUCOKNEKUVXTI6SA17JG","","","null","","","","","","","","","",""
"812.8000000119209","","image-keyboard-response","373","298893","0.0-373.0","3S06PH7KSSQ5K03N6AWDI4S2SAS1DK","A3FY6THWKRYN9M","3G9UA71JVVGUCOKNEKUVXTI6SA17JG","","img/set1/S3.jpg","72","3","structured_incentive","72","structured_incentive,structured_normal,structured_load,random","2,3,4,2,1,2","3,2,4,1","true","","",""
"null","","html-keyboard-response","374","299257","0.0-374.0","3S06PH7KSSQ5K03N6AWDI4S2SAS1DK","A3FY6THWKRYN9M","3G9UA71JVVGUCOKNEKUVXTI6SA17JG","","<img src=""img/set1/S3.jpg"" width=""540"" height = ""360"" style=""border:16px solid orange"">","null","","","","","","","","","",""
"null","","html-keyboard-response","375","299473","0.0-375.0","3S06PH7KSSQ5K03N6AWDI4S2SAS1DK","A3FY6THWKRYN9M","3G9UA71JVVGUCOKNEKUVXTI6SA17JG","","","null","","","","","","","","","",""
"534.2000000476837","","image-keyboard-response","376","300008","0.0-376.0","3S06PH7KSSQ5K03N6AWDI4S2SAS1DK","A3FY6THWKRYN9M","3G9UA71JVVGUCOKNEKUVXTI6SA17JG","","img/set1/S1.jpg","68","1","structured_incentive","83","structured_incentive,structured_normal,structured_load,random","2,3,4,2,1,2","3,2,4,1","false","","",""
"null","","html-keyboard-response","377","300370","0.0-377.0","3S06PH7KSSQ5K03N6AWDI4S2SAS1DK","A3FY6THWKRYN9M","3G9UA71JVVGUCOKNEKUVXTI6SA17JG","","<img src=""img/set1/S1.jpg"" width=""540"" height = ""360"">","null","","","","","","","","","",""
"null","","html-keyboard-response","378","300574","0.0-378.0","3S06PH7KSSQ5K03N6AWDI4S2SAS1DK","A3FY6THWKRYN9M","3G9UA71JVVGUCOKNEKUVXTI6SA17JG","","","null","","","","","","","","","",""
"1122.800000011921","","image-keyboard-response","379","301698","0.0-379.0","3S06PH7KSSQ5K03N6AWDI4S2SAS1DK","A3FY6THWKRYN9M","3G9UA71JVVGUCOKNEKUVXTI6SA17JG","","img/set1/S1.jpg","72","1","structured_incentive","83","structured_incentive,structured_normal,structured_load,random","2,3,4,2,1,2","3,2,4,1","false","","",""
"null","","html-keyboard-response","380","302059","0.0-380.0","3S06PH7KSSQ5K03N6AWDI4S2SAS1DK","A3FY6THWKRYN9M","3G9UA71JVVGUCOKNEKUVXTI6SA17JG","","<img src=""img/set1/S1.jpg"" width=""540"" height = ""360"">","null","","","","","","","","","",""
"null","","html-keyboard-response","381","302274","0.0-381.0","3S06PH7KSSQ5K03N6AWDI4S2SAS1DK","A3FY6THWKRYN9M","3G9UA71JVVGUCOKNEKUVXTI6SA17JG","","","null","","","","","","","","","",""
"582.8000000119209","","image-keyboard-response","382","302858","0.0-382.0","3S06PH7KSSQ5K03N6AWDI4S2SAS1DK","A3FY6THWKRYN9M","3G9UA71JVVGUCOKNEKUVXTI6SA17JG","","img/set1/S1.jpg","74","1","structured_incentive","83","structured_incentive,structured_normal,structured_load,random","2,3,4,2,1,2","3,2,4,1","false","","",""
"null","","html-keyboard-response","383","303219","0.0-383.0","3S06PH7KSSQ5K03N6AWDI4S2SAS1DK","A3FY6THWKRYN9M","3G9UA71JVVGUCOKNEKUVXTI6SA17JG","","<img src=""img/set1/S1.jpg"" width=""540"" height = ""360"">","null","","","","","","","","","",""
"null","","html-keyboard-response","384","303422","0.0-384.0","3S06PH7KSSQ5K03N6AWDI4S2SAS1DK","A3FY6THWKRYN9M","3G9UA71JVVGUCOKNEKUVXTI6SA17JG","","","null","","","","","","","","","",""
