"rt","url","trial_type","trial_index","time_elapsed","internal_node_id","view_history","stimulus","key_press","state","test_part","correct_response","order_block","order_chunk","correct","responses","bonus"
"8657.599999964237","consent.html","external-html","0","8758","0.0-0.0","","","","","","","","","","",""
"53165.200000047684","","instructions","1","61926","0.0-1.0","[{""page_index"":0,""viewing_time"":2642.600000023842},{""page_index"":1,""viewing_time"":6549.300000011921},{""page_index"":2,""viewing_time"":7232.800000011921},{""page_index"":3,""viewing_time"":11828.099999964237},{""page_index"":4,""viewing_time"":4967.199999988079},{""page_index"":5,""viewing_time"":13280.700000047684},{""page_index"":6,""viewing_time"":6664.099999964237}]","","","","","","","","","",""
"10417.199999988079","","instructions","2","72344","0.0-2.0","[{""page_index"":0,""viewing_time"":10417}]","","","","","","","","","",""
"3238.5","","instructions","3","75583","0.0-3.0","[{""page_index"":0,""viewing_time"":3238.2999999523163}]","","","","","","","","","",""
"965.9000000357628","","image-keyboard-response","4","76550","0.0-4.0","","img/set1/S1.jpg","83","1","random","83","random,structured_normal,structured_load,structured_incentive","3,4,2,1,2,3","true","",""
"null","","html-keyboard-response","5","76902","0.0-5.0","","<img src=""img/set1/S1.jpg"" width=""540"" height = ""360"" style=""border:16px solid orange"">","null","","","","","","","",""
"null","","html-keyboard-response","6","77103","0.0-6.0","","","null","","","","","","","",""
"1187.300000011921","","image-keyboard-response","7","78290","0.0-7.0","","img/set1/S4.jpg","68","4","random","74","random,structured_normal,structured_load,structured_incentive","3,4,2,1,2,3","false","",""
"null","","html-keyboard-response","8","78643","0.0-8.0","","<img src=""img/set1/S4.jpg"" width=""540"" height = ""360"">","null","","","","","","","",""
"null","","html-keyboard-response","9","78844","0.0-9.0","","","null","","","","","","","",""
"603.8000000119209","","image-keyboard-response","10","79449","0.0-10.0","","img/set1/S2.jpg","83","2","random","68","random,structured_normal,structured_load,structured_incentive","3,4,2,1,2,3","false","",""
"null","","html-keyboard-response","11","79800","0.0-11.0","","<img src=""img/set1/S2.jpg"" width=""540"" height = ""360"">","null","","","","","","","",""
"null","","html-keyboard-response","12","80001","0.0-12.0","","","null","","","","","","","",""
"848.8000000119209","","image-keyboard-response","13","80850","0.0-13.0","","img/set1/S1.jpg","74","1","random","83","random,structured_normal,structured_load,structured_incentive","3,4,2,1,2,3","false","",""
"null","","html-keyboard-response","14","81202","0.0-14.0","","<img src=""img/set1/S1.jpg"" width=""540"" height = ""360"">","null","","","","","","","",""
"null","","html-keyboard-response","15","81403","0.0-15.0","","","null","","","","","","","",""
"2392.699999988079","","image-keyboard-response","16","83796","0.0-16.0","","img/set1/S1.jpg","72","1","random","83","random,structured_normal,structured_load,structured_incentive","3,4,2,1,2,3","false","",""
"null","","html-keyboard-response","17","84148","0.0-17.0","","<img src=""img/set1/S1.jpg"" width=""540"" height = ""360"">","null","","","","","","","",""
"null","","html-keyboard-response","18","84349","0.0-18.0","","","null","","","","","","","",""
"543.5999999642372","","image-keyboard-response","19","84893","0.0-19.0","","img/set1/S1.jpg","68","1","random","83","random,structured_normal,structured_load,structured_incentive","3,4,2,1,2,3","false","",""
"null","","html-keyboard-response","20","85245","0.0-20.0","","<img src=""img/set1/S1.jpg"" width=""540"" height = ""360"">","null","","","","","","","",""
"null","","html-keyboard-response","21","85445","0.0-21.0","","","null","","","","","","","",""
"504.0999999642372","","image-keyboard-response","22","85950","0.0-22.0","","img/set1/S2.jpg","83","2","random","68","random,structured_normal,structured_load,structured_incentive","3,4,2,1,2,3","false","",""
"null","","html-keyboard-response","23","86302","0.0-23.0","","<img src=""img/set1/S2.jpg"" width=""540"" height = ""360"">","null","","","","","","","",""
"null","","html-keyboard-response","24","86503","0.0-24.0","","","null","","","","","","","",""
"5.5","","image-keyboard-response","25","86509","0.0-25.0","","img/set1/S2.jpg","68","2","random","68","random,structured_normal,structured_load,structured_incentive","3,4,2,1,2,3","true","",""
"null","","html-keyboard-response","26","86861","0.0-26.0","","<img src=""img/set1/S2.jpg"" width=""540"" height = ""360"" style=""border:16px solid orange"">","null","","","","","","","",""
"null","","html-keyboard-response","27","87063","0.0-27.0","","","null","","","","","","","",""
"843.0999999642372","","image-keyboard-response","28","87907","0.0-28.0","","img/set1/S3.jpg","83","3","random","72","random,structured_normal,structured_load,structured_incentive","3,4,2,1,2,3","false","",""
"null","","html-keyboard-response","29","88258","0.0-29.0","","<img src=""img/set1/S3.jpg"" width=""540"" height = ""360"">","null","","","","","","","",""
"null","","html-keyboard-response","30","88460","0.0-30.0","","","null","","","","","","","",""
"667.1999999880791","","image-keyboard-response","31","89128","0.0-31.0","","img/set1/S1.jpg","68","1","random","83","random,structured_normal,structured_load,structured_incentive","3,4,2,1,2,3","false","",""
"null","","html-keyboard-response","32","89479","0.0-32.0","","<img src=""img/set1/S1.jpg"" width=""540"" height = ""360"">","null","","","","","","","",""
"null","","html-keyboard-response","33","89681","0.0-33.0","","","null","","","","","","","",""
"433.80000001192093","","image-keyboard-response","34","90116","0.0-34.0","","img/set1/S1.jpg","74","1","random","83","random,structured_normal,structured_load,structured_incentive","3,4,2,1,2,3","false","",""
"null","","html-keyboard-response","35","90469","0.0-35.0","","<img src=""img/set1/S1.jpg"" width=""540"" height = ""360"">","null","","","","","","","",""
"null","","html-keyboard-response","36","90671","0.0-36.0","","","null","","","","","","","",""
"629.5","","image-keyboard-response","37","91302","0.0-37.0","","img/set1/S4.jpg","83","4","random","74","random,structured_normal,structured_load,structured_incentive","3,4,2,1,2,3","false","",""
"null","","html-keyboard-response","38","91655","0.0-38.0","","<img src=""img/set1/S4.jpg"" width=""540"" height = ""360"">","null","","","","","","","",""
"null","","html-keyboard-response","39","91857","0.0-39.0","","","null","","","","","","","",""
"452.10000002384186","","image-keyboard-response","40","92310","0.0-40.0","","img/set1/S4.jpg","68","4","random","74","random,structured_normal,structured_load,structured_incentive","3,4,2,1,2,3","false","",""
"null","","html-keyboard-response","41","92661","0.0-41.0","","<img src=""img/set1/S4.jpg"" width=""540"" height = ""360"">","null","","","","","","","",""
"null","","html-keyboard-response","42","92862","0.0-42.0","","","null","","","","","","","",""
"394.4000000357628","","image-keyboard-response","43","93257","0.0-43.0","","img/set1/S2.jpg","72","2","random","68","random,structured_normal,structured_load,structured_incentive","3,4,2,1,2,3","false","",""
"null","","html-keyboard-response","44","93609","0.0-44.0","","<img src=""img/set1/S2.jpg"" width=""540"" height = ""360"">","null","","","","","","","",""
"null","","html-keyboard-response","45","93810","0.0-45.0","","","null","","","","","","","",""
"398","","image-keyboard-response","46","94208","0.0-46.0","","img/set1/S3.jpg","74","3","random","72","random,structured_normal,structured_load,structured_incentive","3,4,2,1,2,3","false","",""
"null","","html-keyboard-response","47","94560","0.0-47.0","","<img src=""img/set1/S3.jpg"" width=""540"" height = ""360"">","null","","","","","","","",""
"null","","html-keyboard-response","48","94761","0.0-48.0","","","null","","","","","","","",""
"631.6000000238419","","image-keyboard-response","49","95394","0.0-49.0","","img/set1/S2.jpg","83","2","random","68","random,structured_normal,structured_load,structured_incentive","3,4,2,1,2,3","false","",""
"null","","html-keyboard-response","50","95745","0.0-50.0","","<img src=""img/set1/S2.jpg"" width=""540"" height = ""360"">","null","","","","","","","",""
"null","","html-keyboard-response","51","95946","0.0-51.0","","","null","","","","","","","",""
"408","","image-keyboard-response","52","96355","0.0-52.0","","img/set1/S2.jpg","83","2","random","68","random,structured_normal,structured_load,structured_incentive","3,4,2,1,2,3","false","",""
"null","","html-keyboard-response","53","96707","0.0-53.0","","<img src=""img/set1/S2.jpg"" width=""540"" height = ""360"">","null","","","","","","","",""
"null","","html-keyboard-response","54","96908","0.0-54.0","","","null","","","","","","","",""
"829.6999999880791","","image-keyboard-response","55","97739","0.0-55.0","","img/set1/S3.jpg","83","3","random","72","random,structured_normal,structured_load,structured_incentive","3,4,2,1,2,3","false","",""
"null","","html-keyboard-response","56","98090","0.0-56.0","","<img src=""img/set1/S3.jpg"" width=""540"" height = ""360"">","null","","","","","","","",""
"null","","html-keyboard-response","57","98291","0.0-57.0","","","null","","","","","","","",""
"428.30000001192093","","image-keyboard-response","58","98720","0.0-58.0","","img/set1/S2.jpg","83","2","random","68","random,structured_normal,structured_load,structured_incentive","3,4,2,1,2,3","false","",""
"null","","html-keyboard-response","59","99072","0.0-59.0","","<img src=""img/set1/S2.jpg"" width=""540"" height = ""360"">","null","","","","","","","",""
"null","","html-keyboard-response","60","99274","0.0-60.0","","","null","","","","","","","",""
"1036.1000000238419","","image-keyboard-response","61","100310","0.0-61.0","","img/set1/S2.jpg","68","2","random","68","random,structured_normal,structured_load,structured_incentive","3,4,2,1,2,3","true","",""
"null","","html-keyboard-response","62","100661","0.0-62.0","","<img src=""img/set1/S2.jpg"" width=""540"" height = ""360"" style=""border:16px solid orange"">","null","","","","","","","",""
"null","","html-keyboard-response","63","100862","0.0-63.0","","","null","","","","","","","",""
"1015","","image-keyboard-response","64","101877","0.0-64.0","","img/set1/S4.jpg","68","4","random","74","random,structured_normal,structured_load,structured_incentive","3,4,2,1,2,3","false","",""
"null","","html-keyboard-response","65","102229","0.0-65.0","","<img src=""img/set1/S4.jpg"" width=""540"" height = ""360"">","null","","","","","","","",""
"null","","html-keyboard-response","66","102431","0.0-66.0","","","null","","","","","","","",""
"460.30000001192093","","image-keyboard-response","67","102892","0.0-67.0","","img/set1/S4.jpg","74","4","random","74","random,structured_normal,structured_load,structured_incentive","3,4,2,1,2,3","true","",""
"null","","html-keyboard-response","68","103243","0.0-68.0","","<img src=""img/set1/S4.jpg"" width=""540"" height = ""360"" style=""border:16px solid orange"">","null","","","","","","","",""
"null","","html-keyboard-response","69","103444","0.0-69.0","","","null","","","","","","","",""
"913.6000000238419","","image-keyboard-response","70","104359","0.0-70.0","","img/set1/S1.jpg","74","1","random","83","random,structured_normal,structured_load,structured_incentive","3,4,2,1,2,3","false","",""
"null","","html-keyboard-response","71","104711","0.0-71.0","","<img src=""img/set1/S1.jpg"" width=""540"" height = ""360"">","null","","","","","","","",""
"null","","html-keyboard-response","72","104912","0.0-72.0","","","null","","","","","","","",""
"554.6999999880791","","image-keyboard-response","73","105468","0.0-73.0","","img/set1/S4.jpg","74","4","random","74","random,structured_normal,structured_load,structured_incentive","3,4,2,1,2,3","true","",""
"null","","html-keyboard-response","74","105819","0.0-74.0","","<img src=""img/set1/S4.jpg"" width=""540"" height = ""360"" style=""border:16px solid orange"">","null","","","","","","","",""
"null","","html-keyboard-response","75","106020","0.0-75.0","","","null","","","","","","","",""
"602.1999999880791","","image-keyboard-response","76","106623","0.0-76.0","","img/set1/S2.jpg","74","2","random","68","random,structured_normal,structured_load,structured_incentive","3,4,2,1,2,3","false","",""
"null","","html-keyboard-response","77","106975","0.0-77.0","","<img src=""img/set1/S2.jpg"" width=""540"" height = ""360"">","null","","","","","","","",""
"null","","html-keyboard-response","78","107176","0.0-78.0","","","null","","","","","","","",""
"661.1999999880791","","image-keyboard-response","79","107838","0.0-79.0","","img/set1/S3.jpg","72","3","random","72","random,structured_normal,structured_load,structured_incentive","3,4,2,1,2,3","true","",""
"null","","html-keyboard-response","80","108189","0.0-80.0","","<img src=""img/set1/S3.jpg"" width=""540"" height = ""360"" style=""border:16px solid orange"">","null","","","","","","","",""
"null","","html-keyboard-response","81","108391","0.0-81.0","","","null","","","","","","","",""
"715","","image-keyboard-response","82","109106","0.0-82.0","","img/set1/S4.jpg","74","4","random","74","random,structured_normal,structured_load,structured_incentive","3,4,2,1,2,3","true","",""
"null","","html-keyboard-response","83","109457","0.0-83.0","","<img src=""img/set1/S4.jpg"" width=""540"" height = ""360"" style=""border:16px solid orange"">","null","","","","","","","",""
"null","","html-keyboard-response","84","109658","0.0-84.0","","","null","","","","","","","",""
"484.5","","image-keyboard-response","85","110143","0.0-85.0","","img/set1/S4.jpg","74","4","random","74","random,structured_normal,structured_load,structured_incentive","3,4,2,1,2,3","true","",""
"null","","html-keyboard-response","86","110495","0.0-86.0","","<img src=""img/set1/S4.jpg"" width=""540"" height = ""360"" style=""border:16px solid orange"">","null","","","","","","","",""
"null","","html-keyboard-response","87","110697","0.0-87.0","","","null","","","","","","","",""
"607.8000000119209","","image-keyboard-response","88","111305","0.0-88.0","","img/set1/S3.jpg","72","3","random","72","random,structured_normal,structured_load,structured_incentive","3,4,2,1,2,3","true","",""
"null","","html-keyboard-response","89","111657","0.0-89.0","","<img src=""img/set1/S3.jpg"" width=""540"" height = ""360"" style=""border:16px solid orange"">","null","","","","","","","",""
"null","","html-keyboard-response","90","111858","0.0-90.0","","","null","","","","","","","",""
"469.2999999523163","","image-keyboard-response","91","112329","0.0-91.0","","img/set1/S1.jpg","74","1","random","83","random,structured_normal,structured_load,structured_incentive","3,4,2,1,2,3","false","",""
"null","","html-keyboard-response","92","112680","0.0-92.0","","<img src=""img/set1/S1.jpg"" width=""540"" height = ""360"">","null","","","","","","","",""
"null","","html-keyboard-response","93","112882","0.0-93.0","","","null","","","","","","","",""
"825.5999999642372","","image-keyboard-response","94","113708","0.0-94.0","","img/set1/S2.jpg","74","2","random","68","random,structured_normal,structured_load,structured_incentive","3,4,2,1,2,3","false","",""
"null","","html-keyboard-response","95","114060","0.0-95.0","","<img src=""img/set1/S2.jpg"" width=""540"" height = ""360"">","null","","","","","","","",""
"null","","html-keyboard-response","96","114261","0.0-96.0","","","null","","","","","","","",""
"655.8999999761581","","image-keyboard-response","97","114918","0.0-97.0","","img/set1/S4.jpg","74","4","random","74","random,structured_normal,structured_load,structured_incentive","3,4,2,1,2,3","true","",""
"null","","html-keyboard-response","98","115269","0.0-98.0","","<img src=""img/set1/S4.jpg"" width=""540"" height = ""360"" style=""border:16px solid orange"">","null","","","","","","","",""
"null","","html-keyboard-response","99","115471","0.0-99.0","","","null","","","","","","","",""
"700","","image-keyboard-response","100","116172","0.0-100.0","","img/set1/S4.jpg","74","4","random","74","random,structured_normal,structured_load,structured_incentive","3,4,2,1,2,3","true","",""
"null","","html-keyboard-response","101","116524","0.0-101.0","","<img src=""img/set1/S4.jpg"" width=""540"" height = ""360"" style=""border:16px solid orange"">","null","","","","","","","",""
"null","","html-keyboard-response","102","116726","0.0-102.0","","","null","","","","","","","",""
"821.3999999761581","","image-keyboard-response","103","117547","0.0-103.0","","img/set1/S1.jpg","68","1","random","83","random,structured_normal,structured_load,structured_incentive","3,4,2,1,2,3","false","",""
"null","","html-keyboard-response","104","117899","0.0-104.0","","<img src=""img/set1/S1.jpg"" width=""540"" height = ""360"">","null","","","","","","","",""
"null","","html-keyboard-response","105","118101","0.0-105.0","","","null","","","","","","","",""
"null","","image-keyboard-response","106","120604","0.0-106.0","","img/set1/S1.jpg","null","1","random","83","random,structured_normal,structured_load,structured_incentive","3,4,2,1,2,3","false","",""
"null","","html-keyboard-response","107","120957","0.0-107.0","","<img src=""img/set1/S1.jpg"" width=""540"" height = ""360"">","null","","","","","","","",""
"null","","html-keyboard-response","108","121158","0.0-108.0","","","null","","","","","","","",""
"366.5","","image-keyboard-response","109","121525","0.0-109.0","","img/set1/S1.jpg","83","1","random","83","random,structured_normal,structured_load,structured_incentive","3,4,2,1,2,3","true","",""
"null","","html-keyboard-response","110","121877","0.0-110.0","","<img src=""img/set1/S1.jpg"" width=""540"" height = ""360"" style=""border:16px solid orange"">","null","","","","","","","",""
"null","","html-keyboard-response","111","122079","0.0-111.0","","","null","","","","","","","",""
"1060.8999999761581","","image-keyboard-response","112","123141","0.0-112.0","","img/set1/S3.jpg","68","3","random","72","random,structured_normal,structured_load,structured_incentive","3,4,2,1,2,3","false","",""
"null","","html-keyboard-response","113","123492","0.0-113.0","","<img src=""img/set1/S3.jpg"" width=""540"" height = ""360"">","null","","","","","","","",""
"null","","html-keyboard-response","114","123693","0.0-114.0","","","null","","","","","","","",""
"584.1000000238419","","image-keyboard-response","115","124278","0.0-115.0","","img/set1/S4.jpg","74","4","random","74","random,structured_normal,structured_load,structured_incentive","3,4,2,1,2,3","true","",""
"null","","html-keyboard-response","116","124630","0.0-116.0","","<img src=""img/set1/S4.jpg"" width=""540"" height = ""360"" style=""border:16px solid orange"">","null","","","","","","","",""
"null","","html-keyboard-response","117","124831","0.0-117.0","","","null","","","","","","","",""
"636.5","","image-keyboard-response","118","125468","0.0-118.0","","img/set1/S2.jpg","68","2","random","68","random,structured_normal,structured_load,structured_incentive","3,4,2,1,2,3","true","",""
"null","","html-keyboard-response","119","125819","0.0-119.0","","<img src=""img/set1/S2.jpg"" width=""540"" height = ""360"" style=""border:16px solid orange"">","null","","","","","","","",""
"null","","html-keyboard-response","120","126021","0.0-120.0","","","null","","","","","","","",""
"559.3999999761581","","image-keyboard-response","121","126581","0.0-121.0","","img/set1/S2.jpg","68","2","random","68","random,structured_normal,structured_load,structured_incentive","3,4,2,1,2,3","true","",""
"null","","html-keyboard-response","122","126933","0.0-122.0","","<img src=""img/set1/S2.jpg"" width=""540"" height = ""360"" style=""border:16px solid orange"">","null","","","","","","","",""
"null","","html-keyboard-response","123","127134","0.0-123.0","","","null","","","","","","","",""
"660","","image-keyboard-response","124","127796","0.0-124.0","","img/set1/S3.jpg","68","3","random","72","random,structured_normal,structured_load,structured_incentive","3,4,2,1,2,3","false","",""
"null","","html-keyboard-response","125","128149","0.0-125.0","","<img src=""img/set1/S3.jpg"" width=""540"" height = ""360"">","null","","","","","","","",""
"null","","html-keyboard-response","126","128351","0.0-126.0","","","null","","","","","","","",""
"749.3000000119209","","image-keyboard-response","127","129101","0.0-127.0","","img/set1/S2.jpg","68","2","random","68","random,structured_normal,structured_load,structured_incentive","3,4,2,1,2,3","true","",""
"null","","html-keyboard-response","128","129452","0.0-128.0","","<img src=""img/set1/S2.jpg"" width=""540"" height = ""360"" style=""border:16px solid orange"">","null","","","","","","","",""
"null","","html-keyboard-response","129","129654","0.0-129.0","","","null","","","","","","","",""
"741.5","","image-keyboard-response","130","130396","0.0-130.0","","img/set1/S3.jpg","72","3","random","72","random,structured_normal,structured_load,structured_incentive","3,4,2,1,2,3","true","",""
"null","","html-keyboard-response","131","130747","0.0-131.0","","<img src=""img/set1/S3.jpg"" width=""540"" height = ""360"" style=""border:16px solid orange"">","null","","","","","","","",""
"null","","html-keyboard-response","132","130949","0.0-132.0","","","null","","","","","","","",""
"676","","image-keyboard-response","133","131626","0.0-133.0","","img/set1/S4.jpg","74","4","random","74","random,structured_normal,structured_load,structured_incentive","3,4,2,1,2,3","true","",""
"null","","html-keyboard-response","134","131978","0.0-134.0","","<img src=""img/set1/S4.jpg"" width=""540"" height = ""360"" style=""border:16px solid orange"">","null","","","","","","","",""
"null","","html-keyboard-response","135","132180","0.0-135.0","","","null","","","","","","","",""
"590.8999999761581","","image-keyboard-response","136","132772","0.0-136.0","","img/set1/S4.jpg","74","4","random","74","random,structured_normal,structured_load,structured_incentive","3,4,2,1,2,3","true","",""
"null","","html-keyboard-response","137","133123","0.0-137.0","","<img src=""img/set1/S4.jpg"" width=""540"" height = ""360"" style=""border:16px solid orange"">","null","","","","","","","",""
"null","","html-keyboard-response","138","133324","0.0-138.0","","","null","","","","","","","",""
"921.6999999880791","","image-keyboard-response","139","134246","0.0-139.0","","img/set1/S1.jpg","83","1","random","83","random,structured_normal,structured_load,structured_incentive","3,4,2,1,2,3","true","",""
"null","","html-keyboard-response","140","134599","0.0-140.0","","<img src=""img/set1/S1.jpg"" width=""540"" height = ""360"" style=""border:16px solid orange"">","null","","","","","","","",""
"null","","html-keyboard-response","141","134801","0.0-141.0","","","null","","","","","","","",""
"531.6999999880791","","image-keyboard-response","142","135334","0.0-142.0","","img/set1/S2.jpg","68","2","random","68","random,structured_normal,structured_load,structured_incentive","3,4,2,1,2,3","true","",""
"null","","html-keyboard-response","143","135687","0.0-143.0","","<img src=""img/set1/S2.jpg"" width=""540"" height = ""360"" style=""border:16px solid orange"">","null","","","","","","","",""
"null","","html-keyboard-response","144","135889","0.0-144.0","","","null","","","","","","","",""
"900.8999999761581","","image-keyboard-response","145","136791","0.0-145.0","","img/set1/S1.jpg","68","1","random","83","random,structured_normal,structured_load,structured_incentive","3,4,2,1,2,3","false","",""
"null","","html-keyboard-response","146","137143","0.0-146.0","","<img src=""img/set1/S1.jpg"" width=""540"" height = ""360"">","null","","","","","","","",""
"null","","html-keyboard-response","147","137344","0.0-147.0","","","null","","","","","","","",""
"794.3999999761581","","image-keyboard-response","148","138139","0.0-148.0","","img/set1/S4.jpg","74","4","random","74","random,structured_normal,structured_load,structured_incentive","3,4,2,1,2,3","true","",""
"null","","html-keyboard-response","149","138490","0.0-149.0","","<img src=""img/set1/S4.jpg"" width=""540"" height = ""360"" style=""border:16px solid orange"">","null","","","","","","","",""
"null","","html-keyboard-response","150","138692","0.0-150.0","","","null","","","","","","","",""
"631.0999999642372","","image-keyboard-response","151","139323","0.0-151.0","","img/set1/S1.jpg","83","1","random","83","random,structured_normal,structured_load,structured_incentive","3,4,2,1,2,3","true","",""
"null","","html-keyboard-response","152","139675","0.0-152.0","","<img src=""img/set1/S1.jpg"" width=""540"" height = ""360"" style=""border:16px solid orange"">","null","","","","","","","",""
"null","","html-keyboard-response","153","139890","0.0-153.0","","","null","","","","","","","",""
"608.2000000476837","","image-keyboard-response","154","140498","0.0-154.0","","img/set1/S1.jpg","83","1","random","83","random,structured_normal,structured_load,structured_incentive","3,4,2,1,2,3","true","",""
"null","","html-keyboard-response","155","140851","0.0-155.0","","<img src=""img/set1/S1.jpg"" width=""540"" height = ""360"" style=""border:16px solid orange"">","null","","","","","","","",""
"null","","html-keyboard-response","156","141052","0.0-156.0","","","null","","","","","","","",""
"623.5999999642372","","image-keyboard-response","157","141678","0.0-157.0","","img/set1/S4.jpg","74","4","random","74","random,structured_normal,structured_load,structured_incentive","3,4,2,1,2,3","true","",""
"null","","html-keyboard-response","158","142029","0.0-158.0","","<img src=""img/set1/S4.jpg"" width=""540"" height = ""360"" style=""border:16px solid orange"">","null","","","","","","","",""
"null","","html-keyboard-response","159","142231","0.0-159.0","","","null","","","","","","","",""
"655.2000000476837","","image-keyboard-response","160","142888","0.0-160.0","","img/set1/S3.jpg","72","3","random","72","random,structured_normal,structured_load,structured_incentive","3,4,2,1,2,3","true","",""
"null","","html-keyboard-response","161","143241","0.0-161.0","","<img src=""img/set1/S3.jpg"" width=""540"" height = ""360"" style=""border:16px solid orange"">","null","","","","","","","",""
"null","","html-keyboard-response","162","143443","0.0-162.0","","","null","","","","","","","",""
"627","","image-keyboard-response","163","144071","0.0-163.0","","img/set1/S4.jpg","74","4","random","74","random,structured_normal,structured_load,structured_incentive","3,4,2,1,2,3","true","",""
"null","","html-keyboard-response","164","144422","0.0-164.0","","<img src=""img/set1/S4.jpg"" width=""540"" height = ""360"" style=""border:16px solid orange"">","null","","","","","","","",""
"null","","html-keyboard-response","165","144624","0.0-165.0","","","null","","","","","","","",""
"814.8000000119209","","image-keyboard-response","166","145439","0.0-166.0","","img/set1/S1.jpg","83","1","random","83","random,structured_normal,structured_load,structured_incentive","3,4,2,1,2,3","true","",""
"null","","html-keyboard-response","167","145791","0.0-167.0","","<img src=""img/set1/S1.jpg"" width=""540"" height = ""360"" style=""border:16px solid orange"">","null","","","","","","","",""
"null","","html-keyboard-response","168","145992","0.0-168.0","","","null","","","","","","","",""
"711.3000000119209","","image-keyboard-response","169","146704","0.0-169.0","","img/set1/S4.jpg","74","4","random","74","random,structured_normal,structured_load,structured_incentive","3,4,2,1,2,3","true","",""
"null","","html-keyboard-response","170","147055","0.0-170.0","","<img src=""img/set1/S4.jpg"" width=""540"" height = ""360"" style=""border:16px solid orange"">","null","","","","","","","",""
"null","","html-keyboard-response","171","147256","0.0-171.0","","","null","","","","","","","",""
"589.6000000238419","","image-keyboard-response","172","147847","0.0-172.0","","img/set1/S2.jpg","68","2","random","68","random,structured_normal,structured_load,structured_incentive","3,4,2,1,2,3","true","",""
"null","","html-keyboard-response","173","148199","0.0-173.0","","<img src=""img/set1/S2.jpg"" width=""540"" height = ""360"" style=""border:16px solid orange"">","null","","","","","","","",""
"null","","html-keyboard-response","174","148402","0.0-174.0","","","null","","","","","","","",""
"774.5","","image-keyboard-response","175","149177","0.0-175.0","","img/set1/S3.jpg","74","3","random","72","random,structured_normal,structured_load,structured_incentive","3,4,2,1,2,3","false","",""
"null","","html-keyboard-response","176","149529","0.0-176.0","","<img src=""img/set1/S3.jpg"" width=""540"" height = ""360"">","null","","","","","","","",""
"null","","html-keyboard-response","177","149731","0.0-177.0","","","null","","","","","","","",""
"457.10000002384186","","image-keyboard-response","178","150188","0.0-178.0","","img/set1/S3.jpg","72","3","random","72","random,structured_normal,structured_load,structured_incentive","3,4,2,1,2,3","true","",""
"null","","html-keyboard-response","179","150540","0.0-179.0","","<img src=""img/set1/S3.jpg"" width=""540"" height = ""360"" style=""border:16px solid orange"">","null","","","","","","","",""
"null","","html-keyboard-response","180","150740","0.0-180.0","","","null","","","","","","","",""
"372.19999998807907","","image-keyboard-response","181","151113","0.0-181.0","","img/set1/S3.jpg","72","3","random","72","random,structured_normal,structured_load,structured_incentive","3,4,2,1,2,3","true","",""
"null","","html-keyboard-response","182","151464","0.0-182.0","","<img src=""img/set1/S3.jpg"" width=""540"" height = ""360"" style=""border:16px solid orange"">","null","","","","","","","",""
"null","","html-keyboard-response","183","151665","0.0-183.0","","","null","","","","","","","",""
"667.9000000357628","","image-keyboard-response","184","152334","0.0-184.0","","img/set1/S1.jpg","83","1","random","83","random,structured_normal,structured_load,structured_incentive","3,4,2,1,2,3","true","",""
"null","","html-keyboard-response","185","152686","0.0-185.0","","<img src=""img/set1/S1.jpg"" width=""540"" height = ""360"" style=""border:16px solid orange"">","null","","","","","","","",""
"null","","html-keyboard-response","186","152887","0.0-186.0","","","null","","","","","","","",""
"469.80000001192093","","image-keyboard-response","187","153357","0.0-187.0","","img/set1/S1.jpg","83","1","random","83","random,structured_normal,structured_load,structured_incentive","3,4,2,1,2,3","true","",""
"null","","html-keyboard-response","188","153709","0.0-188.0","","<img src=""img/set1/S1.jpg"" width=""540"" height = ""360"" style=""border:16px solid orange"">","null","","","","","","","",""
"null","","html-keyboard-response","189","153910","0.0-189.0","","","null","","","","","","","",""
"642.3999999761581","","image-keyboard-response","190","154553","0.0-190.0","","img/set1/S2.jpg","68","2","random","68","random,structured_normal,structured_load,structured_incentive","3,4,2,1,2,3","true","",""
"null","","html-keyboard-response","191","154904","0.0-191.0","","<img src=""img/set1/S2.jpg"" width=""540"" height = ""360"" style=""border:16px solid orange"">","null","","","","","","","",""
"null","","html-keyboard-response","192","155104","0.0-192.0","","","null","","","","","","","",""
"814.3999999761581","","image-keyboard-response","193","155919","0.0-193.0","","img/set1/S3.jpg","74","3","random","72","random,structured_normal,structured_load,structured_incentive","3,4,2,1,2,3","false","",""
"null","","html-keyboard-response","194","156271","0.0-194.0","","<img src=""img/set1/S3.jpg"" width=""540"" height = ""360"">","null","","","","","","","",""
"null","","html-keyboard-response","195","156472","0.0-195.0","","","null","","","","","","","",""
"390.80000001192093","","image-keyboard-response","196","156864","0.0-196.0","","img/set1/S3.jpg","72","3","random","72","random,structured_normal,structured_load,structured_incentive","3,4,2,1,2,3","true","",""
"null","","html-keyboard-response","197","157215","0.0-197.0","","<img src=""img/set1/S3.jpg"" width=""540"" height = ""360"" style=""border:16px solid orange"">","null","","","","","","","",""
"null","","html-keyboard-response","198","157417","0.0-198.0","","","null","","","","","","","",""
"374.80000001192093","","image-keyboard-response","199","157793","0.0-199.0","","img/set1/S3.jpg","72","3","random","72","random,structured_normal,structured_load,structured_incentive","3,4,2,1,2,3","true","",""
"null","","html-keyboard-response","200","158144","0.0-200.0","","<img src=""img/set1/S3.jpg"" width=""540"" height = ""360"" style=""border:16px solid orange"">","null","","","","","","","",""
"null","","html-keyboard-response","201","158346","0.0-201.0","","","null","","","","","","","",""
"689.3000000119209","","image-keyboard-response","202","159036","0.0-202.0","","img/set1/S2.jpg","68","2","random","68","random,structured_normal,structured_load,structured_incentive","3,4,2,1,2,3","true","",""
"null","","html-keyboard-response","203","159387","0.0-203.0","","<img src=""img/set1/S2.jpg"" width=""540"" height = ""360"" style=""border:16px solid orange"">","null","","","","","","","",""
"null","","html-keyboard-response","204","159589","0.0-204.0","","","null","","","","","","","",""
"471.30000001192093","","image-keyboard-response","205","160060","0.0-205.0","","img/set1/S4.jpg","74","4","random","74","random,structured_normal,structured_load,structured_incentive","3,4,2,1,2,3","true","",""
"null","","html-keyboard-response","206","160413","0.0-206.0","","<img src=""img/set1/S4.jpg"" width=""540"" height = ""360"" style=""border:16px solid orange"">","null","","","","","","","",""
"null","","html-keyboard-response","207","160615","0.0-207.0","","","null","","","","","","","",""
"682.1000000238419","","image-keyboard-response","208","161298","0.0-208.0","","img/set1/S2.jpg","68","2","random","68","random,structured_normal,structured_load,structured_incentive","3,4,2,1,2,3","true","",""
"null","","html-keyboard-response","209","161650","0.0-209.0","","<img src=""img/set1/S2.jpg"" width=""540"" height = ""360"" style=""border:16px solid orange"">","null","","","","","","","",""
"null","","html-keyboard-response","210","161852","0.0-210.0","","","null","","","","","","","",""
"644.6000000238419","","image-keyboard-response","211","162498","0.0-211.0","","img/set1/S2.jpg","68","2","random","68","random,structured_normal,structured_load,structured_incentive","3,4,2,1,2,3","true","",""
"null","","html-keyboard-response","212","162849","0.0-212.0","","<img src=""img/set1/S2.jpg"" width=""540"" height = ""360"" style=""border:16px solid orange"">","null","","","","","","","",""
"null","","html-keyboard-response","213","163051","0.0-213.0","","","null","","","","","","","",""
"814.1999999880791","","image-keyboard-response","214","163866","0.0-214.0","","img/set1/S3.jpg","72","3","random","72","random,structured_normal,structured_load,structured_incentive","3,4,2,1,2,3","true","",""
"null","","html-keyboard-response","215","164218","0.0-215.0","","<img src=""img/set1/S3.jpg"" width=""540"" height = ""360"" style=""border:16px solid orange"">","null","","","","","","","",""
"null","","html-keyboard-response","216","164419","0.0-216.0","","","null","","","","","","","",""
"500.30000001192093","","image-keyboard-response","217","164920","0.0-217.0","","img/set1/S4.jpg","74","4","random","74","random,structured_normal,structured_load,structured_incentive","3,4,2,1,2,3","true","",""
"null","","html-keyboard-response","218","165272","0.0-218.0","","<img src=""img/set1/S4.jpg"" width=""540"" height = ""360"" style=""border:16px solid orange"">","null","","","","","","","",""
"null","","html-keyboard-response","219","165473","0.0-219.0","","","null","","","","","","","",""
"457.60000002384186","","image-keyboard-response","220","165932","0.0-220.0","","img/set1/S4.jpg","74","4","random","74","random,structured_normal,structured_load,structured_incentive","3,4,2,1,2,3","true","",""
"null","","html-keyboard-response","221","166283","0.0-221.0","","<img src=""img/set1/S4.jpg"" width=""540"" height = ""360"" style=""border:16px solid orange"">","null","","","","","","","",""
"null","","html-keyboard-response","222","166485","0.0-222.0","","","null","","","","","","","",""
"597","","image-keyboard-response","223","167083","0.0-223.0","","img/set1/S3.jpg","72","3","random","72","random,structured_normal,structured_load,structured_incentive","3,4,2,1,2,3","true","",""
"null","","html-keyboard-response","224","167436","0.0-224.0","","<img src=""img/set1/S3.jpg"" width=""540"" height = ""360"" style=""border:16px solid orange"">","null","","","","","","","",""
"null","","html-keyboard-response","225","167637","0.0-225.0","","","null","","","","","","","",""
"753.6000000238419","","image-keyboard-response","226","168392","0.0-226.0","","img/set1/S1.jpg","83","1","random","83","random,structured_normal,structured_load,structured_incentive","3,4,2,1,2,3","true","",""
"null","","html-keyboard-response","227","168743","0.0-227.0","","<img src=""img/set1/S1.jpg"" width=""540"" height = ""360"" style=""border:16px solid orange"">","null","","","","","","","",""
"null","","html-keyboard-response","228","168945","0.0-228.0","","","null","","","","","","","",""
"857.9000000357628","","image-keyboard-response","229","169803","0.0-229.0","","img/set1/S3.jpg","72","3","random","72","random,structured_normal,structured_load,structured_incentive","3,4,2,1,2,3","true","",""
"null","","html-keyboard-response","230","170156","0.0-230.0","","<img src=""img/set1/S3.jpg"" width=""540"" height = ""360"" style=""border:16px solid orange"">","null","","","","","","","",""
"null","","html-keyboard-response","231","170358","0.0-231.0","","","null","","","","","","","",""
"679.3000000119209","","image-keyboard-response","232","171037","0.0-232.0","","img/set1/S1.jpg","83","1","random","83","random,structured_normal,structured_load,structured_incentive","3,4,2,1,2,3","true","",""
"null","","html-keyboard-response","233","171389","0.0-233.0","","<img src=""img/set1/S1.jpg"" width=""540"" height = ""360"" style=""border:16px solid orange"">","null","","","","","","","",""
"null","","html-keyboard-response","234","171590","0.0-234.0","","","null","","","","","","","",""
"607.3999999761581","","image-keyboard-response","235","172198","0.0-235.0","","img/set1/S4.jpg","74","4","random","74","random,structured_normal,structured_load,structured_incentive","3,4,2,1,2,3","true","",""
"null","","html-keyboard-response","236","172550","0.0-236.0","","<img src=""img/set1/S4.jpg"" width=""540"" height = ""360"" style=""border:16px solid orange"">","null","","","","","","","",""
"null","","html-keyboard-response","237","172752","0.0-237.0","","","null","","","","","","","",""
"830.8000000119209","","image-keyboard-response","238","173583","0.0-238.0","","img/set1/S3.jpg","83","3","random","72","random,structured_normal,structured_load,structured_incentive","3,4,2,1,2,3","false","",""
"null","","html-keyboard-response","239","173935","0.0-239.0","","<img src=""img/set1/S3.jpg"" width=""540"" height = ""360"">","null","","","","","","","",""
"null","","html-keyboard-response","240","174137","0.0-240.0","","","null","","","","","","","",""
"1083.300000011921","","image-keyboard-response","241","175221","0.0-241.0","","img/set1/S2.jpg","68","2","random","68","random,structured_normal,structured_load,structured_incentive","3,4,2,1,2,3","true","",""
"null","","html-keyboard-response","242","175573","0.0-242.0","","<img src=""img/set1/S2.jpg"" width=""540"" height = ""360"" style=""border:16px solid orange"">","null","","","","","","","",""
"null","","html-keyboard-response","243","175776","0.0-243.0","","","null","","","","","","","",""
"685.6000000238419","","image-keyboard-response","244","176462","0.0-244.0","","img/set1/S1.jpg","83","1","random","83","random,structured_normal,structured_load,structured_incentive","3,4,2,1,2,3","true","",""
"null","","html-keyboard-response","245","176813","0.0-245.0","","<img src=""img/set1/S1.jpg"" width=""540"" height = ""360"" style=""border:16px solid orange"">","null","","","","","","","",""
"null","","html-keyboard-response","246","177015","0.0-246.0","","","null","","","","","","","",""
"548","","image-keyboard-response","247","177563","0.0-247.0","","img/set1/S1.jpg","83","1","random","83","random,structured_normal,structured_load,structured_incentive","3,4,2,1,2,3","true","",""
"null","","html-keyboard-response","248","177915","0.0-248.0","","<img src=""img/set1/S1.jpg"" width=""540"" height = ""360"" style=""border:16px solid orange"">","null","","","","","","","",""
"null","","html-keyboard-response","249","178123","0.0-249.0","","","null","","","","","","","",""
"703.8999999761581","","image-keyboard-response","250","178828","0.0-250.0","","img/set1/S4.jpg","74","4","random","74","random,structured_normal,structured_load,structured_incentive","3,4,2,1,2,3","true","",""
"null","","html-keyboard-response","251","179180","0.0-251.0","","<img src=""img/set1/S4.jpg"" width=""540"" height = ""360"" style=""border:16px solid orange"">","null","","","","","","","",""
"null","","html-keyboard-response","252","179381","0.0-252.0","","","null","","","","","","","",""
"852.3999999761581","","image-keyboard-response","253","180235","0.0-253.0","","img/set1/S3.jpg","72","3","random","72","random,structured_normal,structured_load,structured_incentive","3,4,2,1,2,3","true","",""
"null","","html-keyboard-response","254","180588","0.0-254.0","","<img src=""img/set1/S3.jpg"" width=""540"" height = ""360"" style=""border:16px solid orange"">","null","","","","","","","",""
"null","","html-keyboard-response","255","180789","0.0-255.0","","","null","","","","","","","",""
"581","","image-keyboard-response","256","181371","0.0-256.0","","img/set1/S2.jpg","68","2","random","68","random,structured_normal,structured_load,structured_incentive","3,4,2,1,2,3","true","",""
"null","","html-keyboard-response","257","181723","0.0-257.0","","<img src=""img/set1/S2.jpg"" width=""540"" height = ""360"" style=""border:16px solid orange"">","null","","","","","","","",""
"null","","html-keyboard-response","258","181923","0.0-258.0","","","null","","","","","","","",""
"608.3999999761581","","image-keyboard-response","259","182532","0.0-259.0","","img/set1/S4.jpg","74","4","random","74","random,structured_normal,structured_load,structured_incentive","3,4,2,1,2,3","true","",""
"null","","html-keyboard-response","260","182884","0.0-260.0","","<img src=""img/set1/S4.jpg"" width=""540"" height = ""360"" style=""border:16px solid orange"">","null","","","","","","","",""
"null","","html-keyboard-response","261","183085","0.0-261.0","","","null","","","","","","","",""
"837.8000000119209","","image-keyboard-response","262","183924","0.0-262.0","","img/set1/S4.jpg","74","4","random","74","random,structured_normal,structured_load,structured_incentive","3,4,2,1,2,3","true","",""
"null","","html-keyboard-response","263","184276","0.0-263.0","","<img src=""img/set1/S4.jpg"" width=""540"" height = ""360"" style=""border:16px solid orange"">","null","","","","","","","",""
"null","","html-keyboard-response","264","184478","0.0-264.0","","","null","","","","","","","",""
"945.6999999880791","","image-keyboard-response","265","185425","0.0-265.0","","img/set1/S3.jpg","68","3","random","72","random,structured_normal,structured_load,structured_incentive","3,4,2,1,2,3","false","",""
"null","","html-keyboard-response","266","185777","0.0-266.0","","<img src=""img/set1/S3.jpg"" width=""540"" height = ""360"">","null","","","","","","","",""
"null","","html-keyboard-response","267","185977","0.0-267.0","","","null","","","","","","","",""
"512.8000000119209","","image-keyboard-response","268","186491","0.0-268.0","","img/set1/S3.jpg","72","3","random","72","random,structured_normal,structured_load,structured_incentive","3,4,2,1,2,3","true","",""
"null","","html-keyboard-response","269","186842","0.0-269.0","","<img src=""img/set1/S3.jpg"" width=""540"" height = ""360"" style=""border:16px solid orange"">","null","","","","","","","",""
"null","","html-keyboard-response","270","187044","0.0-270.0","","","null","","","","","","","",""
"782.8999999761581","","image-keyboard-response","271","187827","0.0-271.0","","img/set1/S2.jpg","68","2","random","68","random,structured_normal,structured_load,structured_incentive","3,4,2,1,2,3","true","",""
"null","","html-keyboard-response","272","188180","0.0-272.0","","<img src=""img/set1/S2.jpg"" width=""540"" height = ""360"" style=""border:16px solid orange"">","null","","","","","","","",""
"null","","html-keyboard-response","273","188382","0.0-273.0","","","null","","","","","","","",""
"531.8999999761581","","image-keyboard-response","274","188915","0.0-274.0","","img/set1/S1.jpg","83","1","random","83","random,structured_normal,structured_load,structured_incentive","3,4,2,1,2,3","true","",""
"null","","html-keyboard-response","275","189267","0.0-275.0","","<img src=""img/set1/S1.jpg"" width=""540"" height = ""360"" style=""border:16px solid orange"">","null","","","","","","","",""
"null","","html-keyboard-response","276","189468","0.0-276.0","","","null","","","","","","","",""
"1089.5","","image-keyboard-response","277","190559","0.0-277.0","","img/set1/S1.jpg","83","1","random","83","random,structured_normal,structured_load,structured_incentive","3,4,2,1,2,3","true","",""
"null","","html-keyboard-response","278","190910","0.0-278.0","","<img src=""img/set1/S1.jpg"" width=""540"" height = ""360"" style=""border:16px solid orange"">","null","","","","","","","",""
"null","","html-keyboard-response","279","191111","0.0-279.0","","","null","","","","","","","",""
"478","","image-keyboard-response","280","191589","0.0-280.0","","img/set1/S1.jpg","83","1","random","83","random,structured_normal,structured_load,structured_incentive","3,4,2,1,2,3","true","",""
"null","","html-keyboard-response","281","191940","0.0-281.0","","<img src=""img/set1/S1.jpg"" width=""540"" height = ""360"" style=""border:16px solid orange"">","null","","","","","","","",""
"null","","html-keyboard-response","282","192141","0.0-282.0","","","null","","","","","","","",""
"642.1000000238419","","image-keyboard-response","283","192784","0.0-283.0","","img/set1/S2.jpg","68","2","random","68","random,structured_normal,structured_load,structured_incentive","3,4,2,1,2,3","true","",""
"null","","html-keyboard-response","284","193135","0.0-284.0","","<img src=""img/set1/S2.jpg"" width=""540"" height = ""360"" style=""border:16px solid orange"">","null","","","","","","","",""
"null","","html-keyboard-response","285","193346","0.0-285.0","","","null","","","","","","","",""
"988.8999999761581","","image-keyboard-response","286","194336","0.0-286.0","","img/set1/S3.jpg","72","3","random","72","random,structured_normal,structured_load,structured_incentive","3,4,2,1,2,3","true","",""
"null","","html-keyboard-response","287","194687","0.0-287.0","","<img src=""img/set1/S3.jpg"" width=""540"" height = ""360"" style=""border:16px solid orange"">","null","","","","","","","",""
"null","","html-keyboard-response","288","194889","0.0-288.0","","","null","","","","","","","",""
"562.3000000119209","","image-keyboard-response","289","195452","0.0-289.0","","img/set1/S4.jpg","74","4","random","74","random,structured_normal,structured_load,structured_incentive","3,4,2,1,2,3","true","",""
"null","","html-keyboard-response","290","195804","0.0-290.0","","<img src=""img/set1/S4.jpg"" width=""540"" height = ""360"" style=""border:16px solid orange"">","null","","","","","","","",""
"null","","html-keyboard-response","291","196005","0.0-291.0","","","null","","","","","","","",""
"765.0999999642372","","image-keyboard-response","292","196771","0.0-292.0","","img/set1/S3.jpg","72","3","random","72","random,structured_normal,structured_load,structured_incentive","3,4,2,1,2,3","true","",""
"null","","html-keyboard-response","293","197123","0.0-293.0","","<img src=""img/set1/S3.jpg"" width=""540"" height = ""360"" style=""border:16px solid orange"">","null","","","","","","","",""
"null","","html-keyboard-response","294","197331","0.0-294.0","","","null","","","","","","","",""
"961.1999999880791","","image-keyboard-response","295","198292","0.0-295.0","","img/set1/S1.jpg","83","1","random","83","random,structured_normal,structured_load,structured_incentive","3,4,2,1,2,3","true","",""
"null","","html-keyboard-response","296","198643","0.0-296.0","","<img src=""img/set1/S1.jpg"" width=""540"" height = ""360"" style=""border:16px solid orange"">","null","","","","","","","",""
"null","","html-keyboard-response","297","198844","0.0-297.0","","","null","","","","","","","",""
"707.3999999761581","","image-keyboard-response","298","199552","0.0-298.0","","img/set1/S1.jpg","83","1","random","83","random,structured_normal,structured_load,structured_incentive","3,4,2,1,2,3","true","",""
"null","","html-keyboard-response","299","199904","0.0-299.0","","<img src=""img/set1/S1.jpg"" width=""540"" height = ""360"" style=""border:16px solid orange"">","null","","","","","","","",""
"null","","html-keyboard-response","300","200106","0.0-300.0","","","null","","","","","","","",""
"1134.3999999761581","","image-keyboard-response","301","201241","0.0-301.0","","img/set1/S3.jpg","72","3","random","72","random,structured_normal,structured_load,structured_incentive","3,4,2,1,2,3","true","",""
"null","","html-keyboard-response","302","201594","0.0-302.0","","<img src=""img/set1/S3.jpg"" width=""540"" height = ""360"" style=""border:16px solid orange"">","null","","","","","","","",""
"null","","html-keyboard-response","303","201796","0.0-303.0","","","null","","","","","","","",""
"628.1000000238419","","image-keyboard-response","304","202425","0.0-304.0","","img/set1/S2.jpg","68","2","random","68","random,structured_normal,structured_load,structured_incentive","3,4,2,1,2,3","true","",""
"null","","html-keyboard-response","305","202777","0.0-305.0","","<img src=""img/set1/S2.jpg"" width=""540"" height = ""360"" style=""border:16px solid orange"">","null","","","","","","","",""
"null","","html-keyboard-response","306","202978","0.0-306.0","","","null","","","","","","","",""
"822.8999999761581","","image-keyboard-response","307","203802","0.0-307.0","","img/set1/S3.jpg","74","3","random","72","random,structured_normal,structured_load,structured_incentive","3,4,2,1,2,3","false","",""
"null","","html-keyboard-response","308","204153","0.0-308.0","","<img src=""img/set1/S3.jpg"" width=""540"" height = ""360"">","null","","","","","","","",""
"null","","html-keyboard-response","309","204355","0.0-309.0","","","null","","","","","","","",""
"433.80000001192093","","image-keyboard-response","310","204789","0.0-310.0","","img/set1/S3.jpg","72","3","random","72","random,structured_normal,structured_load,structured_incentive","3,4,2,1,2,3","true","",""
"null","","html-keyboard-response","311","205141","0.0-311.0","","<img src=""img/set1/S3.jpg"" width=""540"" height = ""360"" style=""border:16px solid orange"">","null","","","","","","","",""
"null","","html-keyboard-response","312","205343","0.0-312.0","","","null","","","","","","","",""
"548.6999999880791","","image-keyboard-response","313","205892","0.0-313.0","","img/set1/S4.jpg","74","4","random","74","random,structured_normal,structured_load,structured_incentive","3,4,2,1,2,3","true","",""
"null","","html-keyboard-response","314","206244","0.0-314.0","","<img src=""img/set1/S4.jpg"" width=""540"" height = ""360"" style=""border:16px solid orange"">","null","","","","","","","",""
"null","","html-keyboard-response","315","206446","0.0-315.0","","","null","","","","","","","",""
"608.3999999761581","","image-keyboard-response","316","207056","0.0-316.0","","img/set1/S3.jpg","72","3","random","72","random,structured_normal,structured_load,structured_incentive","3,4,2,1,2,3","true","",""
"null","","html-keyboard-response","317","207409","0.0-317.0","","<img src=""img/set1/S3.jpg"" width=""540"" height = ""360"" style=""border:16px solid orange"">","null","","","","","","","",""
"null","","html-keyboard-response","318","207610","0.0-318.0","","","null","","","","","","","",""
"703.8999999761581","","image-keyboard-response","319","208315","0.0-319.0","","img/set1/S4.jpg","74","4","random","74","random,structured_normal,structured_load,structured_incentive","3,4,2,1,2,3","true","",""
"null","","html-keyboard-response","320","208666","0.0-320.0","","<img src=""img/set1/S4.jpg"" width=""540"" height = ""360"" style=""border:16px solid orange"">","null","","","","","","","",""
"null","","html-keyboard-response","321","208867","0.0-321.0","","","null","","","","","","","",""
"653.8999999761581","","image-keyboard-response","322","209522","0.0-322.0","","img/set1/S1.jpg","83","1","random","83","random,structured_normal,structured_load,structured_incentive","3,4,2,1,2,3","true","",""
"null","","html-keyboard-response","323","209874","0.0-323.0","","<img src=""img/set1/S1.jpg"" width=""540"" height = ""360"" style=""border:16px solid orange"">","null","","","","","","","",""
"null","","html-keyboard-response","324","210076","0.0-324.0","","","null","","","","","","","",""
"641.1999999880791","","image-keyboard-response","325","210718","0.0-325.0","","img/set1/S2.jpg","68","2","random","68","random,structured_normal,structured_load,structured_incentive","3,4,2,1,2,3","true","",""
"null","","html-keyboard-response","326","211070","0.0-326.0","","<img src=""img/set1/S2.jpg"" width=""540"" height = ""360"" style=""border:16px solid orange"">","null","","","","","","","",""
"null","","html-keyboard-response","327","211272","0.0-327.0","","","null","","","","","","","",""
"557.8999999761581","","image-keyboard-response","328","211830","0.0-328.0","","img/set1/S2.jpg","68","2","random","68","random,structured_normal,structured_load,structured_incentive","3,4,2,1,2,3","true","",""
"null","","html-keyboard-response","329","212182","0.0-329.0","","<img src=""img/set1/S2.jpg"" width=""540"" height = ""360"" style=""border:16px solid orange"">","null","","","","","","","",""
"null","","html-keyboard-response","330","212383","0.0-330.0","","","null","","","","","","","",""
"624.6000000238419","","image-keyboard-response","331","213008","0.0-331.0","","img/set1/S4.jpg","74","4","random","74","random,structured_normal,structured_load,structured_incentive","3,4,2,1,2,3","true","",""
"null","","html-keyboard-response","332","213360","0.0-332.0","","<img src=""img/set1/S4.jpg"" width=""540"" height = ""360"" style=""border:16px solid orange"">","null","","","","","","","",""
"null","","html-keyboard-response","333","213562","0.0-333.0","","","null","","","","","","","",""
"511.80000001192093","","image-keyboard-response","334","214076","0.0-334.0","","img/set1/S4.jpg","74","4","random","74","random,structured_normal,structured_load,structured_incentive","3,4,2,1,2,3","true","",""
"null","","html-keyboard-response","335","214428","0.0-335.0","","<img src=""img/set1/S4.jpg"" width=""540"" height = ""360"" style=""border:16px solid orange"">","null","","","","","","","",""
"null","","html-keyboard-response","336","214630","0.0-336.0","","","null","","","","","","","",""
"742.6000000238419","","image-keyboard-response","337","215373","0.0-337.0","","img/set1/S1.jpg","83","1","random","83","random,structured_normal,structured_load,structured_incentive","3,4,2,1,2,3","true","",""
"null","","html-keyboard-response","338","215725","0.0-338.0","","<img src=""img/set1/S1.jpg"" width=""540"" height = ""360"" style=""border:16px solid orange"">","null","","","","","","","",""
"null","","html-keyboard-response","339","215927","0.0-339.0","","","null","","","","","","","",""
"1030.800000011921","","image-keyboard-response","340","216958","0.0-340.0","","img/set1/S2.jpg","68","2","random","68","random,structured_normal,structured_load,structured_incentive","3,4,2,1,2,3","true","",""
"null","","html-keyboard-response","341","217310","0.0-341.0","","<img src=""img/set1/S2.jpg"" width=""540"" height = ""360"" style=""border:16px solid orange"">","null","","","","","","","",""
"null","","html-keyboard-response","342","217512","0.0-342.0","","","null","","","","","","","",""
"724.3999999761581","","image-keyboard-response","343","218238","0.0-343.0","","img/set1/S3.jpg","72","3","random","72","random,structured_normal,structured_load,structured_incentive","3,4,2,1,2,3","true","",""
"null","","html-keyboard-response","344","218590","0.0-344.0","","<img src=""img/set1/S3.jpg"" width=""540"" height = ""360"" style=""border:16px solid orange"">","null","","","","","","","",""
"null","","html-keyboard-response","345","218791","0.0-345.0","","","null","","","","","","","",""
"714.5","","image-keyboard-response","346","219506","0.0-346.0","","img/set1/S1.jpg","83","1","random","83","random,structured_normal,structured_load,structured_incentive","3,4,2,1,2,3","true","",""
"null","","html-keyboard-response","347","219857","0.0-347.0","","<img src=""img/set1/S1.jpg"" width=""540"" height = ""360"" style=""border:16px solid orange"">","null","","","","","","","",""
"null","","html-keyboard-response","348","220059","0.0-348.0","","","null","","","","","","","",""
"1403.5","","image-keyboard-response","349","221463","0.0-349.0","","img/set1/S4.jpg","68","4","random","74","random,structured_normal,structured_load,structured_incentive","3,4,2,1,2,3","false","",""
"null","","html-keyboard-response","350","221815","0.0-350.0","","<img src=""img/set1/S4.jpg"" width=""540"" height = ""360"">","null","","","","","","","",""
"null","","html-keyboard-response","351","222016","0.0-351.0","","","null","","","","","","","",""
"1149.8999999761581","","image-keyboard-response","352","223167","0.0-352.0","","img/set1/S3.jpg","72","3","random","72","random,structured_normal,structured_load,structured_incentive","3,4,2,1,2,3","true","",""
"null","","html-keyboard-response","353","223518","0.0-353.0","","<img src=""img/set1/S3.jpg"" width=""540"" height = ""360"" style=""border:16px solid orange"">","null","","","","","","","",""
"null","","html-keyboard-response","354","223720","0.0-354.0","","","null","","","","","","","",""
"786.5","","image-keyboard-response","355","224507","0.0-355.0","","img/set1/S2.jpg","68","2","random","68","random,structured_normal,structured_load,structured_incentive","3,4,2,1,2,3","true","",""
"null","","html-keyboard-response","356","224859","0.0-356.0","","<img src=""img/set1/S2.jpg"" width=""540"" height = ""360"" style=""border:16px solid orange"">","null","","","","","","","",""
"null","","html-keyboard-response","357","225060","0.0-357.0","","","null","","","","","","","",""
"482.19999998807907","","image-keyboard-response","358","225543","0.0-358.0","","img/set1/S2.jpg","68","2","random","68","random,structured_normal,structured_load,structured_incentive","3,4,2,1,2,3","true","",""
"null","","html-keyboard-response","359","225896","0.0-359.0","","<img src=""img/set1/S2.jpg"" width=""540"" height = ""360"" style=""border:16px solid orange"">","null","","","","","","","",""
"null","","html-keyboard-response","360","226107","0.0-360.0","","","null","","","","","","","",""
"407.5","","image-keyboard-response","361","226516","0.0-361.0","","img/set1/S2.jpg","68","2","random","68","random,structured_normal,structured_load,structured_incentive","3,4,2,1,2,3","true","",""
"null","","html-keyboard-response","362","226867","0.0-362.0","","<img src=""img/set1/S2.jpg"" width=""540"" height = ""360"" style=""border:16px solid orange"">","null","","","","","","","",""
"null","","html-keyboard-response","363","227068","0.0-363.0","","","null","","","","","","","",""
"6122.199999988079","","html-keyboard-response","364","233191","0.0-364.0","","<p class=""center-content"">You have completed a block! </p><p class=""center-content"">Press any key on the keyboard to continue, </p><p class=""center-content"">or wait for the automatic progression to the next block after one minute.</p>","32","","","","","","","",""
"5313.899999976158","","instructions","365","238505","0.0-365.0","[{""page_index"":0,""viewing_time"":5313.699999988079}]","","","","","","","","","",""
"2776.400000035763","","instructions","366","241282","0.0-366.0","[{""page_index"":0,""viewing_time"":2776.2000000476837}]","","","","","","","","","",""
"786","","image-keyboard-response","367","242068","0.0-367.0","","img/set2/S3.jpg","83","3","structured_normal","72","random,structured_normal,structured_load,structured_incentive","3,4,2,1,2,3","false","",""
"null","","html-keyboard-response","368","242419","0.0-368.0","","<img src=""img/set2/S3.jpg"" width=""540"" height = ""360"">","null","","","","","","","",""
"null","","html-keyboard-response","369","242621","0.0-369.0","","","null","","","","","","","",""
"997.4000000357628","","image-keyboard-response","370","243620","0.0-370.0","","img/set2/S4.jpg","83","4","structured_normal","74","random,structured_normal,structured_load,structured_incentive","3,4,2,1,2,3","false","",""
"null","","html-keyboard-response","371","243973","0.0-371.0","","<img src=""img/set2/S4.jpg"" width=""540"" height = ""360"">","null","","","","","","","",""
"null","","html-keyboard-response","372","244175","0.0-372.0","","","null","","","","","","","",""
"607.1999999880791","","image-keyboard-response","373","244783","0.0-373.0","","img/set2/S1.jpg","83","1","structured_normal","83","random,structured_normal,structured_load,structured_incentive","3,4,2,1,2,3","true","",""
"null","","html-keyboard-response","374","245135","0.0-374.0","","<img src=""img/set2/S1.jpg"" width=""540"" height = ""360"" style=""border:16px solid orange"">","null","","","","","","","",""
"null","","html-keyboard-response","375","245335","0.0-375.0","","","null","","","","","","","",""
"561.1000000238419","","image-keyboard-response","376","245897","0.0-376.0","","img/set2/S1.jpg","83","1","structured_normal","83","random,structured_normal,structured_load,structured_incentive","3,4,2,1,2,3","true","",""
"null","","html-keyboard-response","377","246248","0.0-377.0","","<img src=""img/set2/S1.jpg"" width=""540"" height = ""360"" style=""border:16px solid orange"">","null","","","","","","","",""
"null","","html-keyboard-response","378","246449","0.0-378.0","","","null","","","","","","","",""
"795.1999999880791","","image-keyboard-response","379","247245","0.0-379.0","","img/set2/S2.jpg","68","2","structured_normal","68","random,structured_normal,structured_load,structured_incentive","3,4,2,1,2,3","true","",""
"null","","html-keyboard-response","380","247597","0.0-380.0","","<img src=""img/set2/S2.jpg"" width=""540"" height = ""360"" style=""border:16px solid orange"">","null","","","","","","","",""
"null","","html-keyboard-response","381","247799","0.0-381.0","","","null","","","","","","","",""
"908.0999999642372","","image-keyboard-response","382","248707","0.0-382.0","","img/set2/S3.jpg","72","3","structured_normal","72","random,structured_normal,structured_load,structured_incentive","3,4,2,1,2,3","true","",""
"null","","html-keyboard-response","383","249060","0.0-383.0","","<img src=""img/set2/S3.jpg"" width=""540"" height = ""360"" style=""border:16px solid orange"">","null","","","","","","","",""
"null","","html-keyboard-response","384","249262","0.0-384.0","","","null","","","","","","","",""
"910","","image-keyboard-response","385","250172","0.0-385.0","","img/set2/S4.jpg","74","4","structured_normal","74","random,structured_normal,structured_load,structured_incentive","3,4,2,1,2,3","true","",""
"null","","html-keyboard-response","386","250524","0.0-386.0","","<img src=""img/set2/S4.jpg"" width=""540"" height = ""360"" style=""border:16px solid orange"">","null","","","","","","","",""
"null","","html-keyboard-response","387","250725","0.0-387.0","","","null","","","","","","","",""
"1366.0999999642372","","image-keyboard-response","388","252092","0.0-388.0","","img/set2/S2.jpg","68","2","structured_normal","68","random,structured_normal,structured_load,structured_incentive","3,4,2,1,2,3","true","",""
"null","","html-keyboard-response","389","252445","0.0-389.0","","<img src=""img/set2/S2.jpg"" width=""540"" height = ""360"" style=""border:16px solid orange"">","null","","","","","","","",""
"null","","html-keyboard-response","390","252649","0.0-390.0","","","null","","","","","","","",""
"956","","image-keyboard-response","391","253606","0.0-391.0","","img/set2/S3.jpg","72","3","structured_normal","72","random,structured_normal,structured_load,structured_incentive","3,4,2,1,2,3","true","",""
"null","","html-keyboard-response","392","253958","0.0-392.0","","<img src=""img/set2/S3.jpg"" width=""540"" height = ""360"" style=""border:16px solid orange"">","null","","","","","","","",""
"null","","html-keyboard-response","393","254159","0.0-393.0","","","null","","","","","","","",""
"1427.199999988079","","image-keyboard-response","394","255587","0.0-394.0","","img/set2/S4.jpg","83","4","structured_normal","74","random,structured_normal,structured_load,structured_incentive","3,4,2,1,2,3","false","",""
"null","","html-keyboard-response","395","255940","0.0-395.0","","<img src=""img/set2/S4.jpg"" width=""540"" height = ""360"">","null","","","","","","","",""
"null","","html-keyboard-response","396","256141","0.0-396.0","","","null","","","","","","","",""
"1412.300000011921","","image-keyboard-response","397","257553","0.0-397.0","","img/set2/S3.jpg","72","3","structured_normal","72","random,structured_normal,structured_load,structured_incentive","3,4,2,1,2,3","true","",""
"null","","html-keyboard-response","398","257905","0.0-398.0","","<img src=""img/set2/S3.jpg"" width=""540"" height = ""360"" style=""border:16px solid orange"">","null","","","","","","","",""
"null","","html-keyboard-response","399","258121","0.0-399.0","","","null","","","","","","","",""
"844","","image-keyboard-response","400","258966","0.0-400.0","","img/set2/S4.jpg","74","4","structured_normal","74","random,structured_normal,structured_load,structured_incentive","3,4,2,1,2,3","true","",""
"null","","html-keyboard-response","401","259316","0.0-401.0","","<img src=""img/set2/S4.jpg"" width=""540"" height = ""360"" style=""border:16px solid orange"">","null","","","","","","","",""
"null","","html-keyboard-response","402","259518","0.0-402.0","","","null","","","","","","","",""
"895.1000000238419","","image-keyboard-response","403","260414","0.0-403.0","","img/set2/S1.jpg","83","1","structured_normal","83","random,structured_normal,structured_load,structured_incentive","3,4,2,1,2,3","true","",""
"null","","html-keyboard-response","404","260765","0.0-404.0","","<img src=""img/set2/S1.jpg"" width=""540"" height = ""360"" style=""border:16px solid orange"">","null","","","","","","","",""
"null","","html-keyboard-response","405","260966","0.0-405.0","","","null","","","","","","","",""
"708.4000000357628","","image-keyboard-response","406","261675","0.0-406.0","","img/set2/S1.jpg","83","1","structured_normal","83","random,structured_normal,structured_load,structured_incentive","3,4,2,1,2,3","true","",""
"null","","html-keyboard-response","407","262027","0.0-407.0","","<img src=""img/set2/S1.jpg"" width=""540"" height = ""360"" style=""border:16px solid orange"">","null","","","","","","","",""
"null","","html-keyboard-response","408","262228","0.0-408.0","","","null","","","","","","","",""
"1767.2000000476837","","image-keyboard-response","409","263996","0.0-409.0","","img/set2/S3.jpg","72","3","structured_normal","72","random,structured_normal,structured_load,structured_incentive","3,4,2,1,2,3","true","",""
"null","","html-keyboard-response","410","264348","0.0-410.0","","<img src=""img/set2/S3.jpg"" width=""540"" height = ""360"" style=""border:16px solid orange"">","null","","","","","","","",""
"null","","html-keyboard-response","411","264550","0.0-411.0","","","null","","","","","","","",""
"1058.699999988079","","image-keyboard-response","412","265610","0.0-412.0","","img/set2/S4.jpg","74","4","structured_normal","74","random,structured_normal,structured_load,structured_incentive","3,4,2,1,2,3","true","",""
"null","","html-keyboard-response","413","265962","0.0-413.0","","<img src=""img/set2/S4.jpg"" width=""540"" height = ""360"" style=""border:16px solid orange"">","null","","","","","","","",""
"null","","html-keyboard-response","414","266164","0.0-414.0","","","null","","","","","","","",""
"1083.199999988079","","image-keyboard-response","415","267248","0.0-415.0","","img/set2/S2.jpg","68","2","structured_normal","68","random,structured_normal,structured_load,structured_incentive","3,4,2,1,2,3","true","",""
"null","","html-keyboard-response","416","267599","0.0-416.0","","<img src=""img/set2/S2.jpg"" width=""540"" height = ""360"" style=""border:16px solid orange"">","null","","","","","","","",""
"null","","html-keyboard-response","417","267800","0.0-417.0","","","null","","","","","","","",""
"496.5","","image-keyboard-response","418","268298","0.0-418.0","","img/set2/S2.jpg","68","2","structured_normal","68","random,structured_normal,structured_load,structured_incentive","3,4,2,1,2,3","true","",""
"null","","html-keyboard-response","419","268650","0.0-419.0","","<img src=""img/set2/S2.jpg"" width=""540"" height = ""360"" style=""border:16px solid orange"">","null","","","","","","","",""
"null","","html-keyboard-response","420","268851","0.0-420.0","","","null","","","","","","","",""
"431.69999998807907","","image-keyboard-response","421","269284","0.0-421.0","","img/set2/S2.jpg","68","2","structured_normal","68","random,structured_normal,structured_load,structured_incentive","3,4,2,1,2,3","true","",""
"null","","html-keyboard-response","422","269636","0.0-422.0","","<img src=""img/set2/S2.jpg"" width=""540"" height = ""360"" style=""border:16px solid orange"">","null","","","","","","","",""
"null","","html-keyboard-response","423","269837","0.0-423.0","","","null","","","","","","","",""
"678.5","","image-keyboard-response","424","270516","0.0-424.0","","img/set2/S1.jpg","83","1","structured_normal","83","random,structured_normal,structured_load,structured_incentive","3,4,2,1,2,3","true","",""
"null","","html-keyboard-response","425","270869","0.0-425.0","","<img src=""img/set2/S1.jpg"" width=""540"" height = ""360"" style=""border:16px solid orange"">","null","","","","","","","",""
"null","","html-keyboard-response","426","271073","0.0-426.0","","","null","","","","","","","",""
"612.8999999761581","","image-keyboard-response","427","271687","0.0-427.0","","img/set2/S1.jpg","83","1","structured_normal","83","random,structured_normal,structured_load,structured_incentive","3,4,2,1,2,3","true","",""
"null","","html-keyboard-response","428","272038","0.0-428.0","","<img src=""img/set2/S1.jpg"" width=""540"" height = ""360"" style=""border:16px solid orange"">","null","","","","","","","",""
"null","","html-keyboard-response","429","272240","0.0-429.0","","","null","","","","","","","",""
"741.1000000238419","","image-keyboard-response","430","272981","0.0-430.0","","img/set2/S2.jpg","68","2","structured_normal","68","random,structured_normal,structured_load,structured_incentive","3,4,2,1,2,3","true","",""
"null","","html-keyboard-response","431","273333","0.0-431.0","","<img src=""img/set2/S2.jpg"" width=""540"" height = ""360"" style=""border:16px solid orange"">","null","","","","","","","",""
"null","","html-keyboard-response","432","273535","0.0-432.0","","","null","","","","","","","",""
"587.6000000238419","","image-keyboard-response","433","274123","0.0-433.0","","img/set2/S2.jpg","68","2","structured_normal","68","random,structured_normal,structured_load,structured_incentive","3,4,2,1,2,3","true","",""
"null","","html-keyboard-response","434","274474","0.0-434.0","","<img src=""img/set2/S2.jpg"" width=""540"" height = ""360"" style=""border:16px solid orange"">","null","","","","","","","",""
"null","","html-keyboard-response","435","274675","0.0-435.0","","","null","","","","","","","",""
"400.80000001192093","","image-keyboard-response","436","275077","0.0-436.0","","img/set2/S2.jpg","68","2","structured_normal","68","random,structured_normal,structured_load,structured_incentive","3,4,2,1,2,3","true","",""
"null","","html-keyboard-response","437","275429","0.0-437.0","","<img src=""img/set2/S2.jpg"" width=""540"" height = ""360"" style=""border:16px solid orange"">","null","","","","","","","",""
"null","","html-keyboard-response","438","275630","0.0-438.0","","","null","","","","","","","",""
"1056.7000000476837","","image-keyboard-response","439","276687","0.0-439.0","","img/set2/S3.jpg","72","3","structured_normal","72","random,structured_normal,structured_load,structured_incentive","3,4,2,1,2,3","true","",""
"null","","html-keyboard-response","440","277039","0.0-440.0","","<img src=""img/set2/S3.jpg"" width=""540"" height = ""360"" style=""border:16px solid orange"">","null","","","","","","","",""
"null","","html-keyboard-response","441","277241","0.0-441.0","","","null","","","","","","","",""
"650.5999999642372","","image-keyboard-response","442","277892","0.0-442.0","","img/set2/S4.jpg","74","4","structured_normal","74","random,structured_normal,structured_load,structured_incentive","3,4,2,1,2,3","true","",""
"null","","html-keyboard-response","443","278244","0.0-443.0","","<img src=""img/set2/S4.jpg"" width=""540"" height = ""360"" style=""border:16px solid orange"">","null","","","","","","","",""
"null","","html-keyboard-response","444","278446","0.0-444.0","","","null","","","","","","","",""
"659","","image-keyboard-response","445","279106","0.0-445.0","","img/set2/S3.jpg","72","3","structured_normal","72","random,structured_normal,structured_load,structured_incentive","3,4,2,1,2,3","true","",""
"null","","html-keyboard-response","446","279458","0.0-446.0","","<img src=""img/set2/S3.jpg"" width=""540"" height = ""360"" style=""border:16px solid orange"">","null","","","","","","","",""
"null","","html-keyboard-response","447","279660","0.0-447.0","","","null","","","","","","","",""
"607.8000000119209","","image-keyboard-response","448","280269","0.0-448.0","","img/set2/S4.jpg","74","4","structured_normal","74","random,structured_normal,structured_load,structured_incentive","3,4,2,1,2,3","true","",""
"null","","html-keyboard-response","449","280622","0.0-449.0","","<img src=""img/set2/S4.jpg"" width=""540"" height = ""360"" style=""border:16px solid orange"">","null","","","","","","","",""
"null","","html-keyboard-response","450","280824","0.0-450.0","","","null","","","","","","","",""
"635","","image-keyboard-response","451","281460","0.0-451.0","","img/set2/S1.jpg","83","1","structured_normal","83","random,structured_normal,structured_load,structured_incentive","3,4,2,1,2,3","true","",""
"null","","html-keyboard-response","452","281812","0.0-452.0","","<img src=""img/set2/S1.jpg"" width=""540"" height = ""360"" style=""border:16px solid orange"">","null","","","","","","","",""
"null","","html-keyboard-response","453","282013","0.0-453.0","","","null","","","","","","","",""
"439","","image-keyboard-response","454","282452","0.0-454.0","","img/set2/S2.jpg","68","2","structured_normal","68","random,structured_normal,structured_load,structured_incentive","3,4,2,1,2,3","true","",""
"null","","html-keyboard-response","455","282804","0.0-455.0","","<img src=""img/set2/S2.jpg"" width=""540"" height = ""360"" style=""border:16px solid orange"">","null","","","","","","","",""
"null","","html-keyboard-response","456","283007","0.0-456.0","","","null","","","","","","","",""
"1100","","image-keyboard-response","457","284108","0.0-457.0","","img/set2/S3.jpg","72","3","structured_normal","72","random,structured_normal,structured_load,structured_incentive","3,4,2,1,2,3","true","",""
"null","","html-keyboard-response","458","284460","0.0-458.0","","<img src=""img/set2/S3.jpg"" width=""540"" height = ""360"" style=""border:16px solid orange"">","null","","","","","","","",""
"null","","html-keyboard-response","459","284661","0.0-459.0","","","null","","","","","","","",""
"742.9000000357628","","image-keyboard-response","460","285404","0.0-460.0","","img/set2/S4.jpg","74","4","structured_normal","74","random,structured_normal,structured_load,structured_incentive","3,4,2,1,2,3","true","",""
"null","","html-keyboard-response","461","285756","0.0-461.0","","<img src=""img/set2/S4.jpg"" width=""540"" height = ""360"" style=""border:16px solid orange"">","null","","","","","","","",""
"null","","html-keyboard-response","462","285958","0.0-462.0","","","null","","","","","","","",""
"980.4000000357628","","image-keyboard-response","463","286940","0.0-463.0","","img/set2/S2.jpg","68","2","structured_normal","68","random,structured_normal,structured_load,structured_incentive","3,4,2,1,2,3","true","",""
"null","","html-keyboard-response","464","287291","0.0-464.0","","<img src=""img/set2/S2.jpg"" width=""540"" height = ""360"" style=""border:16px solid orange"">","null","","","","","","","",""
"null","","html-keyboard-response","465","287493","0.0-465.0","","","null","","","","","","","",""
"1093.699999988079","","image-keyboard-response","466","288587","0.0-466.0","","img/set2/S3.jpg","72","3","structured_normal","72","random,structured_normal,structured_load,structured_incentive","3,4,2,1,2,3","true","",""
"null","","html-keyboard-response","467","288938","0.0-467.0","","<img src=""img/set2/S3.jpg"" width=""540"" height = ""360"" style=""border:16px solid orange"">","null","","","","","","","",""
"null","","html-keyboard-response","468","289140","0.0-468.0","","","null","","","","","","","",""
"857.8999999761581","","image-keyboard-response","469","289999","0.0-469.0","","img/set2/S4.jpg","74","4","structured_normal","74","random,structured_normal,structured_load,structured_incentive","3,4,2,1,2,3","true","",""
"null","","html-keyboard-response","470","290351","0.0-470.0","","<img src=""img/set2/S4.jpg"" width=""540"" height = ""360"" style=""border:16px solid orange"">","null","","","","","","","",""
"null","","html-keyboard-response","471","290552","0.0-471.0","","","null","","","","","","","",""
"576.1999999880791","","image-keyboard-response","472","291129","0.0-472.0","","img/set2/S1.jpg","83","1","structured_normal","83","random,structured_normal,structured_load,structured_incentive","3,4,2,1,2,3","true","",""
"null","","html-keyboard-response","473","291481","0.0-473.0","","<img src=""img/set2/S1.jpg"" width=""540"" height = ""360"" style=""border:16px solid orange"">","null","","","","","","","",""
"null","","html-keyboard-response","474","291683","0.0-474.0","","","null","","","","","","","",""
"751.1000000238419","","image-keyboard-response","475","292434","0.0-475.0","","img/set2/S3.jpg","72","3","structured_normal","72","random,structured_normal,structured_load,structured_incentive","3,4,2,1,2,3","true","",""
"null","","html-keyboard-response","476","292786","0.0-476.0","","<img src=""img/set2/S3.jpg"" width=""540"" height = ""360"" style=""border:16px solid orange"">","null","","","","","","","",""
"null","","html-keyboard-response","477","292987","0.0-477.0","","","null","","","","","","","",""
"637.6999999880791","","image-keyboard-response","478","293625","0.0-478.0","","img/set2/S4.jpg","74","4","structured_normal","74","random,structured_normal,structured_load,structured_incentive","3,4,2,1,2,3","true","",""
"null","","html-keyboard-response","479","293977","0.0-479.0","","<img src=""img/set2/S4.jpg"" width=""540"" height = ""360"" style=""border:16px solid orange"">","null","","","","","","","",""
"null","","html-keyboard-response","480","294179","0.0-480.0","","","null","","","","","","","",""
"531.1999999880791","","image-keyboard-response","481","294711","0.0-481.0","","img/set2/S1.jpg","83","1","structured_normal","83","random,structured_normal,structured_load,structured_incentive","3,4,2,1,2,3","true","",""
"null","","html-keyboard-response","482","295062","0.0-482.0","","<img src=""img/set2/S1.jpg"" width=""540"" height = ""360"" style=""border:16px solid orange"">","null","","","","","","","",""
"null","","html-keyboard-response","483","295263","0.0-483.0","","","null","","","","","","","",""
"1006.8999999761581","","image-keyboard-response","484","296271","0.0-484.0","","img/set2/S3.jpg","72","3","structured_normal","72","random,structured_normal,structured_load,structured_incentive","3,4,2,1,2,3","true","",""
"null","","html-keyboard-response","485","296622","0.0-485.0","","<img src=""img/set2/S3.jpg"" width=""540"" height = ""360"" style=""border:16px solid orange"">","null","","","","","","","",""
"null","","html-keyboard-response","486","296823","0.0-486.0","","","null","","","","","","","",""
"467.60000002384186","","image-keyboard-response","487","297291","0.0-487.0","","img/set2/S4.jpg","74","4","structured_normal","74","random,structured_normal,structured_load,structured_incentive","3,4,2,1,2,3","true","",""
"null","","html-keyboard-response","488","297644","0.0-488.0","","<img src=""img/set2/S4.jpg"" width=""540"" height = ""360"" style=""border:16px solid orange"">","null","","","","","","","",""
"null","","html-keyboard-response","489","297847","0.0-489.0","","","null","","","","","","","",""
"1277.300000011921","","image-keyboard-response","490","299125","0.0-490.0","","img/set2/S3.jpg","72","3","structured_normal","72","random,structured_normal,structured_load,structured_incentive","3,4,2,1,2,3","true","",""
"null","","html-keyboard-response","491","299477","0.0-491.0","","<img src=""img/set2/S3.jpg"" width=""540"" height = ""360"" style=""border:16px solid orange"">","null","","","","","","","",""
"null","","html-keyboard-response","492","299679","0.0-492.0","","","null","","","","","","","",""
"625.3999999761581","","image-keyboard-response","493","300305","0.0-493.0","","img/set2/S4.jpg","74","4","structured_normal","74","random,structured_normal,structured_load,structured_incentive","3,4,2,1,2,3","true","",""
"null","","html-keyboard-response","494","300657","0.0-494.0","","<img src=""img/set2/S4.jpg"" width=""540"" height = ""360"" style=""border:16px solid orange"">","null","","","","","","","",""
"null","","html-keyboard-response","495","300859","0.0-495.0","","","null","","","","","","","",""
"577.0999999642372","","image-keyboard-response","496","301437","0.0-496.0","","img/set2/S1.jpg","83","1","structured_normal","83","random,structured_normal,structured_load,structured_incentive","3,4,2,1,2,3","true","",""
"null","","html-keyboard-response","497","301789","0.0-497.0","","<img src=""img/set2/S1.jpg"" width=""540"" height = ""360"" style=""border:16px solid orange"">","null","","","","","","","",""
"null","","html-keyboard-response","498","301990","0.0-498.0","","","null","","","","","","","",""
"588.1999999880791","","image-keyboard-response","499","302579","0.0-499.0","","img/set2/S2.jpg","68","2","structured_normal","68","random,structured_normal,structured_load,structured_incentive","3,4,2,1,2,3","true","",""
"null","","html-keyboard-response","500","302930","0.0-500.0","","<img src=""img/set2/S2.jpg"" width=""540"" height = ""360"" style=""border:16px solid orange"">","null","","","","","","","",""
"null","","html-keyboard-response","501","303133","0.0-501.0","","","null","","","","","","","",""
"492.5","","image-keyboard-response","502","303626","0.0-502.0","","img/set2/S2.jpg","68","2","structured_normal","68","random,structured_normal,structured_load,structured_incentive","3,4,2,1,2,3","true","",""
"null","","html-keyboard-response","503","303978","0.0-503.0","","<img src=""img/set2/S2.jpg"" width=""540"" height = ""360"" style=""border:16px solid orange"">","null","","","","","","","",""
"null","","html-keyboard-response","504","304179","0.0-504.0","","","null","","","","","","","",""
"918.7000000476837","","image-keyboard-response","505","305098","0.0-505.0","","img/set2/S3.jpg","72","3","structured_normal","72","random,structured_normal,structured_load,structured_incentive","3,4,2,1,2,3","true","",""
"null","","html-keyboard-response","506","305449","0.0-506.0","","<img src=""img/set2/S3.jpg"" width=""540"" height = ""360"" style=""border:16px solid orange"">","null","","","","","","","",""
"null","","html-keyboard-response","507","305652","0.0-507.0","","","null","","","","","","","",""
"563.1000000238419","","image-keyboard-response","508","306216","0.0-508.0","","img/set2/S4.jpg","74","4","structured_normal","74","random,structured_normal,structured_load,structured_incentive","3,4,2,1,2,3","true","",""
"null","","html-keyboard-response","509","306569","0.0-509.0","","<img src=""img/set2/S4.jpg"" width=""540"" height = ""360"" style=""border:16px solid orange"">","null","","","","","","","",""
"null","","html-keyboard-response","510","306770","0.0-510.0","","","null","","","","","","","",""
"825.7999999523163","","image-keyboard-response","511","307597","0.0-511.0","","img/set2/S3.jpg","72","3","structured_normal","72","random,structured_normal,structured_load,structured_incentive","3,4,2,1,2,3","true","",""
"null","","html-keyboard-response","512","307948","0.0-512.0","","<img src=""img/set2/S3.jpg"" width=""540"" height = ""360"" style=""border:16px solid orange"">","null","","","","","","","",""
"null","","html-keyboard-response","513","308149","0.0-513.0","","","null","","","","","","","",""
"515.1000000238419","","image-keyboard-response","514","308664","0.0-514.0","","img/set2/S4.jpg","74","4","structured_normal","74","random,structured_normal,structured_load,structured_incentive","3,4,2,1,2,3","true","",""
"null","","html-keyboard-response","515","309016","0.0-515.0","","<img src=""img/set2/S4.jpg"" width=""540"" height = ""360"" style=""border:16px solid orange"">","null","","","","","","","",""
"null","","html-keyboard-response","516","309218","0.0-516.0","","","null","","","","","","","",""
"557.1999999880791","","image-keyboard-response","517","309776","0.0-517.0","","img/set2/S1.jpg","83","1","structured_normal","83","random,structured_normal,structured_load,structured_incentive","3,4,2,1,2,3","true","",""
"null","","html-keyboard-response","518","310127","0.0-518.0","","<img src=""img/set2/S1.jpg"" width=""540"" height = ""360"" style=""border:16px solid orange"">","null","","","","","","","",""
"null","","html-keyboard-response","519","310328","0.0-519.0","","","null","","","","","","","",""
"1057.3999999761581","","image-keyboard-response","520","311386","0.0-520.0","","img/set2/S2.jpg","68","2","structured_normal","68","random,structured_normal,structured_load,structured_incentive","3,4,2,1,2,3","true","",""
"null","","html-keyboard-response","521","311738","0.0-521.0","","<img src=""img/set2/S2.jpg"" width=""540"" height = ""360"" style=""border:16px solid orange"">","null","","","","","","","",""
"null","","html-keyboard-response","522","311939","0.0-522.0","","","null","","","","","","","",""
"403.69999998807907","","image-keyboard-response","523","312343","0.0-523.0","","img/set2/S3.jpg","72","3","structured_normal","72","random,structured_normal,structured_load,structured_incentive","3,4,2,1,2,3","true","",""
"null","","html-keyboard-response","524","312696","0.0-524.0","","<img src=""img/set2/S3.jpg"" width=""540"" height = ""360"" style=""border:16px solid orange"">","null","","","","","","","",""
"null","","html-keyboard-response","525","312897","0.0-525.0","","","null","","","","","","","",""
"811.5","","image-keyboard-response","526","313710","0.0-526.0","","img/set2/S4.jpg","74","4","structured_normal","74","random,structured_normal,structured_load,structured_incentive","3,4,2,1,2,3","true","",""
"null","","html-keyboard-response","527","314061","0.0-527.0","","<img src=""img/set2/S4.jpg"" width=""540"" height = ""360"" style=""border:16px solid orange"">","null","","","","","","","",""
"null","","html-keyboard-response","528","314263","0.0-528.0","","","null","","","","","","","",""
"641.3000000119209","","image-keyboard-response","529","314905","0.0-529.0","","img/set2/S2.jpg","68","2","structured_normal","68","random,structured_normal,structured_load,structured_incentive","3,4,2,1,2,3","true","",""
"null","","html-keyboard-response","530","315257","0.0-530.0","","<img src=""img/set2/S2.jpg"" width=""540"" height = ""360"" style=""border:16px solid orange"">","null","","","","","","","",""
"null","","html-keyboard-response","531","315458","0.0-531.0","","","null","","","","","","","",""
"790.1000000238419","","image-keyboard-response","532","316250","0.0-532.0","","img/set2/S3.jpg","72","3","structured_normal","72","random,structured_normal,structured_load,structured_incentive","3,4,2,1,2,3","true","",""
"null","","html-keyboard-response","533","316602","0.0-533.0","","<img src=""img/set2/S3.jpg"" width=""540"" height = ""360"" style=""border:16px solid orange"">","null","","","","","","","",""
"null","","html-keyboard-response","534","316803","0.0-534.0","","","null","","","","","","","",""
"983.8999999761581","","image-keyboard-response","535","317788","0.0-535.0","","img/set2/S4.jpg","83","4","structured_normal","74","random,structured_normal,structured_load,structured_incentive","3,4,2,1,2,3","false","",""
"null","","html-keyboard-response","536","318141","0.0-536.0","","<img src=""img/set2/S4.jpg"" width=""540"" height = ""360"">","null","","","","","","","",""
"null","","html-keyboard-response","537","318342","0.0-537.0","","","null","","","","","","","",""
"1194.800000011921","","image-keyboard-response","538","319538","0.0-538.0","","img/set2/S2.jpg","68","2","structured_normal","68","random,structured_normal,structured_load,structured_incentive","3,4,2,1,2,3","true","",""
"null","","html-keyboard-response","539","319890","0.0-539.0","","<img src=""img/set2/S2.jpg"" width=""540"" height = ""360"" style=""border:16px solid orange"">","null","","","","","","","",""
"null","","html-keyboard-response","540","320091","0.0-540.0","","","null","","","","","","","",""
"558.4000000357628","","image-keyboard-response","541","320651","0.0-541.0","","img/set2/S3.jpg","72","3","structured_normal","72","random,structured_normal,structured_load,structured_incentive","3,4,2,1,2,3","true","",""
"null","","html-keyboard-response","542","321004","0.0-542.0","","<img src=""img/set2/S3.jpg"" width=""540"" height = ""360"" style=""border:16px solid orange"">","null","","","","","","","",""
"null","","html-keyboard-response","543","321205","0.0-543.0","","","null","","","","","","","",""
"635","","image-keyboard-response","544","321841","0.0-544.0","","img/set2/S4.jpg","74","4","structured_normal","74","random,structured_normal,structured_load,structured_incentive","3,4,2,1,2,3","true","",""
"null","","html-keyboard-response","545","322193","0.0-545.0","","<img src=""img/set2/S4.jpg"" width=""540"" height = ""360"" style=""border:16px solid orange"">","null","","","","","","","",""
"null","","html-keyboard-response","546","322394","0.0-546.0","","","null","","","","","","","",""
"650.3999999761581","","image-keyboard-response","547","323045","0.0-547.0","","img/set2/S2.jpg","68","2","structured_normal","68","random,structured_normal,structured_load,structured_incentive","3,4,2,1,2,3","true","",""
"null","","html-keyboard-response","548","323397","0.0-548.0","","<img src=""img/set2/S2.jpg"" width=""540"" height = ""360"" style=""border:16px solid orange"">","null","","","","","","","",""
"null","","html-keyboard-response","549","323599","0.0-549.0","","","null","","","","","","","",""
"609.5","","image-keyboard-response","550","324211","0.0-550.0","","img/set2/S1.jpg","83","1","structured_normal","83","random,structured_normal,structured_load,structured_incentive","3,4,2,1,2,3","true","",""
"null","","html-keyboard-response","551","324564","0.0-551.0","","<img src=""img/set2/S1.jpg"" width=""540"" height = ""360"" style=""border:16px solid orange"">","null","","","","","","","",""
"null","","html-keyboard-response","552","324766","0.0-552.0","","","null","","","","","","","",""
"442.9000000357628","","image-keyboard-response","553","325209","0.0-553.0","","img/set2/S3.jpg","72","3","structured_normal","72","random,structured_normal,structured_load,structured_incentive","3,4,2,1,2,3","true","",""
"null","","html-keyboard-response","554","325562","0.0-554.0","","<img src=""img/set2/S3.jpg"" width=""540"" height = ""360"" style=""border:16px solid orange"">","null","","","","","","","",""
"null","","html-keyboard-response","555","325763","0.0-555.0","","","null","","","","","","","",""
"592.6000000238419","","image-keyboard-response","556","326357","0.0-556.0","","img/set2/S4.jpg","74","4","structured_normal","74","random,structured_normal,structured_load,structured_incentive","3,4,2,1,2,3","true","",""
"null","","html-keyboard-response","557","326709","0.0-557.0","","<img src=""img/set2/S4.jpg"" width=""540"" height = ""360"" style=""border:16px solid orange"">","null","","","","","","","",""
"null","","html-keyboard-response","558","326911","0.0-558.0","","","null","","","","","","","",""
"669.3000000119209","","image-keyboard-response","559","327581","0.0-559.0","","img/set2/S1.jpg","83","1","structured_normal","83","random,structured_normal,structured_load,structured_incentive","3,4,2,1,2,3","true","",""
"null","","html-keyboard-response","560","327934","0.0-560.0","","<img src=""img/set2/S1.jpg"" width=""540"" height = ""360"" style=""border:16px solid orange"">","null","","","","","","","",""
"null","","html-keyboard-response","561","328135","0.0-561.0","","","null","","","","","","","",""
"695.1000000238419","","image-keyboard-response","562","328831","0.0-562.0","","img/set2/S1.jpg","83","1","structured_normal","83","random,structured_normal,structured_load,structured_incentive","3,4,2,1,2,3","true","",""
"null","","html-keyboard-response","563","329183","0.0-563.0","","<img src=""img/set2/S1.jpg"" width=""540"" height = ""360"" style=""border:16px solid orange"">","null","","","","","","","",""
"null","","html-keyboard-response","564","329385","0.0-564.0","","","null","","","","","","","",""
"830.3999999761581","","image-keyboard-response","565","330216","0.0-565.0","","img/set2/S2.jpg","68","2","structured_normal","68","random,structured_normal,structured_load,structured_incentive","3,4,2,1,2,3","true","",""
"null","","html-keyboard-response","566","330568","0.0-566.0","","<img src=""img/set2/S2.jpg"" width=""540"" height = ""360"" style=""border:16px solid orange"">","null","","","","","","","",""
"null","","html-keyboard-response","567","330771","0.0-567.0","","","null","","","","","","","",""
"467.80000001192093","","image-keyboard-response","568","331239","0.0-568.0","","img/set2/S2.jpg","68","2","structured_normal","68","random,structured_normal,structured_load,structured_incentive","3,4,2,1,2,3","true","",""
"null","","html-keyboard-response","569","331591","0.0-569.0","","<img src=""img/set2/S2.jpg"" width=""540"" height = ""360"" style=""border:16px solid orange"">","null","","","","","","","",""
"null","","html-keyboard-response","570","331792","0.0-570.0","","","null","","","","","","","",""
"2142.800000011921","","image-keyboard-response","571","333936","0.0-571.0","","img/set2/S3.jpg","72","3","structured_normal","72","random,structured_normal,structured_load,structured_incentive","3,4,2,1,2,3","true","",""
"null","","html-keyboard-response","572","334287","0.0-572.0","","<img src=""img/set2/S3.jpg"" width=""540"" height = ""360"" style=""border:16px solid orange"">","null","","","","","","","",""
"null","","html-keyboard-response","573","334488","0.0-573.0","","","null","","","","","","","",""
"425.9000000357628","","image-keyboard-response","574","334915","0.0-574.0","","img/set2/S4.jpg","74","4","structured_normal","74","random,structured_normal,structured_load,structured_incentive","3,4,2,1,2,3","true","",""
"null","","html-keyboard-response","575","335267","0.0-575.0","","<img src=""img/set2/S4.jpg"" width=""540"" height = ""360"" style=""border:16px solid orange"">","null","","","","","","","",""
"null","","html-keyboard-response","576","335469","0.0-576.0","","","null","","","","","","","",""
"466.80000001192093","","image-keyboard-response","577","335937","0.0-577.0","","img/set2/S1.jpg","83","1","structured_normal","83","random,structured_normal,structured_load,structured_incentive","3,4,2,1,2,3","true","",""
"null","","html-keyboard-response","578","336288","0.0-578.0","","<img src=""img/set2/S1.jpg"" width=""540"" height = ""360"" style=""border:16px solid orange"">","null","","","","","","","",""
"null","","html-keyboard-response","579","336490","0.0-579.0","","","null","","","","","","","",""
"575.4000000357628","","image-keyboard-response","580","337066","0.0-580.0","","img/set2/S1.jpg","83","1","structured_normal","83","random,structured_normal,structured_load,structured_incentive","3,4,2,1,2,3","true","",""
"null","","html-keyboard-response","581","337417","0.0-581.0","","<img src=""img/set2/S1.jpg"" width=""540"" height = ""360"" style=""border:16px solid orange"">","null","","","","","","","",""
"null","","html-keyboard-response","582","337618","0.0-582.0","","","null","","","","","","","",""
"622.8000000119209","","image-keyboard-response","583","338242","0.0-583.0","","img/set2/S3.jpg","72","3","structured_normal","72","random,structured_normal,structured_load,structured_incentive","3,4,2,1,2,3","true","",""
"null","","html-keyboard-response","584","338594","0.0-584.0","","<img src=""img/set2/S3.jpg"" width=""540"" height = ""360"" style=""border:16px solid orange"">","null","","","","","","","",""
"null","","html-keyboard-response","585","338795","0.0-585.0","","","null","","","","","","","",""
"417.39999997615814","","image-keyboard-response","586","339214","0.0-586.0","","img/set2/S4.jpg","74","4","structured_normal","74","random,structured_normal,structured_load,structured_incentive","3,4,2,1,2,3","true","",""
"null","","html-keyboard-response","587","339565","0.0-587.0","","<img src=""img/set2/S4.jpg"" width=""540"" height = ""360"" style=""border:16px solid orange"">","null","","","","","","","",""
"null","","html-keyboard-response","588","339768","0.0-588.0","","","null","","","","","","","",""
"637.4000000357628","","image-keyboard-response","589","340407","0.0-589.0","","img/set2/S3.jpg","72","3","structured_normal","72","random,structured_normal,structured_load,structured_incentive","3,4,2,1,2,3","true","",""
"null","","html-keyboard-response","590","340759","0.0-590.0","","<img src=""img/set2/S3.jpg"" width=""540"" height = ""360"" style=""border:16px solid orange"">","null","","","","","","","",""
"null","","html-keyboard-response","591","340962","0.0-591.0","","","null","","","","","","","",""
"519.1999999880791","","image-keyboard-response","592","341483","0.0-592.0","","img/set2/S4.jpg","74","4","structured_normal","74","random,structured_normal,structured_load,structured_incentive","3,4,2,1,2,3","true","",""
"null","","html-keyboard-response","593","341834","0.0-593.0","","<img src=""img/set2/S4.jpg"" width=""540"" height = ""360"" style=""border:16px solid orange"">","null","","","","","","","",""
"null","","html-keyboard-response","594","342035","0.0-594.0","","","null","","","","","","","",""
