"rt","url","trial_type","trial_index","time_elapsed","internal_node_id","view_history","stimulus","key_press","state","test_part","correct_response","order_block","order_chunk","correct","responses","bonus"
"12864.799999982119","consent.html","external-html","0","12946","0.0-0.0","","","","","","","","","","",""
"50360.69999998808","","instructions","1","63308","0.0-1.0","[{""page_index"":0,""viewing_time"":3377.2999999821186},{""page_index"":1,""viewing_time"":5754.9000000059605},{""page_index"":2,""viewing_time"":10293},{""page_index"":3,""viewing_time"":11802},{""page_index"":4,""viewing_time"":3184.0999999940395},{""page_index"":5,""viewing_time"":9605},{""page_index"":6,""viewing_time"":6344}]","","","","","","","","","",""
"8951.09999999404","","instructions","2","72260","0.0-2.0","[{""page_index"":0,""viewing_time"":8950.90000000596}]","","","","","","","","","",""
"4028.9000000059605","","instructions","3","76289","0.0-3.0","[{""page_index"":0,""viewing_time"":4028.5999999940395}]","","","","","","","","","",""
"1416.199999988079","","image-keyboard-response","4","77706","0.0-4.0","","img/set1/S4.jpg","68","4","random","74","random,structured_incentive,structured_load,structured_normal","2,3,3,4,2,1","false","",""
"null","","html-keyboard-response","5","78058","0.0-5.0","","<img src=""img/set1/S4.jpg"" width=""540"" height = ""360"">","null","","","","","","","",""
"null","","html-keyboard-response","6","78259","0.0-6.0","","","null","","","","","","","",""
"722.5","","image-keyboard-response","7","78983","0.0-7.0","","img/set1/S4.jpg","83","4","random","74","random,structured_incentive,structured_load,structured_normal","2,3,3,4,2,1","false","",""
"null","","html-keyboard-response","8","79335","0.0-8.0","","<img src=""img/set1/S4.jpg"" width=""540"" height = ""360"">","null","","","","","","","",""
"null","","html-keyboard-response","9","79537","0.0-9.0","","","null","","","","","","","",""
"1317.0999999940395","","image-keyboard-response","10","80854","0.0-10.0","","img/set1/S1.jpg","83","1","random","83","random,structured_incentive,structured_load,structured_normal","2,3,3,4,2,1","true","",""
"null","","html-keyboard-response","11","81205","0.0-11.0","","<img src=""img/set1/S1.jpg"" width=""540"" height = ""360"" style=""border:16px solid orange"">","null","","","","","","","",""
"null","","html-keyboard-response","12","81407","0.0-12.0","","","null","","","","","","","",""
"674.5999999940395","","image-keyboard-response","13","82082","0.0-13.0","","img/set1/S3.jpg","68","3","random","72","random,structured_incentive,structured_load,structured_normal","2,3,3,4,2,1","false","",""
"null","","html-keyboard-response","14","82434","0.0-14.0","","<img src=""img/set1/S3.jpg"" width=""540"" height = ""360"">","null","","","","","","","",""
"null","","html-keyboard-response","15","82635","0.0-15.0","","","null","","","","","","","",""
"null","","image-keyboard-response","16","85137","0.0-16.0","","img/set1/S2.jpg","null","2","random","68","random,structured_incentive,structured_load,structured_normal","2,3,3,4,2,1","false","",""
"null","","html-keyboard-response","17","85489","0.0-17.0","","<img src=""img/set1/S2.jpg"" width=""540"" height = ""360"">","null","","","","","","","",""
"null","","html-keyboard-response","18","85690","0.0-18.0","","","null","","","","","","","",""
"1279.2000000178814","","image-keyboard-response","19","86970","0.0-19.0","","img/set1/S4.jpg","72","4","random","74","random,structured_incentive,structured_load,structured_normal","2,3,3,4,2,1","false","",""
"null","","html-keyboard-response","20","87322","0.0-20.0","","<img src=""img/set1/S4.jpg"" width=""540"" height = ""360"">","null","","","","","","","",""
"null","","html-keyboard-response","21","87523","0.0-21.0","","","null","","","","","","","",""
"null","","image-keyboard-response","22","90023","0.0-22.0","","img/set1/S3.jpg","null","3","random","72","random,structured_incentive,structured_load,structured_normal","2,3,3,4,2,1","false","",""
"null","","html-keyboard-response","23","90375","0.0-23.0","","<img src=""img/set1/S3.jpg"" width=""540"" height = ""360"">","null","","","","","","","",""
"null","","html-keyboard-response","24","90576","0.0-24.0","","","null","","","","","","","",""
"2200.0999999940395","","image-keyboard-response","25","92777","0.0-25.0","","img/set1/S4.jpg","83","4","random","74","random,structured_incentive,structured_load,structured_normal","2,3,3,4,2,1","false","",""
"null","","html-keyboard-response","26","93128","0.0-26.0","","<img src=""img/set1/S4.jpg"" width=""540"" height = ""360"">","null","","","","","","","",""
"null","","html-keyboard-response","27","93329","0.0-27.0","","","null","","","","","","","",""
"1426.9000000059605","","image-keyboard-response","28","94757","0.0-28.0","","img/set1/S1.jpg","83","1","random","83","random,structured_incentive,structured_load,structured_normal","2,3,3,4,2,1","true","",""
"null","","html-keyboard-response","29","95109","0.0-29.0","","<img src=""img/set1/S1.jpg"" width=""540"" height = ""360"" style=""border:16px solid orange"">","null","","","","","","","",""
"null","","html-keyboard-response","30","95309","0.0-30.0","","","null","","","","","","","",""
"1159.0999999940395","","image-keyboard-response","31","96469","0.0-31.0","","img/set1/S3.jpg","72","3","random","72","random,structured_incentive,structured_load,structured_normal","2,3,3,4,2,1","true","",""
"null","","html-keyboard-response","32","96820","0.0-32.0","","<img src=""img/set1/S3.jpg"" width=""540"" height = ""360"" style=""border:16px solid orange"">","null","","","","","","","",""
"null","","html-keyboard-response","33","97021","0.0-33.0","","","null","","","","","","","",""
"null","","image-keyboard-response","34","99522","0.0-34.0","","img/set1/S4.jpg","null","4","random","74","random,structured_incentive,structured_load,structured_normal","2,3,3,4,2,1","false","",""
"null","","html-keyboard-response","35","99873","0.0-35.0","","<img src=""img/set1/S4.jpg"" width=""540"" height = ""360"">","null","","","","","","","",""
"null","","html-keyboard-response","36","100076","0.0-36.0","","","null","","","","","","","",""
"1296.199999988079","","image-keyboard-response","37","101372","0.0-37.0","","img/set1/S1.jpg","68","1","random","83","random,structured_incentive,structured_load,structured_normal","2,3,3,4,2,1","false","",""
"null","","html-keyboard-response","38","101724","0.0-38.0","","<img src=""img/set1/S1.jpg"" width=""540"" height = ""360"">","null","","","","","","","",""
"null","","html-keyboard-response","39","101925","0.0-39.0","","","null","","","","","","","",""
"1618.5","","image-keyboard-response","40","103544","0.0-40.0","","img/set1/S2.jpg","74","2","random","68","random,structured_incentive,structured_load,structured_normal","2,3,3,4,2,1","false","",""
"null","","html-keyboard-response","41","103897","0.0-41.0","","<img src=""img/set1/S2.jpg"" width=""540"" height = ""360"">","null","","","","","","","",""
"null","","html-keyboard-response","42","104098","0.0-42.0","","","null","","","","","","","",""
"701.7000000178814","","image-keyboard-response","43","104800","0.0-43.0","","img/set1/S3.jpg","74","3","random","72","random,structured_incentive,structured_load,structured_normal","2,3,3,4,2,1","false","",""
"null","","html-keyboard-response","44","105150","0.0-44.0","","<img src=""img/set1/S3.jpg"" width=""540"" height = ""360"">","null","","","","","","","",""
"null","","html-keyboard-response","45","105352","0.0-45.0","","","null","","","","","","","",""
"2019.3999999761581","","image-keyboard-response","46","107372","0.0-46.0","","img/set1/S2.jpg","68","2","random","68","random,structured_incentive,structured_load,structured_normal","2,3,3,4,2,1","true","",""
"null","","html-keyboard-response","47","107723","0.0-47.0","","<img src=""img/set1/S2.jpg"" width=""540"" height = ""360"" style=""border:16px solid orange"">","null","","","","","","","",""
"null","","html-keyboard-response","48","107924","0.0-48.0","","","null","","","","","","","",""
"419.09999999403954","","image-keyboard-response","49","108344","0.0-49.0","","img/set1/S2.jpg","68","2","random","68","random,structured_incentive,structured_load,structured_normal","2,3,3,4,2,1","true","",""
"null","","html-keyboard-response","50","108695","0.0-50.0","","<img src=""img/set1/S2.jpg"" width=""540"" height = ""360"" style=""border:16px solid orange"">","null","","","","","","","",""
"null","","html-keyboard-response","51","108898","0.0-51.0","","","null","","","","","","","",""
"365.40000000596046","","image-keyboard-response","52","109264","0.0-52.0","","img/set1/S2.jpg","68","2","random","68","random,structured_incentive,structured_load,structured_normal","2,3,3,4,2,1","true","",""
"null","","html-keyboard-response","53","109615","0.0-53.0","","<img src=""img/set1/S2.jpg"" width=""540"" height = ""360"" style=""border:16px solid orange"">","null","","","","","","","",""
"null","","html-keyboard-response","54","109816","0.0-54.0","","","null","","","","","","","",""
"1411","","image-keyboard-response","55","111228","0.0-55.0","","img/set1/S3.jpg","72","3","random","72","random,structured_incentive,structured_load,structured_normal","2,3,3,4,2,1","true","",""
"null","","html-keyboard-response","56","111579","0.0-56.0","","<img src=""img/set1/S3.jpg"" width=""540"" height = ""360"" style=""border:16px solid orange"">","null","","","","","","","",""
"null","","html-keyboard-response","57","111780","0.0-57.0","","","null","","","","","","","",""
"1582.7000000178814","","image-keyboard-response","58","113363","0.0-58.0","","img/set1/S4.jpg","74","4","random","74","random,structured_incentive,structured_load,structured_normal","2,3,3,4,2,1","true","",""
"null","","html-keyboard-response","59","113715","0.0-59.0","","<img src=""img/set1/S4.jpg"" width=""540"" height = ""360"" style=""border:16px solid orange"">","null","","","","","","","",""
"null","","html-keyboard-response","60","113916","0.0-60.0","","","null","","","","","","","",""
"625.6999999880791","","image-keyboard-response","61","114543","0.0-61.0","","img/set1/S3.jpg","72","3","random","72","random,structured_incentive,structured_load,structured_normal","2,3,3,4,2,1","true","",""
"null","","html-keyboard-response","62","114894","0.0-62.0","","<img src=""img/set1/S3.jpg"" width=""540"" height = ""360"" style=""border:16px solid orange"">","null","","","","","","","",""
"null","","html-keyboard-response","63","115095","0.0-63.0","","","null","","","","","","","",""
"419.39999997615814","","image-keyboard-response","64","115515","0.0-64.0","","img/set1/S4.jpg","74","4","random","74","random,structured_incentive,structured_load,structured_normal","2,3,3,4,2,1","true","",""
"null","","html-keyboard-response","65","115867","0.0-65.0","","<img src=""img/set1/S4.jpg"" width=""540"" height = ""360"" style=""border:16px solid orange"">","null","","","","","","","",""
"null","","html-keyboard-response","66","116068","0.0-66.0","","","null","","","","","","","",""
"863.1000000238419","","image-keyboard-response","67","116931","0.0-67.0","","img/set1/S2.jpg","68","2","random","68","random,structured_incentive,structured_load,structured_normal","2,3,3,4,2,1","true","",""
"null","","html-keyboard-response","68","117283","0.0-68.0","","<img src=""img/set1/S2.jpg"" width=""540"" height = ""360"" style=""border:16px solid orange"">","null","","","","","","","",""
"null","","html-keyboard-response","69","117484","0.0-69.0","","","null","","","","","","","",""
"330.09999999403954","","image-keyboard-response","70","117815","0.0-70.0","","img/set1/S2.jpg","68","2","random","68","random,structured_incentive,structured_load,structured_normal","2,3,3,4,2,1","true","",""
"null","","html-keyboard-response","71","118167","0.0-71.0","","<img src=""img/set1/S2.jpg"" width=""540"" height = ""360"" style=""border:16px solid orange"">","null","","","","","","","",""
"null","","html-keyboard-response","72","118368","0.0-72.0","","","null","","","","","","","",""
"293.7999999821186","","image-keyboard-response","73","118663","0.0-73.0","","img/set1/S2.jpg","68","2","random","68","random,structured_incentive,structured_load,structured_normal","2,3,3,4,2,1","true","",""
"null","","html-keyboard-response","74","119015","0.0-74.0","","<img src=""img/set1/S2.jpg"" width=""540"" height = ""360"" style=""border:16px solid orange"">","null","","","","","","","",""
"null","","html-keyboard-response","75","119216","0.0-75.0","","","null","","","","","","","",""
"822.2999999821186","","image-keyboard-response","76","120039","0.0-76.0","","img/set1/S3.jpg","72","3","random","72","random,structured_incentive,structured_load,structured_normal","2,3,3,4,2,1","true","",""
"null","","html-keyboard-response","77","120391","0.0-77.0","","<img src=""img/set1/S3.jpg"" width=""540"" height = ""360"" style=""border:16px solid orange"">","null","","","","","","","",""
"null","","html-keyboard-response","78","120593","0.0-78.0","","","null","","","","","","","",""
"522.0999999940395","","image-keyboard-response","79","121115","0.0-79.0","","img/set1/S4.jpg","74","4","random","74","random,structured_incentive,structured_load,structured_normal","2,3,3,4,2,1","true","",""
"null","","html-keyboard-response","80","121466","0.0-80.0","","<img src=""img/set1/S4.jpg"" width=""540"" height = ""360"" style=""border:16px solid orange"">","null","","","","","","","",""
"null","","html-keyboard-response","81","121667","0.0-81.0","","","null","","","","","","","",""
"311.19999998807907","","image-keyboard-response","82","121979","0.0-82.0","","img/set1/S4.jpg","74","4","random","74","random,structured_incentive,structured_load,structured_normal","2,3,3,4,2,1","true","",""
"null","","html-keyboard-response","83","122330","0.0-83.0","","<img src=""img/set1/S4.jpg"" width=""540"" height = ""360"" style=""border:16px solid orange"">","null","","","","","","","",""
"null","","html-keyboard-response","84","122531","0.0-84.0","","","null","","","","","","","",""
"515.5","","image-keyboard-response","85","123047","0.0-85.0","","img/set1/S3.jpg","72","3","random","72","random,structured_incentive,structured_load,structured_normal","2,3,3,4,2,1","true","",""
"null","","html-keyboard-response","86","123399","0.0-86.0","","<img src=""img/set1/S3.jpg"" width=""540"" height = ""360"" style=""border:16px solid orange"">","null","","","","","","","",""
"null","","html-keyboard-response","87","123599","0.0-87.0","","","null","","","","","","","",""
"651.0999999940395","","image-keyboard-response","88","124251","0.0-88.0","","img/set1/S4.jpg","74","4","random","74","random,structured_incentive,structured_load,structured_normal","2,3,3,4,2,1","true","",""
"null","","html-keyboard-response","89","124602","0.0-89.0","","<img src=""img/set1/S4.jpg"" width=""540"" height = ""360"" style=""border:16px solid orange"">","null","","","","","","","",""
"null","","html-keyboard-response","90","124803","0.0-90.0","","","null","","","","","","","",""
"1070.4000000059605","","image-keyboard-response","91","125874","0.0-91.0","","img/set1/S3.jpg","68","3","random","72","random,structured_incentive,structured_load,structured_normal","2,3,3,4,2,1","false","",""
"null","","html-keyboard-response","92","126225","0.0-92.0","","<img src=""img/set1/S3.jpg"" width=""540"" height = ""360"">","null","","","","","","","",""
"null","","html-keyboard-response","93","126427","0.0-93.0","","","null","","","","","","","",""
"1122.3999999761581","","image-keyboard-response","94","127550","0.0-94.0","","img/set1/S2.jpg","68","2","random","68","random,structured_incentive,structured_load,structured_normal","2,3,3,4,2,1","true","",""
"null","","html-keyboard-response","95","127901","0.0-95.0","","<img src=""img/set1/S2.jpg"" width=""540"" height = ""360"" style=""border:16px solid orange"">","null","","","","","","","",""
"null","","html-keyboard-response","96","128103","0.0-96.0","","","null","","","","","","","",""
"546.9000000059605","","image-keyboard-response","97","128650","0.0-97.0","","img/set1/S4.jpg","74","4","random","74","random,structured_incentive,structured_load,structured_normal","2,3,3,4,2,1","true","",""
"null","","html-keyboard-response","98","129001","0.0-98.0","","<img src=""img/set1/S4.jpg"" width=""540"" height = ""360"" style=""border:16px solid orange"">","null","","","","","","","",""
"null","","html-keyboard-response","99","129202","0.0-99.0","","","null","","","","","","","",""
"831.6999999880791","","image-keyboard-response","100","130034","0.0-100.0","","img/set1/S1.jpg","83","1","random","83","random,structured_incentive,structured_load,structured_normal","2,3,3,4,2,1","true","",""
"null","","html-keyboard-response","101","130385","0.0-101.0","","<img src=""img/set1/S1.jpg"" width=""540"" height = ""360"" style=""border:16px solid orange"">","null","","","","","","","",""
"null","","html-keyboard-response","102","130585","0.0-102.0","","","null","","","","","","","",""
"532","","image-keyboard-response","103","131118","0.0-103.0","","img/set1/S1.jpg","83","1","random","83","random,structured_incentive,structured_load,structured_normal","2,3,3,4,2,1","true","",""
"null","","html-keyboard-response","104","131471","0.0-104.0","","<img src=""img/set1/S1.jpg"" width=""540"" height = ""360"" style=""border:16px solid orange"">","null","","","","","","","",""
"null","","html-keyboard-response","105","131672","0.0-105.0","","","null","","","","","","","",""
"685.5","","image-keyboard-response","106","132358","0.0-106.0","","img/set1/S4.jpg","74","4","random","74","random,structured_incentive,structured_load,structured_normal","2,3,3,4,2,1","true","",""
"null","","html-keyboard-response","107","132709","0.0-107.0","","<img src=""img/set1/S4.jpg"" width=""540"" height = ""360"" style=""border:16px solid orange"">","null","","","","","","","",""
"null","","html-keyboard-response","108","132911","0.0-108.0","","","null","","","","","","","",""
"567","","image-keyboard-response","109","133478","0.0-109.0","","img/set1/S3.jpg","72","3","random","72","random,structured_incentive,structured_load,structured_normal","2,3,3,4,2,1","true","",""
"null","","html-keyboard-response","110","133829","0.0-110.0","","<img src=""img/set1/S3.jpg"" width=""540"" height = ""360"" style=""border:16px solid orange"">","null","","","","","","","",""
"null","","html-keyboard-response","111","134031","0.0-111.0","","","null","","","","","","","",""
"578.7999999821186","","image-keyboard-response","112","134610","0.0-112.0","","img/set1/S1.jpg","83","1","random","83","random,structured_incentive,structured_load,structured_normal","2,3,3,4,2,1","true","",""
"null","","html-keyboard-response","113","134961","0.0-113.0","","<img src=""img/set1/S1.jpg"" width=""540"" height = ""360"" style=""border:16px solid orange"">","null","","","","","","","",""
"null","","html-keyboard-response","114","135163","0.0-114.0","","","null","","","","","","","",""
"378.90000000596046","","image-keyboard-response","115","135542","0.0-115.0","","img/set1/S1.jpg","83","1","random","83","random,structured_incentive,structured_load,structured_normal","2,3,3,4,2,1","true","",""
"null","","html-keyboard-response","116","135893","0.0-116.0","","<img src=""img/set1/S1.jpg"" width=""540"" height = ""360"" style=""border:16px solid orange"">","null","","","","","","","",""
"null","","html-keyboard-response","117","136095","0.0-117.0","","","null","","","","","","","",""
"590.2999999821186","","image-keyboard-response","118","136686","0.0-118.0","","img/set1/S2.jpg","68","2","random","68","random,structured_incentive,structured_load,structured_normal","2,3,3,4,2,1","true","",""
"null","","html-keyboard-response","119","137038","0.0-119.0","","<img src=""img/set1/S2.jpg"" width=""540"" height = ""360"" style=""border:16px solid orange"">","null","","","","","","","",""
"null","","html-keyboard-response","120","137239","0.0-120.0","","","null","","","","","","","",""
"893.2000000178814","","image-keyboard-response","121","138133","0.0-121.0","","img/set1/S3.jpg","72","3","random","72","random,structured_incentive,structured_load,structured_normal","2,3,3,4,2,1","true","",""
"null","","html-keyboard-response","122","138485","0.0-122.0","","<img src=""img/set1/S3.jpg"" width=""540"" height = ""360"" style=""border:16px solid orange"">","null","","","","","","","",""
"null","","html-keyboard-response","123","138686","0.0-123.0","","","null","","","","","","","",""
"781.8000000119209","","image-keyboard-response","124","139469","0.0-124.0","","img/set1/S2.jpg","68","2","random","68","random,structured_incentive,structured_load,structured_normal","2,3,3,4,2,1","true","",""
"null","","html-keyboard-response","125","139820","0.0-125.0","","<img src=""img/set1/S2.jpg"" width=""540"" height = ""360"" style=""border:16px solid orange"">","null","","","","","","","",""
"null","","html-keyboard-response","126","140020","0.0-126.0","","","null","","","","","","","",""
"516.1999999880791","","image-keyboard-response","127","140537","0.0-127.0","","img/set1/S4.jpg","74","4","random","74","random,structured_incentive,structured_load,structured_normal","2,3,3,4,2,1","true","",""
"null","","html-keyboard-response","128","140889","0.0-128.0","","<img src=""img/set1/S4.jpg"" width=""540"" height = ""360"" style=""border:16px solid orange"">","null","","","","","","","",""
"null","","html-keyboard-response","129","141091","0.0-129.0","","","null","","","","","","","",""
"529.5999999940395","","image-keyboard-response","130","141621","0.0-130.0","","img/set1/S2.jpg","68","2","random","68","random,structured_incentive,structured_load,structured_normal","2,3,3,4,2,1","true","",""
"null","","html-keyboard-response","131","141972","0.0-131.0","","<img src=""img/set1/S2.jpg"" width=""540"" height = ""360"" style=""border:16px solid orange"">","null","","","","","","","",""
"null","","html-keyboard-response","132","142173","0.0-132.0","","","null","","","","","","","",""
"527.6999999880791","","image-keyboard-response","133","142701","0.0-133.0","","img/set1/S1.jpg","83","1","random","83","random,structured_incentive,structured_load,structured_normal","2,3,3,4,2,1","true","",""
"null","","html-keyboard-response","134","143053","0.0-134.0","","<img src=""img/set1/S1.jpg"" width=""540"" height = ""360"" style=""border:16px solid orange"">","null","","","","","","","",""
"null","","html-keyboard-response","135","143255","0.0-135.0","","","null","","","","","","","",""
"533.0999999940395","","image-keyboard-response","136","143789","0.0-136.0","","img/set1/S2.jpg","68","2","random","68","random,structured_incentive,structured_load,structured_normal","2,3,3,4,2,1","true","",""
"null","","html-keyboard-response","137","144141","0.0-137.0","","<img src=""img/set1/S2.jpg"" width=""540"" height = ""360"" style=""border:16px solid orange"">","null","","","","","","","",""
"null","","html-keyboard-response","138","144343","0.0-138.0","","","null","","","","","","","",""
"545.3999999761581","","image-keyboard-response","139","144889","0.0-139.0","","img/set1/S1.jpg","83","1","random","83","random,structured_incentive,structured_load,structured_normal","2,3,3,4,2,1","true","",""
"null","","html-keyboard-response","140","145240","0.0-140.0","","<img src=""img/set1/S1.jpg"" width=""540"" height = ""360"" style=""border:16px solid orange"">","null","","","","","","","",""
"null","","html-keyboard-response","141","145443","0.0-141.0","","","null","","","","","","","",""
"685.8999999761581","","image-keyboard-response","142","146129","0.0-142.0","","img/set1/S1.jpg","83","1","random","83","random,structured_incentive,structured_load,structured_normal","2,3,3,4,2,1","true","",""
"null","","html-keyboard-response","143","146481","0.0-143.0","","<img src=""img/set1/S1.jpg"" width=""540"" height = ""360"" style=""border:16px solid orange"">","null","","","","","","","",""
"null","","html-keyboard-response","144","146683","0.0-144.0","","","null","","","","","","","",""
"525","","image-keyboard-response","145","147209","0.0-145.0","","img/set1/S2.jpg","68","2","random","68","random,structured_incentive,structured_load,structured_normal","2,3,3,4,2,1","true","",""
"null","","html-keyboard-response","146","147560","0.0-146.0","","<img src=""img/set1/S2.jpg"" width=""540"" height = ""360"" style=""border:16px solid orange"">","null","","","","","","","",""
"null","","html-keyboard-response","147","147761","0.0-147.0","","","null","","","","","","","",""
"474.7999999821186","","image-keyboard-response","148","148237","0.0-148.0","","img/set1/S4.jpg","74","4","random","74","random,structured_incentive,structured_load,structured_normal","2,3,3,4,2,1","true","",""
"null","","html-keyboard-response","149","148588","0.0-149.0","","<img src=""img/set1/S4.jpg"" width=""540"" height = ""360"" style=""border:16px solid orange"">","null","","","","","","","",""
"null","","html-keyboard-response","150","148789","0.0-150.0","","","null","","","","","","","",""
"635.6999999880791","","image-keyboard-response","151","149425","0.0-151.0","","img/set1/S2.jpg","68","2","random","68","random,structured_incentive,structured_load,structured_normal","2,3,3,4,2,1","true","",""
"null","","html-keyboard-response","152","149777","0.0-152.0","","<img src=""img/set1/S2.jpg"" width=""540"" height = ""360"" style=""border:16px solid orange"">","null","","","","","","","",""
"null","","html-keyboard-response","153","149977","0.0-153.0","","","null","","","","","","","",""
"463.2000000178814","","image-keyboard-response","154","150441","0.0-154.0","","img/set1/S1.jpg","68","1","random","83","random,structured_incentive,structured_load,structured_normal","2,3,3,4,2,1","false","",""
"null","","html-keyboard-response","155","150793","0.0-155.0","","<img src=""img/set1/S1.jpg"" width=""540"" height = ""360"">","null","","","","","","","",""
"null","","html-keyboard-response","156","150994","0.0-156.0","","","null","","","","","","","",""
"1189","","image-keyboard-response","157","152184","0.0-157.0","","img/set1/S2.jpg","68","2","random","68","random,structured_incentive,structured_load,structured_normal","2,3,3,4,2,1","true","",""
"null","","html-keyboard-response","158","152535","0.0-158.0","","<img src=""img/set1/S2.jpg"" width=""540"" height = ""360"" style=""border:16px solid orange"">","null","","","","","","","",""
"null","","html-keyboard-response","159","152737","0.0-159.0","","","null","","","","","","","",""
"470.59999999403954","","image-keyboard-response","160","153208","0.0-160.0","","img/set1/S1.jpg","83","1","random","83","random,structured_incentive,structured_load,structured_normal","2,3,3,4,2,1","true","",""
"null","","html-keyboard-response","161","153559","0.0-161.0","","<img src=""img/set1/S1.jpg"" width=""540"" height = ""360"" style=""border:16px solid orange"">","null","","","","","","","",""
"null","","html-keyboard-response","162","153761","0.0-162.0","","","null","","","","","","","",""
"438.89999997615814","","image-keyboard-response","163","154200","0.0-163.0","","img/set1/S4.jpg","74","4","random","74","random,structured_incentive,structured_load,structured_normal","2,3,3,4,2,1","true","",""
"null","","html-keyboard-response","164","154551","0.0-164.0","","<img src=""img/set1/S4.jpg"" width=""540"" height = ""360"" style=""border:16px solid orange"">","null","","","","","","","",""
"null","","html-keyboard-response","165","154753","0.0-165.0","","","null","","","","","","","",""
"390.90000000596046","","image-keyboard-response","166","155144","0.0-166.0","","img/set1/S1.jpg","83","1","random","83","random,structured_incentive,structured_load,structured_normal","2,3,3,4,2,1","true","",""
"null","","html-keyboard-response","167","155496","0.0-167.0","","<img src=""img/set1/S1.jpg"" width=""540"" height = ""360"" style=""border:16px solid orange"">","null","","","","","","","",""
"null","","html-keyboard-response","168","155697","0.0-168.0","","","null","","","","","","","",""
"646.2000000178814","","image-keyboard-response","169","156344","0.0-169.0","","img/set1/S3.jpg","72","3","random","72","random,structured_incentive,structured_load,structured_normal","2,3,3,4,2,1","true","",""
"null","","html-keyboard-response","170","156695","0.0-170.0","","<img src=""img/set1/S3.jpg"" width=""540"" height = ""360"" style=""border:16px solid orange"">","null","","","","","","","",""
"null","","html-keyboard-response","171","156896","0.0-171.0","","","null","","","","","","","",""
"335.09999999403954","","image-keyboard-response","172","157232","0.0-172.0","","img/set1/S3.jpg","72","3","random","72","random,structured_incentive,structured_load,structured_normal","2,3,3,4,2,1","true","",""
"null","","html-keyboard-response","173","157583","0.0-173.0","","<img src=""img/set1/S3.jpg"" width=""540"" height = ""360"" style=""border:16px solid orange"">","null","","","","","","","",""
"null","","html-keyboard-response","174","157784","0.0-174.0","","","null","","","","","","","",""
"427.80000001192093","","image-keyboard-response","175","158212","0.0-175.0","","img/set1/S1.jpg","83","1","random","83","random,structured_incentive,structured_load,structured_normal","2,3,3,4,2,1","true","",""
"null","","html-keyboard-response","176","158563","0.0-176.0","","<img src=""img/set1/S1.jpg"" width=""540"" height = ""360"" style=""border:16px solid orange"">","null","","","","","","","",""
"null","","html-keyboard-response","177","158765","0.0-177.0","","","null","","","","","","","",""
"526.2999999821186","","image-keyboard-response","178","159292","0.0-178.0","","img/set1/S4.jpg","74","4","random","74","random,structured_incentive,structured_load,structured_normal","2,3,3,4,2,1","true","",""
"null","","html-keyboard-response","179","159643","0.0-179.0","","<img src=""img/set1/S4.jpg"" width=""540"" height = ""360"" style=""border:16px solid orange"">","null","","","","","","","",""
"null","","html-keyboard-response","180","159845","0.0-180.0","","","null","","","","","","","",""
"698.3000000119209","","image-keyboard-response","181","160544","0.0-181.0","","img/set1/S2.jpg","68","2","random","68","random,structured_incentive,structured_load,structured_normal","2,3,3,4,2,1","true","",""
"null","","html-keyboard-response","182","160896","0.0-182.0","","<img src=""img/set1/S2.jpg"" width=""540"" height = ""360"" style=""border:16px solid orange"">","null","","","","","","","",""
"null","","html-keyboard-response","183","161098","0.0-183.0","","","null","","","","","","","",""
"542","","image-keyboard-response","184","161640","0.0-184.0","","img/set1/S1.jpg","83","1","random","83","random,structured_incentive,structured_load,structured_normal","2,3,3,4,2,1","true","",""
"null","","html-keyboard-response","185","161991","0.0-185.0","","<img src=""img/set1/S1.jpg"" width=""540"" height = ""360"" style=""border:16px solid orange"">","null","","","","","","","",""
"null","","html-keyboard-response","186","162193","0.0-186.0","","","null","","","","","","","",""
"602.6999999880791","","image-keyboard-response","187","162796","0.0-187.0","","img/set1/S3.jpg","72","3","random","72","random,structured_incentive,structured_load,structured_normal","2,3,3,4,2,1","true","",""
"null","","html-keyboard-response","188","163148","0.0-188.0","","<img src=""img/set1/S3.jpg"" width=""540"" height = ""360"" style=""border:16px solid orange"">","null","","","","","","","",""
"null","","html-keyboard-response","189","163350","0.0-189.0","","","null","","","","","","","",""
"509.2000000178814","","image-keyboard-response","190","163859","0.0-190.0","","img/set1/S1.jpg","83","1","random","83","random,structured_incentive,structured_load,structured_normal","2,3,3,4,2,1","true","",""
"null","","html-keyboard-response","191","164211","0.0-191.0","","<img src=""img/set1/S1.jpg"" width=""540"" height = ""360"" style=""border:16px solid orange"">","null","","","","","","","",""
"null","","html-keyboard-response","192","164412","0.0-192.0","","","null","","","","","","","",""
"343","","image-keyboard-response","193","164756","0.0-193.0","","img/set1/S1.jpg","83","1","random","83","random,structured_incentive,structured_load,structured_normal","2,3,3,4,2,1","true","",""
"null","","html-keyboard-response","194","165107","0.0-194.0","","<img src=""img/set1/S1.jpg"" width=""540"" height = ""360"" style=""border:16px solid orange"">","null","","","","","","","",""
"null","","html-keyboard-response","195","165308","0.0-195.0","","","null","","","","","","","",""
"669.9000000059605","","image-keyboard-response","196","165979","0.0-196.0","","img/set1/S3.jpg","72","3","random","72","random,structured_incentive,structured_load,structured_normal","2,3,3,4,2,1","true","",""
"null","","html-keyboard-response","197","166330","0.0-197.0","","<img src=""img/set1/S3.jpg"" width=""540"" height = ""360"" style=""border:16px solid orange"">","null","","","","","","","",""
"null","","html-keyboard-response","198","166531","0.0-198.0","","","null","","","","","","","",""
"511.90000000596046","","image-keyboard-response","199","167043","0.0-199.0","","img/set1/S4.jpg","74","4","random","74","random,structured_incentive,structured_load,structured_normal","2,3,3,4,2,1","true","",""
"null","","html-keyboard-response","200","167394","0.0-200.0","","<img src=""img/set1/S4.jpg"" width=""540"" height = ""360"" style=""border:16px solid orange"">","null","","","","","","","",""
"null","","html-keyboard-response","201","167595","0.0-201.0","","","null","","","","","","","",""
"495.40000000596046","","image-keyboard-response","202","168091","0.0-202.0","","img/set1/S4.jpg","74","4","random","74","random,structured_incentive,structured_load,structured_normal","2,3,3,4,2,1","true","",""
"null","","html-keyboard-response","203","168443","0.0-203.0","","<img src=""img/set1/S4.jpg"" width=""540"" height = ""360"" style=""border:16px solid orange"">","null","","","","","","","",""
"null","","html-keyboard-response","204","168645","0.0-204.0","","","null","","","","","","","",""
"409.69999998807907","","image-keyboard-response","205","169055","0.0-205.0","","img/set1/S1.jpg","83","1","random","83","random,structured_incentive,structured_load,structured_normal","2,3,3,4,2,1","true","",""
"null","","html-keyboard-response","206","169407","0.0-206.0","","<img src=""img/set1/S1.jpg"" width=""540"" height = ""360"" style=""border:16px solid orange"">","null","","","","","","","",""
"null","","html-keyboard-response","207","169609","0.0-207.0","","","null","","","","","","","",""
"693.7000000178814","","image-keyboard-response","208","170303","0.0-208.0","","img/set1/S3.jpg","72","3","random","72","random,structured_incentive,structured_load,structured_normal","2,3,3,4,2,1","true","",""
"null","","html-keyboard-response","209","170655","0.0-209.0","","<img src=""img/set1/S3.jpg"" width=""540"" height = ""360"" style=""border:16px solid orange"">","null","","","","","","","",""
"null","","html-keyboard-response","210","170856","0.0-210.0","","","null","","","","","","","",""
"634.2999999821186","","image-keyboard-response","211","171491","0.0-211.0","","img/set1/S3.jpg","72","3","random","72","random,structured_incentive,structured_load,structured_normal","2,3,3,4,2,1","true","",""
"null","","html-keyboard-response","212","171843","0.0-212.0","","<img src=""img/set1/S3.jpg"" width=""540"" height = ""360"" style=""border:16px solid orange"">","null","","","","","","","",""
"null","","html-keyboard-response","213","172043","0.0-213.0","","","null","","","","","","","",""
"447","","image-keyboard-response","214","172491","0.0-214.0","","img/set1/S1.jpg","83","1","random","83","random,structured_incentive,structured_load,structured_normal","2,3,3,4,2,1","true","",""
"null","","html-keyboard-response","215","172842","0.0-215.0","","<img src=""img/set1/S1.jpg"" width=""540"" height = ""360"" style=""border:16px solid orange"">","null","","","","","","","",""
"null","","html-keyboard-response","216","173044","0.0-216.0","","","null","","","","","","","",""
"406.7000000178814","","image-keyboard-response","217","173451","0.0-217.0","","img/set1/S1.jpg","83","1","random","83","random,structured_incentive,structured_load,structured_normal","2,3,3,4,2,1","true","",""
"null","","html-keyboard-response","218","173804","0.0-218.0","","<img src=""img/set1/S1.jpg"" width=""540"" height = ""360"" style=""border:16px solid orange"">","null","","","","","","","",""
"null","","html-keyboard-response","219","174005","0.0-219.0","","","null","","","","","","","",""
"397.69999998807907","","image-keyboard-response","220","174403","0.0-220.0","","img/set1/S1.jpg","83","1","random","83","random,structured_incentive,structured_load,structured_normal","2,3,3,4,2,1","true","",""
"null","","html-keyboard-response","221","174754","0.0-221.0","","<img src=""img/set1/S1.jpg"" width=""540"" height = ""360"" style=""border:16px solid orange"">","null","","","","","","","",""
"null","","html-keyboard-response","222","174956","0.0-222.0","","","null","","","","","","","",""
"301.59999999403954","","image-keyboard-response","223","175259","0.0-223.0","","img/set1/S1.jpg","83","1","random","83","random,structured_incentive,structured_load,structured_normal","2,3,3,4,2,1","true","",""
"null","","html-keyboard-response","224","175610","0.0-224.0","","<img src=""img/set1/S1.jpg"" width=""540"" height = ""360"" style=""border:16px solid orange"">","null","","","","","","","",""
"null","","html-keyboard-response","225","175811","0.0-225.0","","","null","","","","","","","",""
"454.90000000596046","","image-keyboard-response","226","176267","0.0-226.0","","img/set1/S2.jpg","68","2","random","68","random,structured_incentive,structured_load,structured_normal","2,3,3,4,2,1","true","",""
"null","","html-keyboard-response","227","176618","0.0-227.0","","<img src=""img/set1/S2.jpg"" width=""540"" height = ""360"" style=""border:16px solid orange"">","null","","","","","","","",""
"null","","html-keyboard-response","228","176820","0.0-228.0","","","null","","","","","","","",""
"517.0999999940395","","image-keyboard-response","229","177338","0.0-229.0","","img/set1/S4.jpg","74","4","random","74","random,structured_incentive,structured_load,structured_normal","2,3,3,4,2,1","true","",""
"null","","html-keyboard-response","230","177690","0.0-230.0","","<img src=""img/set1/S4.jpg"" width=""540"" height = ""360"" style=""border:16px solid orange"">","null","","","","","","","",""
"null","","html-keyboard-response","231","177891","0.0-231.0","","","null","","","","","","","",""
"578.7999999821186","","image-keyboard-response","232","178470","0.0-232.0","","img/set1/S3.jpg","72","3","random","72","random,structured_incentive,structured_load,structured_normal","2,3,3,4,2,1","true","",""
"null","","html-keyboard-response","233","178822","0.0-233.0","","<img src=""img/set1/S3.jpg"" width=""540"" height = ""360"" style=""border:16px solid orange"">","null","","","","","","","",""
"null","","html-keyboard-response","234","179023","0.0-234.0","","","null","","","","","","","",""
"465.7999999821186","","image-keyboard-response","235","179489","0.0-235.0","","img/set1/S1.jpg","83","1","random","83","random,structured_incentive,structured_load,structured_normal","2,3,3,4,2,1","true","",""
"null","","html-keyboard-response","236","179841","0.0-236.0","","<img src=""img/set1/S1.jpg"" width=""540"" height = ""360"" style=""border:16px solid orange"">","null","","","","","","","",""
"null","","html-keyboard-response","237","180043","0.0-237.0","","","null","","","","","","","",""
"589.9000000059605","","image-keyboard-response","238","180634","0.0-238.0","","img/set1/S3.jpg","72","3","random","72","random,structured_incentive,structured_load,structured_normal","2,3,3,4,2,1","true","",""
"null","","html-keyboard-response","239","180986","0.0-239.0","","<img src=""img/set1/S3.jpg"" width=""540"" height = ""360"" style=""border:16px solid orange"">","null","","","","","","","",""
"null","","html-keyboard-response","240","181186","0.0-240.0","","","null","","","","","","","",""
"415.09999999403954","","image-keyboard-response","241","181602","0.0-241.0","","img/set1/S4.jpg","74","4","random","74","random,structured_incentive,structured_load,structured_normal","2,3,3,4,2,1","true","",""
"null","","html-keyboard-response","242","181954","0.0-242.0","","<img src=""img/set1/S4.jpg"" width=""540"" height = ""360"" style=""border:16px solid orange"">","null","","","","","","","",""
"null","","html-keyboard-response","243","182155","0.0-243.0","","","null","","","","","","","",""
"486.60000002384186","","image-keyboard-response","244","182642","0.0-244.0","","img/set1/S2.jpg","68","2","random","68","random,structured_incentive,structured_load,structured_normal","2,3,3,4,2,1","true","",""
"null","","html-keyboard-response","245","182993","0.0-245.0","","<img src=""img/set1/S2.jpg"" width=""540"" height = ""360"" style=""border:16px solid orange"">","null","","","","","","","",""
"null","","html-keyboard-response","246","183194","0.0-246.0","","","null","","","","","","","",""
"487.2000000178814","","image-keyboard-response","247","183682","0.0-247.0","","img/set1/S4.jpg","74","4","random","74","random,structured_incentive,structured_load,structured_normal","2,3,3,4,2,1","true","",""
"null","","html-keyboard-response","248","184034","0.0-248.0","","<img src=""img/set1/S4.jpg"" width=""540"" height = ""360"" style=""border:16px solid orange"">","null","","","","","","","",""
"null","","html-keyboard-response","249","184235","0.0-249.0","","","null","","","","","","","",""
"446.90000000596046","","image-keyboard-response","250","184682","0.0-250.0","","img/set1/S4.jpg","74","4","random","74","random,structured_incentive,structured_load,structured_normal","2,3,3,4,2,1","true","",""
"null","","html-keyboard-response","251","185033","0.0-251.0","","<img src=""img/set1/S4.jpg"" width=""540"" height = ""360"" style=""border:16px solid orange"">","null","","","","","","","",""
"null","","html-keyboard-response","252","185236","0.0-252.0","","","null","","","","","","","",""
"557.5","","image-keyboard-response","253","185794","0.0-253.0","","img/set1/S3.jpg","72","3","random","72","random,structured_incentive,structured_load,structured_normal","2,3,3,4,2,1","true","",""
"null","","html-keyboard-response","254","186145","0.0-254.0","","<img src=""img/set1/S3.jpg"" width=""540"" height = ""360"" style=""border:16px solid orange"">","null","","","","","","","",""
"null","","html-keyboard-response","255","186346","0.0-255.0","","","null","","","","","","","",""
"359.09999999403954","","image-keyboard-response","256","186706","0.0-256.0","","img/set1/S2.jpg","74","2","random","68","random,structured_incentive,structured_load,structured_normal","2,3,3,4,2,1","false","",""
"null","","html-keyboard-response","257","187057","0.0-257.0","","<img src=""img/set1/S2.jpg"" width=""540"" height = ""360"">","null","","","","","","","",""
"null","","html-keyboard-response","258","187259","0.0-258.0","","","null","","","","","","","",""
"486.09999999403954","","image-keyboard-response","259","187746","0.0-259.0","","img/set1/S4.jpg","74","4","random","74","random,structured_incentive,structured_load,structured_normal","2,3,3,4,2,1","true","",""
"null","","html-keyboard-response","260","188097","0.0-260.0","","<img src=""img/set1/S4.jpg"" width=""540"" height = ""360"" style=""border:16px solid orange"">","null","","","","","","","",""
"null","","html-keyboard-response","261","188298","0.0-261.0","","","null","","","","","","","",""
"483.40000000596046","","image-keyboard-response","262","188782","0.0-262.0","","img/set1/S1.jpg","83","1","random","83","random,structured_incentive,structured_load,structured_normal","2,3,3,4,2,1","true","",""
"null","","html-keyboard-response","263","189134","0.0-263.0","","<img src=""img/set1/S1.jpg"" width=""540"" height = ""360"" style=""border:16px solid orange"">","null","","","","","","","",""
"null","","html-keyboard-response","264","189337","0.0-264.0","","","null","","","","","","","",""
"852.1999999880791","","image-keyboard-response","265","190189","0.0-265.0","","img/set1/S3.jpg","72","3","random","72","random,structured_incentive,structured_load,structured_normal","2,3,3,4,2,1","true","",""
"null","","html-keyboard-response","266","190541","0.0-266.0","","<img src=""img/set1/S3.jpg"" width=""540"" height = ""360"" style=""border:16px solid orange"">","null","","","","","","","",""
"null","","html-keyboard-response","267","190742","0.0-267.0","","","null","","","","","","","",""
"494.7000000178814","","image-keyboard-response","268","191237","0.0-268.0","","img/set1/S4.jpg","74","4","random","74","random,structured_incentive,structured_load,structured_normal","2,3,3,4,2,1","true","",""
"null","","html-keyboard-response","269","191588","0.0-269.0","","<img src=""img/set1/S4.jpg"" width=""540"" height = ""360"" style=""border:16px solid orange"">","null","","","","","","","",""
"null","","html-keyboard-response","270","191789","0.0-270.0","","","null","","","","","","","",""
"667.0999999940395","","image-keyboard-response","271","192457","0.0-271.0","","img/set1/S2.jpg","68","2","random","68","random,structured_incentive,structured_load,structured_normal","2,3,3,4,2,1","true","",""
"null","","html-keyboard-response","272","192808","0.0-272.0","","<img src=""img/set1/S2.jpg"" width=""540"" height = ""360"" style=""border:16px solid orange"">","null","","","","","","","",""
"null","","html-keyboard-response","273","193009","0.0-273.0","","","null","","","","","","","",""
"375.59999999403954","","image-keyboard-response","274","193385","0.0-274.0","","img/set1/S2.jpg","68","2","random","68","random,structured_incentive,structured_load,structured_normal","2,3,3,4,2,1","true","",""
"null","","html-keyboard-response","275","193736","0.0-275.0","","<img src=""img/set1/S2.jpg"" width=""540"" height = ""360"" style=""border:16px solid orange"">","null","","","","","","","",""
"null","","html-keyboard-response","276","193938","0.0-276.0","","","null","","","","","","","",""
"499","","image-keyboard-response","277","194437","0.0-277.0","","img/set1/S4.jpg","74","4","random","74","random,structured_incentive,structured_load,structured_normal","2,3,3,4,2,1","true","",""
"null","","html-keyboard-response","278","194788","0.0-278.0","","<img src=""img/set1/S4.jpg"" width=""540"" height = ""360"" style=""border:16px solid orange"">","null","","","","","","","",""
"null","","html-keyboard-response","279","194990","0.0-279.0","","","null","","","","","","","",""
"474.69999998807907","","image-keyboard-response","280","195465","0.0-280.0","","img/set1/S2.jpg","68","2","random","68","random,structured_incentive,structured_load,structured_normal","2,3,3,4,2,1","true","",""
"null","","html-keyboard-response","281","195816","0.0-281.0","","<img src=""img/set1/S2.jpg"" width=""540"" height = ""360"" style=""border:16px solid orange"">","null","","","","","","","",""
"null","","html-keyboard-response","282","196017","0.0-282.0","","","null","","","","","","","",""
"491.2999999821186","","image-keyboard-response","283","196509","0.0-283.0","","img/set1/S1.jpg","83","1","random","83","random,structured_incentive,structured_load,structured_normal","2,3,3,4,2,1","true","",""
"null","","html-keyboard-response","284","196861","0.0-284.0","","<img src=""img/set1/S1.jpg"" width=""540"" height = ""360"" style=""border:16px solid orange"">","null","","","","","","","",""
"null","","html-keyboard-response","285","197062","0.0-285.0","","","null","","","","","","","",""
"746","","image-keyboard-response","286","197809","0.0-286.0","","img/set1/S3.jpg","72","3","random","72","random,structured_incentive,structured_load,structured_normal","2,3,3,4,2,1","true","",""
"null","","html-keyboard-response","287","198160","0.0-287.0","","<img src=""img/set1/S3.jpg"" width=""540"" height = ""360"" style=""border:16px solid orange"">","null","","","","","","","",""
"null","","html-keyboard-response","288","198362","0.0-288.0","","","null","","","","","","","",""
"474.59999999403954","","image-keyboard-response","289","198837","0.0-289.0","","img/set1/S2.jpg","68","2","random","68","random,structured_incentive,structured_load,structured_normal","2,3,3,4,2,1","true","",""
"null","","html-keyboard-response","290","199188","0.0-290.0","","<img src=""img/set1/S2.jpg"" width=""540"" height = ""360"" style=""border:16px solid orange"">","null","","","","","","","",""
"null","","html-keyboard-response","291","199390","0.0-291.0","","","null","","","","","","","",""
"297.69999998807907","","image-keyboard-response","292","199689","0.0-292.0","","img/set1/S2.jpg","68","2","random","68","random,structured_incentive,structured_load,structured_normal","2,3,3,4,2,1","true","",""
"null","","html-keyboard-response","293","200041","0.0-293.0","","<img src=""img/set1/S2.jpg"" width=""540"" height = ""360"" style=""border:16px solid orange"">","null","","","","","","","",""
"null","","html-keyboard-response","294","200242","0.0-294.0","","","null","","","","","","","",""
"594.5","","image-keyboard-response","295","200837","0.0-295.0","","img/set1/S3.jpg","72","3","random","72","random,structured_incentive,structured_load,structured_normal","2,3,3,4,2,1","true","",""
"null","","html-keyboard-response","296","201189","0.0-296.0","","<img src=""img/set1/S3.jpg"" width=""540"" height = ""360"" style=""border:16px solid orange"">","null","","","","","","","",""
"null","","html-keyboard-response","297","201391","0.0-297.0","","","null","","","","","","","",""
"474.2000000178814","","image-keyboard-response","298","201865","0.0-298.0","","img/set1/S2.jpg","68","2","random","68","random,structured_incentive,structured_load,structured_normal","2,3,3,4,2,1","true","",""
"null","","html-keyboard-response","299","202216","0.0-299.0","","<img src=""img/set1/S2.jpg"" width=""540"" height = ""360"" style=""border:16px solid orange"">","null","","","","","","","",""
"null","","html-keyboard-response","300","202417","0.0-300.0","","","null","","","","","","","",""
"638.2000000178814","","image-keyboard-response","301","203056","0.0-301.0","","img/set1/S3.jpg","72","3","random","72","random,structured_incentive,structured_load,structured_normal","2,3,3,4,2,1","true","",""
"null","","html-keyboard-response","302","203407","0.0-302.0","","<img src=""img/set1/S3.jpg"" width=""540"" height = ""360"" style=""border:16px solid orange"">","null","","","","","","","",""
"null","","html-keyboard-response","303","203608","0.0-303.0","","","null","","","","","","","",""
"515.0999999940395","","image-keyboard-response","304","204124","0.0-304.0","","img/set1/S4.jpg","74","4","random","74","random,structured_incentive,structured_load,structured_normal","2,3,3,4,2,1","true","",""
"null","","html-keyboard-response","305","204475","0.0-305.0","","<img src=""img/set1/S4.jpg"" width=""540"" height = ""360"" style=""border:16px solid orange"">","null","","","","","","","",""
"null","","html-keyboard-response","306","204676","0.0-306.0","","","null","","","","","","","",""
"491.19999998807907","","image-keyboard-response","307","205168","0.0-307.0","","img/set1/S2.jpg","68","2","random","68","random,structured_incentive,structured_load,structured_normal","2,3,3,4,2,1","true","",""
"null","","html-keyboard-response","308","205520","0.0-308.0","","<img src=""img/set1/S2.jpg"" width=""540"" height = ""360"" style=""border:16px solid orange"">","null","","","","","","","",""
"null","","html-keyboard-response","309","205720","0.0-309.0","","","null","","","","","","","",""
"555.0999999940395","","image-keyboard-response","310","206276","0.0-310.0","","img/set1/S3.jpg","72","3","random","72","random,structured_incentive,structured_load,structured_normal","2,3,3,4,2,1","true","",""
"null","","html-keyboard-response","311","206627","0.0-311.0","","<img src=""img/set1/S3.jpg"" width=""540"" height = ""360"" style=""border:16px solid orange"">","null","","","","","","","",""
"null","","html-keyboard-response","312","206829","0.0-312.0","","","null","","","","","","","",""
"742.4000000059605","","image-keyboard-response","313","207572","0.0-313.0","","img/set1/S3.jpg","72","3","random","72","random,structured_incentive,structured_load,structured_normal","2,3,3,4,2,1","true","",""
"null","","html-keyboard-response","314","207924","0.0-314.0","","<img src=""img/set1/S3.jpg"" width=""540"" height = ""360"" style=""border:16px solid orange"">","null","","","","","","","",""
"null","","html-keyboard-response","315","208126","0.0-315.0","","","null","","","","","","","",""
"589.2999999821186","","image-keyboard-response","316","208716","0.0-316.0","","img/set1/S1.jpg","83","1","random","83","random,structured_incentive,structured_load,structured_normal","2,3,3,4,2,1","true","",""
"null","","html-keyboard-response","317","209068","0.0-317.0","","<img src=""img/set1/S1.jpg"" width=""540"" height = ""360"" style=""border:16px solid orange"">","null","","","","","","","",""
"null","","html-keyboard-response","318","209270","0.0-318.0","","","null","","","","","","","",""
"493.90000000596046","","image-keyboard-response","319","209764","0.0-319.0","","img/set1/S4.jpg","74","4","random","74","random,structured_incentive,structured_load,structured_normal","2,3,3,4,2,1","true","",""
"null","","html-keyboard-response","320","210116","0.0-320.0","","<img src=""img/set1/S4.jpg"" width=""540"" height = ""360"" style=""border:16px solid orange"">","null","","","","","","","",""
"null","","html-keyboard-response","321","210318","0.0-321.0","","","null","","","","","","","",""
"457.59999999403954","","image-keyboard-response","322","210776","0.0-322.0","","img/set1/S4.jpg","74","4","random","74","random,structured_incentive,structured_load,structured_normal","2,3,3,4,2,1","true","",""
"null","","html-keyboard-response","323","211127","0.0-323.0","","<img src=""img/set1/S4.jpg"" width=""540"" height = ""360"" style=""border:16px solid orange"">","null","","","","","","","",""
"null","","html-keyboard-response","324","211329","0.0-324.0","","","null","","","","","","","",""
"514.1999999880791","","image-keyboard-response","325","211844","0.0-325.0","","img/set1/S1.jpg","68","1","random","83","random,structured_incentive,structured_load,structured_normal","2,3,3,4,2,1","false","",""
"null","","html-keyboard-response","326","212196","0.0-326.0","","<img src=""img/set1/S1.jpg"" width=""540"" height = ""360"">","null","","","","","","","",""
"null","","html-keyboard-response","327","212397","0.0-327.0","","","null","","","","","","","",""
"341.90000000596046","","image-keyboard-response","328","212740","0.0-328.0","","img/set1/S1.jpg","83","1","random","83","random,structured_incentive,structured_load,structured_normal","2,3,3,4,2,1","true","",""
"null","","html-keyboard-response","329","213092","0.0-329.0","","<img src=""img/set1/S1.jpg"" width=""540"" height = ""360"" style=""border:16px solid orange"">","null","","","","","","","",""
"null","","html-keyboard-response","330","213294","0.0-330.0","","","null","","","","","","","",""
"477.2999999821186","","image-keyboard-response","331","213772","0.0-331.0","","img/set1/S4.jpg","74","4","random","74","random,structured_incentive,structured_load,structured_normal","2,3,3,4,2,1","true","",""
"null","","html-keyboard-response","332","214124","0.0-332.0","","<img src=""img/set1/S4.jpg"" width=""540"" height = ""360"" style=""border:16px solid orange"">","null","","","","","","","",""
"null","","html-keyboard-response","333","214325","0.0-333.0","","","null","","","","","","","",""
"534.7999999821186","","image-keyboard-response","334","214860","0.0-334.0","","img/set1/S3.jpg","72","3","random","72","random,structured_incentive,structured_load,structured_normal","2,3,3,4,2,1","true","",""
"null","","html-keyboard-response","335","215211","0.0-335.0","","<img src=""img/set1/S3.jpg"" width=""540"" height = ""360"" style=""border:16px solid orange"">","null","","","","","","","",""
"null","","html-keyboard-response","336","215411","0.0-336.0","","","null","","","","","","","",""
"483.69999998807907","","image-keyboard-response","337","215896","0.0-337.0","","img/set1/S1.jpg","83","1","random","83","random,structured_incentive,structured_load,structured_normal","2,3,3,4,2,1","true","",""
"null","","html-keyboard-response","338","216247","0.0-338.0","","<img src=""img/set1/S1.jpg"" width=""540"" height = ""360"" style=""border:16px solid orange"">","null","","","","","","","",""
"null","","html-keyboard-response","339","216448","0.0-339.0","","","null","","","","","","","",""
"634.2999999821186","","image-keyboard-response","340","217083","0.0-340.0","","img/set1/S3.jpg","72","3","random","72","random,structured_incentive,structured_load,structured_normal","2,3,3,4,2,1","true","",""
"null","","html-keyboard-response","341","217434","0.0-341.0","","<img src=""img/set1/S3.jpg"" width=""540"" height = ""360"" style=""border:16px solid orange"">","null","","","","","","","",""
"null","","html-keyboard-response","342","217636","0.0-342.0","","","null","","","","","","","",""
"478.59999999403954","","image-keyboard-response","343","218115","0.0-343.0","","img/set1/S3.jpg","72","3","random","72","random,structured_incentive,structured_load,structured_normal","2,3,3,4,2,1","true","",""
"null","","html-keyboard-response","344","218466","0.0-344.0","","<img src=""img/set1/S3.jpg"" width=""540"" height = ""360"" style=""border:16px solid orange"">","null","","","","","","","",""
"null","","html-keyboard-response","345","218667","0.0-345.0","","","null","","","","","","","",""
"475","","image-keyboard-response","346","219143","0.0-346.0","","img/set1/S4.jpg","74","4","random","74","random,structured_incentive,structured_load,structured_normal","2,3,3,4,2,1","true","",""
"null","","html-keyboard-response","347","219495","0.0-347.0","","<img src=""img/set1/S4.jpg"" width=""540"" height = ""360"" style=""border:16px solid orange"">","null","","","","","","","",""
"null","","html-keyboard-response","348","219696","0.0-348.0","","","null","","","","","","","",""
"569.7000000178814","","image-keyboard-response","349","220267","0.0-349.0","","img/set1/S3.jpg","72","3","random","72","random,structured_incentive,structured_load,structured_normal","2,3,3,4,2,1","true","",""
"null","","html-keyboard-response","350","220618","0.0-350.0","","<img src=""img/set1/S3.jpg"" width=""540"" height = ""360"" style=""border:16px solid orange"">","null","","","","","","","",""
"null","","html-keyboard-response","351","220819","0.0-351.0","","","null","","","","","","","",""
"598.9000000059605","","image-keyboard-response","352","221419","0.0-352.0","","img/set1/S2.jpg","68","2","random","68","random,structured_incentive,structured_load,structured_normal","2,3,3,4,2,1","true","",""
"null","","html-keyboard-response","353","221770","0.0-353.0","","<img src=""img/set1/S2.jpg"" width=""540"" height = ""360"" style=""border:16px solid orange"">","null","","","","","","","",""
"null","","html-keyboard-response","354","221971","0.0-354.0","","","null","","","","","","","",""
"356.60000002384186","","image-keyboard-response","355","222328","0.0-355.0","","img/set1/S2.jpg","68","2","random","68","random,structured_incentive,structured_load,structured_normal","2,3,3,4,2,1","true","",""
"null","","html-keyboard-response","356","222680","0.0-356.0","","<img src=""img/set1/S2.jpg"" width=""540"" height = ""360"" style=""border:16px solid orange"">","null","","","","","","","",""
"null","","html-keyboard-response","357","222881","0.0-357.0","","","null","","","","","","","",""
"485.10000002384186","","image-keyboard-response","358","223367","0.0-358.0","","img/set1/S1.jpg","83","1","random","83","random,structured_incentive,structured_load,structured_normal","2,3,3,4,2,1","true","",""
"null","","html-keyboard-response","359","223718","0.0-359.0","","<img src=""img/set1/S1.jpg"" width=""540"" height = ""360"" style=""border:16px solid orange"">","null","","","","","","","",""
"null","","html-keyboard-response","360","223919","0.0-360.0","","","null","","","","","","","",""
"415","","image-keyboard-response","361","224335","0.0-361.0","","img/set1/S2.jpg","83","2","random","68","random,structured_incentive,structured_load,structured_normal","2,3,3,4,2,1","false","",""
"null","","html-keyboard-response","362","224687","0.0-362.0","","<img src=""img/set1/S2.jpg"" width=""540"" height = ""360"">","null","","","","","","","",""
"null","","html-keyboard-response","363","224887","0.0-363.0","","","null","","","","","","","",""
"2615.5","","html-keyboard-response","364","227503","0.0-364.0","","<p class=""center-content"">You have completed a block! </p><p class=""center-content"">Press any key on the keyboard to continue, </p><p class=""center-content"">or wait for the automatic progression to the next block after one minute.</p>","68","","","","","","","",""
"4961.300000011921","","instructions","365","232465","0.0-365.0","[{""page_index"":0,""viewing_time"":4961.0999999940395}]","","","","","","","","","",""
"12281.700000017881","","instructions","366","244747","0.0-366.0","[{""page_index"":0,""viewing_time"":5349.4000000059605},{""page_index"":1,""viewing_time"":6932}]","","","","","","","","","",""
"1605.199999988079","","image-keyboard-response","367","246352","0.0-367.0","","img/set2/S2.jpg","72","2","structured_incentive","68","random,structured_incentive,structured_load,structured_normal","2,3,3,4,2,1","false","",""
"null","","html-keyboard-response","368","246704","0.0-368.0","","<img src=""img/set2/S2.jpg"" width=""540"" height = ""360"">","null","","","","","","","",""
"null","","html-keyboard-response","369","246906","0.0-369.0","","","null","","","","","","","",""
"930.5","","image-keyboard-response","370","247837","0.0-370.0","","img/set2/S3.jpg","74","3","structured_incentive","72","random,structured_incentive,structured_load,structured_normal","2,3,3,4,2,1","false","",""
"null","","html-keyboard-response","371","248188","0.0-371.0","","<img src=""img/set2/S3.jpg"" width=""540"" height = ""360"">","null","","","","","","","",""
"null","","html-keyboard-response","372","248389","0.0-372.0","","","null","","","","","","","",""
"675.5","","image-keyboard-response","373","249065","0.0-373.0","","img/set2/S1.jpg","68","1","structured_incentive","83","random,structured_incentive,structured_load,structured_normal","2,3,3,4,2,1","false","",""
"null","","html-keyboard-response","374","249416","0.0-374.0","","<img src=""img/set2/S1.jpg"" width=""540"" height = ""360"">","null","","","","","","","",""
"null","","html-keyboard-response","375","249617","0.0-375.0","","","null","","","","","","","",""
"682.8000000119209","","image-keyboard-response","376","250301","0.0-376.0","","img/set2/S1.jpg","83","1","structured_incentive","83","random,structured_incentive,structured_load,structured_normal","2,3,3,4,2,1","true","",""
"null","","html-keyboard-response","377","250651","0.0-377.0","","<img src=""img/set2/S1.jpg"" width=""540"" height = ""360"" style=""border:16px solid orange"">","null","","","","","","","",""
"null","","html-keyboard-response","378","250853","0.0-378.0","","","null","","","","","","","",""
"315","","image-keyboard-response","379","251169","0.0-379.0","","img/set2/S1.jpg","83","1","structured_incentive","83","random,structured_incentive,structured_load,structured_normal","2,3,3,4,2,1","true","",""
"null","","html-keyboard-response","380","251520","0.0-380.0","","<img src=""img/set2/S1.jpg"" width=""540"" height = ""360"" style=""border:16px solid orange"">","null","","","","","","","",""
"null","","html-keyboard-response","381","251722","0.0-381.0","","","null","","","","","","","",""
"786.5999999940395","","image-keyboard-response","382","252509","0.0-382.0","","img/set2/S2.jpg","68","2","structured_incentive","68","random,structured_incentive,structured_load,structured_normal","2,3,3,4,2,1","true","",""
"null","","html-keyboard-response","383","252861","0.0-383.0","","<img src=""img/set2/S2.jpg"" width=""540"" height = ""360"" style=""border:16px solid orange"">","null","","","","","","","",""
"null","","html-keyboard-response","384","253063","0.0-384.0","","","null","","","","","","","",""
"1680.3999999761581","","image-keyboard-response","385","254744","0.0-385.0","","img/set2/S3.jpg","72","3","structured_incentive","72","random,structured_incentive,structured_load,structured_normal","2,3,3,4,2,1","true","",""
"null","","html-keyboard-response","386","255096","0.0-386.0","","<img src=""img/set2/S3.jpg"" width=""540"" height = ""360"" style=""border:16px solid Violet"">","null","","","","","","","",""
"null","","html-keyboard-response","387","255297","0.0-387.0","","","null","","","","","","","",""
"918.0999999940395","","image-keyboard-response","388","256216","0.0-388.0","","img/set2/S4.jpg","74","4","structured_incentive","74","random,structured_incentive,structured_load,structured_normal","2,3,3,4,2,1","true","",""
"null","","html-keyboard-response","389","256568","0.0-389.0","","<img src=""img/set2/S4.jpg"" width=""540"" height = ""360"" style=""border:16px solid orange"">","null","","","","","","","",""
"null","","html-keyboard-response","390","256769","0.0-390.0","","","null","","","","","","","",""
"950.0999999940395","","image-keyboard-response","391","257720","0.0-391.0","","img/set2/S2.jpg","83","2","structured_incentive","68","random,structured_incentive,structured_load,structured_normal","2,3,3,4,2,1","false","",""
"null","","html-keyboard-response","392","258071","0.0-392.0","","<img src=""img/set2/S2.jpg"" width=""540"" height = ""360"">","null","","","","","","","",""
"null","","html-keyboard-response","393","258273","0.0-393.0","","","null","","","","","","","",""
"718.0999999940395","","image-keyboard-response","394","258991","0.0-394.0","","img/set2/S3.jpg","72","3","structured_incentive","72","random,structured_incentive,structured_load,structured_normal","2,3,3,4,2,1","true","",""
"null","","html-keyboard-response","395","259343","0.0-395.0","","<img src=""img/set2/S3.jpg"" width=""540"" height = ""360"" style=""border:16px solid Violet"">","null","","","","","","","",""
"null","","html-keyboard-response","396","259544","0.0-396.0","","","null","","","","","","","",""
"887.2999999821186","","image-keyboard-response","397","260432","0.0-397.0","","img/set2/S1.jpg","83","1","structured_incentive","83","random,structured_incentive,structured_load,structured_normal","2,3,3,4,2,1","true","",""
"null","","html-keyboard-response","398","260784","0.0-398.0","","<img src=""img/set2/S1.jpg"" width=""540"" height = ""360"" style=""border:16px solid orange"">","null","","","","","","","",""
"null","","html-keyboard-response","399","260985","0.0-399.0","","","null","","","","","","","",""
"370.09999999403954","","image-keyboard-response","400","261356","0.0-400.0","","img/set2/S1.jpg","83","1","structured_incentive","83","random,structured_incentive,structured_load,structured_normal","2,3,3,4,2,1","true","",""
"null","","html-keyboard-response","401","261708","0.0-401.0","","<img src=""img/set2/S1.jpg"" width=""540"" height = ""360"" style=""border:16px solid orange"">","null","","","","","","","",""
"null","","html-keyboard-response","402","261910","0.0-402.0","","","null","","","","","","","",""
"445.5","","image-keyboard-response","403","262356","0.0-403.0","","img/set2/S2.jpg","68","2","structured_incentive","68","random,structured_incentive,structured_load,structured_normal","2,3,3,4,2,1","true","",""
"null","","html-keyboard-response","404","262708","0.0-404.0","","<img src=""img/set2/S2.jpg"" width=""540"" height = ""360"" style=""border:16px solid orange"">","null","","","","","","","",""
"null","","html-keyboard-response","405","262908","0.0-405.0","","","null","","","","","","","",""
"771","","image-keyboard-response","406","263680","0.0-406.0","","img/set2/S3.jpg","72","3","structured_incentive","72","random,structured_incentive,structured_load,structured_normal","2,3,3,4,2,1","true","",""
"null","","html-keyboard-response","407","264031","0.0-407.0","","<img src=""img/set2/S3.jpg"" width=""540"" height = ""360"" style=""border:16px solid Violet"">","null","","","","","","","",""
"null","","html-keyboard-response","408","264232","0.0-408.0","","","null","","","","","","","",""
"647.8000000119209","","image-keyboard-response","409","264881","0.0-409.0","","img/set2/S1.jpg","83","1","structured_incentive","83","random,structured_incentive,structured_load,structured_normal","2,3,3,4,2,1","true","",""
"null","","html-keyboard-response","410","265233","0.0-410.0","","<img src=""img/set2/S1.jpg"" width=""540"" height = ""360"" style=""border:16px solid orange"">","null","","","","","","","",""
"null","","html-keyboard-response","411","265435","0.0-411.0","","","null","","","","","","","",""
"1030.5999999940395","","image-keyboard-response","412","266467","0.0-412.0","","img/set2/S2.jpg","68","2","structured_incentive","68","random,structured_incentive,structured_load,structured_normal","2,3,3,4,2,1","true","",""
"null","","html-keyboard-response","413","266818","0.0-413.0","","<img src=""img/set2/S2.jpg"" width=""540"" height = ""360"" style=""border:16px solid orange"">","null","","","","","","","",""
"null","","html-keyboard-response","414","267019","0.0-414.0","","","null","","","","","","","",""
"375.09999999403954","","image-keyboard-response","415","267395","0.0-415.0","","img/set2/S3.jpg","72","3","structured_incentive","72","random,structured_incentive,structured_load,structured_normal","2,3,3,4,2,1","true","",""
"null","","html-keyboard-response","416","267746","0.0-416.0","","<img src=""img/set2/S3.jpg"" width=""540"" height = ""360"" style=""border:16px solid Violet"">","null","","","","","","","",""
"null","","html-keyboard-response","417","267947","0.0-417.0","","","null","","","","","","","",""
"291.40000000596046","","image-keyboard-response","418","268239","0.0-418.0","","img/set2/S4.jpg","74","4","structured_incentive","74","random,structured_incentive,structured_load,structured_normal","2,3,3,4,2,1","true","",""
"null","","html-keyboard-response","419","268590","0.0-419.0","","<img src=""img/set2/S4.jpg"" width=""540"" height = ""360"" style=""border:16px solid orange"">","null","","","","","","","",""
"null","","html-keyboard-response","420","268792","0.0-420.0","","","null","","","","","","","",""
"322.09999999403954","","image-keyboard-response","421","269115","0.0-421.0","","img/set2/S4.jpg","74","4","structured_incentive","74","random,structured_incentive,structured_load,structured_normal","2,3,3,4,2,1","true","",""
"null","","html-keyboard-response","422","269468","0.0-422.0","","<img src=""img/set2/S4.jpg"" width=""540"" height = ""360"" style=""border:16px solid orange"">","null","","","","","","","",""
"null","","html-keyboard-response","423","269669","0.0-423.0","","","null","","","","","","","",""
"541.4000000059605","","image-keyboard-response","424","270211","0.0-424.0","","img/set2/S1.jpg","83","1","structured_incentive","83","random,structured_incentive,structured_load,structured_normal","2,3,3,4,2,1","true","",""
"null","","html-keyboard-response","425","270563","0.0-425.0","","<img src=""img/set2/S1.jpg"" width=""540"" height = ""360"" style=""border:16px solid orange"">","null","","","","","","","",""
"null","","html-keyboard-response","426","270765","0.0-426.0","","","null","","","","","","","",""
"301.40000000596046","","image-keyboard-response","427","271067","0.0-427.0","","img/set2/S1.jpg","83","1","structured_incentive","83","random,structured_incentive,structured_load,structured_normal","2,3,3,4,2,1","true","",""
"null","","html-keyboard-response","428","271419","0.0-428.0","","<img src=""img/set2/S1.jpg"" width=""540"" height = ""360"" style=""border:16px solid orange"">","null","","","","","","","",""
"null","","html-keyboard-response","429","271620","0.0-429.0","","","null","","","","","","","",""
"378.19999998807907","","image-keyboard-response","430","271999","0.0-430.0","","img/set2/S1.jpg","83","1","structured_incentive","83","random,structured_incentive,structured_load,structured_normal","2,3,3,4,2,1","true","",""
"null","","html-keyboard-response","431","272350","0.0-431.0","","<img src=""img/set2/S1.jpg"" width=""540"" height = ""360"" style=""border:16px solid orange"">","null","","","","","","","",""
"null","","html-keyboard-response","432","272551","0.0-432.0","","","null","","","","","","","",""
"543.0999999940395","","image-keyboard-response","433","273095","0.0-433.0","","img/set2/S2.jpg","68","2","structured_incentive","68","random,structured_incentive,structured_load,structured_normal","2,3,3,4,2,1","true","",""
"null","","html-keyboard-response","434","273446","0.0-434.0","","<img src=""img/set2/S2.jpg"" width=""540"" height = ""360"" style=""border:16px solid orange"">","null","","","","","","","",""
"null","","html-keyboard-response","435","273647","0.0-435.0","","","null","","","","","","","",""
"294.90000000596046","","image-keyboard-response","436","273942","0.0-436.0","","img/set2/S3.jpg","72","3","structured_incentive","72","random,structured_incentive,structured_load,structured_normal","2,3,3,4,2,1","true","",""
"null","","html-keyboard-response","437","274294","0.0-437.0","","<img src=""img/set2/S3.jpg"" width=""540"" height = ""360"" style=""border:16px solid Violet"">","null","","","","","","","",""
"null","","html-keyboard-response","438","274496","0.0-438.0","","","null","","","","","","","",""
"470.80000001192093","","image-keyboard-response","439","274967","0.0-439.0","","img/set2/S1.jpg","83","1","structured_incentive","83","random,structured_incentive,structured_load,structured_normal","2,3,3,4,2,1","true","",""
"null","","html-keyboard-response","440","275319","0.0-440.0","","<img src=""img/set2/S1.jpg"" width=""540"" height = ""360"" style=""border:16px solid orange"">","null","","","","","","","",""
"null","","html-keyboard-response","441","275520","0.0-441.0","","","null","","","","","","","",""
"554","","image-keyboard-response","442","276075","0.0-442.0","","img/set2/S2.jpg","68","2","structured_incentive","68","random,structured_incentive,structured_load,structured_normal","2,3,3,4,2,1","true","",""
"null","","html-keyboard-response","443","276427","0.0-443.0","","<img src=""img/set2/S2.jpg"" width=""540"" height = ""360"" style=""border:16px solid orange"">","null","","","","","","","",""
"null","","html-keyboard-response","444","276628","0.0-444.0","","","null","","","","","","","",""
"389.90000000596046","","image-keyboard-response","445","277019","0.0-445.0","","img/set2/S3.jpg","72","3","structured_incentive","72","random,structured_incentive,structured_load,structured_normal","2,3,3,4,2,1","true","",""
"null","","html-keyboard-response","446","277370","0.0-446.0","","<img src=""img/set2/S3.jpg"" width=""540"" height = ""360"" style=""border:16px solid Violet"">","null","","","","","","","",""
"null","","html-keyboard-response","447","277570","0.0-447.0","","","null","","","","","","","",""
"479.80000001192093","","image-keyboard-response","448","278051","0.0-448.0","","img/set2/S2.jpg","83","2","structured_incentive","68","random,structured_incentive,structured_load,structured_normal","2,3,3,4,2,1","false","",""
"null","","html-keyboard-response","449","278402","0.0-449.0","","<img src=""img/set2/S2.jpg"" width=""540"" height = ""360"">","null","","","","","","","",""
"null","","html-keyboard-response","450","278603","0.0-450.0","","","null","","","","","","","",""
"598.1999999880791","","image-keyboard-response","451","279202","0.0-451.0","","img/set2/S3.jpg","72","3","structured_incentive","72","random,structured_incentive,structured_load,structured_normal","2,3,3,4,2,1","true","",""
"null","","html-keyboard-response","452","279554","0.0-452.0","","<img src=""img/set2/S3.jpg"" width=""540"" height = ""360"" style=""border:16px solid Violet"">","null","","","","","","","",""
"null","","html-keyboard-response","453","279755","0.0-453.0","","","null","","","","","","","",""
"486.2000000178814","","image-keyboard-response","454","280242","0.0-454.0","","img/set2/S2.jpg","68","2","structured_incentive","68","random,structured_incentive,structured_load,structured_normal","2,3,3,4,2,1","true","",""
"null","","html-keyboard-response","455","280593","0.0-455.0","","<img src=""img/set2/S2.jpg"" width=""540"" height = ""360"" style=""border:16px solid orange"">","null","","","","","","","",""
"null","","html-keyboard-response","456","280795","0.0-456.0","","","null","","","","","","","",""
"466.30000001192093","","image-keyboard-response","457","281262","0.0-457.0","","img/set2/S3.jpg","72","3","structured_incentive","72","random,structured_incentive,structured_load,structured_normal","2,3,3,4,2,1","true","",""
"null","","html-keyboard-response","458","281614","0.0-458.0","","<img src=""img/set2/S3.jpg"" width=""540"" height = ""360"" style=""border:16px solid Violet"">","null","","","","","","","",""
"null","","html-keyboard-response","459","281815","0.0-459.0","","","null","","","","","","","",""
"446.30000001192093","","image-keyboard-response","460","282262","0.0-460.0","","img/set2/S2.jpg","68","2","structured_incentive","68","random,structured_incentive,structured_load,structured_normal","2,3,3,4,2,1","true","",""
"null","","html-keyboard-response","461","282613","0.0-461.0","","<img src=""img/set2/S2.jpg"" width=""540"" height = ""360"" style=""border:16px solid orange"">","null","","","","","","","",""
"null","","html-keyboard-response","462","282814","0.0-462.0","","","null","","","","","","","",""
"403.2999999821186","","image-keyboard-response","463","283218","0.0-463.0","","img/set2/S3.jpg","72","3","structured_incentive","72","random,structured_incentive,structured_load,structured_normal","2,3,3,4,2,1","true","",""
"null","","html-keyboard-response","464","283569","0.0-464.0","","<img src=""img/set2/S3.jpg"" width=""540"" height = ""360"" style=""border:16px solid Violet"">","null","","","","","","","",""
"null","","html-keyboard-response","465","283769","0.0-465.0","","","null","","","","","","","",""
"504.10000002384186","","image-keyboard-response","466","284274","0.0-466.0","","img/set2/S1.jpg","83","1","structured_incentive","83","random,structured_incentive,structured_load,structured_normal","2,3,3,4,2,1","true","",""
"null","","html-keyboard-response","467","284625","0.0-467.0","","<img src=""img/set2/S1.jpg"" width=""540"" height = ""360"" style=""border:16px solid orange"">","null","","","","","","","",""
"null","","html-keyboard-response","468","284826","0.0-468.0","","","null","","","","","","","",""
"583.3000000119209","","image-keyboard-response","469","285410","0.0-469.0","","img/set2/S4.jpg","74","4","structured_incentive","74","random,structured_incentive,structured_load,structured_normal","2,3,3,4,2,1","true","",""
"null","","html-keyboard-response","470","285761","0.0-470.0","","<img src=""img/set2/S4.jpg"" width=""540"" height = ""360"" style=""border:16px solid orange"">","null","","","","","","","",""
"null","","html-keyboard-response","471","285963","0.0-471.0","","","null","","","","","","","",""
"610.3999999761581","","image-keyboard-response","472","286574","0.0-472.0","","img/set2/S2.jpg","68","2","structured_incentive","68","random,structured_incentive,structured_load,structured_normal","2,3,3,4,2,1","true","",""
"null","","html-keyboard-response","473","286925","0.0-473.0","","<img src=""img/set2/S2.jpg"" width=""540"" height = ""360"" style=""border:16px solid orange"">","null","","","","","","","",""
"null","","html-keyboard-response","474","287127","0.0-474.0","","","null","","","","","","","",""
"519.7000000178814","","image-keyboard-response","475","287647","0.0-475.0","","img/set2/S3.jpg","72","3","structured_incentive","72","random,structured_incentive,structured_load,structured_normal","2,3,3,4,2,1","true","",""
"null","","html-keyboard-response","476","287998","0.0-476.0","","<img src=""img/set2/S3.jpg"" width=""540"" height = ""360"" style=""border:16px solid Violet"">","null","","","","","","","",""
"null","","html-keyboard-response","477","288199","0.0-477.0","","","null","","","","","","","",""
"562.4000000059605","","image-keyboard-response","478","288762","0.0-478.0","","img/set2/S4.jpg","74","4","structured_incentive","74","random,structured_incentive,structured_load,structured_normal","2,3,3,4,2,1","true","",""
"null","","html-keyboard-response","479","289113","0.0-479.0","","<img src=""img/set2/S4.jpg"" width=""540"" height = ""360"" style=""border:16px solid orange"">","null","","","","","","","",""
"null","","html-keyboard-response","480","289315","0.0-480.0","","","null","","","","","","","",""
"326.5","","image-keyboard-response","481","289642","0.0-481.0","","img/set2/S4.jpg","74","4","structured_incentive","74","random,structured_incentive,structured_load,structured_normal","2,3,3,4,2,1","true","",""
"null","","html-keyboard-response","482","289994","0.0-482.0","","<img src=""img/set2/S4.jpg"" width=""540"" height = ""360"" style=""border:16px solid orange"">","null","","","","","","","",""
"null","","html-keyboard-response","483","290196","0.0-483.0","","","null","","","","","","","",""
"301.2999999821186","","image-keyboard-response","484","290498","0.0-484.0","","img/set2/S4.jpg","74","4","structured_incentive","74","random,structured_incentive,structured_load,structured_normal","2,3,3,4,2,1","true","",""
"null","","html-keyboard-response","485","290849","0.0-485.0","","<img src=""img/set2/S4.jpg"" width=""540"" height = ""360"" style=""border:16px solid orange"">","null","","","","","","","",""
"null","","html-keyboard-response","486","291050","0.0-486.0","","","null","","","","","","","",""
"287.2999999821186","","image-keyboard-response","487","291338","0.0-487.0","","img/set2/S4.jpg","74","4","structured_incentive","74","random,structured_incentive,structured_load,structured_normal","2,3,3,4,2,1","true","",""
"null","","html-keyboard-response","488","291690","0.0-488.0","","<img src=""img/set2/S4.jpg"" width=""540"" height = ""360"" style=""border:16px solid orange"">","null","","","","","","","",""
"null","","html-keyboard-response","489","291891","0.0-489.0","","","null","","","","","","","",""
"648.5","","image-keyboard-response","490","292540","0.0-490.0","","img/set2/S1.jpg","83","1","structured_incentive","83","random,structured_incentive,structured_load,structured_normal","2,3,3,4,2,1","true","",""
"null","","html-keyboard-response","491","292892","0.0-491.0","","<img src=""img/set2/S1.jpg"" width=""540"" height = ""360"" style=""border:16px solid orange"">","null","","","","","","","",""
"null","","html-keyboard-response","492","293093","0.0-492.0","","","null","","","","","","","",""
"330.69999998807907","","image-keyboard-response","493","293425","0.0-493.0","","img/set2/S1.jpg","83","1","structured_incentive","83","random,structured_incentive,structured_load,structured_normal","2,3,3,4,2,1","true","",""
"null","","html-keyboard-response","494","293776","0.0-494.0","","<img src=""img/set2/S1.jpg"" width=""540"" height = ""360"" style=""border:16px solid orange"">","null","","","","","","","",""
"null","","html-keyboard-response","495","293977","0.0-495.0","","","null","","","","","","","",""
"495.39999997615814","","image-keyboard-response","496","294473","0.0-496.0","","img/set2/S2.jpg","68","2","structured_incentive","68","random,structured_incentive,structured_load,structured_normal","2,3,3,4,2,1","true","",""
"null","","html-keyboard-response","497","294825","0.0-497.0","","<img src=""img/set2/S2.jpg"" width=""540"" height = ""360"" style=""border:16px solid orange"">","null","","","","","","","",""
"null","","html-keyboard-response","498","295026","0.0-498.0","","","null","","","","","","","",""
"478.09999999403954","","image-keyboard-response","499","295505","0.0-499.0","","img/set2/S3.jpg","72","3","structured_incentive","72","random,structured_incentive,structured_load,structured_normal","2,3,3,4,2,1","true","",""
"null","","html-keyboard-response","500","295856","0.0-500.0","","<img src=""img/set2/S3.jpg"" width=""540"" height = ""360"" style=""border:16px solid Violet"">","null","","","","","","","",""
"null","","html-keyboard-response","501","296058","0.0-501.0","","","null","","","","","","","",""
"502.5","","image-keyboard-response","502","296561","0.0-502.0","","img/set2/S4.jpg","74","4","structured_incentive","74","random,structured_incentive,structured_load,structured_normal","2,3,3,4,2,1","true","",""
"null","","html-keyboard-response","503","296912","0.0-503.0","","<img src=""img/set2/S4.jpg"" width=""540"" height = ""360"" style=""border:16px solid orange"">","null","","","","","","","",""
"null","","html-keyboard-response","504","297113","0.0-504.0","","","null","","","","","","","",""
"542.7999999821186","","image-keyboard-response","505","297657","0.0-505.0","","img/set2/S2.jpg","68","2","structured_incentive","68","random,structured_incentive,structured_load,structured_normal","2,3,3,4,2,1","true","",""
"null","","html-keyboard-response","506","298008","0.0-506.0","","<img src=""img/set2/S2.jpg"" width=""540"" height = ""360"" style=""border:16px solid orange"">","null","","","","","","","",""
"null","","html-keyboard-response","507","298210","0.0-507.0","","","null","","","","","","","",""
"502.09999999403954","","image-keyboard-response","508","298713","0.0-508.0","","img/set2/S3.jpg","72","3","structured_incentive","72","random,structured_incentive,structured_load,structured_normal","2,3,3,4,2,1","true","",""
"null","","html-keyboard-response","509","299064","0.0-509.0","","<img src=""img/set2/S3.jpg"" width=""540"" height = ""360"" style=""border:16px solid Violet"">","null","","","","","","","",""
"null","","html-keyboard-response","510","299265","0.0-510.0","","","null","","","","","","","",""
"463.19999998807907","","image-keyboard-response","511","299729","0.0-511.0","","img/set2/S1.jpg","83","1","structured_incentive","83","random,structured_incentive,structured_load,structured_normal","2,3,3,4,2,1","true","",""
"null","","html-keyboard-response","512","300080","0.0-512.0","","<img src=""img/set2/S1.jpg"" width=""540"" height = ""360"" style=""border:16px solid orange"">","null","","","","","","","",""
"null","","html-keyboard-response","513","300281","0.0-513.0","","","null","","","","","","","",""
"518.7999999821186","","image-keyboard-response","514","300801","0.0-514.0","","img/set2/S4.jpg","74","4","structured_incentive","74","random,structured_incentive,structured_load,structured_normal","2,3,3,4,2,1","true","",""
"null","","html-keyboard-response","515","301152","0.0-515.0","","<img src=""img/set2/S4.jpg"" width=""540"" height = ""360"" style=""border:16px solid orange"">","null","","","","","","","",""
"null","","html-keyboard-response","516","301354","0.0-516.0","","","null","","","","","","","",""
"366.40000000596046","","image-keyboard-response","517","301721","0.0-517.0","","img/set2/S4.jpg","74","4","structured_incentive","74","random,structured_incentive,structured_load,structured_normal","2,3,3,4,2,1","true","",""
"null","","html-keyboard-response","518","302072","0.0-518.0","","<img src=""img/set2/S4.jpg"" width=""540"" height = ""360"" style=""border:16px solid orange"">","null","","","","","","","",""
"null","","html-keyboard-response","519","302273","0.0-519.0","","","null","","","","","","","",""
"290.7999999821186","","image-keyboard-response","520","302565","0.0-520.0","","img/set2/S4.jpg","74","4","structured_incentive","74","random,structured_incentive,structured_load,structured_normal","2,3,3,4,2,1","true","",""
"null","","html-keyboard-response","521","302916","0.0-521.0","","<img src=""img/set2/S4.jpg"" width=""540"" height = ""360"" style=""border:16px solid orange"">","null","","","","","","","",""
"null","","html-keyboard-response","522","303118","0.0-522.0","","","null","","","","","","","",""
"566.3999999761581","","image-keyboard-response","523","303685","0.0-523.0","","img/set2/S2.jpg","68","2","structured_incentive","68","random,structured_incentive,structured_load,structured_normal","2,3,3,4,2,1","true","",""
"null","","html-keyboard-response","524","304037","0.0-524.0","","<img src=""img/set2/S2.jpg"" width=""540"" height = ""360"" style=""border:16px solid orange"">","null","","","","","","","",""
"null","","html-keyboard-response","525","304238","0.0-525.0","","","null","","","","","","","",""
"420.39999997615814","","image-keyboard-response","526","304659","0.0-526.0","","img/set2/S3.jpg","72","3","structured_incentive","72","random,structured_incentive,structured_load,structured_normal","2,3,3,4,2,1","true","",""
"null","","html-keyboard-response","527","305011","0.0-527.0","","<img src=""img/set2/S3.jpg"" width=""540"" height = ""360"" style=""border:16px solid Violet"">","null","","","","","","","",""
"null","","html-keyboard-response","528","305211","0.0-528.0","","","null","","","","","","","",""
"599.9000000059605","","image-keyboard-response","529","305812","0.0-529.0","","img/set2/S4.jpg","74","4","structured_incentive","74","random,structured_incentive,structured_load,structured_normal","2,3,3,4,2,1","true","",""
"null","","html-keyboard-response","530","306163","0.0-530.0","","<img src=""img/set2/S4.jpg"" width=""540"" height = ""360"" style=""border:16px solid orange"">","null","","","","","","","",""
"null","","html-keyboard-response","531","306364","0.0-531.0","","","null","","","","","","","",""
"507.5","","image-keyboard-response","532","306872","0.0-532.0","","img/set2/S1.jpg","68","1","structured_incentive","83","random,structured_incentive,structured_load,structured_normal","2,3,3,4,2,1","false","",""
"null","","html-keyboard-response","533","307223","0.0-533.0","","<img src=""img/set2/S1.jpg"" width=""540"" height = ""360"">","null","","","","","","","",""
"null","","html-keyboard-response","534","307425","0.0-534.0","","","null","","","","","","","",""
"358.19999998807907","","image-keyboard-response","535","307784","0.0-535.0","","img/set2/S1.jpg","83","1","structured_incentive","83","random,structured_incentive,structured_load,structured_normal","2,3,3,4,2,1","true","",""
"null","","html-keyboard-response","536","308135","0.0-536.0","","<img src=""img/set2/S1.jpg"" width=""540"" height = ""360"" style=""border:16px solid orange"">","null","","","","","","","",""
"null","","html-keyboard-response","537","308336","0.0-537.0","","","null","","","","","","","",""
"511.09999999403954","","image-keyboard-response","538","308848","0.0-538.0","","img/set2/S2.jpg","68","2","structured_incentive","68","random,structured_incentive,structured_load,structured_normal","2,3,3,4,2,1","true","",""
"null","","html-keyboard-response","539","309200","0.0-539.0","","<img src=""img/set2/S2.jpg"" width=""540"" height = ""360"" style=""border:16px solid orange"">","null","","","","","","","",""
"null","","html-keyboard-response","540","309402","0.0-540.0","","","null","","","","","","","",""
"533.4000000059605","","image-keyboard-response","541","309936","0.0-541.0","","img/set2/S3.jpg","72","3","structured_incentive","72","random,structured_incentive,structured_load,structured_normal","2,3,3,4,2,1","true","",""
"null","","html-keyboard-response","542","310288","0.0-542.0","","<img src=""img/set2/S3.jpg"" width=""540"" height = ""360"" style=""border:16px solid Violet"">","null","","","","","","","",""
"null","","html-keyboard-response","543","310489","0.0-543.0","","","null","","","","","","","",""
"493.69999998807907","","image-keyboard-response","544","310984","0.0-544.0","","img/set2/S4.jpg","74","4","structured_incentive","74","random,structured_incentive,structured_load,structured_normal","2,3,3,4,2,1","true","",""
"null","","html-keyboard-response","545","311336","0.0-545.0","","<img src=""img/set2/S4.jpg"" width=""540"" height = ""360"" style=""border:16px solid orange"">","null","","","","","","","",""
"null","","html-keyboard-response","546","311538","0.0-546.0","","","null","","","","","","","",""
"608.9000000059605","","image-keyboard-response","547","312147","0.0-547.0","","img/set2/S2.jpg","68","2","structured_incentive","68","random,structured_incentive,structured_load,structured_normal","2,3,3,4,2,1","true","",""
"null","","html-keyboard-response","548","312499","0.0-548.0","","<img src=""img/set2/S2.jpg"" width=""540"" height = ""360"" style=""border:16px solid orange"">","null","","","","","","","",""
"null","","html-keyboard-response","549","312699","0.0-549.0","","","null","","","","","","","",""
"584","","image-keyboard-response","550","313284","0.0-550.0","","img/set2/S3.jpg","72","3","structured_incentive","72","random,structured_incentive,structured_load,structured_normal","2,3,3,4,2,1","true","",""
"null","","html-keyboard-response","551","313635","0.0-551.0","","<img src=""img/set2/S3.jpg"" width=""540"" height = ""360"" style=""border:16px solid Violet"">","null","","","","","","","",""
"null","","html-keyboard-response","552","313836","0.0-552.0","","","null","","","","","","","",""
"511.19999998807907","","image-keyboard-response","553","314348","0.0-553.0","","img/set2/S4.jpg","74","4","structured_incentive","74","random,structured_incentive,structured_load,structured_normal","2,3,3,4,2,1","true","",""
"null","","html-keyboard-response","554","314699","0.0-554.0","","<img src=""img/set2/S4.jpg"" width=""540"" height = ""360"" style=""border:16px solid orange"">","null","","","","","","","",""
"null","","html-keyboard-response","555","314900","0.0-555.0","","","null","","","","","","","",""
"315.40000000596046","","image-keyboard-response","556","315216","0.0-556.0","","img/set2/S4.jpg","74","4","structured_incentive","74","random,structured_incentive,structured_load,structured_normal","2,3,3,4,2,1","true","",""
"null","","html-keyboard-response","557","315567","0.0-557.0","","<img src=""img/set2/S4.jpg"" width=""540"" height = ""360"" style=""border:16px solid orange"">","null","","","","","","","",""
"null","","html-keyboard-response","558","315768","0.0-558.0","","","null","","","","","","","",""
"298.40000000596046","","image-keyboard-response","559","316067","0.0-559.0","","img/set2/S4.jpg","74","4","structured_incentive","74","random,structured_incentive,structured_load,structured_normal","2,3,3,4,2,1","true","",""
"null","","html-keyboard-response","560","316418","0.0-560.0","","<img src=""img/set2/S4.jpg"" width=""540"" height = ""360"" style=""border:16px solid orange"">","null","","","","","","","",""
"null","","html-keyboard-response","561","316619","0.0-561.0","","","null","","","","","","","",""
"586.7000000178814","","image-keyboard-response","562","317206","0.0-562.0","","img/set2/S2.jpg","68","2","structured_incentive","68","random,structured_incentive,structured_load,structured_normal","2,3,3,4,2,1","true","",""
"null","","html-keyboard-response","563","317557","0.0-563.0","","<img src=""img/set2/S2.jpg"" width=""540"" height = ""360"" style=""border:16px solid orange"">","null","","","","","","","",""
"null","","html-keyboard-response","564","317758","0.0-564.0","","","null","","","","","","","",""
"551.5","","image-keyboard-response","565","318310","0.0-565.0","","img/set2/S3.jpg","72","3","structured_incentive","72","random,structured_incentive,structured_load,structured_normal","2,3,3,4,2,1","true","",""
"null","","html-keyboard-response","566","318662","0.0-566.0","","<img src=""img/set2/S3.jpg"" width=""540"" height = ""360"" style=""border:16px solid Violet"">","null","","","","","","","",""
"null","","html-keyboard-response","567","318863","0.0-567.0","","","null","","","","","","","",""
"451.5","","image-keyboard-response","568","319315","0.0-568.0","","img/set2/S4.jpg","74","4","structured_incentive","74","random,structured_incentive,structured_load,structured_normal","2,3,3,4,2,1","true","",""
"null","","html-keyboard-response","569","319666","0.0-569.0","","<img src=""img/set2/S4.jpg"" width=""540"" height = ""360"" style=""border:16px solid orange"">","null","","","","","","","",""
"null","","html-keyboard-response","570","319867","0.0-570.0","","","null","","","","","","","",""
"478.7000000178814","","image-keyboard-response","571","320346","0.0-571.0","","img/set2/S1.jpg","83","1","structured_incentive","83","random,structured_incentive,structured_load,structured_normal","2,3,3,4,2,1","true","",""
"null","","html-keyboard-response","572","320698","0.0-572.0","","<img src=""img/set2/S1.jpg"" width=""540"" height = ""360"" style=""border:16px solid orange"">","null","","","","","","","",""
"null","","html-keyboard-response","573","320899","0.0-573.0","","","null","","","","","","","",""
"487.30000001192093","","image-keyboard-response","574","321387","0.0-574.0","","img/set2/S2.jpg","68","2","structured_incentive","68","random,structured_incentive,structured_load,structured_normal","2,3,3,4,2,1","true","",""
"null","","html-keyboard-response","575","321738","0.0-575.0","","<img src=""img/set2/S2.jpg"" width=""540"" height = ""360"" style=""border:16px solid orange"">","null","","","","","","","",""
"null","","html-keyboard-response","576","321939","0.0-576.0","","","null","","","","","","","",""
"567.5","","image-keyboard-response","577","322507","0.0-577.0","","img/set2/S3.jpg","72","3","structured_incentive","72","random,structured_incentive,structured_load,structured_normal","2,3,3,4,2,1","true","",""
"null","","html-keyboard-response","578","322858","0.0-578.0","","<img src=""img/set2/S3.jpg"" width=""540"" height = ""360"" style=""border:16px solid Violet"">","null","","","","","","","",""
"null","","html-keyboard-response","579","323060","0.0-579.0","","","null","","","","","","","",""
"505.90000000596046","","image-keyboard-response","580","323566","0.0-580.0","","img/set2/S4.jpg","74","4","structured_incentive","74","random,structured_incentive,structured_load,structured_normal","2,3,3,4,2,1","true","",""
"null","","html-keyboard-response","581","323919","0.0-581.0","","<img src=""img/set2/S4.jpg"" width=""540"" height = ""360"" style=""border:16px solid orange"">","null","","","","","","","",""
"null","","html-keyboard-response","582","324120","0.0-582.0","","","null","","","","","","","",""
"738.1999999880791","","image-keyboard-response","583","324859","0.0-583.0","","img/set2/S2.jpg","68","2","structured_incentive","68","random,structured_incentive,structured_load,structured_normal","2,3,3,4,2,1","true","",""
"null","","html-keyboard-response","584","325210","0.0-584.0","","<img src=""img/set2/S2.jpg"" width=""540"" height = ""360"" style=""border:16px solid orange"">","null","","","","","","","",""
"null","","html-keyboard-response","585","325412","0.0-585.0","","","null","","","","","","","",""
"558.5999999940395","","image-keyboard-response","586","325971","0.0-586.0","","img/set2/S3.jpg","72","3","structured_incentive","72","random,structured_incentive,structured_load,structured_normal","2,3,3,4,2,1","true","",""
"null","","html-keyboard-response","587","326322","0.0-587.0","","<img src=""img/set2/S3.jpg"" width=""540"" height = ""360"" style=""border:16px solid Violet"">","null","","","","","","","",""
"null","","html-keyboard-response","588","326524","0.0-588.0","","","null","","","","","","","",""
"598.4000000059605","","image-keyboard-response","589","327123","0.0-589.0","","img/set2/S1.jpg","83","1","structured_incentive","83","random,structured_incentive,structured_load,structured_normal","2,3,3,4,2,1","true","",""
