"rt","url","trial_type","trial_index","time_elapsed","internal_node_id","view_history","stimulus","key_press","state","test_part","correct_response","order_block","order_chunk","correct","responses","question_order","bonus"
"30429.69999999553","consent.html","external-html","0","30566","0.0-0.0","","","","","","","","","","","",""
"71651.79999999702","","instructions","1","102219","0.0-1.0","[{""page_index"":0,""viewing_time"":5473.79999999702},{""page_index"":1,""viewing_time"":5049},{""page_index"":2,""viewing_time"":7811.10000000149},{""page_index"":3,""viewing_time"":18189},{""page_index"":4,""viewing_time"":7461},{""page_index"":5,""viewing_time"":20295.70000000298},{""page_index"":6,""viewing_time"":7371.69999999553}]","","","","","","","","","","",""
"11796","","instructions","2","114015","0.0-2.0","[{""page_index"":0,""viewing_time"":11795.89999999851}]","","","","","","","","","","",""
"4316.89999999851","","instructions","3","118333","0.0-3.0","[{""page_index"":0,""viewing_time"":4316.70000000298}]","","","","","","","","","","",""
"1652","","image-keyboard-response","4","119986","0.0-4.0","","img/set1/S1.jpg","83","1","random","83","random,structured_normal,structured_incentive,structured_load","3,4,2,1,2,3","true","","",""
"null","","html-keyboard-response","5","120352","0.0-5.0","","<img src=""img/set1/S1.jpg"" width=""540"" height = ""360"" style=""border:16px solid orange"">","null","","","","","","","","",""
"null","","html-keyboard-response","6","120558","0.0-6.0","","","null","","","","","","","","",""
"763.5","","image-keyboard-response","7","121322","0.0-7.0","","img/set1/S1.jpg","83","1","random","83","random,structured_normal,structured_incentive,structured_load","3,4,2,1,2,3","true","","",""
"null","","html-keyboard-response","8","121678","0.0-8.0","","<img src=""img/set1/S1.jpg"" width=""540"" height = ""360"" style=""border:16px solid orange"">","null","","","","","","","","",""
"null","","html-keyboard-response","9","121883","0.0-9.0","","","null","","","","","","","","",""
"419.1000000014901","","image-keyboard-response","10","122302","0.0-10.0","","img/set1/S1.jpg","83","1","random","83","random,structured_normal,structured_incentive,structured_load","3,4,2,1,2,3","true","","",""
"null","","html-keyboard-response","11","122664","0.0-11.0","","<img src=""img/set1/S1.jpg"" width=""540"" height = ""360"" style=""border:16px solid orange"">","null","","","","","","","","",""
"null","","html-keyboard-response","12","122881","0.0-12.0","","","null","","","","","","","","",""
"903.5999999940395","","image-keyboard-response","13","123785","0.0-13.0","","img/set1/S3.jpg","72","3","random","72","random,structured_normal,structured_incentive,structured_load","3,4,2,1,2,3","true","","",""
"null","","html-keyboard-response","14","124147","0.0-14.0","","<img src=""img/set1/S3.jpg"" width=""540"" height = ""360"" style=""border:16px solid orange"">","null","","","","","","","","",""
"null","","html-keyboard-response","15","124361","0.0-15.0","","","null","","","","","","","","",""
"863.5999999940395","","image-keyboard-response","16","125225","0.0-16.0","","img/set1/S1.jpg","83","1","random","83","random,structured_normal,structured_incentive,structured_load","3,4,2,1,2,3","true","","",""
"null","","html-keyboard-response","17","125582","0.0-17.0","","<img src=""img/set1/S1.jpg"" width=""540"" height = ""360"" style=""border:16px solid orange"">","null","","","","","","","","",""
"null","","html-keyboard-response","18","125789","0.0-18.0","","","null","","","","","","","","",""
"1060.7000000029802","","image-keyboard-response","19","126850","0.0-19.0","","img/set1/S2.jpg","68","2","random","68","random,structured_normal,structured_incentive,structured_load","3,4,2,1,2,3","true","","",""
"null","","html-keyboard-response","20","127205","0.0-20.0","","<img src=""img/set1/S2.jpg"" width=""540"" height = ""360"" style=""border:16px solid orange"">","null","","","","","","","","",""
"null","","html-keyboard-response","21","127409","0.0-21.0","","","null","","","","","","","","",""
"897.6999999955297","","image-keyboard-response","22","128307","0.0-22.0","","img/set1/S2.jpg","68","2","random","68","random,structured_normal,structured_incentive,structured_load","3,4,2,1,2,3","true","","",""
"null","","html-keyboard-response","23","128659","0.0-23.0","","<img src=""img/set1/S2.jpg"" width=""540"" height = ""360"" style=""border:16px solid orange"">","null","","","","","","","","",""
"null","","html-keyboard-response","24","128861","0.0-24.0","","","null","","","","","","","","",""
"534","","image-keyboard-response","25","129395","0.0-25.0","","img/set1/S3.jpg","83","3","random","72","random,structured_normal,structured_incentive,structured_load","3,4,2,1,2,3","false","","",""
"null","","html-keyboard-response","26","129750","0.0-26.0","","<img src=""img/set1/S3.jpg"" width=""540"" height = ""360"">","null","","","","","","","","",""
"null","","html-keyboard-response","27","129953","0.0-27.0","","","null","","","","","","","","",""
"920.1000000014901","","image-keyboard-response","28","130874","0.0-28.0","","img/set1/S1.jpg","83","1","random","83","random,structured_normal,structured_incentive,structured_load","3,4,2,1,2,3","true","","",""
"null","","html-keyboard-response","29","131232","0.0-29.0","","<img src=""img/set1/S1.jpg"" width=""540"" height = ""360"" style=""border:16px solid orange"">","null","","","","","","","","",""
"null","","html-keyboard-response","30","131434","0.0-30.0","","","null","","","","","","","","",""
"468","","image-keyboard-response","31","131903","0.0-31.0","","img/set1/S1.jpg","83","1","random","83","random,structured_normal,structured_incentive,structured_load","3,4,2,1,2,3","true","","",""
"null","","html-keyboard-response","32","132261","0.0-32.0","","<img src=""img/set1/S1.jpg"" width=""540"" height = ""360"" style=""border:16px solid orange"">","null","","","","","","","","",""
"null","","html-keyboard-response","33","132466","0.0-33.0","","","null","","","","","","","","",""
"958.6000000014901","","image-keyboard-response","34","133425","0.0-34.0","","img/set1/S3.jpg","68","3","random","72","random,structured_normal,structured_incentive,structured_load","3,4,2,1,2,3","false","","",""
"null","","html-keyboard-response","35","133780","0.0-35.0","","<img src=""img/set1/S3.jpg"" width=""540"" height = ""360"">","null","","","","","","","","",""
"null","","html-keyboard-response","36","133996","0.0-36.0","","","null","","","","","","","","",""
"703.6000000014901","","image-keyboard-response","37","134701","0.0-37.0","","img/set1/S4.jpg","72","4","random","74","random,structured_normal,structured_incentive,structured_load","3,4,2,1,2,3","false","","",""
"null","","html-keyboard-response","38","135054","0.0-38.0","","<img src=""img/set1/S4.jpg"" width=""540"" height = ""360"">","null","","","","","","","","",""
"null","","html-keyboard-response","39","135259","0.0-39.0","","","null","","","","","","","","",""
"718.7000000029802","","image-keyboard-response","40","135979","0.0-40.0","","img/set1/S2.jpg","72","2","random","68","random,structured_normal,structured_incentive,structured_load","3,4,2,1,2,3","false","","",""
"null","","html-keyboard-response","41","136334","0.0-41.0","","<img src=""img/set1/S2.jpg"" width=""540"" height = ""360"">","null","","","","","","","","",""
"null","","html-keyboard-response","42","136540","0.0-42.0","","","null","","","","","","","","",""
"1014.9000000059605","","image-keyboard-response","43","137555","0.0-43.0","","img/set1/S4.jpg","68","4","random","74","random,structured_normal,structured_incentive,structured_load","3,4,2,1,2,3","false","","",""
"null","","html-keyboard-response","44","137910","0.0-44.0","","<img src=""img/set1/S4.jpg"" width=""540"" height = ""360"">","null","","","","","","","","",""
"null","","html-keyboard-response","45","138113","0.0-45.0","","","null","","","","","","","","",""
"1285.1999999955297","","image-keyboard-response","46","139399","0.0-46.0","","img/set1/S3.jpg","74","3","random","72","random,structured_normal,structured_incentive,structured_load","3,4,2,1,2,3","false","","",""
"null","","html-keyboard-response","47","139759","0.0-47.0","","<img src=""img/set1/S3.jpg"" width=""540"" height = ""360"">","null","","","","","","","","",""
"null","","html-keyboard-response","48","139962","0.0-48.0","","","null","","","","","","","","",""
"1071.5","","image-keyboard-response","49","141035","0.0-49.0","","img/set1/S2.jpg","68","2","random","68","random,structured_normal,structured_incentive,structured_load","3,4,2,1,2,3","true","","",""
"null","","html-keyboard-response","50","141386","0.0-50.0","","<img src=""img/set1/S2.jpg"" width=""540"" height = ""360"" style=""border:16px solid orange"">","null","","","","","","","","",""
"null","","html-keyboard-response","51","141589","0.0-51.0","","","null","","","","","","","","",""
"1284.3999999985099","","image-keyboard-response","52","142874","0.0-52.0","","img/set1/S4.jpg","68","4","random","74","random,structured_normal,structured_incentive,structured_load","3,4,2,1,2,3","false","","",""
"null","","html-keyboard-response","53","143231","0.0-53.0","","<img src=""img/set1/S4.jpg"" width=""540"" height = ""360"">","null","","","","","","","","",""
"null","","html-keyboard-response","54","143434","0.0-54.0","","","null","","","","","","","","",""
"867.8999999985099","","image-keyboard-response","55","144303","0.0-55.0","","img/set1/S3.jpg","83","3","random","72","random,structured_normal,structured_incentive,structured_load","3,4,2,1,2,3","false","","",""
"null","","html-keyboard-response","56","144665","0.0-56.0","","<img src=""img/set1/S3.jpg"" width=""540"" height = ""360"">","null","","","","","","","","",""
"null","","html-keyboard-response","57","144867","0.0-57.0","","","null","","","","","","","","",""
"629.8000000044703","","image-keyboard-response","58","145497","0.0-58.0","","img/set1/S1.jpg","83","1","random","83","random,structured_normal,structured_incentive,structured_load","3,4,2,1,2,3","true","","",""
"null","","html-keyboard-response","59","145850","0.0-59.0","","<img src=""img/set1/S1.jpg"" width=""540"" height = ""360"" style=""border:16px solid orange"">","null","","","","","","","","",""
"null","","html-keyboard-response","60","146053","0.0-60.0","","","null","","","","","","","","",""
"1097.2999999970198","","image-keyboard-response","61","147150","0.0-61.0","","img/set1/S4.jpg","74","4","random","74","random,structured_normal,structured_incentive,structured_load","3,4,2,1,2,3","true","","",""
"null","","html-keyboard-response","62","147501","0.0-62.0","","<img src=""img/set1/S4.jpg"" width=""540"" height = ""360"" style=""border:16px solid orange"">","null","","","","","","","","",""
"null","","html-keyboard-response","63","147704","0.0-63.0","","","null","","","","","","","","",""
"796.3999999985099","","image-keyboard-response","64","148501","0.0-64.0","","img/set1/S1.jpg","83","1","random","83","random,structured_normal,structured_incentive,structured_load","3,4,2,1,2,3","true","","",""
"null","","html-keyboard-response","65","148855","0.0-65.0","","<img src=""img/set1/S1.jpg"" width=""540"" height = ""360"" style=""border:16px solid orange"">","null","","","","","","","","",""
"null","","html-keyboard-response","66","149057","0.0-66.0","","","null","","","","","","","","",""
"1285.2999999970198","","image-keyboard-response","67","150343","0.0-67.0","","img/set1/S3.jpg","74","3","random","72","random,structured_normal,structured_incentive,structured_load","3,4,2,1,2,3","false","","",""
"null","","html-keyboard-response","68","150708","0.0-68.0","","<img src=""img/set1/S3.jpg"" width=""540"" height = ""360"">","null","","","","","","","","",""
"null","","html-keyboard-response","69","150912","0.0-69.0","","","null","","","","","","","","",""
"940.8999999985099","","image-keyboard-response","70","151855","0.0-70.0","","img/set1/S3.jpg","72","3","random","72","random,structured_normal,structured_incentive,structured_load","3,4,2,1,2,3","true","","",""
"null","","html-keyboard-response","71","152209","0.0-71.0","","<img src=""img/set1/S3.jpg"" width=""540"" height = ""360"" style=""border:16px solid orange"">","null","","","","","","","","",""
"null","","html-keyboard-response","72","152414","0.0-72.0","","","null","","","","","","","","",""
"551.9000000059605","","image-keyboard-response","73","152966","0.0-73.0","","img/set1/S1.jpg","83","1","random","83","random,structured_normal,structured_incentive,structured_load","3,4,2,1,2,3","true","","",""
"null","","html-keyboard-response","74","153324","0.0-74.0","","<img src=""img/set1/S1.jpg"" width=""540"" height = ""360"" style=""border:16px solid orange"">","null","","","","","","","","",""
"null","","html-keyboard-response","75","153527","0.0-75.0","","","null","","","","","","","","",""
"765.0999999940395","","image-keyboard-response","76","154293","0.0-76.0","","img/set1/S4.jpg","74","4","random","74","random,structured_normal,structured_incentive,structured_load","3,4,2,1,2,3","true","","",""
"null","","html-keyboard-response","77","154648","0.0-77.0","","<img src=""img/set1/S4.jpg"" width=""540"" height = ""360"" style=""border:16px solid orange"">","null","","","","","","","","",""
"null","","html-keyboard-response","78","154851","0.0-78.0","","","null","","","","","","","","",""
"611.7999999970198","","image-keyboard-response","79","155463","0.0-79.0","","img/set1/S2.jpg","68","2","random","68","random,structured_normal,structured_incentive,structured_load","3,4,2,1,2,3","true","","",""
"null","","html-keyboard-response","80","155816","0.0-80.0","","<img src=""img/set1/S2.jpg"" width=""540"" height = ""360"" style=""border:16px solid orange"">","null","","","","","","","","",""
"null","","html-keyboard-response","81","156019","0.0-81.0","","","null","","","","","","","","",""
"469.6000000014901","","image-keyboard-response","82","156489","0.0-82.0","","img/set1/S2.jpg","68","2","random","68","random,structured_normal,structured_incentive,structured_load","3,4,2,1,2,3","true","","",""
"null","","html-keyboard-response","83","156849","0.0-83.0","","<img src=""img/set1/S2.jpg"" width=""540"" height = ""360"" style=""border:16px solid orange"">","null","","","","","","","","",""
"null","","html-keyboard-response","84","157055","0.0-84.0","","","null","","","","","","","","",""
"782.3999999985099","","image-keyboard-response","85","157839","0.0-85.0","","img/set1/S4.jpg","72","4","random","74","random,structured_normal,structured_incentive,structured_load","3,4,2,1,2,3","false","","",""
"null","","html-keyboard-response","86","158191","0.0-86.0","","<img src=""img/set1/S4.jpg"" width=""540"" height = ""360"">","null","","","","","","","","",""
"null","","html-keyboard-response","87","158393","0.0-87.0","","","null","","","","","","","","",""
"592.2999999970198","","image-keyboard-response","88","158985","0.0-88.0","","img/set1/S2.jpg","68","2","random","68","random,structured_normal,structured_incentive,structured_load","3,4,2,1,2,3","true","","",""
"null","","html-keyboard-response","89","159351","0.0-89.0","","<img src=""img/set1/S2.jpg"" width=""540"" height = ""360"" style=""border:16px solid orange"">","null","","","","","","","","",""
"null","","html-keyboard-response","90","159556","0.0-90.0","","","null","","","","","","","","",""
"665.8999999985099","","image-keyboard-response","91","160222","0.0-91.0","","img/set1/S2.jpg","68","2","random","68","random,structured_normal,structured_incentive,structured_load","3,4,2,1,2,3","true","","",""
"null","","html-keyboard-response","92","160579","0.0-92.0","","<img src=""img/set1/S2.jpg"" width=""540"" height = ""360"" style=""border:16px solid orange"">","null","","","","","","","","",""
"null","","html-keyboard-response","93","160783","0.0-93.0","","","null","","","","","","","","",""
"640.6000000014901","","image-keyboard-response","94","161424","0.0-94.0","","img/set1/S3.jpg","74","3","random","72","random,structured_normal,structured_incentive,structured_load","3,4,2,1,2,3","false","","",""
"null","","html-keyboard-response","95","161782","0.0-95.0","","<img src=""img/set1/S3.jpg"" width=""540"" height = ""360"">","null","","","","","","","","",""
"null","","html-keyboard-response","96","161985","0.0-96.0","","","null","","","","","","","","",""
"610.1000000014901","","image-keyboard-response","97","162596","0.0-97.0","","img/set1/S4.jpg","68","4","random","74","random,structured_normal,structured_incentive,structured_load","3,4,2,1,2,3","false","","",""
"null","","html-keyboard-response","98","162958","0.0-98.0","","<img src=""img/set1/S4.jpg"" width=""540"" height = ""360"">","null","","","","","","","","",""
"null","","html-keyboard-response","99","163174","0.0-99.0","","","null","","","","","","","","",""
"610","","image-keyboard-response","100","163784","0.0-100.0","","img/set1/S4.jpg","83","4","random","74","random,structured_normal,structured_incentive,structured_load","3,4,2,1,2,3","false","","",""
"null","","html-keyboard-response","101","164145","0.0-101.0","","<img src=""img/set1/S4.jpg"" width=""540"" height = ""360"">","null","","","","","","","","",""
"null","","html-keyboard-response","102","164346","0.0-102.0","","","null","","","","","","","","",""
"928.2000000029802","","image-keyboard-response","103","165275","0.0-103.0","","img/set1/S2.jpg","68","2","random","68","random,structured_normal,structured_incentive,structured_load","3,4,2,1,2,3","true","","",""
"null","","html-keyboard-response","104","165632","0.0-104.0","","<img src=""img/set1/S2.jpg"" width=""540"" height = ""360"" style=""border:16px solid orange"">","null","","","","","","","","",""
"null","","html-keyboard-response","105","165835","0.0-105.0","","","null","","","","","","","","",""
"1170.0999999940395","","image-keyboard-response","106","167006","0.0-106.0","","img/set1/S3.jpg","72","3","random","72","random,structured_normal,structured_incentive,structured_load","3,4,2,1,2,3","true","","",""
"null","","html-keyboard-response","107","167359","0.0-107.0","","<img src=""img/set1/S3.jpg"" width=""540"" height = ""360"" style=""border:16px solid orange"">","null","","","","","","","","",""
"null","","html-keyboard-response","108","167562","0.0-108.0","","","null","","","","","","","","",""
"1010.8000000044703","","image-keyboard-response","109","168574","0.0-109.0","","img/set1/S4.jpg","72","4","random","74","random,structured_normal,structured_incentive,structured_load","3,4,2,1,2,3","false","","",""
"null","","html-keyboard-response","110","168937","0.0-110.0","","<img src=""img/set1/S4.jpg"" width=""540"" height = ""360"">","null","","","","","","","","",""
"null","","html-keyboard-response","111","169140","0.0-111.0","","","null","","","","","","","","",""
"559.5","","image-keyboard-response","112","169700","0.0-112.0","","img/set1/S3.jpg","72","3","random","72","random,structured_normal,structured_incentive,structured_load","3,4,2,1,2,3","true","","",""
"null","","html-keyboard-response","113","170057","0.0-113.0","","<img src=""img/set1/S3.jpg"" width=""540"" height = ""360"" style=""border:16px solid orange"">","null","","","","","","","","",""
"null","","html-keyboard-response","114","170263","0.0-114.0","","","null","","","","","","","","",""
"634.5","","image-keyboard-response","115","170898","0.0-115.0","","img/set1/S2.jpg","68","2","random","68","random,structured_normal,structured_incentive,structured_load","3,4,2,1,2,3","true","","",""
"null","","html-keyboard-response","116","171252","0.0-116.0","","<img src=""img/set1/S2.jpg"" width=""540"" height = ""360"" style=""border:16px solid orange"">","null","","","","","","","","",""
"null","","html-keyboard-response","117","171455","0.0-117.0","","","null","","","","","","","","",""
"1018.8999999985099","","image-keyboard-response","118","172474","0.0-118.0","","img/set1/S4.jpg","72","4","random","74","random,structured_normal,structured_incentive,structured_load","3,4,2,1,2,3","false","","",""
"null","","html-keyboard-response","119","172830","0.0-119.0","","<img src=""img/set1/S4.jpg"" width=""540"" height = ""360"">","null","","","","","","","","",""
"null","","html-keyboard-response","120","173036","0.0-120.0","","","null","","","","","","","","",""
"573.5","","image-keyboard-response","121","173611","0.0-121.0","","img/set1/S1.jpg","83","1","random","83","random,structured_normal,structured_incentive,structured_load","3,4,2,1,2,3","true","","",""
"null","","html-keyboard-response","122","173962","0.0-122.0","","<img src=""img/set1/S1.jpg"" width=""540"" height = ""360"" style=""border:16px solid orange"">","null","","","","","","","","",""
"null","","html-keyboard-response","123","174165","0.0-123.0","","","null","","","","","","","","",""
"454.69999999552965","","image-keyboard-response","124","174621","0.0-124.0","","img/set1/S1.jpg","83","1","random","83","random,structured_normal,structured_incentive,structured_load","3,4,2,1,2,3","true","","",""
"null","","html-keyboard-response","125","174972","0.0-125.0","","<img src=""img/set1/S1.jpg"" width=""540"" height = ""360"" style=""border:16px solid orange"">","null","","","","","","","","",""
"null","","html-keyboard-response","126","175177","0.0-126.0","","","null","","","","","","","","",""
"695","","image-keyboard-response","127","175873","0.0-127.0","","img/set1/S2.jpg","68","2","random","68","random,structured_normal,structured_incentive,structured_load","3,4,2,1,2,3","true","","",""
"null","","html-keyboard-response","128","176231","0.0-128.0","","<img src=""img/set1/S2.jpg"" width=""540"" height = ""360"" style=""border:16px solid orange"">","null","","","","","","","","",""
"null","","html-keyboard-response","129","176433","0.0-129.0","","","null","","","","","","","","",""
"461","","image-keyboard-response","130","176894","0.0-130.0","","img/set1/S1.jpg","68","1","random","83","random,structured_normal,structured_incentive,structured_load","3,4,2,1,2,3","false","","",""
"null","","html-keyboard-response","131","177246","0.0-131.0","","<img src=""img/set1/S1.jpg"" width=""540"" height = ""360"">","null","","","","","","","","",""
"null","","html-keyboard-response","132","177451","0.0-132.0","","","null","","","","","","","","",""
"1274.8999999985099","","image-keyboard-response","133","178726","0.0-133.0","","img/set1/S4.jpg","68","4","random","74","random,structured_normal,structured_incentive,structured_load","3,4,2,1,2,3","false","","",""
"null","","html-keyboard-response","134","179089","0.0-134.0","","<img src=""img/set1/S4.jpg"" width=""540"" height = ""360"">","null","","","","","","","","",""
"null","","html-keyboard-response","135","179294","0.0-135.0","","","null","","","","","","","","",""
"1001.2000000029802","","image-keyboard-response","136","180296","0.0-136.0","","img/set1/S3.jpg","72","3","random","72","random,structured_normal,structured_incentive,structured_load","3,4,2,1,2,3","true","","",""
"null","","html-keyboard-response","137","180653","0.0-137.0","","<img src=""img/set1/S3.jpg"" width=""540"" height = ""360"" style=""border:16px solid orange"">","null","","","","","","","","",""
"null","","html-keyboard-response","138","180853","0.0-138.0","","","null","","","","","","","","",""
"756","","image-keyboard-response","139","181610","0.0-139.0","","img/set1/S4.jpg","83","4","random","74","random,structured_normal,structured_incentive,structured_load","3,4,2,1,2,3","false","","",""
"null","","html-keyboard-response","140","181976","0.0-140.0","","<img src=""img/set1/S4.jpg"" width=""540"" height = ""360"">","null","","","","","","","","",""
"null","","html-keyboard-response","141","182180","0.0-141.0","","","null","","","","","","","","",""
"631.5","","image-keyboard-response","142","182812","0.0-142.0","","img/set1/S2.jpg","68","2","random","68","random,structured_normal,structured_incentive,structured_load","3,4,2,1,2,3","true","","",""
"null","","html-keyboard-response","143","183167","0.0-143.0","","<img src=""img/set1/S2.jpg"" width=""540"" height = ""360"" style=""border:16px solid orange"">","null","","","","","","","","",""
"null","","html-keyboard-response","144","183372","0.0-144.0","","","null","","","","","","","","",""
"761.7999999970198","","image-keyboard-response","145","184135","0.0-145.0","","img/set1/S3.jpg","72","3","random","72","random,structured_normal,structured_incentive,structured_load","3,4,2,1,2,3","true","","",""
"null","","html-keyboard-response","146","184492","0.0-146.0","","<img src=""img/set1/S3.jpg"" width=""540"" height = ""360"" style=""border:16px solid orange"">","null","","","","","","","","",""
"null","","html-keyboard-response","147","184707","0.0-147.0","","","null","","","","","","","","",""
"671.2000000029802","","image-keyboard-response","148","185379","0.0-148.0","","img/set1/S4.jpg","68","4","random","74","random,structured_normal,structured_incentive,structured_load","3,4,2,1,2,3","false","","",""
"null","","html-keyboard-response","149","185736","0.0-149.0","","<img src=""img/set1/S4.jpg"" width=""540"" height = ""360"">","null","","","","","","","","",""
"null","","html-keyboard-response","150","185939","0.0-150.0","","","null","","","","","","","","",""
"570.7999999970198","","image-keyboard-response","151","186510","0.0-151.0","","img/set1/S1.jpg","83","1","random","83","random,structured_normal,structured_incentive,structured_load","3,4,2,1,2,3","true","","",""
"null","","html-keyboard-response","152","186866","0.0-152.0","","<img src=""img/set1/S1.jpg"" width=""540"" height = ""360"" style=""border:16px solid orange"">","null","","","","","","","","",""
"null","","html-keyboard-response","153","187081","0.0-153.0","","","null","","","","","","","","",""
"650.3999999985099","","image-keyboard-response","154","187732","0.0-154.0","","img/set1/S2.jpg","68","2","random","68","random,structured_normal,structured_incentive,structured_load","3,4,2,1,2,3","true","","",""
"null","","html-keyboard-response","155","188095","0.0-155.0","","<img src=""img/set1/S2.jpg"" width=""540"" height = ""360"" style=""border:16px solid orange"">","null","","","","","","","","",""
"null","","html-keyboard-response","156","188299","0.0-156.0","","","null","","","","","","","","",""
"476","","image-keyboard-response","157","188776","0.0-157.0","","img/set1/S2.jpg","83","2","random","68","random,structured_normal,structured_incentive,structured_load","3,4,2,1,2,3","false","","",""
"null","","html-keyboard-response","158","189141","0.0-158.0","","<img src=""img/set1/S2.jpg"" width=""540"" height = ""360"">","null","","","","","","","","",""
"null","","html-keyboard-response","159","189345","0.0-159.0","","","null","","","","","","","","",""
"1044.7000000029802","","image-keyboard-response","160","190391","0.0-160.0","","img/set1/S4.jpg","74","4","random","74","random,structured_normal,structured_incentive,structured_load","3,4,2,1,2,3","true","","",""
"null","","html-keyboard-response","161","190753","0.0-161.0","","<img src=""img/set1/S4.jpg"" width=""540"" height = ""360"" style=""border:16px solid orange"">","null","","","","","","","","",""
"null","","html-keyboard-response","162","190955","0.0-162.0","","","null","","","","","","","","",""
"574.6999999955297","","image-keyboard-response","163","191531","0.0-163.0","","img/set1/S1.jpg","83","1","random","83","random,structured_normal,structured_incentive,structured_load","3,4,2,1,2,3","true","","",""
"null","","html-keyboard-response","164","191895","0.0-164.0","","<img src=""img/set1/S1.jpg"" width=""540"" height = ""360"" style=""border:16px solid orange"">","null","","","","","","","","",""
"null","","html-keyboard-response","165","192100","0.0-165.0","","","null","","","","","","","","",""
"485.20000000298023","","image-keyboard-response","166","192585","0.0-166.0","","img/set1/S1.jpg","83","1","random","83","random,structured_normal,structured_incentive,structured_load","3,4,2,1,2,3","true","","",""
"null","","html-keyboard-response","167","192940","0.0-167.0","","<img src=""img/set1/S1.jpg"" width=""540"" height = ""360"" style=""border:16px solid orange"">","null","","","","","","","","",""
"null","","html-keyboard-response","168","193141","0.0-168.0","","","null","","","","","","","","",""
"736","","image-keyboard-response","169","193878","0.0-169.0","","img/set1/S4.jpg","74","4","random","74","random,structured_normal,structured_incentive,structured_load","3,4,2,1,2,3","true","","",""
"null","","html-keyboard-response","170","194235","0.0-170.0","","<img src=""img/set1/S4.jpg"" width=""540"" height = ""360"" style=""border:16px solid orange"">","null","","","","","","","","",""
"null","","html-keyboard-response","171","194450","0.0-171.0","","","null","","","","","","","","",""
"459.79999999701977","","image-keyboard-response","172","194910","0.0-172.0","","img/set1/S1.jpg","83","1","random","83","random,structured_normal,structured_incentive,structured_load","3,4,2,1,2,3","true","","",""
"null","","html-keyboard-response","173","195263","0.0-173.0","","<img src=""img/set1/S1.jpg"" width=""540"" height = ""360"" style=""border:16px solid orange"">","null","","","","","","","","",""
"null","","html-keyboard-response","174","195467","0.0-174.0","","","null","","","","","","","","",""
"502","","image-keyboard-response","175","195970","0.0-175.0","","img/set1/S1.jpg","83","1","random","83","random,structured_normal,structured_incentive,structured_load","3,4,2,1,2,3","true","","",""
"null","","html-keyboard-response","176","196324","0.0-176.0","","<img src=""img/set1/S1.jpg"" width=""540"" height = ""360"" style=""border:16px solid orange"">","null","","","","","","","","",""
"null","","html-keyboard-response","177","196540","0.0-177.0","","","null","","","","","","","","",""
"692.6999999955297","","image-keyboard-response","178","197234","0.0-178.0","","img/set1/S4.jpg","74","4","random","74","random,structured_normal,structured_incentive,structured_load","3,4,2,1,2,3","true","","",""
"null","","html-keyboard-response","179","197590","0.0-179.0","","<img src=""img/set1/S4.jpg"" width=""540"" height = ""360"" style=""border:16px solid orange"">","null","","","","","","","","",""
"null","","html-keyboard-response","180","197793","0.0-180.0","","","null","","","","","","","","",""
"589.3000000044703","","image-keyboard-response","181","198383","0.0-181.0","","img/set1/S3.jpg","72","3","random","72","random,structured_normal,structured_incentive,structured_load","3,4,2,1,2,3","true","","",""
"null","","html-keyboard-response","182","198747","0.0-182.0","","<img src=""img/set1/S3.jpg"" width=""540"" height = ""360"" style=""border:16px solid orange"">","null","","","","","","","","",""
"null","","html-keyboard-response","183","198951","0.0-183.0","","","null","","","","","","","","",""
"557","","image-keyboard-response","184","199509","0.0-184.0","","img/set1/S3.jpg","72","3","random","72","random,structured_normal,structured_incentive,structured_load","3,4,2,1,2,3","true","","",""
"null","","html-keyboard-response","185","199868","0.0-185.0","","<img src=""img/set1/S3.jpg"" width=""540"" height = ""360"" style=""border:16px solid orange"">","null","","","","","","","","",""
"null","","html-keyboard-response","186","200070","0.0-186.0","","","null","","","","","","","","",""
"534.3999999985099","","image-keyboard-response","187","200605","0.0-187.0","","img/set1/S3.jpg","72","3","random","72","random,structured_normal,structured_incentive,structured_load","3,4,2,1,2,3","true","","",""
"null","","html-keyboard-response","188","200963","0.0-188.0","","<img src=""img/set1/S3.jpg"" width=""540"" height = ""360"" style=""border:16px solid orange"">","null","","","","","","","","",""
"null","","html-keyboard-response","189","201177","0.0-189.0","","","null","","","","","","","","",""
"496.1000000014901","","image-keyboard-response","190","201674","0.0-190.0","","img/set1/S3.jpg","72","3","random","72","random,structured_normal,structured_incentive,structured_load","3,4,2,1,2,3","true","","",""
"null","","html-keyboard-response","191","202039","0.0-191.0","","<img src=""img/set1/S3.jpg"" width=""540"" height = ""360"" style=""border:16px solid orange"">","null","","","","","","","","",""
"null","","html-keyboard-response","192","202255","0.0-192.0","","","null","","","","","","","","",""
"685.6000000014901","","image-keyboard-response","193","202941","0.0-193.0","","img/set1/S4.jpg","74","4","random","74","random,structured_normal,structured_incentive,structured_load","3,4,2,1,2,3","true","","",""
"null","","html-keyboard-response","194","203303","0.0-194.0","","<img src=""img/set1/S4.jpg"" width=""540"" height = ""360"" style=""border:16px solid orange"">","null","","","","","","","","",""
"null","","html-keyboard-response","195","203505","0.0-195.0","","","null","","","","","","","","",""
"512.8999999985099","","image-keyboard-response","196","204018","0.0-196.0","","img/set1/S4.jpg","72","4","random","74","random,structured_normal,structured_incentive,structured_load","3,4,2,1,2,3","false","","",""
"null","","html-keyboard-response","197","204378","0.0-197.0","","<img src=""img/set1/S4.jpg"" width=""540"" height = ""360"">","null","","","","","","","","",""
"null","","html-keyboard-response","198","204581","0.0-198.0","","","null","","","","","","","","",""
"553.2999999970198","","image-keyboard-response","199","205135","0.0-199.0","","img/set1/S1.jpg","83","1","random","83","random,structured_normal,structured_incentive,structured_load","3,4,2,1,2,3","true","","",""
"null","","html-keyboard-response","200","205499","0.0-200.0","","<img src=""img/set1/S1.jpg"" width=""540"" height = ""360"" style=""border:16px solid orange"">","null","","","","","","","","",""
"null","","html-keyboard-response","201","205715","0.0-201.0","","","null","","","","","","","","",""
"346.19999999552965","","image-keyboard-response","202","206062","0.0-202.0","","img/set1/S2.jpg","68","2","random","68","random,structured_normal,structured_incentive,structured_load","3,4,2,1,2,3","true","","",""
"null","","html-keyboard-response","203","206413","0.0-203.0","","<img src=""img/set1/S2.jpg"" width=""540"" height = ""360"" style=""border:16px solid orange"">","null","","","","","","","","",""
"null","","html-keyboard-response","204","206629","0.0-204.0","","","null","","","","","","","","",""
"493.19999999552965","","image-keyboard-response","205","207123","0.0-205.0","","img/set1/S1.jpg","83","1","random","83","random,structured_normal,structured_incentive,structured_load","3,4,2,1,2,3","true","","",""
"null","","html-keyboard-response","206","207487","0.0-206.0","","<img src=""img/set1/S1.jpg"" width=""540"" height = ""360"" style=""border:16px solid orange"">","null","","","","","","","","",""
"null","","html-keyboard-response","207","207691","0.0-207.0","","","null","","","","","","","","",""
"884.8000000044703","","image-keyboard-response","208","208577","0.0-208.0","","img/set1/S4.jpg","74","4","random","74","random,structured_normal,structured_incentive,structured_load","3,4,2,1,2,3","true","","",""
"null","","html-keyboard-response","209","208929","0.0-209.0","","<img src=""img/set1/S4.jpg"" width=""540"" height = ""360"" style=""border:16px solid orange"">","null","","","","","","","","",""
"null","","html-keyboard-response","210","209132","0.0-210.0","","","null","","","","","","","","",""
"722.1999999955297","","image-keyboard-response","211","209855","0.0-211.0","","img/set1/S2.jpg","68","2","random","68","random,structured_normal,structured_incentive,structured_load","3,4,2,1,2,3","true","","",""
"null","","html-keyboard-response","212","210210","0.0-212.0","","<img src=""img/set1/S2.jpg"" width=""540"" height = ""360"" style=""border:16px solid orange"">","null","","","","","","","","",""
"null","","html-keyboard-response","213","210415","0.0-213.0","","","null","","","","","","","","",""
"508.5","","image-keyboard-response","214","210924","0.0-214.0","","img/set1/S2.jpg","68","2","random","68","random,structured_normal,structured_incentive,structured_load","3,4,2,1,2,3","true","","",""
"null","","html-keyboard-response","215","211279","0.0-215.0","","<img src=""img/set1/S2.jpg"" width=""540"" height = ""360"" style=""border:16px solid orange"">","null","","","","","","","","",""
"null","","html-keyboard-response","216","211484","0.0-216.0","","","null","","","","","","","","",""
"583.8000000044703","","image-keyboard-response","217","212068","0.0-217.0","","img/set1/S4.jpg","74","4","random","74","random,structured_normal,structured_incentive,structured_load","3,4,2,1,2,3","true","","",""
"null","","html-keyboard-response","218","212420","0.0-218.0","","<img src=""img/set1/S4.jpg"" width=""540"" height = ""360"" style=""border:16px solid orange"">","null","","","","","","","","",""
"null","","html-keyboard-response","219","212625","0.0-219.0","","","null","","","","","","","","",""
"467.70000000298023","","image-keyboard-response","220","213094","0.0-220.0","","img/set1/S4.jpg","74","4","random","74","random,structured_normal,structured_incentive,structured_load","3,4,2,1,2,3","true","","",""
"null","","html-keyboard-response","221","213450","0.0-221.0","","<img src=""img/set1/S4.jpg"" width=""540"" height = ""360"" style=""border:16px solid orange"">","null","","","","","","","","",""
"null","","html-keyboard-response","222","213661","0.0-222.0","","","null","","","","","","","","",""
"496.79999999701977","","image-keyboard-response","223","214158","0.0-223.0","","img/set1/S1.jpg","83","1","random","83","random,structured_normal,structured_incentive,structured_load","3,4,2,1,2,3","true","","",""
"null","","html-keyboard-response","224","214510","0.0-224.0","","<img src=""img/set1/S1.jpg"" width=""540"" height = ""360"" style=""border:16px solid orange"">","null","","","","","","","","",""
"null","","html-keyboard-response","225","214712","0.0-225.0","","","null","","","","","","","","",""
"787.6000000014901","","image-keyboard-response","226","215501","0.0-226.0","","img/set1/S3.jpg","72","3","random","72","random,structured_normal,structured_incentive,structured_load","3,4,2,1,2,3","true","","",""
"null","","html-keyboard-response","227","215853","0.0-227.0","","<img src=""img/set1/S3.jpg"" width=""540"" height = ""360"" style=""border:16px solid orange"">","null","","","","","","","","",""
"null","","html-keyboard-response","228","216059","0.0-228.0","","","null","","","","","","","","",""
"795.8999999985099","","image-keyboard-response","229","216856","0.0-229.0","","img/set1/S4.jpg","74","4","random","74","random,structured_normal,structured_incentive,structured_load","3,4,2,1,2,3","true","","",""
"null","","html-keyboard-response","230","217220","0.0-230.0","","<img src=""img/set1/S4.jpg"" width=""540"" height = ""360"" style=""border:16px solid orange"">","null","","","","","","","","",""
"null","","html-keyboard-response","231","217422","0.0-231.0","","","null","","","","","","","","",""
"466.8999999985099","","image-keyboard-response","232","217891","0.0-232.0","","img/set1/S1.jpg","83","1","random","83","random,structured_normal,structured_incentive,structured_load","3,4,2,1,2,3","true","","",""
"null","","html-keyboard-response","233","218243","0.0-233.0","","<img src=""img/set1/S1.jpg"" width=""540"" height = ""360"" style=""border:16px solid orange"">","null","","","","","","","","",""
"null","","html-keyboard-response","234","218450","0.0-234.0","","","null","","","","","","","","",""
"471.1000000014901","","image-keyboard-response","235","218922","0.0-235.0","","img/set1/S2.jpg","68","2","random","68","random,structured_normal,structured_incentive,structured_load","3,4,2,1,2,3","true","","",""
"null","","html-keyboard-response","236","219279","0.0-236.0","","<img src=""img/set1/S2.jpg"" width=""540"" height = ""360"" style=""border:16px solid orange"">","null","","","","","","","","",""
"null","","html-keyboard-response","237","219495","0.0-237.0","","","null","","","","","","","","",""
"768","","image-keyboard-response","238","220263","0.0-238.0","","img/set1/S3.jpg","74","3","random","72","random,structured_normal,structured_incentive,structured_load","3,4,2,1,2,3","false","","",""
"null","","html-keyboard-response","239","220617","0.0-239.0","","<img src=""img/set1/S3.jpg"" width=""540"" height = ""360"">","null","","","","","","","","",""
"null","","html-keyboard-response","240","220820","0.0-240.0","","","null","","","","","","","","",""
"617.6000000014901","","image-keyboard-response","241","221438","0.0-241.0","","img/set1/S3.jpg","72","3","random","72","random,structured_normal,structured_incentive,structured_load","3,4,2,1,2,3","true","","",""
"null","","html-keyboard-response","242","221791","0.0-242.0","","<img src=""img/set1/S3.jpg"" width=""540"" height = ""360"" style=""border:16px solid orange"">","null","","","","","","","","",""
"null","","html-keyboard-response","243","221993","0.0-243.0","","","null","","","","","","","","",""
"483.59999999403954","","image-keyboard-response","244","222477","0.0-244.0","","img/set1/S1.jpg","83","1","random","83","random,structured_normal,structured_incentive,structured_load","3,4,2,1,2,3","true","","",""
"null","","html-keyboard-response","245","222836","0.0-245.0","","<img src=""img/set1/S1.jpg"" width=""540"" height = ""360"" style=""border:16px solid orange"">","null","","","","","","","","",""
"null","","html-keyboard-response","246","223038","0.0-246.0","","","null","","","","","","","","",""
"536","","image-keyboard-response","247","223575","0.0-247.0","","img/set1/S2.jpg","68","2","random","68","random,structured_normal,structured_incentive,structured_load","3,4,2,1,2,3","true","","",""
"null","","html-keyboard-response","248","223940","0.0-248.0","","<img src=""img/set1/S2.jpg"" width=""540"" height = ""360"" style=""border:16px solid orange"">","null","","","","","","","","",""
"null","","html-keyboard-response","249","224144","0.0-249.0","","","null","","","","","","","","",""
"507.30000000447035","","image-keyboard-response","250","224652","0.0-250.0","","img/set1/S2.jpg","68","2","random","68","random,structured_normal,structured_incentive,structured_load","3,4,2,1,2,3","true","","",""
"null","","html-keyboard-response","251","225015","0.0-251.0","","<img src=""img/set1/S2.jpg"" width=""540"" height = ""360"" style=""border:16px solid orange"">","null","","","","","","","","",""
"null","","html-keyboard-response","252","225217","0.0-252.0","","","null","","","","","","","","",""
"456.5","","image-keyboard-response","253","225674","0.0-253.0","","img/set1/S2.jpg","68","2","random","68","random,structured_normal,structured_incentive,structured_load","3,4,2,1,2,3","true","","",""
"null","","html-keyboard-response","254","226027","0.0-254.0","","<img src=""img/set1/S2.jpg"" width=""540"" height = ""360"" style=""border:16px solid orange"">","null","","","","","","","","",""
"null","","html-keyboard-response","255","226231","0.0-255.0","","","null","","","","","","","","",""
"405.8999999985099","","image-keyboard-response","256","226638","0.0-256.0","","img/set1/S1.jpg","83","1","random","83","random,structured_normal,structured_incentive,structured_load","3,4,2,1,2,3","true","","",""
"null","","html-keyboard-response","257","227001","0.0-257.0","","<img src=""img/set1/S1.jpg"" width=""540"" height = ""360"" style=""border:16px solid orange"">","null","","","","","","","","",""
"null","","html-keyboard-response","258","227204","0.0-258.0","","","null","","","","","","","","",""
"517.6000000014901","","image-keyboard-response","259","227722","0.0-259.0","","img/set1/S4.jpg","68","4","random","74","random,structured_normal,structured_incentive,structured_load","3,4,2,1,2,3","false","","",""
"null","","html-keyboard-response","260","228077","0.0-260.0","","<img src=""img/set1/S4.jpg"" width=""540"" height = ""360"">","null","","","","","","","","",""
"null","","html-keyboard-response","261","228282","0.0-261.0","","","null","","","","","","","","",""
"504.70000000298023","","image-keyboard-response","262","228788","0.0-262.0","","img/set1/S1.jpg","83","1","random","83","random,structured_normal,structured_incentive,structured_load","3,4,2,1,2,3","true","","",""
"null","","html-keyboard-response","263","229149","0.0-263.0","","<img src=""img/set1/S1.jpg"" width=""540"" height = ""360"" style=""border:16px solid orange"">","null","","","","","","","","",""
"null","","html-keyboard-response","264","229355","0.0-264.0","","","null","","","","","","","","",""
"468.8999999985099","","image-keyboard-response","265","229825","0.0-265.0","","img/set1/S4.jpg","74","4","random","74","random,structured_normal,structured_incentive,structured_load","3,4,2,1,2,3","true","","",""
"null","","html-keyboard-response","266","230185","0.0-266.0","","<img src=""img/set1/S4.jpg"" width=""540"" height = ""360"" style=""border:16px solid orange"">","null","","","","","","","","",""
"null","","html-keyboard-response","267","230386","0.0-267.0","","","null","","","","","","","","",""
"621.7000000029802","","image-keyboard-response","268","231008","0.0-268.0","","img/set1/S2.jpg","68","2","random","68","random,structured_normal,structured_incentive,structured_load","3,4,2,1,2,3","true","","",""
"null","","html-keyboard-response","269","231369","0.0-269.0","","<img src=""img/set1/S2.jpg"" width=""540"" height = ""360"" style=""border:16px solid orange"">","null","","","","","","","","",""
"null","","html-keyboard-response","270","231573","0.0-270.0","","","null","","","","","","","","",""
"505.3999999985099","","image-keyboard-response","271","232079","0.0-271.0","","img/set1/S4.jpg","74","4","random","74","random,structured_normal,structured_incentive,structured_load","3,4,2,1,2,3","true","","",""
"null","","html-keyboard-response","272","232433","0.0-272.0","","<img src=""img/set1/S4.jpg"" width=""540"" height = ""360"" style=""border:16px solid orange"">","null","","","","","","","","",""
"null","","html-keyboard-response","273","232636","0.0-273.0","","","null","","","","","","","","",""
"405.30000000447035","","image-keyboard-response","274","233041","0.0-274.0","","img/set1/S3.jpg","72","3","random","72","random,structured_normal,structured_incentive,structured_load","3,4,2,1,2,3","true","","",""
"null","","html-keyboard-response","275","233406","0.0-275.0","","<img src=""img/set1/S3.jpg"" width=""540"" height = ""360"" style=""border:16px solid orange"">","null","","","","","","","","",""
"null","","html-keyboard-response","276","233610","0.0-276.0","","","null","","","","","","","","",""
"648.8999999985099","","image-keyboard-response","277","234260","0.0-277.0","","img/set1/S2.jpg","68","2","random","68","random,structured_normal,structured_incentive,structured_load","3,4,2,1,2,3","true","","",""
"null","","html-keyboard-response","278","234621","0.0-278.0","","<img src=""img/set1/S2.jpg"" width=""540"" height = ""360"" style=""border:16px solid orange"">","null","","","","","","","","",""
"null","","html-keyboard-response","279","234827","0.0-279.0","","","null","","","","","","","","",""
"404.70000000298023","","image-keyboard-response","280","235232","0.0-280.0","","img/set1/S2.jpg","68","2","random","68","random,structured_normal,structured_incentive,structured_load","3,4,2,1,2,3","true","","",""
"null","","html-keyboard-response","281","235597","0.0-281.0","","<img src=""img/set1/S2.jpg"" width=""540"" height = ""360"" style=""border:16px solid orange"">","null","","","","","","","","",""
"null","","html-keyboard-response","282","235800","0.0-282.0","","","null","","","","","","","","",""
"390.19999999552965","","image-keyboard-response","283","236191","0.0-283.0","","img/set1/S2.jpg","68","2","random","68","random,structured_normal,structured_incentive,structured_load","3,4,2,1,2,3","true","","",""
"null","","html-keyboard-response","284","236557","0.0-284.0","","<img src=""img/set1/S2.jpg"" width=""540"" height = ""360"" style=""border:16px solid orange"">","null","","","","","","","","",""
"null","","html-keyboard-response","285","236762","0.0-285.0","","","null","","","","","","","","",""
"567","","image-keyboard-response","286","237330","0.0-286.0","","img/set1/S4.jpg","74","4","random","74","random,structured_normal,structured_incentive,structured_load","3,4,2,1,2,3","true","","",""
"null","","html-keyboard-response","287","237695","0.0-287.0","","<img src=""img/set1/S4.jpg"" width=""540"" height = ""360"" style=""border:16px solid orange"">","null","","","","","","","","",""
"null","","html-keyboard-response","288","237899","0.0-288.0","","","null","","","","","","","","",""
"464.30000000447035","","image-keyboard-response","289","238364","0.0-289.0","","img/set1/S2.jpg","83","2","random","68","random,structured_normal,structured_incentive,structured_load","3,4,2,1,2,3","false","","",""
"null","","html-keyboard-response","290","238716","0.0-290.0","","<img src=""img/set1/S2.jpg"" width=""540"" height = ""360"">","null","","","","","","","","",""
"null","","html-keyboard-response","291","238921","0.0-291.0","","","null","","","","","","","","",""
"773.2999999970198","","image-keyboard-response","292","239695","0.0-292.0","","img/set1/S3.jpg","74","3","random","72","random,structured_normal,structured_incentive,structured_load","3,4,2,1,2,3","false","","",""
"null","","html-keyboard-response","293","240052","0.0-293.0","","<img src=""img/set1/S3.jpg"" width=""540"" height = ""360"">","null","","","","","","","","",""
"null","","html-keyboard-response","294","240254","0.0-294.0","","","null","","","","","","","","",""
"484.3999999985099","","image-keyboard-response","295","240739","0.0-295.0","","img/set1/S1.jpg","83","1","random","83","random,structured_normal,structured_incentive,structured_load","3,4,2,1,2,3","true","","",""
"null","","html-keyboard-response","296","241098","0.0-296.0","","<img src=""img/set1/S1.jpg"" width=""540"" height = ""360"" style=""border:16px solid orange"">","null","","","","","","","","",""
"null","","html-keyboard-response","297","241313","0.0-297.0","","","null","","","","","","","","",""
"511.19999999552965","","image-keyboard-response","298","241824","0.0-298.0","","img/set1/S3.jpg","72","3","random","72","random,structured_normal,structured_incentive,structured_load","3,4,2,1,2,3","true","","",""
"null","","html-keyboard-response","299","242189","0.0-299.0","","<img src=""img/set1/S3.jpg"" width=""540"" height = ""360"" style=""border:16px solid orange"">","null","","","","","","","","",""
"null","","html-keyboard-response","300","242391","0.0-300.0","","","null","","","","","","","","",""
"414.3999999985099","","image-keyboard-response","301","242806","0.0-301.0","","img/set1/S3.jpg","72","3","random","72","random,structured_normal,structured_incentive,structured_load","3,4,2,1,2,3","true","","",""
"null","","html-keyboard-response","302","243159","0.0-302.0","","<img src=""img/set1/S3.jpg"" width=""540"" height = ""360"" style=""border:16px solid orange"">","null","","","","","","","","",""
"null","","html-keyboard-response","303","243363","0.0-303.0","","","null","","","","","","","","",""
"474.29999999701977","","image-keyboard-response","304","243838","0.0-304.0","","img/set1/S3.jpg","72","3","random","72","random,structured_normal,structured_incentive,structured_load","3,4,2,1,2,3","true","","",""
"null","","html-keyboard-response","305","244196","0.0-305.0","","<img src=""img/set1/S3.jpg"" width=""540"" height = ""360"" style=""border:16px solid orange"">","null","","","","","","","","",""
"null","","html-keyboard-response","306","244397","0.0-306.0","","","null","","","","","","","","",""
"435.6000000014901","","image-keyboard-response","307","244833","0.0-307.0","","img/set1/S1.jpg","83","1","random","83","random,structured_normal,structured_incentive,structured_load","3,4,2,1,2,3","true","","",""
"null","","html-keyboard-response","308","245193","0.0-308.0","","<img src=""img/set1/S1.jpg"" width=""540"" height = ""360"" style=""border:16px solid orange"">","null","","","","","","","","",""
"null","","html-keyboard-response","309","245395","0.0-309.0","","","null","","","","","","","","",""
"692.3000000044703","","image-keyboard-response","310","246087","0.0-310.0","","img/set1/S4.jpg","68","4","random","74","random,structured_normal,structured_incentive,structured_load","3,4,2,1,2,3","false","","",""
"null","","html-keyboard-response","311","246445","0.0-311.0","","<img src=""img/set1/S4.jpg"" width=""540"" height = ""360"">","null","","","","","","","","",""
"null","","html-keyboard-response","312","246648","0.0-312.0","","","null","","","","","","","","",""
"634.0999999940395","","image-keyboard-response","313","247284","0.0-313.0","","img/set1/S3.jpg","72","3","random","72","random,structured_normal,structured_incentive,structured_load","3,4,2,1,2,3","true","","",""
"null","","html-keyboard-response","314","247650","0.0-314.0","","<img src=""img/set1/S3.jpg"" width=""540"" height = ""360"" style=""border:16px solid orange"">","null","","","","","","","","",""
"null","","html-keyboard-response","315","247855","0.0-315.0","","","null","","","","","","","","",""
"595.4000000059605","","image-keyboard-response","316","248451","0.0-316.0","","img/set1/S2.jpg","68","2","random","68","random,structured_normal,structured_incentive,structured_load","3,4,2,1,2,3","true","","",""
"null","","html-keyboard-response","317","248814","0.0-317.0","","<img src=""img/set1/S2.jpg"" width=""540"" height = ""360"" style=""border:16px solid orange"">","null","","","","","","","","",""
"null","","html-keyboard-response","318","249019","0.0-318.0","","","null","","","","","","","","",""
"428.19999999552965","","image-keyboard-response","319","249447","0.0-319.0","","img/set1/S2.jpg","68","2","random","68","random,structured_normal,structured_incentive,structured_load","3,4,2,1,2,3","true","","",""
"null","","html-keyboard-response","320","249798","0.0-320.0","","<img src=""img/set1/S2.jpg"" width=""540"" height = ""360"" style=""border:16px solid orange"">","null","","","","","","","","",""
"null","","html-keyboard-response","321","250000","0.0-321.0","","","null","","","","","","","","",""
"426.19999999552965","","image-keyboard-response","322","250427","0.0-322.0","","img/set1/S1.jpg","83","1","random","83","random,structured_normal,structured_incentive,structured_load","3,4,2,1,2,3","true","","",""
"null","","html-keyboard-response","323","250787","0.0-323.0","","<img src=""img/set1/S1.jpg"" width=""540"" height = ""360"" style=""border:16px solid orange"">","null","","","","","","","","",""
"null","","html-keyboard-response","324","251003","0.0-324.0","","","null","","","","","","","","",""
"510.09999999403954","","image-keyboard-response","325","251514","0.0-325.0","","img/set1/S4.jpg","74","4","random","74","random,structured_normal,structured_incentive,structured_load","3,4,2,1,2,3","true","","",""
"null","","html-keyboard-response","326","251877","0.0-326.0","","<img src=""img/set1/S4.jpg"" width=""540"" height = ""360"" style=""border:16px solid orange"">","null","","","","","","","","",""
"null","","html-keyboard-response","327","252081","0.0-327.0","","","null","","","","","","","","",""
"450.1000000014901","","image-keyboard-response","328","252532","0.0-328.0","","img/set1/S4.jpg","74","4","random","74","random,structured_normal,structured_incentive,structured_load","3,4,2,1,2,3","true","","",""
"null","","html-keyboard-response","329","252886","0.0-329.0","","<img src=""img/set1/S4.jpg"" width=""540"" height = ""360"" style=""border:16px solid orange"">","null","","","","","","","","",""
"null","","html-keyboard-response","330","253102","0.0-330.0","","","null","","","","","","","","",""
"512.3999999985099","","image-keyboard-response","331","253616","0.0-331.0","","img/set1/S2.jpg","68","2","random","68","random,structured_normal,structured_incentive,structured_load","3,4,2,1,2,3","true","","",""
"null","","html-keyboard-response","332","253980","0.0-332.0","","<img src=""img/set1/S2.jpg"" width=""540"" height = ""360"" style=""border:16px solid orange"">","null","","","","","","","","",""
"null","","html-keyboard-response","333","254195","0.0-333.0","","","null","","","","","","","","",""
"550","","image-keyboard-response","334","254746","0.0-334.0","","img/set1/S2.jpg","72","2","random","68","random,structured_normal,structured_incentive,structured_load","3,4,2,1,2,3","false","","",""
"null","","html-keyboard-response","335","255108","0.0-335.0","","<img src=""img/set1/S2.jpg"" width=""540"" height = ""360"">","null","","","","","","","","",""
"null","","html-keyboard-response","336","255312","0.0-336.0","","","null","","","","","","","","",""
"728.1000000014901","","image-keyboard-response","337","256041","0.0-337.0","","img/set1/S3.jpg","72","3","random","72","random,structured_normal,structured_incentive,structured_load","3,4,2,1,2,3","true","","",""
"null","","html-keyboard-response","338","256392","0.0-338.0","","<img src=""img/set1/S3.jpg"" width=""540"" height = ""360"" style=""border:16px solid orange"">","null","","","","","","","","",""
"null","","html-keyboard-response","339","256596","0.0-339.0","","","null","","","","","","","","",""
"476.1000000014901","","image-keyboard-response","340","257073","0.0-340.0","","img/set1/S3.jpg","72","3","random","72","random,structured_normal,structured_incentive,structured_load","3,4,2,1,2,3","true","","",""
"null","","html-keyboard-response","341","257425","0.0-341.0","","<img src=""img/set1/S3.jpg"" width=""540"" height = ""360"" style=""border:16px solid orange"">","null","","","","","","","","",""
"null","","html-keyboard-response","342","257628","0.0-342.0","","","null","","","","","","","","",""
"428.1000000014901","","image-keyboard-response","343","258057","0.0-343.0","","img/set1/S3.jpg","72","3","random","72","random,structured_normal,structured_incentive,structured_load","3,4,2,1,2,3","true","","",""
"null","","html-keyboard-response","344","258409","0.0-344.0","","<img src=""img/set1/S3.jpg"" width=""540"" height = ""360"" style=""border:16px solid orange"">","null","","","","","","","","",""
"null","","html-keyboard-response","345","258612","0.0-345.0","","","null","","","","","","","","",""
"470.6000000014901","","image-keyboard-response","346","259083","0.0-346.0","","img/set1/S1.jpg","83","1","random","83","random,structured_normal,structured_incentive,structured_load","3,4,2,1,2,3","true","","",""
"null","","html-keyboard-response","347","259437","0.0-347.0","","<img src=""img/set1/S1.jpg"" width=""540"" height = ""360"" style=""border:16px solid orange"">","null","","","","","","","","",""
"null","","html-keyboard-response","348","259653","0.0-348.0","","","null","","","","","","","","",""
"535.7999999970198","","image-keyboard-response","349","260190","0.0-349.0","","img/set1/S1.jpg","83","1","random","83","random,structured_normal,structured_incentive,structured_load","3,4,2,1,2,3","true","","",""
"null","","html-keyboard-response","350","260542","0.0-350.0","","<img src=""img/set1/S1.jpg"" width=""540"" height = ""360"" style=""border:16px solid orange"">","null","","","","","","","","",""
"null","","html-keyboard-response","351","260747","0.0-351.0","","","null","","","","","","","","",""
"727.5","","image-keyboard-response","352","261475","0.0-352.0","","img/set1/S3.jpg","72","3","random","72","random,structured_normal,structured_incentive,structured_load","3,4,2,1,2,3","true","","",""
"null","","html-keyboard-response","353","261835","0.0-353.0","","<img src=""img/set1/S3.jpg"" width=""540"" height = ""360"" style=""border:16px solid orange"">","null","","","","","","","","",""
"null","","html-keyboard-response","354","262038","0.0-354.0","","","null","","","","","","","","",""
"565.8000000044703","","image-keyboard-response","355","262605","0.0-355.0","","img/set1/S1.jpg","83","1","random","83","random,structured_normal,structured_incentive,structured_load","3,4,2,1,2,3","true","","",""
"null","","html-keyboard-response","356","262962","0.0-356.0","","<img src=""img/set1/S1.jpg"" width=""540"" height = ""360"" style=""border:16px solid orange"">","null","","","","","","","","",""
"null","","html-keyboard-response","357","263166","0.0-357.0","","","null","","","","","","","","",""
"585","","image-keyboard-response","358","263752","0.0-358.0","","img/set1/S4.jpg","74","4","random","74","random,structured_normal,structured_incentive,structured_load","3,4,2,1,2,3","true","","",""
"null","","html-keyboard-response","359","264104","0.0-359.0","","<img src=""img/set1/S4.jpg"" width=""540"" height = ""360"" style=""border:16px solid orange"">","null","","","","","","","","",""
"null","","html-keyboard-response","360","264305","0.0-360.0","","","null","","","","","","","","",""
"362.79999999701977","","image-keyboard-response","361","264669","0.0-361.0","","img/set1/S3.jpg","72","3","random","72","random,structured_normal,structured_incentive,structured_load","3,4,2,1,2,3","true","","",""
"null","","html-keyboard-response","362","265023","0.0-362.0","","<img src=""img/set1/S3.jpg"" width=""540"" height = ""360"" style=""border:16px solid orange"">","null","","","","","","","","",""
"null","","html-keyboard-response","363","265227","0.0-363.0","","","null","","","","","","","","",""
"2349.89999999851","","html-keyboard-response","364","267578","0.0-364.0","","<p class=""center-content"">You have completed a block! </p><p class=""center-content"">Press any key on the keyboard to continue, </p><p class=""center-content"">or wait for the automatic progression to the next block after one minute.</p>","74","","","","","","","","",""
"8750.89999999851","","instructions","365","276329","0.0-365.0","[{""page_index"":0,""viewing_time"":8750.79999999702}]","","","","","","","","","","",""
"3014.7000000029802","","instructions","366","279344","0.0-366.0","[{""page_index"":0,""viewing_time"":3014.60000000149}]","","","","","","","","","","",""
"962","","image-keyboard-response","367","280307","0.0-367.0","","img/set2/S2.jpg","83","2","structured_normal","68","random,structured_normal,structured_incentive,structured_load","3,4,2,1,2,3","false","","",""
"null","","html-keyboard-response","368","280670","0.0-368.0","","<img src=""img/set2/S2.jpg"" width=""540"" height = ""360"">","null","","","","","","","","",""
"null","","html-keyboard-response","369","280875","0.0-369.0","","","null","","","","","","","","",""
"468.5","","image-keyboard-response","370","281344","0.0-370.0","","img/set2/S2.jpg","68","2","structured_normal","68","random,structured_normal,structured_incentive,structured_load","3,4,2,1,2,3","true","","",""
"null","","html-keyboard-response","371","281704","0.0-371.0","","<img src=""img/set2/S2.jpg"" width=""540"" height = ""360"" style=""border:16px solid orange"">","null","","","","","","","","",""
"null","","html-keyboard-response","372","281907","0.0-372.0","","","null","","","","","","","","",""
"819.2999999970198","","image-keyboard-response","373","282727","0.0-373.0","","img/set2/S1.jpg","68","1","structured_normal","83","random,structured_normal,structured_incentive,structured_load","3,4,2,1,2,3","false","","",""
"null","","html-keyboard-response","374","283087","0.0-374.0","","<img src=""img/set2/S1.jpg"" width=""540"" height = ""360"">","null","","","","","","","","",""
"null","","html-keyboard-response","375","283290","0.0-375.0","","","null","","","","","","","","",""
"537.7999999970198","","image-keyboard-response","376","283829","0.0-376.0","","img/set2/S2.jpg","68","2","structured_normal","68","random,structured_normal,structured_incentive,structured_load","3,4,2,1,2,3","true","","",""
"null","","html-keyboard-response","377","284195","0.0-377.0","","<img src=""img/set2/S2.jpg"" width=""540"" height = ""360"" style=""border:16px solid orange"">","null","","","","","","","","",""
"null","","html-keyboard-response","378","284399","0.0-378.0","","","null","","","","","","","","",""
"508.1000000014901","","image-keyboard-response","379","284908","0.0-379.0","","img/set2/S1.jpg","74","1","structured_normal","83","random,structured_normal,structured_incentive,structured_load","3,4,2,1,2,3","false","","",""
"null","","html-keyboard-response","380","285263","0.0-380.0","","<img src=""img/set2/S1.jpg"" width=""540"" height = ""360"">","null","","","","","","","","",""
"null","","html-keyboard-response","381","285478","0.0-381.0","","","null","","","","","","","","",""
"1055.6000000014901","","image-keyboard-response","382","286534","0.0-382.0","","img/set2/S3.jpg","83","3","structured_normal","72","random,structured_normal,structured_incentive,structured_load","3,4,2,1,2,3","false","","",""
"null","","html-keyboard-response","383","286891","0.0-383.0","","<img src=""img/set2/S3.jpg"" width=""540"" height = ""360"">","null","","","","","","","","",""
"null","","html-keyboard-response","384","287095","0.0-384.0","","","null","","","","","","","","",""
"783.7000000029802","","image-keyboard-response","385","287879","0.0-385.0","","img/set2/S4.jpg","68","4","structured_normal","74","random,structured_normal,structured_incentive,structured_load","3,4,2,1,2,3","false","","",""
"null","","html-keyboard-response","386","288239","0.0-386.0","","<img src=""img/set2/S4.jpg"" width=""540"" height = ""360"">","null","","","","","","","","",""
"null","","html-keyboard-response","387","288455","0.0-387.0","","","null","","","","","","","","",""
"747.6000000014901","","image-keyboard-response","388","289203","0.0-388.0","","img/set2/S1.jpg","68","1","structured_normal","83","random,structured_normal,structured_incentive,structured_load","3,4,2,1,2,3","false","","",""
"null","","html-keyboard-response","389","289561","0.0-389.0","","<img src=""img/set2/S1.jpg"" width=""540"" height = ""360"">","null","","","","","","","","",""
"null","","html-keyboard-response","390","289767","0.0-390.0","","","null","","","","","","","","",""
"810.5","","image-keyboard-response","391","290578","0.0-391.0","","img/set2/S3.jpg","72","3","structured_normal","72","random,structured_normal,structured_incentive,structured_load","3,4,2,1,2,3","true","","",""
"null","","html-keyboard-response","392","290932","0.0-392.0","","<img src=""img/set2/S3.jpg"" width=""540"" height = ""360"" style=""border:16px solid orange"">","null","","","","","","","","",""
"null","","html-keyboard-response","393","291133","0.0-393.0","","","null","","","","","","","","",""
"975.6000000014901","","image-keyboard-response","394","292109","0.0-394.0","","img/set2/S4.jpg","74","4","structured_normal","74","random,structured_normal,structured_incentive,structured_load","3,4,2,1,2,3","true","","",""
"null","","html-keyboard-response","395","292472","0.0-395.0","","<img src=""img/set2/S4.jpg"" width=""540"" height = ""360"" style=""border:16px solid orange"">","null","","","","","","","","",""
"null","","html-keyboard-response","396","292675","0.0-396.0","","","null","","","","","","","","",""
"1009.5999999940395","","image-keyboard-response","397","293686","0.0-397.0","","img/set2/S1.jpg","68","1","structured_normal","83","random,structured_normal,structured_incentive,structured_load","3,4,2,1,2,3","false","","",""
"null","","html-keyboard-response","398","294051","0.0-398.0","","<img src=""img/set2/S1.jpg"" width=""540"" height = ""360"">","null","","","","","","","","",""
"null","","html-keyboard-response","399","294254","0.0-399.0","","","null","","","","","","","","",""
"802.7000000029802","","image-keyboard-response","400","295058","0.0-400.0","","img/set2/S3.jpg","72","3","structured_normal","72","random,structured_normal,structured_incentive,structured_load","3,4,2,1,2,3","true","","",""
"null","","html-keyboard-response","401","295410","0.0-401.0","","<img src=""img/set2/S3.jpg"" width=""540"" height = ""360"" style=""border:16px solid orange"">","null","","","","","","","","",""
"null","","html-keyboard-response","402","295611","0.0-402.0","","","null","","","","","","","","",""
"666.8999999985099","","image-keyboard-response","403","296279","0.0-403.0","","img/set2/S4.jpg","74","4","structured_normal","74","random,structured_normal,structured_incentive,structured_load","3,4,2,1,2,3","true","","",""
"null","","html-keyboard-response","404","296641","0.0-404.0","","<img src=""img/set2/S4.jpg"" width=""540"" height = ""360"" style=""border:16px solid orange"">","null","","","","","","","","",""
"null","","html-keyboard-response","405","296843","0.0-405.0","","","null","","","","","","","","",""
"628.6000000014901","","image-keyboard-response","406","297472","0.0-406.0","","img/set2/S2.jpg","83","2","structured_normal","68","random,structured_normal,structured_incentive,structured_load","3,4,2,1,2,3","false","","",""
"null","","html-keyboard-response","407","297827","0.0-407.0","","<img src=""img/set2/S2.jpg"" width=""540"" height = ""360"">","null","","","","","","","","",""
"null","","html-keyboard-response","408","298027","0.0-408.0","","","null","","","","","","","","",""
"684.7000000029802","","image-keyboard-response","409","298712","0.0-409.0","","img/set2/S3.jpg","72","3","structured_normal","72","random,structured_normal,structured_incentive,structured_load","3,4,2,1,2,3","true","","",""
"null","","html-keyboard-response","410","299078","0.0-410.0","","<img src=""img/set2/S3.jpg"" width=""540"" height = ""360"" style=""border:16px solid orange"">","null","","","","","","","","",""
"null","","html-keyboard-response","411","299282","0.0-411.0","","","null","","","","","","","","",""
"606.8000000044703","","image-keyboard-response","412","299889","0.0-412.0","","img/set2/S4.jpg","74","4","structured_normal","74","random,structured_normal,structured_incentive,structured_load","3,4,2,1,2,3","true","","",""
"null","","html-keyboard-response","413","300248","0.0-413.0","","<img src=""img/set2/S4.jpg"" width=""540"" height = ""360"" style=""border:16px solid orange"">","null","","","","","","","","",""
"null","","html-keyboard-response","414","300453","0.0-414.0","","","null","","","","","","","","",""
"441.79999999701977","","image-keyboard-response","415","300896","0.0-415.0","","img/set2/S1.jpg","68","1","structured_normal","83","random,structured_normal,structured_incentive,structured_load","3,4,2,1,2,3","false","","",""
"null","","html-keyboard-response","416","301255","0.0-416.0","","<img src=""img/set2/S1.jpg"" width=""540"" height = ""360"">","null","","","","","","","","",""
"null","","html-keyboard-response","417","301459","0.0-417.0","","","null","","","","","","","","",""
"1237.3999999985099","","image-keyboard-response","418","302697","0.0-418.0","","img/set2/S2.jpg","83","2","structured_normal","68","random,structured_normal,structured_incentive,structured_load","3,4,2,1,2,3","false","","",""
"null","","html-keyboard-response","419","303057","0.0-419.0","","<img src=""img/set2/S2.jpg"" width=""540"" height = ""360"">","null","","","","","","","","",""
"null","","html-keyboard-response","420","303260","0.0-420.0","","","null","","","","","","","","",""
"568.1000000014901","","image-keyboard-response","421","303829","0.0-421.0","","img/set2/S3.jpg","72","3","structured_normal","72","random,structured_normal,structured_incentive,structured_load","3,4,2,1,2,3","true","","",""
"null","","html-keyboard-response","422","304186","0.0-422.0","","<img src=""img/set2/S3.jpg"" width=""540"" height = ""360"" style=""border:16px solid orange"">","null","","","","","","","","",""
"null","","html-keyboard-response","423","304391","0.0-423.0","","","null","","","","","","","","",""
"409.20000000298023","","image-keyboard-response","424","304800","0.0-424.0","","img/set2/S4.jpg","74","4","structured_normal","74","random,structured_normal,structured_incentive,structured_load","3,4,2,1,2,3","true","","",""
"null","","html-keyboard-response","425","305158","0.0-425.0","","<img src=""img/set2/S4.jpg"" width=""540"" height = ""360"" style=""border:16px solid orange"">","null","","","","","","","","",""
"null","","html-keyboard-response","426","305362","0.0-426.0","","","null","","","","","","","","",""
"650.1000000014901","","image-keyboard-response","427","306013","0.0-427.0","","img/set2/S2.jpg","74","2","structured_normal","68","random,structured_normal,structured_incentive,structured_load","3,4,2,1,2,3","false","","",""
"null","","html-keyboard-response","428","306375","0.0-428.0","","<img src=""img/set2/S2.jpg"" width=""540"" height = ""360"">","null","","","","","","","","",""
"null","","html-keyboard-response","429","306580","0.0-429.0","","","null","","","","","","","","",""
"1495.2999999970198","","image-keyboard-response","430","308076","0.0-430.0","","img/set2/S1.jpg","74","1","structured_normal","83","random,structured_normal,structured_incentive,structured_load","3,4,2,1,2,3","false","","",""
"null","","html-keyboard-response","431","308439","0.0-431.0","","<img src=""img/set2/S1.jpg"" width=""540"" height = ""360"">","null","","","","","","","","",""
"null","","html-keyboard-response","432","308643","0.0-432.0","","","null","","","","","","","","",""
"652.3999999985099","","image-keyboard-response","433","309296","0.0-433.0","","img/set2/S2.jpg","72","2","structured_normal","68","random,structured_normal,structured_incentive,structured_load","3,4,2,1,2,3","false","","",""
"null","","html-keyboard-response","434","309650","0.0-434.0","","<img src=""img/set2/S2.jpg"" width=""540"" height = ""360"">","null","","","","","","","","",""
"null","","html-keyboard-response","435","309866","0.0-435.0","","","null","","","","","","","","",""
"989.1000000014901","","image-keyboard-response","436","310857","0.0-436.0","","img/set2/S1.jpg","72","1","structured_normal","83","random,structured_normal,structured_incentive,structured_load","3,4,2,1,2,3","false","","",""
"null","","html-keyboard-response","437","311219","0.0-437.0","","<img src=""img/set2/S1.jpg"" width=""540"" height = ""360"">","null","","","","","","","","",""
"null","","html-keyboard-response","438","311425","0.0-438.0","","","null","","","","","","","","",""
"467","","image-keyboard-response","439","311892","0.0-439.0","","img/set2/S1.jpg","68","1","structured_normal","83","random,structured_normal,structured_incentive,structured_load","3,4,2,1,2,3","false","","",""
"null","","html-keyboard-response","440","312256","0.0-440.0","","<img src=""img/set2/S1.jpg"" width=""540"" height = ""360"">","null","","","","","","","","",""
"null","","html-keyboard-response","441","312458","0.0-441.0","","","null","","","","","","","","",""
"1142.3999999985099","","image-keyboard-response","442","313601","0.0-442.0","","img/set2/S2.jpg","68","2","structured_normal","68","random,structured_normal,structured_incentive,structured_load","3,4,2,1,2,3","true","","",""
"null","","html-keyboard-response","443","313963","0.0-443.0","","<img src=""img/set2/S2.jpg"" width=""540"" height = ""360"" style=""border:16px solid orange"">","null","","","","","","","","",""
"null","","html-keyboard-response","444","314169","0.0-444.0","","","null","","","","","","","","",""
"901.3000000044703","","image-keyboard-response","445","315070","0.0-445.0","","img/set2/S3.jpg","72","3","structured_normal","72","random,structured_normal,structured_incentive,structured_load","3,4,2,1,2,3","true","","",""
"null","","html-keyboard-response","446","315432","0.0-446.0","","<img src=""img/set2/S3.jpg"" width=""540"" height = ""360"" style=""border:16px solid orange"">","null","","","","","","","","",""
"null","","html-keyboard-response","447","315635","0.0-447.0","","","null","","","","","","","","",""
"572.6000000014901","","image-keyboard-response","448","316208","0.0-448.0","","img/set2/S4.jpg","74","4","structured_normal","74","random,structured_normal,structured_incentive,structured_load","3,4,2,1,2,3","true","","",""
"null","","html-keyboard-response","449","316571","0.0-449.0","","<img src=""img/set2/S4.jpg"" width=""540"" height = ""360"" style=""border:16px solid orange"">","null","","","","","","","","",""
"null","","html-keyboard-response","450","316774","0.0-450.0","","","null","","","","","","","","",""
"752.7000000029802","","image-keyboard-response","451","317528","0.0-451.0","","img/set2/S3.jpg","72","3","structured_normal","72","random,structured_normal,structured_incentive,structured_load","3,4,2,1,2,3","true","","",""
"null","","html-keyboard-response","452","317883","0.0-452.0","","<img src=""img/set2/S3.jpg"" width=""540"" height = ""360"" style=""border:16px solid orange"">","null","","","","","","","","",""
"null","","html-keyboard-response","453","318088","0.0-453.0","","","null","","","","","","","","",""
"396.80000000447035","","image-keyboard-response","454","318485","0.0-454.0","","img/set2/S4.jpg","74","4","structured_normal","74","random,structured_normal,structured_incentive,structured_load","3,4,2,1,2,3","true","","",""
"null","","html-keyboard-response","455","318845","0.0-455.0","","<img src=""img/set2/S4.jpg"" width=""540"" height = ""360"" style=""border:16px solid orange"">","null","","","","","","","","",""
"null","","html-keyboard-response","456","319049","0.0-456.0","","","null","","","","","","","","",""
"411.6000000014901","","image-keyboard-response","457","319461","0.0-457.0","","img/set2/S2.jpg","68","2","structured_normal","68","random,structured_normal,structured_incentive,structured_load","3,4,2,1,2,3","true","","",""
"null","","html-keyboard-response","458","319823","0.0-458.0","","<img src=""img/set2/S2.jpg"" width=""540"" height = ""360"" style=""border:16px solid orange"">","null","","","","","","","","",""
"null","","html-keyboard-response","459","320029","0.0-459.0","","","null","","","","","","","","",""
"580.5999999940395","","image-keyboard-response","460","320610","0.0-460.0","","img/set2/S3.jpg","72","3","structured_normal","72","random,structured_normal,structured_incentive,structured_load","3,4,2,1,2,3","true","","",""
"null","","html-keyboard-response","461","320968","0.0-461.0","","<img src=""img/set2/S3.jpg"" width=""540"" height = ""360"" style=""border:16px solid orange"">","null","","","","","","","","",""
"null","","html-keyboard-response","462","321170","0.0-462.0","","","null","","","","","","","","",""
"410.79999999701977","","image-keyboard-response","463","321582","0.0-463.0","","img/set2/S4.jpg","74","4","structured_normal","74","random,structured_normal,structured_incentive,structured_load","3,4,2,1,2,3","true","","",""
"null","","html-keyboard-response","464","321948","0.0-464.0","","<img src=""img/set2/S4.jpg"" width=""540"" height = ""360"" style=""border:16px solid orange"">","null","","","","","","","","",""
"null","","html-keyboard-response","465","322152","0.0-465.0","","","null","","","","","","","","",""
"398","","image-keyboard-response","466","322550","0.0-466.0","","img/set2/S3.jpg","68","3","structured_normal","72","random,structured_normal,structured_incentive,structured_load","3,4,2,1,2,3","false","","",""
"null","","html-keyboard-response","467","322907","0.0-467.0","","<img src=""img/set2/S3.jpg"" width=""540"" height = ""360"">","null","","","","","","","","",""
"null","","html-keyboard-response","468","323111","0.0-468.0","","","null","","","","","","","","",""
"731.2000000029802","","image-keyboard-response","469","323842","0.0-469.0","","img/set2/S4.jpg","74","4","structured_normal","74","random,structured_normal,structured_incentive,structured_load","3,4,2,1,2,3","true","","",""
"null","","html-keyboard-response","470","324201","0.0-470.0","","<img src=""img/set2/S4.jpg"" width=""540"" height = ""360"" style=""border:16px solid orange"">","null","","","","","","","","",""
"null","","html-keyboard-response","471","324417","0.0-471.0","","","null","","","","","","","","",""
"823.2000000029802","","image-keyboard-response","472","325241","0.0-472.0","","img/set2/S2.jpg","83","2","structured_normal","68","random,structured_normal,structured_incentive,structured_load","3,4,2,1,2,3","false","","",""
"null","","html-keyboard-response","473","325607","0.0-473.0","","<img src=""img/set2/S2.jpg"" width=""540"" height = ""360"">","null","","","","","","","","",""
"null","","html-keyboard-response","474","325812","0.0-474.0","","","null","","","","","","","","",""
"558","","image-keyboard-response","475","326371","0.0-475.0","","img/set2/S2.jpg","68","2","structured_normal","68","random,structured_normal,structured_incentive,structured_load","3,4,2,1,2,3","true","","",""
"null","","html-keyboard-response","476","326723","0.0-476.0","","<img src=""img/set2/S2.jpg"" width=""540"" height = ""360"" style=""border:16px solid orange"">","null","","","","","","","","",""
"null","","html-keyboard-response","477","326929","0.0-477.0","","","null","","","","","","","","",""
"958.6000000014901","","image-keyboard-response","478","327888","0.0-478.0","","img/set2/S1.jpg","83","1","structured_normal","83","random,structured_normal,structured_incentive,structured_load","3,4,2,1,2,3","true","","",""
"null","","html-keyboard-response","479","328240","0.0-479.0","","<img src=""img/set2/S1.jpg"" width=""540"" height = ""360"" style=""border:16px solid orange"">","null","","","","","","","","",""
"null","","html-keyboard-response","480","328455","0.0-480.0","","","null","","","","","","","","",""
"646.6000000014901","","image-keyboard-response","481","329102","0.0-481.0","","img/set2/S3.jpg","72","3","structured_normal","72","random,structured_normal,structured_incentive,structured_load","3,4,2,1,2,3","true","","",""
"null","","html-keyboard-response","482","329469","0.0-482.0","","<img src=""img/set2/S3.jpg"" width=""540"" height = ""360"" style=""border:16px solid orange"">","null","","","","","","","","",""
"null","","html-keyboard-response","483","329672","0.0-483.0","","","null","","","","","","","","",""
"394.1000000014901","","image-keyboard-response","484","330066","0.0-484.0","","img/set2/S4.jpg","74","4","structured_normal","74","random,structured_normal,structured_incentive,structured_load","3,4,2,1,2,3","true","","",""
"null","","html-keyboard-response","485","330432","0.0-485.0","","<img src=""img/set2/S4.jpg"" width=""540"" height = ""360"" style=""border:16px solid orange"">","null","","","","","","","","",""
"null","","html-keyboard-response","486","330635","0.0-486.0","","","null","","","","","","","","",""
"910.8999999985099","","image-keyboard-response","487","331546","0.0-487.0","","img/set2/S3.jpg","68","3","structured_normal","72","random,structured_normal,structured_incentive,structured_load","3,4,2,1,2,3","false","","",""
"null","","html-keyboard-response","488","331899","0.0-488.0","","<img src=""img/set2/S3.jpg"" width=""540"" height = ""360"">","null","","","","","","","","",""
"null","","html-keyboard-response","489","332101","0.0-489.0","","","null","","","","","","","","",""
"592.8999999985099","","image-keyboard-response","490","332695","0.0-490.0","","img/set2/S4.jpg","74","4","structured_normal","74","random,structured_normal,structured_incentive,structured_load","3,4,2,1,2,3","true","","",""
"null","","html-keyboard-response","491","333047","0.0-491.0","","<img src=""img/set2/S4.jpg"" width=""540"" height = ""360"" style=""border:16px solid orange"">","null","","","","","","","","",""
"null","","html-keyboard-response","492","333263","0.0-492.0","","","null","","","","","","","","",""
"901.6999999955297","","image-keyboard-response","493","334165","0.0-493.0","","img/set2/S1.jpg","83","1","structured_normal","83","random,structured_normal,structured_incentive,structured_load","3,4,2,1,2,3","true","","",""
"null","","html-keyboard-response","494","334525","0.0-494.0","","<img src=""img/set2/S1.jpg"" width=""540"" height = ""360"" style=""border:16px solid orange"">","null","","","","","","","","",""
"null","","html-keyboard-response","495","334729","0.0-495.0","","","null","","","","","","","","",""
"718.5999999940395","","image-keyboard-response","496","335449","0.0-496.0","","img/set2/S2.jpg","68","2","structured_normal","68","random,structured_normal,structured_incentive,structured_load","3,4,2,1,2,3","true","","",""
"null","","html-keyboard-response","497","335801","0.0-497.0","","<img src=""img/set2/S2.jpg"" width=""540"" height = ""360"" style=""border:16px solid orange"">","null","","","","","","","","",""
"null","","html-keyboard-response","498","336017","0.0-498.0","","","null","","","","","","","","",""
"656.3000000044703","","image-keyboard-response","499","336674","0.0-499.0","","img/set2/S3.jpg","72","3","structured_normal","72","random,structured_normal,structured_incentive,structured_load","3,4,2,1,2,3","true","","",""
"null","","html-keyboard-response","500","337030","0.0-500.0","","<img src=""img/set2/S3.jpg"" width=""540"" height = ""360"" style=""border:16px solid orange"">","null","","","","","","","","",""
"null","","html-keyboard-response","501","337233","0.0-501.0","","","null","","","","","","","","",""
"363.1000000014901","","image-keyboard-response","502","337596","0.0-502.0","","img/set2/S4.jpg","74","4","structured_normal","74","random,structured_normal,structured_incentive,structured_load","3,4,2,1,2,3","true","","",""
"null","","html-keyboard-response","503","337950","0.0-503.0","","<img src=""img/set2/S4.jpg"" width=""540"" height = ""360"" style=""border:16px solid orange"">","null","","","","","","","","",""
"null","","html-keyboard-response","504","338154","0.0-504.0","","","null","","","","","","","","",""
"710.2000000029802","","image-keyboard-response","505","338865","0.0-505.0","","img/set2/S2.jpg","83","2","structured_normal","68","random,structured_normal,structured_incentive,structured_load","3,4,2,1,2,3","false","","",""
"null","","html-keyboard-response","506","339230","0.0-506.0","","<img src=""img/set2/S2.jpg"" width=""540"" height = ""360"">","null","","","","","","","","",""
"null","","html-keyboard-response","507","339446","0.0-507.0","","","null","","","","","","","","",""
"684.3999999985099","","image-keyboard-response","508","340131","0.0-508.0","","img/set2/S2.jpg","68","2","structured_normal","68","random,structured_normal,structured_incentive,structured_load","3,4,2,1,2,3","true","","",""
"null","","html-keyboard-response","509","340491","0.0-509.0","","<img src=""img/set2/S2.jpg"" width=""540"" height = ""360"" style=""border:16px solid orange"">","null","","","","","","","","",""
"null","","html-keyboard-response","510","340693","0.0-510.0","","","null","","","","","","","","",""
"443","","image-keyboard-response","511","341136","0.0-511.0","","img/set2/S2.jpg","68","2","structured_normal","68","random,structured_normal,structured_incentive,structured_load","3,4,2,1,2,3","true","","",""
"null","","html-keyboard-response","512","341501","0.0-512.0","","<img src=""img/set2/S2.jpg"" width=""540"" height = ""360"" style=""border:16px solid orange"">","null","","","","","","","","",""
"null","","html-keyboard-response","513","341703","0.0-513.0","","","null","","","","","","","","",""
"407.80000000447035","","image-keyboard-response","514","342112","0.0-514.0","","img/set2/S2.jpg","68","2","structured_normal","68","random,structured_normal,structured_incentive,structured_load","3,4,2,1,2,3","true","","",""
"null","","html-keyboard-response","515","342476","0.0-515.0","","<img src=""img/set2/S2.jpg"" width=""540"" height = ""360"" style=""border:16px solid orange"">","null","","","","","","","","",""
"null","","html-keyboard-response","516","342678","0.0-516.0","","","null","","","","","","","","",""
"759.6999999955297","","image-keyboard-response","517","343439","0.0-517.0","","img/set2/S3.jpg","72","3","structured_normal","72","random,structured_normal,structured_incentive,structured_load","3,4,2,1,2,3","true","","",""
"null","","html-keyboard-response","518","343798","0.0-518.0","","<img src=""img/set2/S3.jpg"" width=""540"" height = ""360"" style=""border:16px solid orange"">","null","","","","","","","","",""
"null","","html-keyboard-response","519","343999","0.0-519.0","","","null","","","","","","","","",""
"410.3999999985099","","image-keyboard-response","520","344411","0.0-520.0","","img/set2/S4.jpg","74","4","structured_normal","74","random,structured_normal,structured_incentive,structured_load","3,4,2,1,2,3","true","","",""
"null","","html-keyboard-response","521","344764","0.0-521.0","","<img src=""img/set2/S4.jpg"" width=""540"" height = ""360"" style=""border:16px solid orange"">","null","","","","","","","","",""
"null","","html-keyboard-response","522","344966","0.0-522.0","","","null","","","","","","","","",""
"491.1000000014901","","image-keyboard-response","523","345458","0.0-523.0","","img/set2/S3.jpg","72","3","structured_normal","72","random,structured_normal,structured_incentive,structured_load","3,4,2,1,2,3","true","","",""
"null","","html-keyboard-response","524","345819","0.0-524.0","","<img src=""img/set2/S3.jpg"" width=""540"" height = ""360"" style=""border:16px solid orange"">","null","","","","","","","","",""
"null","","html-keyboard-response","525","346021","0.0-525.0","","","null","","","","","","","","",""
"770.5","","image-keyboard-response","526","346792","0.0-526.0","","img/set2/S4.jpg","74","4","structured_normal","74","random,structured_normal,structured_incentive,structured_load","3,4,2,1,2,3","true","","",""
"null","","html-keyboard-response","527","347158","0.0-527.0","","<img src=""img/set2/S4.jpg"" width=""540"" height = ""360"" style=""border:16px solid orange"">","null","","","","","","","","",""
"null","","html-keyboard-response","528","347359","0.0-528.0","","","null","","","","","","","","",""
"670.8999999985099","","image-keyboard-response","529","348031","0.0-529.0","","img/set2/S1.jpg","83","1","structured_normal","83","random,structured_normal,structured_incentive,structured_load","3,4,2,1,2,3","true","","",""
"null","","html-keyboard-response","530","348388","0.0-530.0","","<img src=""img/set2/S1.jpg"" width=""540"" height = ""360"" style=""border:16px solid orange"">","null","","","","","","","","",""
"null","","html-keyboard-response","531","348590","0.0-531.0","","","null","","","","","","","","",""
"468.69999999552965","","image-keyboard-response","532","349059","0.0-532.0","","img/set2/S1.jpg","83","1","structured_normal","83","random,structured_normal,structured_incentive,structured_load","3,4,2,1,2,3","true","","",""
"null","","html-keyboard-response","533","349413","0.0-533.0","","<img src=""img/set2/S1.jpg"" width=""540"" height = ""360"" style=""border:16px solid orange"">","null","","","","","","","","",""
"null","","html-keyboard-response","534","349615","0.0-534.0","","","null","","","","","","","","",""
"693.2999999970198","","image-keyboard-response","535","350309","0.0-535.0","","img/set2/S2.jpg","68","2","structured_normal","68","random,structured_normal,structured_incentive,structured_load","3,4,2,1,2,3","true","","",""
"null","","html-keyboard-response","536","350671","0.0-536.0","","<img src=""img/set2/S2.jpg"" width=""540"" height = ""360"" style=""border:16px solid orange"">","null","","","","","","","","",""
"null","","html-keyboard-response","537","350873","0.0-537.0","","","null","","","","","","","","",""
"644.0999999940395","","image-keyboard-response","538","351518","0.0-538.0","","img/set2/S1.jpg","83","1","structured_normal","83","random,structured_normal,structured_incentive,structured_load","3,4,2,1,2,3","true","","",""
"null","","html-keyboard-response","539","351873","0.0-539.0","","<img src=""img/set2/S1.jpg"" width=""540"" height = ""360"" style=""border:16px solid orange"">","null","","","","","","","","",""
"null","","html-keyboard-response","540","352076","0.0-540.0","","","null","","","","","","","","",""
"406.6000000014901","","image-keyboard-response","541","352483","0.0-541.0","","img/set2/S1.jpg","83","1","structured_normal","83","random,structured_normal,structured_incentive,structured_load","3,4,2,1,2,3","true","","",""
"null","","html-keyboard-response","542","352838","0.0-542.0","","<img src=""img/set2/S1.jpg"" width=""540"" height = ""360"" style=""border:16px solid orange"">","null","","","","","","","","",""
"null","","html-keyboard-response","543","353039","0.0-543.0","","","null","","","","","","","","",""
"605.3999999985099","","image-keyboard-response","544","353645","0.0-544.0","","img/set2/S3.jpg","72","3","structured_normal","72","random,structured_normal,structured_incentive,structured_load","3,4,2,1,2,3","true","","",""
"null","","html-keyboard-response","545","354001","0.0-545.0","","<img src=""img/set2/S3.jpg"" width=""540"" height = ""360"" style=""border:16px solid orange"">","null","","","","","","","","",""
"null","","html-keyboard-response","546","354203","0.0-546.0","","","null","","","","","","","","",""
"337.29999999701977","","image-keyboard-response","547","354541","0.0-547.0","","img/set2/S4.jpg","74","4","structured_normal","74","random,structured_normal,structured_incentive,structured_load","3,4,2,1,2,3","true","","",""
"null","","html-keyboard-response","548","354905","0.0-548.0","","<img src=""img/set2/S4.jpg"" width=""540"" height = ""360"" style=""border:16px solid orange"">","null","","","","","","","","",""
"null","","html-keyboard-response","549","355119","0.0-549.0","","","null","","","","","","","","",""
"746.6000000014901","","image-keyboard-response","550","355866","0.0-550.0","","img/set2/S1.jpg","83","1","structured_normal","83","random,structured_normal,structured_incentive,structured_load","3,4,2,1,2,3","true","","",""
"null","","html-keyboard-response","551","356222","0.0-551.0","","<img src=""img/set2/S1.jpg"" width=""540"" height = ""360"" style=""border:16px solid orange"">","null","","","","","","","","",""
"null","","html-keyboard-response","552","356422","0.0-552.0","","","null","","","","","","","","",""
"426.6000000014901","","image-keyboard-response","553","356850","0.0-553.0","","img/set2/S1.jpg","83","1","structured_normal","83","random,structured_normal,structured_incentive,structured_load","3,4,2,1,2,3","true","","",""
"null","","html-keyboard-response","554","357212","0.0-554.0","","<img src=""img/set2/S1.jpg"" width=""540"" height = ""360"" style=""border:16px solid orange"">","null","","","","","","","","",""
"null","","html-keyboard-response","555","357428","0.0-555.0","","","null","","","","","","","","",""
"664.1000000014901","","image-keyboard-response","556","358092","0.0-556.0","","img/set2/S2.jpg","68","2","structured_normal","68","random,structured_normal,structured_incentive,structured_load","3,4,2,1,2,3","true","","",""
"null","","html-keyboard-response","557","358451","0.0-557.0","","<img src=""img/set2/S2.jpg"" width=""540"" height = ""360"" style=""border:16px solid orange"">","null","","","","","","","","",""
"null","","html-keyboard-response","558","358666","0.0-558.0","","","null","","","","","","","","",""
"536","","image-keyboard-response","559","359203","0.0-559.0","","img/set2/S1.jpg","83","1","structured_normal","83","random,structured_normal,structured_incentive,structured_load","3,4,2,1,2,3","true","","",""
"null","","html-keyboard-response","560","359567","0.0-560.0","","<img src=""img/set2/S1.jpg"" width=""540"" height = ""360"" style=""border:16px solid orange"">","null","","","","","","","","",""
"null","","html-keyboard-response","561","359783","0.0-561.0","","","null","","","","","","","","",""
"556.8999999985099","","image-keyboard-response","562","360341","0.0-562.0","","img/set2/S3.jpg","72","3","structured_normal","72","random,structured_normal,structured_incentive,structured_load","3,4,2,1,2,3","true","","",""
"null","","html-keyboard-response","563","360705","0.0-563.0","","<img src=""img/set2/S3.jpg"" width=""540"" height = ""360"" style=""border:16px solid orange"">","null","","","","","","","","",""
"null","","html-keyboard-response","564","360910","0.0-564.0","","","null","","","","","","","","",""
"340.29999999701977","","image-keyboard-response","565","361252","0.0-565.0","","img/set2/S4.jpg","74","4","structured_normal","74","random,structured_normal,structured_incentive,structured_load","3,4,2,1,2,3","true","","",""
"null","","html-keyboard-response","566","361607","0.0-566.0","","<img src=""img/set2/S4.jpg"" width=""540"" height = ""360"" style=""border:16px solid orange"">","null","","","","","","","","",""
"null","","html-keyboard-response","567","361823","0.0-567.0","","","null","","","","","","","","",""
"735.3999999985099","","image-keyboard-response","568","362559","0.0-568.0","","img/set2/S3.jpg","72","3","structured_normal","72","random,structured_normal,structured_incentive,structured_load","3,4,2,1,2,3","true","","",""
"null","","html-keyboard-response","569","362911","0.0-569.0","","<img src=""img/set2/S3.jpg"" width=""540"" height = ""360"" style=""border:16px solid orange"">","null","","","","","","","","",""
"null","","html-keyboard-response","570","363127","0.0-570.0","","","null","","","","","","","","",""
"383","","image-keyboard-response","571","363511","0.0-571.0","","img/set2/S4.jpg","74","4","structured_normal","74","random,structured_normal,structured_incentive,structured_load","3,4,2,1,2,3","true","","",""
"null","","html-keyboard-response","572","363874","0.0-572.0","","<img src=""img/set2/S4.jpg"" width=""540"" height = ""360"" style=""border:16px solid orange"">","null","","","","","","","","",""
"null","","html-keyboard-response","573","364078","0.0-573.0","","","null","","","","","","","","",""
"867","","image-keyboard-response","574","364945","0.0-574.0","","img/set2/S2.jpg","68","2","structured_normal","68","random,structured_normal,structured_incentive,structured_load","3,4,2,1,2,3","true","","",""
"null","","html-keyboard-response","575","365304","0.0-575.0","","<img src=""img/set2/S2.jpg"" width=""540"" height = ""360"" style=""border:16px solid orange"">","null","","","","","","","","",""
"null","","html-keyboard-response","576","365506","0.0-576.0","","","null","","","","","","","","",""
"397.79999999701977","","image-keyboard-response","577","365905","0.0-577.0","","img/set2/S1.jpg","83","1","structured_normal","83","random,structured_normal,structured_incentive,structured_load","3,4,2,1,2,3","true","","",""
"null","","html-keyboard-response","578","366269","0.0-578.0","","<img src=""img/set2/S1.jpg"" width=""540"" height = ""360"" style=""border:16px solid orange"">","null","","","","","","","","",""
"null","","html-keyboard-response","579","366486","0.0-579.0","","","null","","","","","","","","",""
"443.6000000014901","","image-keyboard-response","580","366930","0.0-580.0","","img/set2/S1.jpg","83","1","structured_normal","83","random,structured_normal,structured_incentive,structured_load","3,4,2,1,2,3","true","","",""
"null","","html-keyboard-response","581","367282","0.0-581.0","","<img src=""img/set2/S1.jpg"" width=""540"" height = ""360"" style=""border:16px solid orange"">","null","","","","","","","","",""
"null","","html-keyboard-response","582","367498","0.0-582.0","","","null","","","","","","","","",""
"475.69999999552965","","image-keyboard-response","583","367974","0.0-583.0","","img/set2/S1.jpg","83","1","structured_normal","83","random,structured_normal,structured_incentive,structured_load","3,4,2,1,2,3","true","","",""
"null","","html-keyboard-response","584","368332","0.0-584.0","","<img src=""img/set2/S1.jpg"" width=""540"" height = ""360"" style=""border:16px solid orange"">","null","","","","","","","","",""
"null","","html-keyboard-response","585","368537","0.0-585.0","","","null","","","","","","","","",""
