"rt","url","trial_type","trial_index","time_elapsed","internal_node_id","view_history","stimulus","key_press","state","test_part","correct_response","order_block","order_chunk","correct","responses","bonus"
"11711.099999904633","consent.html","external-html","0","11790","0.0-0.0","","","","","","","","","","",""
"85337.7999997139","","instructions","1","97132","0.0-1.0","[{""page_index"":0,""viewing_time"":4353.199999809265},{""page_index"":1,""viewing_time"":10663.900000095367},{""page_index"":2,""viewing_time"":12048.099999904633},{""page_index"":3,""viewing_time"":17608},{""page_index"":4,""viewing_time"":9199.900000095367},{""page_index"":5,""viewing_time"":17984.099999904633},{""page_index"":6,""viewing_time"":13479.800000190735}]","","","","","","","","","",""
"15254.89999961853","","instructions","2","112388","0.0-2.0","[{""page_index"":0,""viewing_time"":15254.699999809265}]","","","","","","","","","",""
"9838.60000038147","","instructions","3","122227","0.0-3.0","[{""page_index"":0,""viewing_time"":9838.300000190735}]","","","","","","","","","",""
"2247.5","","image-keyboard-response","4","124477","0.0-4.0","","img/set1/S2.jpg","74","2","random","68","random,structured_incentive,structured_load,structured_normal","3,4,2,3,2,1","false","",""
"null","","html-keyboard-response","5","124831","0.0-5.0","","<img src=""img/set1/S2.jpg"" width=""540"" height = ""360"">","null","","","","","","","",""
"null","","html-keyboard-response","6","125033","0.0-6.0","","","null","","","","","","","",""
"1849","","image-keyboard-response","7","126883","0.0-7.0","","img/set1/S2.jpg","74","2","random","68","random,structured_incentive,structured_load,structured_normal","3,4,2,3,2,1","false","",""
"null","","html-keyboard-response","8","127237","0.0-8.0","","<img src=""img/set1/S2.jpg"" width=""540"" height = ""360"">","null","","","","","","","",""
"null","","html-keyboard-response","9","127438","0.0-9.0","","","null","","","","","","","",""
"null","","image-keyboard-response","10","129941","0.0-10.0","","img/set1/S1.jpg","null","1","random","83","random,structured_incentive,structured_load,structured_normal","3,4,2,3,2,1","false","",""
"null","","html-keyboard-response","11","130300","0.0-11.0","","<img src=""img/set1/S1.jpg"" width=""540"" height = ""360"">","null","","","","","","","",""
"null","","html-keyboard-response","12","130515","0.0-12.0","","","null","","","","","","","",""
"null","","image-keyboard-response","13","133017","0.0-13.0","","img/set1/S1.jpg","null","1","random","83","random,structured_incentive,structured_load,structured_normal","3,4,2,3,2,1","false","",""
"null","","html-keyboard-response","14","133369","0.0-14.0","","<img src=""img/set1/S1.jpg"" width=""540"" height = ""360"">","null","","","","","","","",""
"null","","html-keyboard-response","15","133571","0.0-15.0","","","null","","","","","","","",""
"1089.3999996185303","","image-keyboard-response","16","134661","0.0-16.0","","img/set1/S2.jpg","74","2","random","68","random,structured_incentive,structured_load,structured_normal","3,4,2,3,2,1","false","",""
"null","","html-keyboard-response","17","135015","0.0-17.0","","<img src=""img/set1/S2.jpg"" width=""540"" height = ""360"">","null","","","","","","","",""
"null","","html-keyboard-response","18","135217","0.0-18.0","","","null","","","","","","","",""
"825.9000000953674","","image-keyboard-response","19","136043","0.0-19.0","","img/set1/S2.jpg","74","2","random","68","random,structured_incentive,structured_load,structured_normal","3,4,2,3,2,1","false","",""
"null","","html-keyboard-response","20","136408","0.0-20.0","","<img src=""img/set1/S2.jpg"" width=""540"" height = ""360"">","null","","","","","","","",""
"null","","html-keyboard-response","21","136616","0.0-21.0","","","null","","","","","","","",""
"1235.4000000953674","","image-keyboard-response","22","137853","0.0-22.0","","img/set1/S3.jpg","72","3","random","72","random,structured_incentive,structured_load,structured_normal","3,4,2,3,2,1","true","",""
"null","","html-keyboard-response","23","138206","0.0-23.0","","<img src=""img/set1/S3.jpg"" width=""540"" height = ""360"" style=""border:16px solid orange"">","null","","","","","","","",""
"null","","html-keyboard-response","24","138418","0.0-24.0","","","null","","","","","","","",""
"1224.8000001907349","","image-keyboard-response","25","139644","0.0-25.0","","img/set1/S3.jpg","72","3","random","72","random,structured_incentive,structured_load,structured_normal","3,4,2,3,2,1","true","",""
"null","","html-keyboard-response","26","139998","0.0-26.0","","<img src=""img/set1/S3.jpg"" width=""540"" height = ""360"" style=""border:16px solid orange"">","null","","","","","","","",""
"null","","html-keyboard-response","27","140215","0.0-27.0","","","null","","","","","","","",""
"1155.7999997138977","","image-keyboard-response","28","141371","0.0-28.0","","img/set1/S2.jpg","68","2","random","68","random,structured_incentive,structured_load,structured_normal","3,4,2,3,2,1","true","",""
"null","","html-keyboard-response","29","141737","0.0-29.0","","<img src=""img/set1/S2.jpg"" width=""540"" height = ""360"" style=""border:16px solid orange"">","null","","","","","","","",""
"null","","html-keyboard-response","30","141938","0.0-30.0","","","null","","","","","","","",""
"null","","image-keyboard-response","31","144456","0.0-31.0","","img/set1/S1.jpg","null","1","random","83","random,structured_incentive,structured_load,structured_normal","3,4,2,3,2,1","false","",""
"null","","html-keyboard-response","32","144809","0.0-32.0","","<img src=""img/set1/S1.jpg"" width=""540"" height = ""360"">","null","","","","","","","",""
"null","","html-keyboard-response","33","145010","0.0-33.0","","","null","","","","","","","",""
"1433.4000000953674","","image-keyboard-response","34","146444","0.0-34.0","","img/set1/S4.jpg","74","4","random","74","random,structured_incentive,structured_load,structured_normal","3,4,2,3,2,1","true","",""
"null","","html-keyboard-response","35","146796","0.0-35.0","","<img src=""img/set1/S4.jpg"" width=""540"" height = ""360"" style=""border:16px solid orange"">","null","","","","","","","",""
"null","","html-keyboard-response","36","146998","0.0-36.0","","","null","","","","","","","",""
"1645.4000000953674","","image-keyboard-response","37","148645","0.0-37.0","","img/set1/S1.jpg","72","1","random","83","random,structured_incentive,structured_load,structured_normal","3,4,2,3,2,1","false","",""
"null","","html-keyboard-response","38","148999","0.0-38.0","","<img src=""img/set1/S1.jpg"" width=""540"" height = ""360"">","null","","","","","","","",""
"null","","html-keyboard-response","39","149201","0.0-39.0","","","null","","","","","","","",""
"1234.5","","image-keyboard-response","40","150436","0.0-40.0","","img/set1/S3.jpg","72","3","random","72","random,structured_incentive,structured_load,structured_normal","3,4,2,3,2,1","true","",""
"null","","html-keyboard-response","41","150790","0.0-41.0","","<img src=""img/set1/S3.jpg"" width=""540"" height = ""360"" style=""border:16px solid orange"">","null","","","","","","","",""
"null","","html-keyboard-response","42","150992","0.0-42.0","","","null","","","","","","","",""
"1002.5","","image-keyboard-response","43","151995","0.0-43.0","","img/set1/S4.jpg","74","4","random","74","random,structured_incentive,structured_load,structured_normal","3,4,2,3,2,1","true","",""
"null","","html-keyboard-response","44","152348","0.0-44.0","","<img src=""img/set1/S4.jpg"" width=""540"" height = ""360"" style=""border:16px solid orange"">","null","","","","","","","",""
"null","","html-keyboard-response","45","152550","0.0-45.0","","","null","","","","","","","",""
"1196.8999996185303","","image-keyboard-response","46","153749","0.0-46.0","","img/set1/S2.jpg","68","2","random","68","random,structured_incentive,structured_load,structured_normal","3,4,2,3,2,1","true","",""
"null","","html-keyboard-response","47","154102","0.0-47.0","","<img src=""img/set1/S2.jpg"" width=""540"" height = ""360"" style=""border:16px solid orange"">","null","","","","","","","",""
"null","","html-keyboard-response","48","154304","0.0-48.0","","","null","","","","","","","",""
"1355.7999997138977","","image-keyboard-response","49","155661","0.0-49.0","","img/set1/S4.jpg","72","4","random","74","random,structured_incentive,structured_load,structured_normal","3,4,2,3,2,1","false","",""
"null","","html-keyboard-response","50","156013","0.0-50.0","","<img src=""img/set1/S4.jpg"" width=""540"" height = ""360"">","null","","","","","","","",""
"null","","html-keyboard-response","51","156215","0.0-51.0","","","null","","","","","","","",""
"867.5","","image-keyboard-response","52","157083","0.0-52.0","","img/set1/S2.jpg","72","2","random","68","random,structured_incentive,structured_load,structured_normal","3,4,2,3,2,1","false","",""
"null","","html-keyboard-response","53","157435","0.0-53.0","","<img src=""img/set1/S2.jpg"" width=""540"" height = ""360"">","null","","","","","","","",""
"null","","html-keyboard-response","54","157637","0.0-54.0","","","null","","","","","","","",""
"934.4000000953674","","image-keyboard-response","55","158573","0.0-55.0","","img/set1/S3.jpg","72","3","random","72","random,structured_incentive,structured_load,structured_normal","3,4,2,3,2,1","true","",""
"null","","html-keyboard-response","56","158925","0.0-56.0","","<img src=""img/set1/S3.jpg"" width=""540"" height = ""360"" style=""border:16px solid orange"">","null","","","","","","","",""
"null","","html-keyboard-response","57","159127","0.0-57.0","","","null","","","","","","","",""
"1140.9000000953674","","image-keyboard-response","58","160269","0.0-58.0","","img/set1/S4.jpg","74","4","random","74","random,structured_incentive,structured_load,structured_normal","3,4,2,3,2,1","true","",""
"null","","html-keyboard-response","59","160621","0.0-59.0","","<img src=""img/set1/S4.jpg"" width=""540"" height = ""360"" style=""border:16px solid orange"">","null","","","","","","","",""
"null","","html-keyboard-response","60","160823","0.0-60.0","","","null","","","","","","","",""
"1556.4000000953674","","image-keyboard-response","61","162381","0.0-61.0","","img/set1/S2.jpg","68","2","random","68","random,structured_incentive,structured_load,structured_normal","3,4,2,3,2,1","true","",""
"null","","html-keyboard-response","62","162734","0.0-62.0","","<img src=""img/set1/S2.jpg"" width=""540"" height = ""360"" style=""border:16px solid orange"">","null","","","","","","","",""
"null","","html-keyboard-response","63","162936","0.0-63.0","","","null","","","","","","","",""
"746.5999999046326","","image-keyboard-response","64","163683","0.0-64.0","","img/set1/S2.jpg","68","2","random","68","random,structured_incentive,structured_load,structured_normal","3,4,2,3,2,1","true","",""
"null","","html-keyboard-response","65","164036","0.0-65.0","","<img src=""img/set1/S2.jpg"" width=""540"" height = ""360"" style=""border:16px solid orange"">","null","","","","","","","",""
"null","","html-keyboard-response","66","164238","0.0-66.0","","","null","","","","","","","",""
"null","","image-keyboard-response","67","166740","0.0-67.0","","img/set1/S1.jpg","null","1","random","83","random,structured_incentive,structured_load,structured_normal","3,4,2,3,2,1","false","",""
"null","","html-keyboard-response","68","167093","0.0-68.0","","<img src=""img/set1/S1.jpg"" width=""540"" height = ""360"">","null","","","","","","","",""
"null","","html-keyboard-response","69","167294","0.0-69.0","","","null","","","","","","","",""
"1171","","image-keyboard-response","70","168468","0.0-70.0","","img/set1/S3.jpg","74","3","random","72","random,structured_incentive,structured_load,structured_normal","3,4,2,3,2,1","false","",""
"null","","html-keyboard-response","71","168819","0.0-71.0","","<img src=""img/set1/S3.jpg"" width=""540"" height = ""360"">","null","","","","","","","",""
"null","","html-keyboard-response","72","169021","0.0-72.0","","","null","","","","","","","",""
"718.0999999046326","","image-keyboard-response","73","169741","0.0-73.0","","img/set1/S3.jpg","72","3","random","72","random,structured_incentive,structured_load,structured_normal","3,4,2,3,2,1","true","",""
"null","","html-keyboard-response","74","170094","0.0-74.0","","<img src=""img/set1/S3.jpg"" width=""540"" height = ""360"" style=""border:16px solid orange"">","null","","","","","","","",""
"null","","html-keyboard-response","75","170296","0.0-75.0","","","null","","","","","","","",""
"546.5999999046326","","image-keyboard-response","76","170844","0.0-76.0","","img/set1/S3.jpg","72","3","random","72","random,structured_incentive,structured_load,structured_normal","3,4,2,3,2,1","true","",""
"null","","html-keyboard-response","77","171196","0.0-77.0","","<img src=""img/set1/S3.jpg"" width=""540"" height = ""360"" style=""border:16px solid orange"">","null","","","","","","","",""
"null","","html-keyboard-response","78","171398","0.0-78.0","","","null","","","","","","","",""
"1580.2000002861023","","image-keyboard-response","79","172979","0.0-79.0","","img/set1/S1.jpg","68","1","random","83","random,structured_incentive,structured_load,structured_normal","3,4,2,3,2,1","false","",""
"null","","html-keyboard-response","80","173331","0.0-80.0","","<img src=""img/set1/S1.jpg"" width=""540"" height = ""360"">","null","","","","","","","",""
"null","","html-keyboard-response","81","173532","0.0-81.0","","","null","","","","","","","",""
"2256.5999999046326","","image-keyboard-response","82","175789","0.0-82.0","","img/set1/S1.jpg","72","1","random","83","random,structured_incentive,structured_load,structured_normal","3,4,2,3,2,1","false","",""
"null","","html-keyboard-response","83","176141","0.0-83.0","","<img src=""img/set1/S1.jpg"" width=""540"" height = ""360"">","null","","","","","","","",""
"null","","html-keyboard-response","84","176343","0.0-84.0","","","null","","","","","","","",""
"1660.2999997138977","","image-keyboard-response","85","178005","0.0-85.0","","img/set1/S2.jpg","72","2","random","68","random,structured_incentive,structured_load,structured_normal","3,4,2,3,2,1","false","",""
"null","","html-keyboard-response","86","178359","0.0-86.0","","<img src=""img/set1/S2.jpg"" width=""540"" height = ""360"">","null","","","","","","","",""
"null","","html-keyboard-response","87","178576","0.0-87.0","","","null","","","","","","","",""
"514.2999997138977","","image-keyboard-response","88","179091","0.0-88.0","","img/set1/S2.jpg","68","2","random","68","random,structured_incentive,structured_load,structured_normal","3,4,2,3,2,1","true","",""
"null","","html-keyboard-response","89","179443","0.0-89.0","","<img src=""img/set1/S2.jpg"" width=""540"" height = ""360"" style=""border:16px solid orange"">","null","","","","","","","",""
"null","","html-keyboard-response","90","179646","0.0-90.0","","","null","","","","","","","",""
"909.5","","image-keyboard-response","91","180557","0.0-91.0","","img/set1/S4.jpg","72","4","random","74","random,structured_incentive,structured_load,structured_normal","3,4,2,3,2,1","false","",""
"null","","html-keyboard-response","92","180909","0.0-92.0","","<img src=""img/set1/S4.jpg"" width=""540"" height = ""360"">","null","","","","","","","",""
"null","","html-keyboard-response","93","181111","0.0-93.0","","","null","","","","","","","",""
"1412.1999998092651","","image-keyboard-response","94","182515","0.0-94.0","","img/set1/S3.jpg","72","3","random","72","random,structured_incentive,structured_load,structured_normal","3,4,2,3,2,1","true","",""
"null","","html-keyboard-response","95","182868","0.0-95.0","","<img src=""img/set1/S3.jpg"" width=""540"" height = ""360"" style=""border:16px solid orange"">","null","","","","","","","",""
"null","","html-keyboard-response","96","183069","0.0-96.0","","","null","","","","","","","",""
"1245.2999997138977","","image-keyboard-response","97","184315","0.0-97.0","","img/set1/S4.jpg","74","4","random","74","random,structured_incentive,structured_load,structured_normal","3,4,2,3,2,1","true","",""
"null","","html-keyboard-response","98","184673","0.0-98.0","","<img src=""img/set1/S4.jpg"" width=""540"" height = ""360"" style=""border:16px solid orange"">","null","","","","","","","",""
"null","","html-keyboard-response","99","184875","0.0-99.0","","","null","","","","","","","",""
"1310.5999999046326","","image-keyboard-response","100","186186","0.0-100.0","","img/set1/S1.jpg","74","1","random","83","random,structured_incentive,structured_load,structured_normal","3,4,2,3,2,1","false","",""
"null","","html-keyboard-response","101","186541","0.0-101.0","","<img src=""img/set1/S1.jpg"" width=""540"" height = ""360"">","null","","","","","","","",""
"null","","html-keyboard-response","102","186749","0.0-102.0","","","null","","","","","","","",""
"1787.3999996185303","","image-keyboard-response","103","188538","0.0-103.0","","img/set1/S2.jpg","68","2","random","68","random,structured_incentive,structured_load,structured_normal","3,4,2,3,2,1","true","",""
"null","","html-keyboard-response","104","188890","0.0-104.0","","<img src=""img/set1/S2.jpg"" width=""540"" height = ""360"" style=""border:16px solid orange"">","null","","","","","","","",""
"null","","html-keyboard-response","105","189091","0.0-105.0","","","null","","","","","","","",""
"1766.1999998092651","","image-keyboard-response","106","190858","0.0-106.0","","img/set1/S1.jpg","74","1","random","83","random,structured_incentive,structured_load,structured_normal","3,4,2,3,2,1","false","",""
"null","","html-keyboard-response","107","191210","0.0-107.0","","<img src=""img/set1/S1.jpg"" width=""540"" height = ""360"">","null","","","","","","","",""
"null","","html-keyboard-response","108","191411","0.0-108.0","","","null","","","","","","","",""
"1079.0999999046326","","image-keyboard-response","109","192492","0.0-109.0","","img/set1/S4.jpg","74","4","random","74","random,structured_incentive,structured_load,structured_normal","3,4,2,3,2,1","true","",""
"null","","html-keyboard-response","110","192853","0.0-110.0","","<img src=""img/set1/S4.jpg"" width=""540"" height = ""360"" style=""border:16px solid orange"">","null","","","","","","","",""
"null","","html-keyboard-response","111","193056","0.0-111.0","","","null","","","","","","","",""
"1242.8999996185303","","image-keyboard-response","112","194300","0.0-112.0","","img/set1/S2.jpg","72","2","random","68","random,structured_incentive,structured_load,structured_normal","3,4,2,3,2,1","false","",""
"null","","html-keyboard-response","113","194655","0.0-113.0","","<img src=""img/set1/S2.jpg"" width=""540"" height = ""360"">","null","","","","","","","",""
"null","","html-keyboard-response","114","194856","0.0-114.0","","","null","","","","","","","",""
"1001.4000000953674","","image-keyboard-response","115","195859","0.0-115.0","","img/set1/S4.jpg","74","4","random","74","random,structured_incentive,structured_load,structured_normal","3,4,2,3,2,1","true","",""
"null","","html-keyboard-response","116","196225","0.0-116.0","","<img src=""img/set1/S4.jpg"" width=""540"" height = ""360"" style=""border:16px solid orange"">","null","","","","","","","",""
"null","","html-keyboard-response","117","196432","0.0-117.0","","","null","","","","","","","",""
"833","","image-keyboard-response","118","197266","0.0-118.0","","img/set1/S4.jpg","74","4","random","74","random,structured_incentive,structured_load,structured_normal","3,4,2,3,2,1","true","",""
"null","","html-keyboard-response","119","197618","0.0-119.0","","<img src=""img/set1/S4.jpg"" width=""540"" height = ""360"" style=""border:16px solid orange"">","null","","","","","","","",""
"null","","html-keyboard-response","120","197818","0.0-120.0","","","null","","","","","","","",""
"1383.3999996185303","","image-keyboard-response","121","199202","0.0-121.0","","img/set1/S1.jpg","72","1","random","83","random,structured_incentive,structured_load,structured_normal","3,4,2,3,2,1","false","",""
"null","","html-keyboard-response","122","199554","0.0-122.0","","<img src=""img/set1/S1.jpg"" width=""540"" height = ""360"">","null","","","","","","","",""
"null","","html-keyboard-response","123","199770","0.0-123.0","","","null","","","","","","","",""
"952.2999997138977","","image-keyboard-response","124","200723","0.0-124.0","","img/set1/S4.jpg","74","4","random","74","random,structured_incentive,structured_load,structured_normal","3,4,2,3,2,1","true","",""
"null","","html-keyboard-response","125","201075","0.0-125.0","","<img src=""img/set1/S4.jpg"" width=""540"" height = ""360"" style=""border:16px solid orange"">","null","","","","","","","",""
"null","","html-keyboard-response","126","201277","0.0-126.0","","","null","","","","","","","",""
"1580.5999999046326","","image-keyboard-response","127","202858","0.0-127.0","","img/set1/S3.jpg","68","3","random","72","random,structured_incentive,structured_load,structured_normal","3,4,2,3,2,1","false","",""
"null","","html-keyboard-response","128","203209","0.0-128.0","","<img src=""img/set1/S3.jpg"" width=""540"" height = ""360"">","null","","","","","","","",""
"null","","html-keyboard-response","129","203411","0.0-129.0","","","null","","","","","","","",""
"1854.5","","image-keyboard-response","130","205266","0.0-130.0","","img/set1/S3.jpg","74","3","random","72","random,structured_incentive,structured_load,structured_normal","3,4,2,3,2,1","false","",""
"null","","html-keyboard-response","131","205619","0.0-131.0","","<img src=""img/set1/S3.jpg"" width=""540"" height = ""360"">","null","","","","","","","",""
"null","","html-keyboard-response","132","205820","0.0-132.0","","","null","","","","","","","",""
"1468.8999996185303","","image-keyboard-response","133","207290","0.0-133.0","","img/set1/S2.jpg","68","2","random","68","random,structured_incentive,structured_load,structured_normal","3,4,2,3,2,1","true","",""
"null","","html-keyboard-response","134","207642","0.0-134.0","","<img src=""img/set1/S2.jpg"" width=""540"" height = ""360"" style=""border:16px solid orange"">","null","","","","","","","",""
"null","","html-keyboard-response","135","207843","0.0-135.0","","","null","","","","","","","",""
"1565.9000000953674","","image-keyboard-response","136","209410","0.0-136.0","","img/set1/S3.jpg","72","3","random","72","random,structured_incentive,structured_load,structured_normal","3,4,2,3,2,1","true","",""
"null","","html-keyboard-response","137","209771","0.0-137.0","","<img src=""img/set1/S3.jpg"" width=""540"" height = ""360"" style=""border:16px solid orange"">","null","","","","","","","",""
"null","","html-keyboard-response","138","209973","0.0-138.0","","","null","","","","","","","",""
"null","","image-keyboard-response","139","212478","0.0-139.0","","img/set1/S1.jpg","null","1","random","83","random,structured_incentive,structured_load,structured_normal","3,4,2,3,2,1","false","",""
"null","","html-keyboard-response","140","212830","0.0-140.0","","<img src=""img/set1/S1.jpg"" width=""540"" height = ""360"">","null","","","","","","","",""
"null","","html-keyboard-response","141","213032","0.0-141.0","","","null","","","","","","","",""
"930.7999997138977","","image-keyboard-response","142","213964","0.0-142.0","","img/set1/S4.jpg","74","4","random","74","random,structured_incentive,structured_load,structured_normal","3,4,2,3,2,1","true","",""
"null","","html-keyboard-response","143","214316","0.0-143.0","","<img src=""img/set1/S4.jpg"" width=""540"" height = ""360"" style=""border:16px solid orange"">","null","","","","","","","",""
"null","","html-keyboard-response","144","214518","0.0-144.0","","","null","","","","","","","",""
"2052.0999999046326","","image-keyboard-response","145","216572","0.0-145.0","","img/set1/S2.jpg","68","2","random","68","random,structured_incentive,structured_load,structured_normal","3,4,2,3,2,1","true","",""
"null","","html-keyboard-response","146","216924","0.0-146.0","","<img src=""img/set1/S2.jpg"" width=""540"" height = ""360"" style=""border:16px solid orange"">","null","","","","","","","",""
"null","","html-keyboard-response","147","217126","0.0-147.0","","","null","","","","","","","",""
"1667.3000001907349","","image-keyboard-response","148","218794","0.0-148.0","","img/set1/S3.jpg","72","3","random","72","random,structured_incentive,structured_load,structured_normal","3,4,2,3,2,1","true","",""
"null","","html-keyboard-response","149","219146","0.0-149.0","","<img src=""img/set1/S3.jpg"" width=""540"" height = ""360"" style=""border:16px solid orange"">","null","","","","","","","",""
"null","","html-keyboard-response","150","219349","0.0-150.0","","","null","","","","","","","",""
"614","","image-keyboard-response","151","219964","0.0-151.0","","img/set1/S3.jpg","72","3","random","72","random,structured_incentive,structured_load,structured_normal","3,4,2,3,2,1","true","",""
"null","","html-keyboard-response","152","220317","0.0-152.0","","<img src=""img/set1/S3.jpg"" width=""540"" height = ""360"" style=""border:16px solid orange"">","null","","","","","","","",""
"null","","html-keyboard-response","153","220519","0.0-153.0","","","null","","","","","","","",""
"null","","image-keyboard-response","154","223021","0.0-154.0","","img/set1/S1.jpg","null","1","random","83","random,structured_incentive,structured_load,structured_normal","3,4,2,3,2,1","false","",""
"null","","html-keyboard-response","155","223373","0.0-155.0","","<img src=""img/set1/S1.jpg"" width=""540"" height = ""360"">","null","","","","","","","",""
"null","","html-keyboard-response","156","223575","0.0-156.0","","","null","","","","","","","",""
"1842.6000003814697","","image-keyboard-response","157","225418","0.0-157.0","","img/set1/S1.jpg","72","1","random","83","random,structured_incentive,structured_load,structured_normal","3,4,2,3,2,1","false","",""
"null","","html-keyboard-response","158","225770","0.0-158.0","","<img src=""img/set1/S1.jpg"" width=""540"" height = ""360"">","null","","","","","","","",""
"null","","html-keyboard-response","159","225973","0.0-159.0","","","null","","","","","","","",""
"1027.5999999046326","","image-keyboard-response","160","227002","0.0-160.0","","img/set1/S4.jpg","74","4","random","74","random,structured_incentive,structured_load,structured_normal","3,4,2,3,2,1","true","",""
"null","","html-keyboard-response","161","227353","0.0-161.0","","<img src=""img/set1/S4.jpg"" width=""540"" height = ""360"" style=""border:16px solid orange"">","null","","","","","","","",""
"null","","html-keyboard-response","162","227555","0.0-162.0","","","null","","","","","","","",""
"742.5999999046326","","image-keyboard-response","163","228298","0.0-163.0","","img/set1/S4.jpg","74","4","random","74","random,structured_incentive,structured_load,structured_normal","3,4,2,3,2,1","true","",""
"null","","html-keyboard-response","164","228650","0.0-164.0","","<img src=""img/set1/S4.jpg"" width=""540"" height = ""360"" style=""border:16px solid orange"">","null","","","","","","","",""
"null","","html-keyboard-response","165","228853","0.0-165.0","","","null","","","","","","","",""
"499.90000009536743","","image-keyboard-response","166","229354","0.0-166.0","","img/set1/S4.jpg","74","4","random","74","random,structured_incentive,structured_load,structured_normal","3,4,2,3,2,1","true","",""
"null","","html-keyboard-response","167","229707","0.0-167.0","","<img src=""img/set1/S4.jpg"" width=""540"" height = ""360"" style=""border:16px solid orange"">","null","","","","","","","",""
"null","","html-keyboard-response","168","229908","0.0-168.0","","","null","","","","","","","",""
"445.69999980926514","","image-keyboard-response","169","230355","0.0-169.0","","img/set1/S4.jpg","74","4","random","74","random,structured_incentive,structured_load,structured_normal","3,4,2,3,2,1","true","",""
"null","","html-keyboard-response","170","230708","0.0-170.0","","<img src=""img/set1/S4.jpg"" width=""540"" height = ""360"" style=""border:16px solid orange"">","null","","","","","","","",""
"null","","html-keyboard-response","171","230910","0.0-171.0","","","null","","","","","","","",""
"963.9000000953674","","image-keyboard-response","172","231876","0.0-172.0","","img/set1/S1.jpg","74","1","random","83","random,structured_incentive,structured_load,structured_normal","3,4,2,3,2,1","false","",""
"null","","html-keyboard-response","173","232228","0.0-173.0","","<img src=""img/set1/S1.jpg"" width=""540"" height = ""360"">","null","","","","","","","",""
"null","","html-keyboard-response","174","232429","0.0-174.0","","","null","","","","","","","",""
"803.2999997138977","","image-keyboard-response","175","233234","0.0-175.0","","img/set1/S1.jpg","72","1","random","83","random,structured_incentive,structured_load,structured_normal","3,4,2,3,2,1","false","",""
"null","","html-keyboard-response","176","233586","0.0-176.0","","<img src=""img/set1/S1.jpg"" width=""540"" height = ""360"">","null","","","","","","","",""
"null","","html-keyboard-response","177","233787","0.0-177.0","","","null","","","","","","","",""
"1230.3999996185303","","image-keyboard-response","178","235018","0.0-178.0","","img/set1/S4.jpg","74","4","random","74","random,structured_incentive,structured_load,structured_normal","3,4,2,3,2,1","true","",""
"null","","html-keyboard-response","179","235370","0.0-179.0","","<img src=""img/set1/S4.jpg"" width=""540"" height = ""360"" style=""border:16px solid orange"">","null","","","","","","","",""
"null","","html-keyboard-response","180","235572","0.0-180.0","","","null","","","","","","","",""
"1416.2000002861023","","image-keyboard-response","181","236989","0.0-181.0","","img/set1/S2.jpg","68","2","random","68","random,structured_incentive,structured_load,structured_normal","3,4,2,3,2,1","true","",""
"null","","html-keyboard-response","182","237341","0.0-182.0","","<img src=""img/set1/S2.jpg"" width=""540"" height = ""360"" style=""border:16px solid orange"">","null","","","","","","","",""
"null","","html-keyboard-response","183","237543","0.0-183.0","","","null","","","","","","","",""
"1274.6000003814697","","image-keyboard-response","184","238818","0.0-184.0","","img/set1/S3.jpg","72","3","random","72","random,structured_incentive,structured_load,structured_normal","3,4,2,3,2,1","true","",""
"null","","html-keyboard-response","185","239170","0.0-185.0","","<img src=""img/set1/S3.jpg"" width=""540"" height = ""360"" style=""border:16px solid orange"">","null","","","","","","","",""
"null","","html-keyboard-response","186","239371","0.0-186.0","","","null","","","","","","","",""
"511.59999990463257","","image-keyboard-response","187","239883","0.0-187.0","","img/set1/S3.jpg","72","3","random","72","random,structured_incentive,structured_load,structured_normal","3,4,2,3,2,1","true","",""
"null","","html-keyboard-response","188","240238","0.0-188.0","","<img src=""img/set1/S3.jpg"" width=""540"" height = ""360"" style=""border:16px solid orange"">","null","","","","","","","",""
"null","","html-keyboard-response","189","240443","0.0-189.0","","","null","","","","","","","",""
"830.8000001907349","","image-keyboard-response","190","241274","0.0-190.0","","img/set1/S1.jpg","68","1","random","83","random,structured_incentive,structured_load,structured_normal","3,4,2,3,2,1","false","",""
"null","","html-keyboard-response","191","241626","0.0-191.0","","<img src=""img/set1/S1.jpg"" width=""540"" height = ""360"">","null","","","","","","","",""
"null","","html-keyboard-response","192","241839","0.0-192.0","","","null","","","","","","","",""
"null","","image-keyboard-response","193","244355","0.0-193.0","","img/set1/S1.jpg","null","1","random","83","random,structured_incentive,structured_load,structured_normal","3,4,2,3,2,1","false","",""
"null","","html-keyboard-response","194","244722","0.0-194.0","","<img src=""img/set1/S1.jpg"" width=""540"" height = ""360"">","null","","","","","","","",""
"null","","html-keyboard-response","195","244924","0.0-195.0","","","null","","","","","","","",""
"942.6000003814697","","image-keyboard-response","196","245869","0.0-196.0","","img/set1/S3.jpg","72","3","random","72","random,structured_incentive,structured_load,structured_normal","3,4,2,3,2,1","true","",""
"null","","html-keyboard-response","197","246232","0.0-197.0","","<img src=""img/set1/S3.jpg"" width=""540"" height = ""360"" style=""border:16px solid orange"">","null","","","","","","","",""
"null","","html-keyboard-response","198","246435","0.0-198.0","","","null","","","","","","","",""
"1615.4000000953674","","image-keyboard-response","199","248052","0.0-199.0","","img/set1/S1.jpg","72","1","random","83","random,structured_incentive,structured_load,structured_normal","3,4,2,3,2,1","false","",""
"null","","html-keyboard-response","200","248405","0.0-200.0","","<img src=""img/set1/S1.jpg"" width=""540"" height = ""360"">","null","","","","","","","",""
"null","","html-keyboard-response","201","248616","0.0-201.0","","","null","","","","","","","",""
"817.5","","image-keyboard-response","202","249435","0.0-202.0","","img/set1/S1.jpg","74","1","random","83","random,structured_incentive,structured_load,structured_normal","3,4,2,3,2,1","false","",""
"null","","html-keyboard-response","203","249792","0.0-203.0","","<img src=""img/set1/S1.jpg"" width=""540"" height = ""360"">","null","","","","","","","",""
"null","","html-keyboard-response","204","250006","0.0-204.0","","","null","","","","","","","",""
"740.4000000953674","","image-keyboard-response","205","250749","0.0-205.0","","img/set1/S4.jpg","74","4","random","74","random,structured_incentive,structured_load,structured_normal","3,4,2,3,2,1","true","",""
"null","","html-keyboard-response","206","251101","0.0-206.0","","<img src=""img/set1/S4.jpg"" width=""540"" height = ""360"" style=""border:16px solid orange"">","null","","","","","","","",""
"null","","html-keyboard-response","207","251302","0.0-207.0","","","null","","","","","","","",""
"2084.3999996185303","","image-keyboard-response","208","253387","0.0-208.0","","img/set1/S3.jpg","68","3","random","72","random,structured_incentive,structured_load,structured_normal","3,4,2,3,2,1","false","",""
"null","","html-keyboard-response","209","253740","0.0-209.0","","<img src=""img/set1/S3.jpg"" width=""540"" height = ""360"">","null","","","","","","","",""
"null","","html-keyboard-response","210","253942","0.0-210.0","","","null","","","","","","","",""
"1228.2999997138977","","image-keyboard-response","211","255171","0.0-211.0","","img/set1/S2.jpg","68","2","random","68","random,structured_incentive,structured_load,structured_normal","3,4,2,3,2,1","true","",""
"null","","html-keyboard-response","212","255524","0.0-212.0","","<img src=""img/set1/S2.jpg"" width=""540"" height = ""360"" style=""border:16px solid orange"">","null","","","","","","","",""
"null","","html-keyboard-response","213","255736","0.0-213.0","","","null","","","","","","","",""
"1075","","image-keyboard-response","214","256813","0.0-214.0","","img/set1/S1.jpg","74","1","random","83","random,structured_incentive,structured_load,structured_normal","3,4,2,3,2,1","false","",""
"null","","html-keyboard-response","215","257166","0.0-215.0","","<img src=""img/set1/S1.jpg"" width=""540"" height = ""360"">","null","","","","","","","",""
"null","","html-keyboard-response","216","257368","0.0-216.0","","","null","","","","","","","",""
"988.3999996185303","","image-keyboard-response","217","258357","0.0-217.0","","img/set1/S3.jpg","72","3","random","72","random,structured_incentive,structured_load,structured_normal","3,4,2,3,2,1","true","",""
"null","","html-keyboard-response","218","258723","0.0-218.0","","<img src=""img/set1/S3.jpg"" width=""540"" height = ""360"" style=""border:16px solid orange"">","null","","","","","","","",""
"null","","html-keyboard-response","219","258925","0.0-219.0","","","null","","","","","","","",""
"557.3999996185303","","image-keyboard-response","220","259483","0.0-220.0","","img/set1/S3.jpg","72","3","random","72","random,structured_incentive,structured_load,structured_normal","3,4,2,3,2,1","true","",""
"null","","html-keyboard-response","221","259836","0.0-221.0","","<img src=""img/set1/S3.jpg"" width=""540"" height = ""360"" style=""border:16px solid orange"">","null","","","","","","","",""
"null","","html-keyboard-response","222","260038","0.0-222.0","","","null","","","","","","","",""
"930","","image-keyboard-response","223","260971","0.0-223.0","","img/set1/S1.jpg","72","1","random","83","random,structured_incentive,structured_load,structured_normal","3,4,2,3,2,1","false","",""
"null","","html-keyboard-response","224","261324","0.0-224.0","","<img src=""img/set1/S1.jpg"" width=""540"" height = ""360"">","null","","","","","","","",""
"null","","html-keyboard-response","225","261525","0.0-225.0","","","null","","","","","","","",""
"741.2999997138977","","image-keyboard-response","226","262267","0.0-226.0","","img/set1/S3.jpg","72","3","random","72","random,structured_incentive,structured_load,structured_normal","3,4,2,3,2,1","true","",""
"null","","html-keyboard-response","227","262629","0.0-227.0","","<img src=""img/set1/S3.jpg"" width=""540"" height = ""360"" style=""border:16px solid orange"">","null","","","","","","","",""
"null","","html-keyboard-response","228","262831","0.0-228.0","","","null","","","","","","","",""
"1275.1000003814697","","image-keyboard-response","229","264107","0.0-229.0","","img/set1/S1.jpg","74","1","random","83","random,structured_incentive,structured_load,structured_normal","3,4,2,3,2,1","false","",""
"null","","html-keyboard-response","230","264471","0.0-230.0","","<img src=""img/set1/S1.jpg"" width=""540"" height = ""360"">","null","","","","","","","",""
"null","","html-keyboard-response","231","264680","0.0-231.0","","","null","","","","","","","",""
"745.8999996185303","","image-keyboard-response","232","265427","0.0-232.0","","img/set1/S1.jpg","74","1","random","83","random,structured_incentive,structured_load,structured_normal","3,4,2,3,2,1","false","",""
"null","","html-keyboard-response","233","265783","0.0-233.0","","<img src=""img/set1/S1.jpg"" width=""540"" height = ""360"">","null","","","","","","","",""
"null","","html-keyboard-response","234","265994","0.0-234.0","","","null","","","","","","","",""
"792.5","","image-keyboard-response","235","266788","0.0-235.0","","img/set1/S4.jpg","74","4","random","74","random,structured_incentive,structured_load,structured_normal","3,4,2,3,2,1","true","",""
"null","","html-keyboard-response","236","267141","0.0-236.0","","<img src=""img/set1/S4.jpg"" width=""540"" height = ""360"" style=""border:16px solid orange"">","null","","","","","","","",""
"null","","html-keyboard-response","237","267342","0.0-237.0","","","null","","","","","","","",""
"1021.3999996185303","","image-keyboard-response","238","268365","0.0-238.0","","img/set1/S3.jpg","72","3","random","72","random,structured_incentive,structured_load,structured_normal","3,4,2,3,2,1","true","",""
"null","","html-keyboard-response","239","268720","0.0-239.0","","<img src=""img/set1/S3.jpg"" width=""540"" height = ""360"" style=""border:16px solid orange"">","null","","","","","","","",""
"null","","html-keyboard-response","240","268922","0.0-240.0","","","null","","","","","","","",""
"671.2999997138977","","image-keyboard-response","241","269595","0.0-241.0","","img/set1/S4.jpg","74","4","random","74","random,structured_incentive,structured_load,structured_normal","3,4,2,3,2,1","true","",""
"null","","html-keyboard-response","242","269946","0.0-242.0","","<img src=""img/set1/S4.jpg"" width=""540"" height = ""360"" style=""border:16px solid orange"">","null","","","","","","","",""
"null","","html-keyboard-response","243","270148","0.0-243.0","","","null","","","","","","","",""
"1038.5","","image-keyboard-response","244","271187","0.0-244.0","","img/set1/S1.jpg","68","1","random","83","random,structured_incentive,structured_load,structured_normal","3,4,2,3,2,1","false","",""
"null","","html-keyboard-response","245","271539","0.0-245.0","","<img src=""img/set1/S1.jpg"" width=""540"" height = ""360"">","null","","","","","","","",""
"null","","html-keyboard-response","246","271741","0.0-246.0","","","null","","","","","","","",""
"918.8000001907349","","image-keyboard-response","247","272661","0.0-247.0","","img/set1/S4.jpg","74","4","random","74","random,structured_incentive,structured_load,structured_normal","3,4,2,3,2,1","true","",""
"null","","html-keyboard-response","248","273013","0.0-248.0","","<img src=""img/set1/S4.jpg"" width=""540"" height = ""360"" style=""border:16px solid orange"">","null","","","","","","","",""
"null","","html-keyboard-response","249","273215","0.0-249.0","","","null","","","","","","","",""
"515.5999999046326","","image-keyboard-response","250","273731","0.0-250.0","","img/set1/S4.jpg","74","4","random","74","random,structured_incentive,structured_load,structured_normal","3,4,2,3,2,1","true","",""
"null","","html-keyboard-response","251","274083","0.0-251.0","","<img src=""img/set1/S4.jpg"" width=""540"" height = ""360"" style=""border:16px solid orange"">","null","","","","","","","",""
"null","","html-keyboard-response","252","274284","0.0-252.0","","","null","","","","","","","",""
"861.3999996185303","","image-keyboard-response","253","275147","0.0-253.0","","img/set1/S3.jpg","72","3","random","72","random,structured_incentive,structured_load,structured_normal","3,4,2,3,2,1","true","",""
"null","","html-keyboard-response","254","275500","0.0-254.0","","<img src=""img/set1/S3.jpg"" width=""540"" height = ""360"" style=""border:16px solid orange"">","null","","","","","","","",""
"null","","html-keyboard-response","255","275701","0.0-255.0","","","null","","","","","","","",""
"637.6000003814697","","image-keyboard-response","256","276341","0.0-256.0","","img/set1/S4.jpg","74","4","random","74","random,structured_incentive,structured_load,structured_normal","3,4,2,3,2,1","true","",""
"null","","html-keyboard-response","257","276694","0.0-257.0","","<img src=""img/set1/S4.jpg"" width=""540"" height = ""360"" style=""border:16px solid orange"">","null","","","","","","","",""
"null","","html-keyboard-response","258","276896","0.0-258.0","","","null","","","","","","","",""
"865.9000000953674","","image-keyboard-response","259","277763","0.0-259.0","","img/set1/S2.jpg","68","2","random","68","random,structured_incentive,structured_load,structured_normal","3,4,2,3,2,1","true","",""
"null","","html-keyboard-response","260","278115","0.0-260.0","","<img src=""img/set1/S2.jpg"" width=""540"" height = ""360"" style=""border:16px solid orange"">","null","","","","","","","",""
"null","","html-keyboard-response","261","278317","0.0-261.0","","","null","","","","","","","",""
"1156.5999999046326","","image-keyboard-response","262","279475","0.0-262.0","","img/set1/S3.jpg","72","3","random","72","random,structured_incentive,structured_load,structured_normal","3,4,2,3,2,1","true","",""
"null","","html-keyboard-response","263","279827","0.0-263.0","","<img src=""img/set1/S3.jpg"" width=""540"" height = ""360"" style=""border:16px solid orange"">","null","","","","","","","",""
"null","","html-keyboard-response","264","280030","0.0-264.0","","","null","","","","","","","",""
"589.3000001907349","","image-keyboard-response","265","280621","0.0-265.0","","img/set1/S4.jpg","74","4","random","74","random,structured_incentive,structured_load,structured_normal","3,4,2,3,2,1","true","",""
"null","","html-keyboard-response","266","280974","0.0-266.0","","<img src=""img/set1/S4.jpg"" width=""540"" height = ""360"" style=""border:16px solid orange"">","null","","","","","","","",""
"null","","html-keyboard-response","267","281176","0.0-267.0","","","null","","","","","","","",""
"1387.3000001907349","","image-keyboard-response","268","282565","0.0-268.0","","img/set1/S2.jpg","68","2","random","68","random,structured_incentive,structured_load,structured_normal","3,4,2,3,2,1","true","",""
"null","","html-keyboard-response","269","282918","0.0-269.0","","<img src=""img/set1/S2.jpg"" width=""540"" height = ""360"" style=""border:16px solid orange"">","null","","","","","","","",""
"null","","html-keyboard-response","270","283119","0.0-270.0","","","null","","","","","","","",""
"547.1999998092651","","image-keyboard-response","271","283667","0.0-271.0","","img/set1/S2.jpg","68","2","random","68","random,structured_incentive,structured_load,structured_normal","3,4,2,3,2,1","true","",""
"null","","html-keyboard-response","272","284019","0.0-272.0","","<img src=""img/set1/S2.jpg"" width=""540"" height = ""360"" style=""border:16px solid orange"">","null","","","","","","","",""
"null","","html-keyboard-response","273","284221","0.0-273.0","","","null","","","","","","","",""
"573.1999998092651","","image-keyboard-response","274","284795","0.0-274.0","","img/set1/S2.jpg","68","2","random","68","random,structured_incentive,structured_load,structured_normal","3,4,2,3,2,1","true","",""
"null","","html-keyboard-response","275","285147","0.0-275.0","","<img src=""img/set1/S2.jpg"" width=""540"" height = ""360"" style=""border:16px solid orange"">","null","","","","","","","",""
"null","","html-keyboard-response","276","285348","0.0-276.0","","","null","","","","","","","",""
"622.3999996185303","","image-keyboard-response","277","285971","0.0-277.0","","img/set1/S2.jpg","68","2","random","68","random,structured_incentive,structured_load,structured_normal","3,4,2,3,2,1","true","",""
"null","","html-keyboard-response","278","286324","0.0-278.0","","<img src=""img/set1/S2.jpg"" width=""540"" height = ""360"" style=""border:16px solid orange"">","null","","","","","","","",""
"null","","html-keyboard-response","279","286527","0.0-279.0","","","null","","","","","","","",""
"491.30000019073486","","image-keyboard-response","280","287019","0.0-280.0","","img/set1/S2.jpg","68","2","random","68","random,structured_incentive,structured_load,structured_normal","3,4,2,3,2,1","true","",""
"null","","html-keyboard-response","281","287372","0.0-281.0","","<img src=""img/set1/S2.jpg"" width=""540"" height = ""360"" style=""border:16px solid orange"">","null","","","","","","","",""
"null","","html-keyboard-response","282","287572","0.0-282.0","","","null","","","","","","","",""
"631.2000002861023","","image-keyboard-response","283","288205","0.0-283.0","","img/set1/S2.jpg","68","2","random","68","random,structured_incentive,structured_load,structured_normal","3,4,2,3,2,1","true","",""
"null","","html-keyboard-response","284","288557","0.0-284.0","","<img src=""img/set1/S2.jpg"" width=""540"" height = ""360"" style=""border:16px solid orange"">","null","","","","","","","",""
"null","","html-keyboard-response","285","288760","0.0-285.0","","","null","","","","","","","",""
"873.5999999046326","","image-keyboard-response","286","289635","0.0-286.0","","img/set1/S4.jpg","74","4","random","74","random,structured_incentive,structured_load,structured_normal","3,4,2,3,2,1","true","",""
"null","","html-keyboard-response","287","289987","0.0-287.0","","<img src=""img/set1/S4.jpg"" width=""540"" height = ""360"" style=""border:16px solid orange"">","null","","","","","","","",""
"null","","html-keyboard-response","288","290188","0.0-288.0","","","null","","","","","","","",""
"878.1999998092651","","image-keyboard-response","289","291067","0.0-289.0","","img/set1/S2.jpg","68","2","random","68","random,structured_incentive,structured_load,structured_normal","3,4,2,3,2,1","true","",""
"null","","html-keyboard-response","290","291418","0.0-290.0","","<img src=""img/set1/S2.jpg"" width=""540"" height = ""360"" style=""border:16px solid orange"">","null","","","","","","","",""
"null","","html-keyboard-response","291","291620","0.0-291.0","","","null","","","","","","","",""
"1168.3000001907349","","image-keyboard-response","292","292789","0.0-292.0","","img/set1/S1.jpg","72","1","random","83","random,structured_incentive,structured_load,structured_normal","3,4,2,3,2,1","false","",""
"null","","html-keyboard-response","293","293141","0.0-293.0","","<img src=""img/set1/S1.jpg"" width=""540"" height = ""360"">","null","","","","","","","",""
"null","","html-keyboard-response","294","293343","0.0-294.0","","","null","","","","","","","",""
"1437","","image-keyboard-response","295","294781","0.0-295.0","","img/set1/S3.jpg","72","3","random","72","random,structured_incentive,structured_load,structured_normal","3,4,2,3,2,1","true","",""
"null","","html-keyboard-response","296","295133","0.0-296.0","","<img src=""img/set1/S3.jpg"" width=""540"" height = ""360"" style=""border:16px solid orange"">","null","","","","","","","",""
"null","","html-keyboard-response","297","295335","0.0-297.0","","","null","","","","","","","",""
"1324.7000002861023","","image-keyboard-response","298","296661","0.0-298.0","","img/set1/S2.jpg","68","2","random","68","random,structured_incentive,structured_load,structured_normal","3,4,2,3,2,1","true","",""
"null","","html-keyboard-response","299","297014","0.0-299.0","","<img src=""img/set1/S2.jpg"" width=""540"" height = ""360"" style=""border:16px solid orange"">","null","","","","","","","",""
"null","","html-keyboard-response","300","297216","0.0-300.0","","","null","","","","","","","",""
"883.5","","image-keyboard-response","301","298101","0.0-301.0","","img/set1/S3.jpg","72","3","random","72","random,structured_incentive,structured_load,structured_normal","3,4,2,3,2,1","true","",""
"null","","html-keyboard-response","302","298453","0.0-302.0","","<img src=""img/set1/S3.jpg"" width=""540"" height = ""360"" style=""border:16px solid orange"">","null","","","","","","","",""
"null","","html-keyboard-response","303","298656","0.0-303.0","","","null","","","","","","","",""
"458.09999990463257","","image-keyboard-response","304","299115","0.0-304.0","","img/set1/S3.jpg","72","3","random","72","random,structured_incentive,structured_load,structured_normal","3,4,2,3,2,1","true","",""
"null","","html-keyboard-response","305","299467","0.0-305.0","","<img src=""img/set1/S3.jpg"" width=""540"" height = ""360"" style=""border:16px solid orange"">","null","","","","","","","",""
"null","","html-keyboard-response","306","299668","0.0-306.0","","","null","","","","","","","",""
"null","","image-keyboard-response","307","302171","0.0-307.0","","img/set1/S1.jpg","null","1","random","83","random,structured_incentive,structured_load,structured_normal","3,4,2,3,2,1","false","",""
"null","","html-keyboard-response","308","302531","0.0-308.0","","<img src=""img/set1/S1.jpg"" width=""540"" height = ""360"">","null","","","","","","","",""
"null","","html-keyboard-response","309","302743","0.0-309.0","","","null","","","","","","","",""
"875.5","","image-keyboard-response","310","303619","0.0-310.0","","img/set1/S1.jpg","72","1","random","83","random,structured_incentive,structured_load,structured_normal","3,4,2,3,2,1","false","",""
"null","","html-keyboard-response","311","303971","0.0-311.0","","<img src=""img/set1/S1.jpg"" width=""540"" height = ""360"">","null","","","","","","","",""
"null","","html-keyboard-response","312","304179","0.0-312.0","","","null","","","","","","","",""
"2023.6000003814697","","image-keyboard-response","313","306204","0.0-313.0","","img/set1/S2.jpg","68","2","random","68","random,structured_incentive,structured_load,structured_normal","3,4,2,3,2,1","true","",""
"null","","html-keyboard-response","314","306563","0.0-314.0","","<img src=""img/set1/S2.jpg"" width=""540"" height = ""360"" style=""border:16px solid orange"">","null","","","","","","","",""
"null","","html-keyboard-response","315","306778","0.0-315.0","","","null","","","","","","","",""
"697","","image-keyboard-response","316","307476","0.0-316.0","","img/set1/S4.jpg","74","4","random","74","random,structured_incentive,structured_load,structured_normal","3,4,2,3,2,1","true","",""
"null","","html-keyboard-response","317","307829","0.0-317.0","","<img src=""img/set1/S4.jpg"" width=""540"" height = ""360"" style=""border:16px solid orange"">","null","","","","","","","",""
"null","","html-keyboard-response","318","308045","0.0-318.0","","","null","","","","","","","",""
"894.7000002861023","","image-keyboard-response","319","308941","0.0-319.0","","img/set1/S3.jpg","72","3","random","72","random,structured_incentive,structured_load,structured_normal","3,4,2,3,2,1","true","",""
"null","","html-keyboard-response","320","309295","0.0-320.0","","<img src=""img/set1/S3.jpg"" width=""540"" height = ""360"" style=""border:16px solid orange"">","null","","","","","","","",""
"null","","html-keyboard-response","321","309496","0.0-321.0","","","null","","","","","","","",""
"635.0999999046326","","image-keyboard-response","322","310132","0.0-322.0","","img/set1/S4.jpg","74","4","random","74","random,structured_incentive,structured_load,structured_normal","3,4,2,3,2,1","true","",""
"null","","html-keyboard-response","323","310485","0.0-323.0","","<img src=""img/set1/S4.jpg"" width=""540"" height = ""360"" style=""border:16px solid orange"">","null","","","","","","","",""
"null","","html-keyboard-response","324","310695","0.0-324.0","","","null","","","","","","","",""
"740.5","","image-keyboard-response","325","311436","0.0-325.0","","img/set1/S2.jpg","68","2","random","68","random,structured_incentive,structured_load,structured_normal","3,4,2,3,2,1","true","",""
"null","","html-keyboard-response","326","311788","0.0-326.0","","<img src=""img/set1/S2.jpg"" width=""540"" height = ""360"" style=""border:16px solid orange"">","null","","","","","","","",""
"null","","html-keyboard-response","327","311994","0.0-327.0","","","null","","","","","","","",""
"688.9000000953674","","image-keyboard-response","328","312685","0.0-328.0","","img/set1/S3.jpg","72","3","random","72","random,structured_incentive,structured_load,structured_normal","3,4,2,3,2,1","true","",""
"null","","html-keyboard-response","329","313038","0.0-329.0","","<img src=""img/set1/S3.jpg"" width=""540"" height = ""360"" style=""border:16px solid orange"">","null","","","","","","","",""
"null","","html-keyboard-response","330","313241","0.0-330.0","","","null","","","","","","","",""
"569.7999997138977","","image-keyboard-response","331","313812","0.0-331.0","","img/set1/S2.jpg","74","2","random","68","random,structured_incentive,structured_load,structured_normal","3,4,2,3,2,1","false","",""
"null","","html-keyboard-response","332","314166","0.0-332.0","","<img src=""img/set1/S2.jpg"" width=""540"" height = ""360"">","null","","","","","","","",""
"null","","html-keyboard-response","333","314375","0.0-333.0","","","null","","","","","","","",""
"660.9000000953674","","image-keyboard-response","334","315037","0.0-334.0","","img/set1/S3.jpg","72","3","random","72","random,structured_incentive,structured_load,structured_normal","3,4,2,3,2,1","true","",""
"null","","html-keyboard-response","335","315391","0.0-335.0","","<img src=""img/set1/S3.jpg"" width=""540"" height = ""360"" style=""border:16px solid orange"">","null","","","","","","","",""
"null","","html-keyboard-response","336","315593","0.0-336.0","","","null","","","","","","","",""
"778.0999999046326","","image-keyboard-response","337","316372","0.0-337.0","","img/set1/S3.jpg","72","3","random","72","random,structured_incentive,structured_load,structured_normal","3,4,2,3,2,1","true","",""
"null","","html-keyboard-response","338","316734","0.0-338.0","","<img src=""img/set1/S3.jpg"" width=""540"" height = ""360"" style=""border:16px solid orange"">","null","","","","","","","",""
"null","","html-keyboard-response","339","316936","0.0-339.0","","","null","","","","","","","",""
"787","","image-keyboard-response","340","317724","0.0-340.0","","img/set1/S4.jpg","74","4","random","74","random,structured_incentive,structured_load,structured_normal","3,4,2,3,2,1","true","",""
"null","","html-keyboard-response","341","318075","0.0-341.0","","<img src=""img/set1/S4.jpg"" width=""540"" height = ""360"" style=""border:16px solid orange"">","null","","","","","","","",""
"null","","html-keyboard-response","342","318292","0.0-342.0","","","null","","","","","","","",""
"903.4000000953674","","image-keyboard-response","343","319197","0.0-343.0","","img/set1/S1.jpg","72","1","random","83","random,structured_incentive,structured_load,structured_normal","3,4,2,3,2,1","false","",""
"null","","html-keyboard-response","344","319551","0.0-344.0","","<img src=""img/set1/S1.jpg"" width=""540"" height = ""360"">","null","","","","","","","",""
"null","","html-keyboard-response","345","319753","0.0-345.0","","","null","","","","","","","",""
"651.0999999046326","","image-keyboard-response","346","320405","0.0-346.0","","img/set1/S1.jpg","72","1","random","83","random,structured_incentive,structured_load,structured_normal","3,4,2,3,2,1","false","",""
"null","","html-keyboard-response","347","320770","0.0-347.0","","<img src=""img/set1/S1.jpg"" width=""540"" height = ""360"">","null","","","","","","","",""
"null","","html-keyboard-response","348","320979","0.0-348.0","","","null","","","","","","","",""
"1095.5999999046326","","image-keyboard-response","349","322076","0.0-349.0","","img/set1/S2.jpg","68","2","random","68","random,structured_incentive,structured_load,structured_normal","3,4,2,3,2,1","true","",""
"null","","html-keyboard-response","350","322432","0.0-350.0","","<img src=""img/set1/S2.jpg"" width=""540"" height = ""360"" style=""border:16px solid orange"">","null","","","","","","","",""
"null","","html-keyboard-response","351","322646","0.0-351.0","","","null","","","","","","","",""
"876.8000001907349","","image-keyboard-response","352","323524","0.0-352.0","","img/set1/S1.jpg","68","1","random","83","random,structured_incentive,structured_load,structured_normal","3,4,2,3,2,1","false","",""
"null","","html-keyboard-response","353","323877","0.0-353.0","","<img src=""img/set1/S1.jpg"" width=""540"" height = ""360"">","null","","","","","","","",""
"null","","html-keyboard-response","354","324082","0.0-354.0","","","null","","","","","","","",""
"920.9000000953674","","image-keyboard-response","355","325004","0.0-355.0","","img/set1/S4.jpg","72","4","random","74","random,structured_incentive,structured_load,structured_normal","3,4,2,3,2,1","false","",""
"null","","html-keyboard-response","356","325356","0.0-356.0","","<img src=""img/set1/S4.jpg"" width=""540"" height = ""360"">","null","","","","","","","",""
"null","","html-keyboard-response","357","325558","0.0-357.0","","","null","","","","","","","",""
"461.5","","image-keyboard-response","358","326020","0.0-358.0","","img/set1/S4.jpg","74","4","random","74","random,structured_incentive,structured_load,structured_normal","3,4,2,3,2,1","true","",""
"null","","html-keyboard-response","359","326383","0.0-359.0","","<img src=""img/set1/S4.jpg"" width=""540"" height = ""360"" style=""border:16px solid orange"">","null","","","","","","","",""
"null","","html-keyboard-response","360","326585","0.0-360.0","","","null","","","","","","","",""
"490.09999990463257","","image-keyboard-response","361","327076","0.0-361.0","","img/set1/S4.jpg","74","4","random","74","random,structured_incentive,structured_load,structured_normal","3,4,2,3,2,1","true","",""
"null","","html-keyboard-response","362","327429","0.0-362.0","","<img src=""img/set1/S4.jpg"" width=""540"" height = ""360"" style=""border:16px solid orange"">","null","","","","","","","",""
"null","","html-keyboard-response","363","327630","0.0-363.0","","","null","","","","","","","",""
"3621.300000190735","","html-keyboard-response","364","331252","0.0-364.0","","<p class=""center-content"">You have completed a block! </p><p class=""center-content"">Press any key on the keyboard to continue, </p><p class=""center-content"">or wait for the automatic progression to the next block after one minute.</p>","32","","","","","","","",""
"12959.5","","instructions","365","344212","0.0-365.0","[{""page_index"":0,""viewing_time"":12959.199999809265}]","","","","","","","","","",""
"57623.59999990463","","instructions","366","401835","0.0-366.0","[{""page_index"":0,""viewing_time"":44655.40000009537},{""page_index"":1,""viewing_time"":12967.900000095367}]","","","","","","","","","",""
"null","","image-keyboard-response","367","404338","0.0-367.0","","img/set2/S3.jpg","null","3","structured_incentive","72","random,structured_incentive,structured_load,structured_normal","3,4,2,3,2,1","false","",""
"null","","html-keyboard-response","368","404690","0.0-368.0","","<img src=""img/set2/S3.jpg"" width=""540"" height = ""360"">","null","","","","","","","",""
"null","","html-keyboard-response","369","404892","0.0-369.0","","","null","","","","","","","",""
"2102.699999809265","","image-keyboard-response","370","406997","0.0-370.0","","img/set2/S4.jpg","72","4","structured_incentive","74","random,structured_incentive,structured_load,structured_normal","3,4,2,3,2,1","false","",""
"null","","html-keyboard-response","371","407350","0.0-371.0","","<img src=""img/set2/S4.jpg"" width=""540"" height = ""360"">","null","","","","","","","",""
"null","","html-keyboard-response","372","407550","0.0-372.0","","","null","","","","","","","",""
"820.1000003814697","","image-keyboard-response","373","408371","0.0-373.0","","img/set2/S3.jpg","72","3","structured_incentive","72","random,structured_incentive,structured_load,structured_normal","3,4,2,3,2,1","true","",""
"null","","html-keyboard-response","374","408723","0.0-374.0","","<img src=""img/set2/S3.jpg"" width=""540"" height = ""360"" style=""border:16px solid orange"">","null","","","","","","","",""
"null","","html-keyboard-response","375","408925","0.0-375.0","","","null","","","","","","","",""
"1254.2000002861023","","image-keyboard-response","376","410181","0.0-376.0","","img/set2/S4.jpg","74","4","structured_incentive","74","random,structured_incentive,structured_load,structured_normal","3,4,2,3,2,1","true","",""
"null","","html-keyboard-response","377","410533","0.0-377.0","","<img src=""img/set2/S4.jpg"" width=""540"" height = ""360"" style=""border:16px solid Violet"">","null","","","","","","","",""
"null","","html-keyboard-response","378","410735","0.0-378.0","","","null","","","","","","","",""
"1469","","image-keyboard-response","379","412205","0.0-379.0","","img/set2/S1.jpg","72","1","structured_incentive","83","random,structured_incentive,structured_load,structured_normal","3,4,2,3,2,1","false","",""
"null","","html-keyboard-response","380","412557","0.0-380.0","","<img src=""img/set2/S1.jpg"" width=""540"" height = ""360"">","null","","","","","","","",""
"null","","html-keyboard-response","381","412759","0.0-381.0","","","null","","","","","","","",""
"1715.8000001907349","","image-keyboard-response","382","414477","0.0-382.0","","img/set2/S2.jpg","68","2","structured_incentive","68","random,structured_incentive,structured_load,structured_normal","3,4,2,3,2,1","true","",""
"null","","html-keyboard-response","383","414829","0.0-383.0","","<img src=""img/set2/S2.jpg"" width=""540"" height = ""360"" style=""border:16px solid orange"">","null","","","","","","","",""
"null","","html-keyboard-response","384","415031","0.0-384.0","","","null","","","","","","","",""
"1259.7000002861023","","image-keyboard-response","385","416292","0.0-385.0","","img/set2/S3.jpg","74","3","structured_incentive","72","random,structured_incentive,structured_load,structured_normal","3,4,2,3,2,1","false","",""
"null","","html-keyboard-response","386","416645","0.0-386.0","","<img src=""img/set2/S3.jpg"" width=""540"" height = ""360"">","null","","","","","","","",""
"null","","html-keyboard-response","387","416847","0.0-387.0","","","null","","","","","","","",""
"987.9000000953674","","image-keyboard-response","388","417836","0.0-388.0","","img/set2/S4.jpg","74","4","structured_incentive","74","random,structured_incentive,structured_load,structured_normal","3,4,2,3,2,1","true","",""
"null","","html-keyboard-response","389","418188","0.0-389.0","","<img src=""img/set2/S4.jpg"" width=""540"" height = ""360"" style=""border:16px solid Violet"">","null","","","","","","","",""
"null","","html-keyboard-response","390","418390","0.0-390.0","","","null","","","","","","","",""
"1484","","image-keyboard-response","391","419876","0.0-391.0","","img/set2/S1.jpg","72","1","structured_incentive","83","random,structured_incentive,structured_load,structured_normal","3,4,2,3,2,1","false","",""
"null","","html-keyboard-response","392","420243","0.0-392.0","","<img src=""img/set2/S1.jpg"" width=""540"" height = ""360"">","null","","","","","","","",""
"null","","html-keyboard-response","393","420446","0.0-393.0","","","null","","","","","","","",""
"1340.2000002861023","","image-keyboard-response","394","421787","0.0-394.0","","img/set2/S3.jpg","68","3","structured_incentive","72","random,structured_incentive,structured_load,structured_normal","3,4,2,3,2,1","false","",""
"null","","html-keyboard-response","395","422145","0.0-395.0","","<img src=""img/set2/S3.jpg"" width=""540"" height = ""360"">","null","","","","","","","",""
"null","","html-keyboard-response","396","422361","0.0-396.0","","","null","","","","","","","",""
"968.6999998092651","","image-keyboard-response","397","423332","0.0-397.0","","img/set2/S4.jpg","74","4","structured_incentive","74","random,structured_incentive,structured_load,structured_normal","3,4,2,3,2,1","true","",""
"null","","html-keyboard-response","398","423687","0.0-398.0","","<img src=""img/set2/S4.jpg"" width=""540"" height = ""360"" style=""border:16px solid Violet"">","null","","","","","","","",""
"null","","html-keyboard-response","399","423902","0.0-399.0","","","null","","","","","","","",""
"1156.7999997138977","","image-keyboard-response","400","425061","0.0-400.0","","img/set2/S2.jpg","72","2","structured_incentive","68","random,structured_incentive,structured_load,structured_normal","3,4,2,3,2,1","false","",""
"null","","html-keyboard-response","401","425413","0.0-401.0","","<img src=""img/set2/S2.jpg"" width=""540"" height = ""360"">","null","","","","","","","",""
"null","","html-keyboard-response","402","425615","0.0-402.0","","","null","","","","","","","",""
"null","","image-keyboard-response","403","428118","0.0-403.0","","img/set2/S1.jpg","null","1","structured_incentive","83","random,structured_incentive,structured_load,structured_normal","3,4,2,3,2,1","false","",""
"null","","html-keyboard-response","404","428484","0.0-404.0","","<img src=""img/set2/S1.jpg"" width=""540"" height = ""360"">","null","","","","","","","",""
"null","","html-keyboard-response","405","428695","0.0-405.0","","","null","","","","","","","",""
"1187.9000000953674","","image-keyboard-response","406","429885","0.0-406.0","","img/set2/S3.jpg","68","3","structured_incentive","72","random,structured_incentive,structured_load,structured_normal","3,4,2,3,2,1","false","",""
"null","","html-keyboard-response","407","430237","0.0-407.0","","<img src=""img/set2/S3.jpg"" width=""540"" height = ""360"">","null","","","","","","","",""
"null","","html-keyboard-response","408","430444","0.0-408.0","","","null","","","","","","","",""
"774.8000001907349","","image-keyboard-response","409","431219","0.0-409.0","","img/set2/S4.jpg","74","4","structured_incentive","74","random,structured_incentive,structured_load,structured_normal","3,4,2,3,2,1","true","",""
"null","","html-keyboard-response","410","431572","0.0-410.0","","<img src=""img/set2/S4.jpg"" width=""540"" height = ""360"" style=""border:16px solid Violet"">","null","","","","","","","",""
"null","","html-keyboard-response","411","431773","0.0-411.0","","","null","","","","","","","",""
"886.1999998092651","","image-keyboard-response","412","432661","0.0-412.0","","img/set2/S1.jpg","72","1","structured_incentive","83","random,structured_incentive,structured_load,structured_normal","3,4,2,3,2,1","false","",""
"null","","html-keyboard-response","413","433021","0.0-413.0","","<img src=""img/set2/S1.jpg"" width=""540"" height = ""360"">","null","","","","","","","",""
"null","","html-keyboard-response","414","433223","0.0-414.0","","","null","","","","","","","",""
"933.5","","image-keyboard-response","415","434157","0.0-415.0","","img/set2/S2.jpg","74","2","structured_incentive","68","random,structured_incentive,structured_load,structured_normal","3,4,2,3,2,1","false","",""
"null","","html-keyboard-response","416","434517","0.0-416.0","","<img src=""img/set2/S2.jpg"" width=""540"" height = ""360"">","null","","","","","","","",""
"null","","html-keyboard-response","417","434727","0.0-417.0","","","null","","","","","","","",""
"2291.7999997138977","","image-keyboard-response","418","437021","0.0-418.0","","img/set2/S3.jpg","68","3","structured_incentive","72","random,structured_incentive,structured_load,structured_normal","3,4,2,3,2,1","false","",""
"null","","html-keyboard-response","419","437373","0.0-419.0","","<img src=""img/set2/S3.jpg"" width=""540"" height = ""360"">","null","","","","","","","",""
"null","","html-keyboard-response","420","437575","0.0-420.0","","","null","","","","","","","",""
"788.3000001907349","","image-keyboard-response","421","438365","0.0-421.0","","img/set2/S4.jpg","74","4","structured_incentive","74","random,structured_incentive,structured_load,structured_normal","3,4,2,3,2,1","true","",""
"null","","html-keyboard-response","422","438717","0.0-422.0","","<img src=""img/set2/S4.jpg"" width=""540"" height = ""360"" style=""border:16px solid Violet"">","null","","","","","","","",""
"null","","html-keyboard-response","423","438934","0.0-423.0","","","null","","","","","","","",""
"null","","image-keyboard-response","424","441436","0.0-424.0","","img/set2/S3.jpg","null","3","structured_incentive","72","random,structured_incentive,structured_load,structured_normal","3,4,2,3,2,1","false","",""
"null","","html-keyboard-response","425","441788","0.0-425.0","","<img src=""img/set2/S3.jpg"" width=""540"" height = ""360"">","null","","","","","","","",""
"null","","html-keyboard-response","426","441990","0.0-426.0","","","null","","","","","","","",""
"2084.0999999046326","","image-keyboard-response","427","444076","0.0-427.0","","img/set2/S4.jpg","74","4","structured_incentive","74","random,structured_incentive,structured_load,structured_normal","3,4,2,3,2,1","true","",""
"null","","html-keyboard-response","428","444432","0.0-428.0","","<img src=""img/set2/S4.jpg"" width=""540"" height = ""360"" style=""border:16px solid Violet"">","null","","","","","","","",""
"null","","html-keyboard-response","429","444641","0.0-429.0","","","null","","","","","","","",""
"1210.0999999046326","","image-keyboard-response","430","445852","0.0-430.0","","img/set2/S3.jpg","72","3","structured_incentive","72","random,structured_incentive,structured_load,structured_normal","3,4,2,3,2,1","true","",""
"null","","html-keyboard-response","431","446207","0.0-431.0","","<img src=""img/set2/S3.jpg"" width=""540"" height = ""360"" style=""border:16px solid orange"">","null","","","","","","","",""
"null","","html-keyboard-response","432","446424","0.0-432.0","","","null","","","","","","","",""
"1017.9000000953674","","image-keyboard-response","433","447444","0.0-433.0","","img/set2/S4.jpg","74","4","structured_incentive","74","random,structured_incentive,structured_load,structured_normal","3,4,2,3,2,1","true","",""
"null","","html-keyboard-response","434","447796","0.0-434.0","","<img src=""img/set2/S4.jpg"" width=""540"" height = ""360"" style=""border:16px solid Violet"">","null","","","","","","","",""
"null","","html-keyboard-response","435","448001","0.0-435.0","","","null","","","","","","","",""
"642.4000000953674","","image-keyboard-response","436","448645","0.0-436.0","","img/set2/S3.jpg","72","3","structured_incentive","72","random,structured_incentive,structured_load,structured_normal","3,4,2,3,2,1","true","",""
"null","","html-keyboard-response","437","448999","0.0-437.0","","<img src=""img/set2/S3.jpg"" width=""540"" height = ""360"" style=""border:16px solid orange"">","null","","","","","","","",""
"null","","html-keyboard-response","438","449200","0.0-438.0","","","null","","","","","","","",""
"587.3000001907349","","image-keyboard-response","439","449788","0.0-439.0","","img/set2/S4.jpg","74","4","structured_incentive","74","random,structured_incentive,structured_load,structured_normal","3,4,2,3,2,1","true","",""
"null","","html-keyboard-response","440","450141","0.0-440.0","","<img src=""img/set2/S4.jpg"" width=""540"" height = ""360"" style=""border:16px solid Violet"">","null","","","","","","","",""
"null","","html-keyboard-response","441","450343","0.0-441.0","","","null","","","","","","","",""
"null","","image-keyboard-response","442","452844","0.0-442.0","","img/set2/S1.jpg","null","1","structured_incentive","83","random,structured_incentive,structured_load,structured_normal","3,4,2,3,2,1","false","",""
"null","","html-keyboard-response","443","453197","0.0-443.0","","<img src=""img/set2/S1.jpg"" width=""540"" height = ""360"">","null","","","","","","","",""
"null","","html-keyboard-response","444","453400","0.0-444.0","","","null","","","","","","","",""
"null","","image-keyboard-response","445","455902","0.0-445.0","","img/set2/S2.jpg","null","2","structured_incentive","68","random,structured_incentive,structured_load,structured_normal","3,4,2,3,2,1","false","",""
"null","","html-keyboard-response","446","456254","0.0-446.0","","<img src=""img/set2/S2.jpg"" width=""540"" height = ""360"">","null","","","","","","","",""
"null","","html-keyboard-response","447","456456","0.0-447.0","","","null","","","","","","","",""
"null","","image-keyboard-response","448","458958","0.0-448.0","","img/set2/S1.jpg","null","1","structured_incentive","83","random,structured_incentive,structured_load,structured_normal","3,4,2,3,2,1","false","",""
"null","","html-keyboard-response","449","459311","0.0-449.0","","<img src=""img/set2/S1.jpg"" width=""540"" height = ""360"">","null","","","","","","","",""
"null","","html-keyboard-response","450","459513","0.0-450.0","","","null","","","","","","","",""
"null","","image-keyboard-response","451","462015","0.0-451.0","","img/set2/S2.jpg","null","2","structured_incentive","68","random,structured_incentive,structured_load,structured_normal","3,4,2,3,2,1","false","",""
"null","","html-keyboard-response","452","462369","0.0-452.0","","<img src=""img/set2/S2.jpg"" width=""540"" height = ""360"">","null","","","","","","","",""
"null","","html-keyboard-response","453","462571","0.0-453.0","","","null","","","","","","","",""
"663.7000002861023","","image-keyboard-response","454","463236","0.0-454.0","","img/set2/S2.jpg","72","2","structured_incentive","68","random,structured_incentive,structured_load,structured_normal","3,4,2,3,2,1","false","",""
"null","","html-keyboard-response","455","463587","0.0-455.0","","<img src=""img/set2/S2.jpg"" width=""540"" height = ""360"">","null","","","","","","","",""
"null","","html-keyboard-response","456","463789","0.0-456.0","","","null","","","","","","","",""
"1174","","image-keyboard-response","457","464964","0.0-457.0","","img/set2/S1.jpg","72","1","structured_incentive","83","random,structured_incentive,structured_load,structured_normal","3,4,2,3,2,1","false","",""
"null","","html-keyboard-response","458","465316","0.0-458.0","","<img src=""img/set2/S1.jpg"" width=""540"" height = ""360"">","null","","","","","","","",""
"null","","html-keyboard-response","459","465517","0.0-459.0","","","null","","","","","","","",""
"975.5999999046326","","image-keyboard-response","460","466494","0.0-460.0","","img/set2/S1.jpg","74","1","structured_incentive","83","random,structured_incentive,structured_load,structured_normal","3,4,2,3,2,1","false","",""
"null","","html-keyboard-response","461","466846","0.0-461.0","","<img src=""img/set2/S1.jpg"" width=""540"" height = ""360"">","null","","","","","","","",""
"null","","html-keyboard-response","462","467048","0.0-462.0","","","null","","","","","","","",""
"1380.1999998092651","","image-keyboard-response","463","468430","0.0-463.0","","img/set2/S2.jpg","68","2","structured_incentive","68","random,structured_incentive,structured_load,structured_normal","3,4,2,3,2,1","true","",""
"null","","html-keyboard-response","464","468783","0.0-464.0","","<img src=""img/set2/S2.jpg"" width=""540"" height = ""360"" style=""border:16px solid orange"">","null","","","","","","","",""
"null","","html-keyboard-response","465","468986","0.0-465.0","","","null","","","","","","","",""
"1128.6999998092651","","image-keyboard-response","466","470116","0.0-466.0","","img/set2/S2.jpg","68","2","structured_incentive","68","random,structured_incentive,structured_load,structured_normal","3,4,2,3,2,1","true","",""
"null","","html-keyboard-response","467","470468","0.0-467.0","","<img src=""img/set2/S2.jpg"" width=""540"" height = ""360"" style=""border:16px solid orange"">","null","","","","","","","",""
"null","","html-keyboard-response","468","470670","0.0-468.0","","","null","","","","","","","",""
"1510.1000003814697","","image-keyboard-response","469","472182","0.0-469.0","","img/set2/S1.jpg","68","1","structured_incentive","83","random,structured_incentive,structured_load,structured_normal","3,4,2,3,2,1","false","",""
"null","","html-keyboard-response","470","472535","0.0-470.0","","<img src=""img/set2/S1.jpg"" width=""540"" height = ""360"">","null","","","","","","","",""
"null","","html-keyboard-response","471","472737","0.0-471.0","","","null","","","","","","","",""
"null","","image-keyboard-response","472","475240","0.0-472.0","","img/set2/S1.jpg","null","1","structured_incentive","83","random,structured_incentive,structured_load,structured_normal","3,4,2,3,2,1","false","",""
"null","","html-keyboard-response","473","475593","0.0-473.0","","<img src=""img/set2/S1.jpg"" width=""540"" height = ""360"">","null","","","","","","","",""
"null","","html-keyboard-response","474","475795","0.0-474.0","","","null","","","","","","","",""
"1226.5","","image-keyboard-response","475","477022","0.0-475.0","","img/set2/S3.jpg","68","3","structured_incentive","72","random,structured_incentive,structured_load,structured_normal","3,4,2,3,2,1","false","",""
"null","","html-keyboard-response","476","477376","0.0-476.0","","<img src=""img/set2/S3.jpg"" width=""540"" height = ""360"">","null","","","","","","","",""
"null","","html-keyboard-response","477","477578","0.0-477.0","","","null","","","","","","","",""
"866.5","","image-keyboard-response","478","478446","0.0-478.0","","img/set2/S4.jpg","74","4","structured_incentive","74","random,structured_incentive,structured_load,structured_normal","3,4,2,3,2,1","true","",""
"null","","html-keyboard-response","479","478799","0.0-479.0","","<img src=""img/set2/S4.jpg"" width=""540"" height = ""360"" style=""border:16px solid Violet"">","null","","","","","","","",""
"null","","html-keyboard-response","480","479001","0.0-480.0","","","null","","","","","","","",""
"753.7999997138977","","image-keyboard-response","481","479756","0.0-481.0","","img/set2/S3.jpg","72","3","structured_incentive","72","random,structured_incentive,structured_load,structured_normal","3,4,2,3,2,1","true","",""
"null","","html-keyboard-response","482","480110","0.0-482.0","","<img src=""img/set2/S3.jpg"" width=""540"" height = ""360"" style=""border:16px solid orange"">","null","","","","","","","",""
"null","","html-keyboard-response","483","480322","0.0-483.0","","","null","","","","","","","",""
"689.0999999046326","","image-keyboard-response","484","481012","0.0-484.0","","img/set2/S4.jpg","74","4","structured_incentive","74","random,structured_incentive,structured_load,structured_normal","3,4,2,3,2,1","true","",""
"null","","html-keyboard-response","485","481365","0.0-485.0","","<img src=""img/set2/S4.jpg"" width=""540"" height = ""360"" style=""border:16px solid Violet"">","null","","","","","","","",""
"null","","html-keyboard-response","486","481566","0.0-486.0","","","null","","","","","","","",""
"1965.2999997138977","","image-keyboard-response","487","483532","0.0-487.0","","img/set2/S1.jpg","72","1","structured_incentive","83","random,structured_incentive,structured_load,structured_normal","3,4,2,3,2,1","false","",""
"null","","html-keyboard-response","488","483885","0.0-488.0","","<img src=""img/set2/S1.jpg"" width=""540"" height = ""360"">","null","","","","","","","",""
"null","","html-keyboard-response","489","484096","0.0-489.0","","","null","","","","","","","",""
"1299","","image-keyboard-response","490","485396","0.0-490.0","","img/set2/S1.jpg","74","1","structured_incentive","83","random,structured_incentive,structured_load,structured_normal","3,4,2,3,2,1","false","",""
"null","","html-keyboard-response","491","485749","0.0-491.0","","<img src=""img/set2/S1.jpg"" width=""540"" height = ""360"">","null","","","","","","","",""
"null","","html-keyboard-response","492","485950","0.0-492.0","","","null","","","","","","","",""
"1174.0999999046326","","image-keyboard-response","493","487126","0.0-493.0","","img/set2/S2.jpg","68","2","structured_incentive","68","random,structured_incentive,structured_load,structured_normal","3,4,2,3,2,1","true","",""
"null","","html-keyboard-response","494","487479","0.0-494.0","","<img src=""img/set2/S2.jpg"" width=""540"" height = ""360"" style=""border:16px solid orange"">","null","","","","","","","",""
"null","","html-keyboard-response","495","487681","0.0-495.0","","","null","","","","","","","",""
"619","","image-keyboard-response","496","488302","0.0-496.0","","img/set2/S2.jpg","68","2","structured_incentive","68","random,structured_incentive,structured_load,structured_normal","3,4,2,3,2,1","true","",""
"null","","html-keyboard-response","497","488660","0.0-497.0","","<img src=""img/set2/S2.jpg"" width=""540"" height = ""360"" style=""border:16px solid orange"">","null","","","","","","","",""
"null","","html-keyboard-response","498","488863","0.0-498.0","","","null","","","","","","","",""
"1179.6999998092651","","image-keyboard-response","499","490044","0.0-499.0","","img/set2/S1.jpg","68","1","structured_incentive","83","random,structured_incentive,structured_load,structured_normal","3,4,2,3,2,1","false","",""
"null","","html-keyboard-response","500","490409","0.0-500.0","","<img src=""img/set2/S1.jpg"" width=""540"" height = ""360"">","null","","","","","","","",""
"null","","html-keyboard-response","501","490619","0.0-501.0","","","null","","","","","","","",""
"1575.5999999046326","","image-keyboard-response","502","492196","0.0-502.0","","img/set2/S3.jpg","72","3","structured_incentive","72","random,structured_incentive,structured_load,structured_normal","3,4,2,3,2,1","true","",""
"null","","html-keyboard-response","503","492561","0.0-503.0","","<img src=""img/set2/S3.jpg"" width=""540"" height = ""360"" style=""border:16px solid orange"">","null","","","","","","","",""
"null","","html-keyboard-response","504","492768","0.0-504.0","","","null","","","","","","","",""
"667","","image-keyboard-response","505","493436","0.0-505.0","","img/set2/S4.jpg","74","4","structured_incentive","74","random,structured_incentive,structured_load,structured_normal","3,4,2,3,2,1","true","",""
"null","","html-keyboard-response","506","493788","0.0-506.0","","<img src=""img/set2/S4.jpg"" width=""540"" height = ""360"" style=""border:16px solid Violet"">","null","","","","","","","",""
"null","","html-keyboard-response","507","493989","0.0-507.0","","","null","","","","","","","",""
"1014.0999999046326","","image-keyboard-response","508","495004","0.0-508.0","","img/set2/S2.jpg","68","2","structured_incentive","68","random,structured_incentive,structured_load,structured_normal","3,4,2,3,2,1","true","",""
"null","","html-keyboard-response","509","495356","0.0-509.0","","<img src=""img/set2/S2.jpg"" width=""540"" height = ""360"" style=""border:16px solid orange"">","null","","","","","","","",""
"null","","html-keyboard-response","510","495558","0.0-510.0","","","null","","","","","","","",""
"null","","image-keyboard-response","511","498062","0.0-511.0","","img/set2/S1.jpg","null","1","structured_incentive","83","random,structured_incentive,structured_load,structured_normal","3,4,2,3,2,1","false","",""
"null","","html-keyboard-response","512","498426","0.0-512.0","","<img src=""img/set2/S1.jpg"" width=""540"" height = ""360"">","null","","","","","","","",""
"null","","html-keyboard-response","513","498635","0.0-513.0","","","null","","","","","","","",""
"null","","image-keyboard-response","514","501138","0.0-514.0","","img/set2/S1.jpg","null","1","structured_incentive","83","random,structured_incentive,structured_load,structured_normal","3,4,2,3,2,1","false","",""
"null","","html-keyboard-response","515","501490","0.0-515.0","","<img src=""img/set2/S1.jpg"" width=""540"" height = ""360"">","null","","","","","","","",""
"null","","html-keyboard-response","516","501692","0.0-516.0","","","null","","","","","","","",""
"1296.3000001907349","","image-keyboard-response","517","502990","0.0-517.0","","img/set2/S2.jpg","68","2","structured_incentive","68","random,structured_incentive,structured_load,structured_normal","3,4,2,3,2,1","true","",""
"null","","html-keyboard-response","518","503343","0.0-518.0","","<img src=""img/set2/S2.jpg"" width=""540"" height = ""360"" style=""border:16px solid orange"">","null","","","","","","","",""
"null","","html-keyboard-response","519","503545","0.0-519.0","","","null","","","","","","","",""
"931.5999999046326","","image-keyboard-response","520","504477","0.0-520.0","","img/set2/S1.jpg","83","1","structured_incentive","83","random,structured_incentive,structured_load,structured_normal","3,4,2,3,2,1","true","",""
"null","","html-keyboard-response","521","504831","0.0-521.0","","<img src=""img/set2/S1.jpg"" width=""540"" height = ""360"" style=""border:16px solid orange"">","null","","","","","","","",""
"null","","html-keyboard-response","522","505034","0.0-522.0","","","null","","","","","","","",""
"1841","","image-keyboard-response","523","506876","0.0-523.0","","img/set2/S2.jpg","83","2","structured_incentive","68","random,structured_incentive,structured_load,structured_normal","3,4,2,3,2,1","false","",""
"null","","html-keyboard-response","524","507228","0.0-524.0","","<img src=""img/set2/S2.jpg"" width=""540"" height = ""360"">","null","","","","","","","",""
"null","","html-keyboard-response","525","507430","0.0-525.0","","","null","","","","","","","",""
"686.3999996185303","","image-keyboard-response","526","508118","0.0-526.0","","img/set2/S2.jpg","68","2","structured_incentive","68","random,structured_incentive,structured_load,structured_normal","3,4,2,3,2,1","true","",""
"null","","html-keyboard-response","527","508474","0.0-527.0","","<img src=""img/set2/S2.jpg"" width=""540"" height = ""360"" style=""border:16px solid orange"">","null","","","","","","","",""
"null","","html-keyboard-response","528","508683","0.0-528.0","","","null","","","","","","","",""
"687.7000002861023","","image-keyboard-response","529","509372","0.0-529.0","","img/set2/S2.jpg","68","2","structured_incentive","68","random,structured_incentive,structured_load,structured_normal","3,4,2,3,2,1","true","",""
"null","","html-keyboard-response","530","509724","0.0-530.0","","<img src=""img/set2/S2.jpg"" width=""540"" height = ""360"" style=""border:16px solid orange"">","null","","","","","","","",""
"null","","html-keyboard-response","531","509926","0.0-531.0","","","null","","","","","","","",""
"598.7999997138977","","image-keyboard-response","532","510525","0.0-532.0","","img/set2/S2.jpg","68","2","structured_incentive","68","random,structured_incentive,structured_load,structured_normal","3,4,2,3,2,1","true","",""
"null","","html-keyboard-response","533","510878","0.0-533.0","","<img src=""img/set2/S2.jpg"" width=""540"" height = ""360"" style=""border:16px solid orange"">","null","","","","","","","",""
"null","","html-keyboard-response","534","511079","0.0-534.0","","","null","","","","","","","",""
"476.09999990463257","","image-keyboard-response","535","511556","0.0-535.0","","img/set2/S2.jpg","68","2","structured_incentive","68","random,structured_incentive,structured_load,structured_normal","3,4,2,3,2,1","true","",""
"null","","html-keyboard-response","536","511908","0.0-536.0","","<img src=""img/set2/S2.jpg"" width=""540"" height = ""360"" style=""border:16px solid orange"">","null","","","","","","","",""
"null","","html-keyboard-response","537","512110","0.0-537.0","","","null","","","","","","","",""
"894.1999998092651","","image-keyboard-response","538","513006","0.0-538.0","","img/set2/S1.jpg","83","1","structured_incentive","83","random,structured_incentive,structured_load,structured_normal","3,4,2,3,2,1","true","",""
"null","","html-keyboard-response","539","513359","0.0-539.0","","<img src=""img/set2/S1.jpg"" width=""540"" height = ""360"" style=""border:16px solid orange"">","null","","","","","","","",""
"null","","html-keyboard-response","540","513560","0.0-540.0","","","null","","","","","","","",""
"675.2999997138977","","image-keyboard-response","541","514236","0.0-541.0","","img/set2/S2.jpg","68","2","structured_incentive","68","random,structured_incentive,structured_load,structured_normal","3,4,2,3,2,1","true","",""
"null","","html-keyboard-response","542","514589","0.0-542.0","","<img src=""img/set2/S2.jpg"" width=""540"" height = ""360"" style=""border:16px solid orange"">","null","","","","","","","",""
"null","","html-keyboard-response","543","514790","0.0-543.0","","","null","","","","","","","",""
"813.5999999046326","","image-keyboard-response","544","515604","0.0-544.0","","img/set2/S1.jpg","83","1","structured_incentive","83","random,structured_incentive,structured_load,structured_normal","3,4,2,3,2,1","true","",""
"null","","html-keyboard-response","545","515956","0.0-545.0","","<img src=""img/set2/S1.jpg"" width=""540"" height = ""360"" style=""border:16px solid orange"">","null","","","","","","","",""
"null","","html-keyboard-response","546","516157","0.0-546.0","","","null","","","","","","","",""
"1270","","image-keyboard-response","547","517428","0.0-547.0","","img/set2/S3.jpg","72","3","structured_incentive","72","random,structured_incentive,structured_load,structured_normal","3,4,2,3,2,1","true","",""
"null","","html-keyboard-response","548","517779","0.0-548.0","","<img src=""img/set2/S3.jpg"" width=""540"" height = ""360"" style=""border:16px solid orange"">","null","","","","","","","",""
"null","","html-keyboard-response","549","517981","0.0-549.0","","","null","","","","","","","",""
"487.59999990463257","","image-keyboard-response","550","518470","0.0-550.0","","img/set2/S4.jpg","74","4","structured_incentive","74","random,structured_incentive,structured_load,structured_normal","3,4,2,3,2,1","true","",""
"null","","html-keyboard-response","551","518823","0.0-551.0","","<img src=""img/set2/S4.jpg"" width=""540"" height = ""360"" style=""border:16px solid Violet"">","null","","","","","","","",""
"null","","html-keyboard-response","552","519024","0.0-552.0","","","null","","","","","","","",""
"972.8999996185303","","image-keyboard-response","553","519998","0.0-553.0","","img/set2/S2.jpg","83","2","structured_incentive","68","random,structured_incentive,structured_load,structured_normal","3,4,2,3,2,1","false","",""
"null","","html-keyboard-response","554","520351","0.0-554.0","","<img src=""img/set2/S2.jpg"" width=""540"" height = ""360"">","null","","","","","","","",""
"null","","html-keyboard-response","555","520554","0.0-555.0","","","null","","","","","","","",""
"825.2000002861023","","image-keyboard-response","556","521380","0.0-556.0","","img/set2/S1.jpg","83","1","structured_incentive","83","random,structured_incentive,structured_load,structured_normal","3,4,2,3,2,1","true","",""
"null","","html-keyboard-response","557","521732","0.0-557.0","","<img src=""img/set2/S1.jpg"" width=""540"" height = ""360"" style=""border:16px solid orange"">","null","","","","","","","",""
"null","","html-keyboard-response","558","521935","0.0-558.0","","","null","","","","","","","",""
"1461","","image-keyboard-response","559","523396","0.0-559.0","","img/set2/S3.jpg","72","3","structured_incentive","72","random,structured_incentive,structured_load,structured_normal","3,4,2,3,2,1","true","",""
"null","","html-keyboard-response","560","523748","0.0-560.0","","<img src=""img/set2/S3.jpg"" width=""540"" height = ""360"" style=""border:16px solid orange"">","null","","","","","","","",""
"null","","html-keyboard-response","561","523949","0.0-561.0","","","null","","","","","","","",""
"1630.5999999046326","","image-keyboard-response","562","525580","0.0-562.0","","img/set2/S4.jpg","74","4","structured_incentive","74","random,structured_incentive,structured_load,structured_normal","3,4,2,3,2,1","true","",""
"null","","html-keyboard-response","563","525933","0.0-563.0","","<img src=""img/set2/S4.jpg"" width=""540"" height = ""360"" style=""border:16px solid Violet"">","null","","","","","","","",""
"null","","html-keyboard-response","564","526134","0.0-564.0","","","null","","","","","","","",""
"1116.7999997138977","","image-keyboard-response","565","527252","0.0-565.0","","img/set2/S1.jpg","83","1","structured_incentive","83","random,structured_incentive,structured_load,structured_normal","3,4,2,3,2,1","true","",""
"null","","html-keyboard-response","566","527605","0.0-566.0","","<img src=""img/set2/S1.jpg"" width=""540"" height = ""360"" style=""border:16px solid orange"">","null","","","","","","","",""
"null","","html-keyboard-response","567","527806","0.0-567.0","","","null","","","","","","","",""
"638.5999999046326","","image-keyboard-response","568","528446","0.0-568.0","","img/set2/S2.jpg","68","2","structured_incentive","68","random,structured_incentive,structured_load,structured_normal","3,4,2,3,2,1","true","",""
"null","","html-keyboard-response","569","528797","0.0-569.0","","<img src=""img/set2/S2.jpg"" width=""540"" height = ""360"" style=""border:16px solid orange"">","null","","","","","","","",""
"null","","html-keyboard-response","570","528999","0.0-570.0","","","null","","","","","","","",""
"1148.9000000953674","","image-keyboard-response","571","530150","0.0-571.0","","img/set2/S3.jpg","72","3","structured_incentive","72","random,structured_incentive,structured_load,structured_normal","3,4,2,3,2,1","true","",""
"null","","html-keyboard-response","572","530503","0.0-572.0","","<img src=""img/set2/S3.jpg"" width=""540"" height = ""360"" style=""border:16px solid orange"">","null","","","","","","","",""
"null","","html-keyboard-response","573","530705","0.0-573.0","","","null","","","","","","","",""
"689.5999999046326","","image-keyboard-response","574","531396","0.0-574.0","","img/set2/S4.jpg","74","4","structured_incentive","74","random,structured_incentive,structured_load,structured_normal","3,4,2,3,2,1","true","",""
"null","","html-keyboard-response","575","531748","0.0-575.0","","<img src=""img/set2/S4.jpg"" width=""540"" height = ""360"" style=""border:16px solid Violet"">","null","","","","","","","",""
"null","","html-keyboard-response","576","531950","0.0-576.0","","","null","","","","","","","",""
"1477.4000000953674","","image-keyboard-response","577","533428","0.0-577.0","","img/set2/S3.jpg","74","3","structured_incentive","72","random,structured_incentive,structured_load,structured_normal","3,4,2,3,2,1","false","",""
"null","","html-keyboard-response","578","533780","0.0-578.0","","<img src=""img/set2/S3.jpg"" width=""540"" height = ""360"">","null","","","","","","","",""
"null","","html-keyboard-response","579","533981","0.0-579.0","","","null","","","","","","","",""
"710.9000000953674","","image-keyboard-response","580","534693","0.0-580.0","","img/set2/S4.jpg","74","4","structured_incentive","74","random,structured_incentive,structured_load,structured_normal","3,4,2,3,2,1","true","",""
"null","","html-keyboard-response","581","535045","0.0-581.0","","<img src=""img/set2/S4.jpg"" width=""540"" height = ""360"" style=""border:16px solid Violet"">","null","","","","","","","",""
"null","","html-keyboard-response","582","535248","0.0-582.0","","","null","","","","","","","",""
"1740.6999998092651","","image-keyboard-response","583","536989","0.0-583.0","","img/set2/S1.jpg","83","1","structured_incentive","83","random,structured_incentive,structured_load,structured_normal","3,4,2,3,2,1","true","",""
"null","","html-keyboard-response","584","537343","0.0-584.0","","<img src=""img/set2/S1.jpg"" width=""540"" height = ""360"" style=""border:16px solid orange"">","null","","","","","","","",""
"null","","html-keyboard-response","585","537543","0.0-585.0","","","null","","","","","","","",""
"669.0999999046326","","image-keyboard-response","586","538214","0.0-586.0","","img/set2/S2.jpg","68","2","structured_incentive","68","random,structured_incentive,structured_load,structured_normal","3,4,2,3,2,1","true","",""
"null","","html-keyboard-response","587","538566","0.0-587.0","","<img src=""img/set2/S2.jpg"" width=""540"" height = ""360"" style=""border:16px solid orange"">","null","","","","","","","",""
"null","","html-keyboard-response","588","538768","0.0-588.0","","","null","","","","","","","",""
"1379.5999999046326","","image-keyboard-response","589","540149","0.0-589.0","","img/set2/S3.jpg","72","3","structured_incentive","72","random,structured_incentive,structured_load,structured_normal","3,4,2,3,2,1","true","",""
"null","","html-keyboard-response","590","540503","0.0-590.0","","<img src=""img/set2/S3.jpg"" width=""540"" height = ""360"" style=""border:16px solid orange"">","null","","","","","","","",""
"null","","html-keyboard-response","591","540713","0.0-591.0","","","null","","","","","","","",""
"442.40000009536743","","image-keyboard-response","592","541157","0.0-592.0","","img/set2/S4.jpg","74","4","structured_incentive","74","random,structured_incentive,structured_load,structured_normal","3,4,2,3,2,1","true","",""
"null","","html-keyboard-response","593","541510","0.0-593.0","","<img src=""img/set2/S4.jpg"" width=""540"" height = ""360"" style=""border:16px solid Violet"">","null","","","","","","","",""
"null","","html-keyboard-response","594","541711","0.0-594.0","","","null","","","","","","","",""
"1285.6000003814697","","image-keyboard-response","595","542998","0.0-595.0","","img/set2/S3.jpg","72","3","structured_incentive","72","random,structured_incentive,structured_load,structured_normal","3,4,2,3,2,1","true","",""
"null","","html-keyboard-response","596","543351","0.0-596.0","","<img src=""img/set2/S3.jpg"" width=""540"" height = ""360"" style=""border:16px solid orange"">","null","","","","","","","",""
"null","","html-keyboard-response","597","543553","0.0-597.0","","","null","","","","","","","",""
"515.2999997138977","","image-keyboard-response","598","544070","0.0-598.0","","img/set2/S4.jpg","74","4","structured_incentive","74","random,structured_incentive,structured_load,structured_normal","3,4,2,3,2,1","true","",""
"null","","html-keyboard-response","599","544436","0.0-599.0","","<img src=""img/set2/S4.jpg"" width=""540"" height = ""360"" style=""border:16px solid Violet"">","null","","","","","","","",""
"null","","html-keyboard-response","600","544645","0.0-600.0","","","null","","","","","","","",""
