"rt","url","trial_type","trial_index","time_elapsed","internal_node_id","assignmentID","mturkID","hitID","view_history","stimulus","key_press","state","test_part","correct_response","order_block","order_chunk","order_freq","correct","responses","question_order","bonus"
"926871.600000143","consent.html","external-html","0","926958","0.0-0.0","3PMBY0YE28PD4D04ARGVD4S3414C9X","A3K9GTQBOI7O5A","3RKHNXPHGWIRLJ219DNI80W3E6SKUF","","","","","","","","","","","","",""
"170184.60000014305","","instructions","1","1097145","0.0-1.0","3PMBY0YE28PD4D04ARGVD4S3414C9X","A3K9GTQBOI7O5A","3RKHNXPHGWIRLJ219DNI80W3E6SKUF","[{""page_index"":0,""viewing_time"":37062.200000047684},{""page_index"":1,""viewing_time"":70100},{""page_index"":2,""viewing_time"":5391.400000095367},{""page_index"":3,""viewing_time"":37994.89999985695},{""page_index"":4,""viewing_time"":4996.5},{""page_index"":5,""viewing_time"":8126.300000190735},{""page_index"":6,""viewing_time"":6510.899999856949}]","","","","","","","","","","","",""
"16184.200000047684","","instructions","2","1113331","0.0-2.0","3PMBY0YE28PD4D04ARGVD4S3414C9X","A3K9GTQBOI7O5A","3RKHNXPHGWIRLJ219DNI80W3E6SKUF","[{""page_index"":0,""viewing_time"":16183.799999952316}]","","","","","","","","","","","",""
"3886.899999856949","","instructions","3","1117219","0.0-3.0","3PMBY0YE28PD4D04ARGVD4S3414C9X","A3K9GTQBOI7O5A","3RKHNXPHGWIRLJ219DNI80W3E6SKUF","[{""page_index"":0,""viewing_time"":3886.199999809265}]","","","","","","","","","","","",""
"null","","image-keyboard-response","4","1119726","0.0-4.0","3PMBY0YE28PD4D04ARGVD4S3414C9X","A3K9GTQBOI7O5A","3RKHNXPHGWIRLJ219DNI80W3E6SKUF","","img/set1/S1.jpg","null","1","random","83","random,structured_load,structured_incentive,structured_normal","","4,2,3,1","false","","",""
"null","","html-keyboard-response","5","1120081","0.0-5.0","3PMBY0YE28PD4D04ARGVD4S3414C9X","A3K9GTQBOI7O5A","3RKHNXPHGWIRLJ219DNI80W3E6SKUF","","<img src=""img/set1/S1.jpg"" width=""540"" height = ""360"">","null","","","","","","","","","",""
"null","","html-keyboard-response","6","1120296","0.0-6.0","3PMBY0YE28PD4D04ARGVD4S3414C9X","A3K9GTQBOI7O5A","3RKHNXPHGWIRLJ219DNI80W3E6SKUF","","","null","","","","","","","","","",""
"171.29999995231628","","image-keyboard-response","7","1120469","0.0-7.0","3PMBY0YE28PD4D04ARGVD4S3414C9X","A3K9GTQBOI7O5A","3RKHNXPHGWIRLJ219DNI80W3E6SKUF","","img/set1/S3.jpg","74","3","random","72","random,structured_load,structured_incentive,structured_normal","","4,2,3,1","false","","",""
"null","","html-keyboard-response","8","1120826","0.0-8.0","3PMBY0YE28PD4D04ARGVD4S3414C9X","A3K9GTQBOI7O5A","3RKHNXPHGWIRLJ219DNI80W3E6SKUF","","<img src=""img/set1/S3.jpg"" width=""540"" height = ""360"">","null","","","","","","","","","",""
"null","","html-keyboard-response","9","1121043","0.0-9.0","3PMBY0YE28PD4D04ARGVD4S3414C9X","A3K9GTQBOI7O5A","3RKHNXPHGWIRLJ219DNI80W3E6SKUF","","","null","","","","","","","","","",""
"248.39999985694885","","image-keyboard-response","10","1121293","0.0-10.0","3PMBY0YE28PD4D04ARGVD4S3414C9X","A3K9GTQBOI7O5A","3RKHNXPHGWIRLJ219DNI80W3E6SKUF","","img/set1/S1.jpg","68","1","random","83","random,structured_load,structured_incentive,structured_normal","","4,2,3,1","false","","",""
"null","","html-keyboard-response","11","1121650","0.0-11.0","3PMBY0YE28PD4D04ARGVD4S3414C9X","A3K9GTQBOI7O5A","3RKHNXPHGWIRLJ219DNI80W3E6SKUF","","<img src=""img/set1/S1.jpg"" width=""540"" height = ""360"">","null","","","","","","","","","",""
"null","","html-keyboard-response","12","1121864","0.0-12.0","3PMBY0YE28PD4D04ARGVD4S3414C9X","A3K9GTQBOI7O5A","3RKHNXPHGWIRLJ219DNI80W3E6SKUF","","","null","","","","","","","","","",""
"109.70000004768372","","image-keyboard-response","13","1121975","0.0-13.0","3PMBY0YE28PD4D04ARGVD4S3414C9X","A3K9GTQBOI7O5A","3RKHNXPHGWIRLJ219DNI80W3E6SKUF","","img/set1/S2.jpg","68","2","random","68","random,structured_load,structured_incentive,structured_normal","","4,2,3,1","true","","",""
"null","","html-keyboard-response","14","1122331","0.0-14.0","3PMBY0YE28PD4D04ARGVD4S3414C9X","A3K9GTQBOI7O5A","3RKHNXPHGWIRLJ219DNI80W3E6SKUF","","<img src=""img/set1/S2.jpg"" width=""540"" height = ""360"" style=""border:16px solid orange"">","null","","","","","","","","","",""
"null","","html-keyboard-response","15","1122534","0.0-15.0","3PMBY0YE28PD4D04ARGVD4S3414C9X","A3K9GTQBOI7O5A","3RKHNXPHGWIRLJ219DNI80W3E6SKUF","","","null","","","","","","","","","",""
"812.6999998092651","","image-keyboard-response","16","1123348","0.0-16.0","3PMBY0YE28PD4D04ARGVD4S3414C9X","A3K9GTQBOI7O5A","3RKHNXPHGWIRLJ219DNI80W3E6SKUF","","img/set1/S4.jpg","83","4","random","74","random,structured_load,structured_incentive,structured_normal","","4,2,3,1","false","","",""
"null","","html-keyboard-response","17","1123700","0.0-17.0","3PMBY0YE28PD4D04ARGVD4S3414C9X","A3K9GTQBOI7O5A","3RKHNXPHGWIRLJ219DNI80W3E6SKUF","","<img src=""img/set1/S4.jpg"" width=""540"" height = ""360"">","null","","","","","","","","","",""
"null","","html-keyboard-response","18","1123915","0.0-18.0","3PMBY0YE28PD4D04ARGVD4S3414C9X","A3K9GTQBOI7O5A","3RKHNXPHGWIRLJ219DNI80W3E6SKUF","","","null","","","","","","","","","",""
"68.29999995231628","","image-keyboard-response","19","1123986","0.0-19.0","3PMBY0YE28PD4D04ARGVD4S3414C9X","A3K9GTQBOI7O5A","3RKHNXPHGWIRLJ219DNI80W3E6SKUF","","img/set1/S1.jpg","68","1","random","83","random,structured_load,structured_incentive,structured_normal","","4,2,3,1","false","","",""
"null","","html-keyboard-response","20","1124350","0.0-20.0","3PMBY0YE28PD4D04ARGVD4S3414C9X","A3K9GTQBOI7O5A","3RKHNXPHGWIRLJ219DNI80W3E6SKUF","","<img src=""img/set1/S1.jpg"" width=""540"" height = ""360"">","null","","","","","","","","","",""
"null","","html-keyboard-response","21","1124566","0.0-21.0","3PMBY0YE28PD4D04ARGVD4S3414C9X","A3K9GTQBOI7O5A","3RKHNXPHGWIRLJ219DNI80W3E6SKUF","","","null","","","","","","","","","",""
"156.59999990463257","","image-keyboard-response","22","1124725","0.0-22.0","3PMBY0YE28PD4D04ARGVD4S3414C9X","A3K9GTQBOI7O5A","3RKHNXPHGWIRLJ219DNI80W3E6SKUF","","img/set1/S2.jpg","74","2","random","68","random,structured_load,structured_incentive,structured_normal","","4,2,3,1","false","","",""
"null","","html-keyboard-response","23","1125078","0.0-23.0","3PMBY0YE28PD4D04ARGVD4S3414C9X","A3K9GTQBOI7O5A","3RKHNXPHGWIRLJ219DNI80W3E6SKUF","","<img src=""img/set1/S2.jpg"" width=""540"" height = ""360"">","null","","","","","","","","","",""
"null","","html-keyboard-response","24","1125282","0.0-24.0","3PMBY0YE28PD4D04ARGVD4S3414C9X","A3K9GTQBOI7O5A","3RKHNXPHGWIRLJ219DNI80W3E6SKUF","","","null","","","","","","","","","",""
"745","","image-keyboard-response","25","1126030","0.0-25.0","3PMBY0YE28PD4D04ARGVD4S3414C9X","A3K9GTQBOI7O5A","3RKHNXPHGWIRLJ219DNI80W3E6SKUF","","img/set1/S1.jpg","74","1","random","83","random,structured_load,structured_incentive,structured_normal","","4,2,3,1","false","","",""
"null","","html-keyboard-response","26","1126385","0.0-26.0","3PMBY0YE28PD4D04ARGVD4S3414C9X","A3K9GTQBOI7O5A","3RKHNXPHGWIRLJ219DNI80W3E6SKUF","","<img src=""img/set1/S1.jpg"" width=""540"" height = ""360"">","null","","","","","","","","","",""
"null","","html-keyboard-response","27","1126588","0.0-27.0","3PMBY0YE28PD4D04ARGVD4S3414C9X","A3K9GTQBOI7O5A","3RKHNXPHGWIRLJ219DNI80W3E6SKUF","","","null","","","","","","","","","",""
"701.2999999523163","","image-keyboard-response","28","1127291","0.0-28.0","3PMBY0YE28PD4D04ARGVD4S3414C9X","A3K9GTQBOI7O5A","3RKHNXPHGWIRLJ219DNI80W3E6SKUF","","img/set1/S3.jpg","83","3","random","72","random,structured_load,structured_incentive,structured_normal","","4,2,3,1","false","","",""
"null","","html-keyboard-response","29","1127645","0.0-29.0","3PMBY0YE28PD4D04ARGVD4S3414C9X","A3K9GTQBOI7O5A","3RKHNXPHGWIRLJ219DNI80W3E6SKUF","","<img src=""img/set1/S3.jpg"" width=""540"" height = ""360"">","null","","","","","","","","","",""
"null","","html-keyboard-response","30","1127848","0.0-30.0","3PMBY0YE28PD4D04ARGVD4S3414C9X","A3K9GTQBOI7O5A","3RKHNXPHGWIRLJ219DNI80W3E6SKUF","","","null","","","","","","","","","",""
"84.60000014305115","","image-keyboard-response","31","1127934","0.0-31.0","3PMBY0YE28PD4D04ARGVD4S3414C9X","A3K9GTQBOI7O5A","3RKHNXPHGWIRLJ219DNI80W3E6SKUF","","img/set1/S2.jpg","68","2","random","68","random,structured_load,structured_incentive,structured_normal","","4,2,3,1","true","","",""
"null","","html-keyboard-response","32","1128294","0.0-32.0","3PMBY0YE28PD4D04ARGVD4S3414C9X","A3K9GTQBOI7O5A","3RKHNXPHGWIRLJ219DNI80W3E6SKUF","","<img src=""img/set1/S2.jpg"" width=""540"" height = ""360"" style=""border:16px solid orange"">","null","","","","","","","","","",""
"null","","html-keyboard-response","33","1128509","0.0-33.0","3PMBY0YE28PD4D04ARGVD4S3414C9X","A3K9GTQBOI7O5A","3RKHNXPHGWIRLJ219DNI80W3E6SKUF","","","null","","","","","","","","","",""
"33.10000014305115","","image-keyboard-response","34","1128545","0.0-34.0","3PMBY0YE28PD4D04ARGVD4S3414C9X","A3K9GTQBOI7O5A","3RKHNXPHGWIRLJ219DNI80W3E6SKUF","","img/set1/S2.jpg","68","2","random","68","random,structured_load,structured_incentive,structured_normal","","4,2,3,1","true","","",""
"null","","html-keyboard-response","35","1128900","0.0-35.0","3PMBY0YE28PD4D04ARGVD4S3414C9X","A3K9GTQBOI7O5A","3RKHNXPHGWIRLJ219DNI80W3E6SKUF","","<img src=""img/set1/S2.jpg"" width=""540"" height = ""360"" style=""border:16px solid orange"">","null","","","","","","","","","",""
"null","","html-keyboard-response","36","1129116","0.0-36.0","3PMBY0YE28PD4D04ARGVD4S3414C9X","A3K9GTQBOI7O5A","3RKHNXPHGWIRLJ219DNI80W3E6SKUF","","","null","","","","","","","","","",""
"606.2000000476837","","image-keyboard-response","37","1129723","0.0-37.0","3PMBY0YE28PD4D04ARGVD4S3414C9X","A3K9GTQBOI7O5A","3RKHNXPHGWIRLJ219DNI80W3E6SKUF","","img/set1/S3.jpg","68","3","random","72","random,structured_load,structured_incentive,structured_normal","","4,2,3,1","false","","",""
"null","","html-keyboard-response","38","1130080","0.0-38.0","3PMBY0YE28PD4D04ARGVD4S3414C9X","A3K9GTQBOI7O5A","3RKHNXPHGWIRLJ219DNI80W3E6SKUF","","<img src=""img/set1/S3.jpg"" width=""540"" height = ""360"">","null","","","","","","","","","",""
"null","","html-keyboard-response","39","1130296","0.0-39.0","3PMBY0YE28PD4D04ARGVD4S3414C9X","A3K9GTQBOI7O5A","3RKHNXPHGWIRLJ219DNI80W3E6SKUF","","","null","","","","","","","","","",""
"294.40000009536743","","image-keyboard-response","40","1130595","0.0-40.0","3PMBY0YE28PD4D04ARGVD4S3414C9X","A3K9GTQBOI7O5A","3RKHNXPHGWIRLJ219DNI80W3E6SKUF","","img/set1/S2.jpg","68","2","random","68","random,structured_load,structured_incentive,structured_normal","","4,2,3,1","true","","",""
"null","","html-keyboard-response","41","1130949","0.0-41.0","3PMBY0YE28PD4D04ARGVD4S3414C9X","A3K9GTQBOI7O5A","3RKHNXPHGWIRLJ219DNI80W3E6SKUF","","<img src=""img/set1/S2.jpg"" width=""540"" height = ""360"" style=""border:16px solid orange"">","null","","","","","","","","","",""
"null","","html-keyboard-response","42","1131165","0.0-42.0","3PMBY0YE28PD4D04ARGVD4S3414C9X","A3K9GTQBOI7O5A","3RKHNXPHGWIRLJ219DNI80W3E6SKUF","","","null","","","","","","","","","",""
"654.5999999046326","","image-keyboard-response","43","1131822","0.0-43.0","3PMBY0YE28PD4D04ARGVD4S3414C9X","A3K9GTQBOI7O5A","3RKHNXPHGWIRLJ219DNI80W3E6SKUF","","img/set1/S3.jpg","83","3","random","72","random,structured_load,structured_incentive,structured_normal","","4,2,3,1","false","","",""
"null","","html-keyboard-response","44","1132175","0.0-44.0","3PMBY0YE28PD4D04ARGVD4S3414C9X","A3K9GTQBOI7O5A","3RKHNXPHGWIRLJ219DNI80W3E6SKUF","","<img src=""img/set1/S3.jpg"" width=""540"" height = ""360"">","null","","","","","","","","","",""
"null","","html-keyboard-response","45","1132403","0.0-45.0","3PMBY0YE28PD4D04ARGVD4S3414C9X","A3K9GTQBOI7O5A","3RKHNXPHGWIRLJ219DNI80W3E6SKUF","","","null","","","","","","","","","",""
"222.90000009536743","","image-keyboard-response","46","1132627","0.0-46.0","3PMBY0YE28PD4D04ARGVD4S3414C9X","A3K9GTQBOI7O5A","3RKHNXPHGWIRLJ219DNI80W3E6SKUF","","img/set1/S1.jpg","68","1","random","83","random,structured_load,structured_incentive,structured_normal","","4,2,3,1","false","","",""
"null","","html-keyboard-response","47","1132981","0.0-47.0","3PMBY0YE28PD4D04ARGVD4S3414C9X","A3K9GTQBOI7O5A","3RKHNXPHGWIRLJ219DNI80W3E6SKUF","","<img src=""img/set1/S1.jpg"" width=""540"" height = ""360"">","null","","","","","","","","","",""
"null","","html-keyboard-response","48","1133184","0.0-48.0","3PMBY0YE28PD4D04ARGVD4S3414C9X","A3K9GTQBOI7O5A","3RKHNXPHGWIRLJ219DNI80W3E6SKUF","","","null","","","","","","","","","",""
"276.40000009536743","","image-keyboard-response","49","1133462","0.0-49.0","3PMBY0YE28PD4D04ARGVD4S3414C9X","A3K9GTQBOI7O5A","3RKHNXPHGWIRLJ219DNI80W3E6SKUF","","img/set1/S1.jpg","68","1","random","83","random,structured_load,structured_incentive,structured_normal","","4,2,3,1","false","","",""
"null","","html-keyboard-response","50","1133817","0.0-50.0","3PMBY0YE28PD4D04ARGVD4S3414C9X","A3K9GTQBOI7O5A","3RKHNXPHGWIRLJ219DNI80W3E6SKUF","","<img src=""img/set1/S1.jpg"" width=""540"" height = ""360"">","null","","","","","","","","","",""
"null","","html-keyboard-response","51","1134035","0.0-51.0","3PMBY0YE28PD4D04ARGVD4S3414C9X","A3K9GTQBOI7O5A","3RKHNXPHGWIRLJ219DNI80W3E6SKUF","","","null","","","","","","","","","",""
"48.799999952316284","","image-keyboard-response","52","1134086","0.0-52.0","3PMBY0YE28PD4D04ARGVD4S3414C9X","A3K9GTQBOI7O5A","3RKHNXPHGWIRLJ219DNI80W3E6SKUF","","img/set1/S2.jpg","68","2","random","68","random,structured_load,structured_incentive,structured_normal","","4,2,3,1","true","","",""
"null","","html-keyboard-response","53","1134439","0.0-53.0","3PMBY0YE28PD4D04ARGVD4S3414C9X","A3K9GTQBOI7O5A","3RKHNXPHGWIRLJ219DNI80W3E6SKUF","","<img src=""img/set1/S2.jpg"" width=""540"" height = ""360"" style=""border:16px solid orange"">","null","","","","","","","","","",""
"null","","html-keyboard-response","54","1134654","0.0-54.0","3PMBY0YE28PD4D04ARGVD4S3414C9X","A3K9GTQBOI7O5A","3RKHNXPHGWIRLJ219DNI80W3E6SKUF","","","null","","","","","","","","","",""
"111.5","","image-keyboard-response","55","1134767","0.0-55.0","3PMBY0YE28PD4D04ARGVD4S3414C9X","A3K9GTQBOI7O5A","3RKHNXPHGWIRLJ219DNI80W3E6SKUF","","img/set1/S4.jpg","74","4","random","74","random,structured_load,structured_incentive,structured_normal","","4,2,3,1","true","","",""
"null","","html-keyboard-response","56","1135123","0.0-56.0","3PMBY0YE28PD4D04ARGVD4S3414C9X","A3K9GTQBOI7O5A","3RKHNXPHGWIRLJ219DNI80W3E6SKUF","","<img src=""img/set1/S4.jpg"" width=""540"" height = ""360"" style=""border:16px solid orange"">","null","","","","","","","","","",""
"null","","html-keyboard-response","57","1135328","0.0-57.0","3PMBY0YE28PD4D04ARGVD4S3414C9X","A3K9GTQBOI7O5A","3RKHNXPHGWIRLJ219DNI80W3E6SKUF","","","null","","","","","","","","","",""
"684.7000000476837","","image-keyboard-response","58","1136014","0.0-58.0","3PMBY0YE28PD4D04ARGVD4S3414C9X","A3K9GTQBOI7O5A","3RKHNXPHGWIRLJ219DNI80W3E6SKUF","","img/set1/S2.jpg","74","2","random","68","random,structured_load,structured_incentive,structured_normal","","4,2,3,1","false","","",""
"null","","html-keyboard-response","59","1136368","0.0-59.0","3PMBY0YE28PD4D04ARGVD4S3414C9X","A3K9GTQBOI7O5A","3RKHNXPHGWIRLJ219DNI80W3E6SKUF","","<img src=""img/set1/S2.jpg"" width=""540"" height = ""360"">","null","","","","","","","","","",""
"null","","html-keyboard-response","60","1136570","0.0-60.0","3PMBY0YE28PD4D04ARGVD4S3414C9X","A3K9GTQBOI7O5A","3RKHNXPHGWIRLJ219DNI80W3E6SKUF","","","null","","","","","","","","","",""
"1150.7000000476837","","image-keyboard-response","61","1137722","0.0-61.0","3PMBY0YE28PD4D04ARGVD4S3414C9X","A3K9GTQBOI7O5A","3RKHNXPHGWIRLJ219DNI80W3E6SKUF","","img/set1/S3.jpg","68","3","random","72","random,structured_load,structured_incentive,structured_normal","","4,2,3,1","false","","",""
"null","","html-keyboard-response","62","1138075","0.0-62.0","3PMBY0YE28PD4D04ARGVD4S3414C9X","A3K9GTQBOI7O5A","3RKHNXPHGWIRLJ219DNI80W3E6SKUF","","<img src=""img/set1/S3.jpg"" width=""540"" height = ""360"">","null","","","","","","","","","",""
"null","","html-keyboard-response","63","1138292","0.0-63.0","3PMBY0YE28PD4D04ARGVD4S3414C9X","A3K9GTQBOI7O5A","3RKHNXPHGWIRLJ219DNI80W3E6SKUF","","","null","","","","","","","","","",""
"248.30000019073486","","image-keyboard-response","64","1138541","0.0-64.0","3PMBY0YE28PD4D04ARGVD4S3414C9X","A3K9GTQBOI7O5A","3RKHNXPHGWIRLJ219DNI80W3E6SKUF","","img/set1/S4.jpg","83","4","random","74","random,structured_load,structured_incentive,structured_normal","","4,2,3,1","false","","",""
"null","","html-keyboard-response","65","1138897","0.0-65.0","3PMBY0YE28PD4D04ARGVD4S3414C9X","A3K9GTQBOI7O5A","3RKHNXPHGWIRLJ219DNI80W3E6SKUF","","<img src=""img/set1/S4.jpg"" width=""540"" height = ""360"">","null","","","","","","","","","",""
"null","","html-keyboard-response","66","1139100","0.0-66.0","3PMBY0YE28PD4D04ARGVD4S3414C9X","A3K9GTQBOI7O5A","3RKHNXPHGWIRLJ219DNI80W3E6SKUF","","","null","","","","","","","","","",""
"185.20000004768372","","image-keyboard-response","67","1139287","0.0-67.0","3PMBY0YE28PD4D04ARGVD4S3414C9X","A3K9GTQBOI7O5A","3RKHNXPHGWIRLJ219DNI80W3E6SKUF","","img/set1/S3.jpg","83","3","random","72","random,structured_load,structured_incentive,structured_normal","","4,2,3,1","false","","",""
"null","","html-keyboard-response","68","1139640","0.0-68.0","3PMBY0YE28PD4D04ARGVD4S3414C9X","A3K9GTQBOI7O5A","3RKHNXPHGWIRLJ219DNI80W3E6SKUF","","<img src=""img/set1/S3.jpg"" width=""540"" height = ""360"">","null","","","","","","","","","",""
"null","","html-keyboard-response","69","1139844","0.0-69.0","3PMBY0YE28PD4D04ARGVD4S3414C9X","A3K9GTQBOI7O5A","3RKHNXPHGWIRLJ219DNI80W3E6SKUF","","","null","","","","","","","","","",""
"121.39999985694885","","image-keyboard-response","70","1139970","0.0-70.0","3PMBY0YE28PD4D04ARGVD4S3414C9X","A3K9GTQBOI7O5A","3RKHNXPHGWIRLJ219DNI80W3E6SKUF","","img/set1/S2.jpg","68","2","random","68","random,structured_load,structured_incentive,structured_normal","","4,2,3,1","true","","",""
"null","","html-keyboard-response","71","1140326","0.0-71.0","3PMBY0YE28PD4D04ARGVD4S3414C9X","A3K9GTQBOI7O5A","3RKHNXPHGWIRLJ219DNI80W3E6SKUF","","<img src=""img/set1/S2.jpg"" width=""540"" height = ""360"" style=""border:16px solid orange"">","null","","","","","","","","","",""
"null","","html-keyboard-response","72","1140529","0.0-72.0","3PMBY0YE28PD4D04ARGVD4S3414C9X","A3K9GTQBOI7O5A","3RKHNXPHGWIRLJ219DNI80W3E6SKUF","","","null","","","","","","","","","",""
"761.1999998092651","","image-keyboard-response","73","1141292","0.0-73.0","3PMBY0YE28PD4D04ARGVD4S3414C9X","A3K9GTQBOI7O5A","3RKHNXPHGWIRLJ219DNI80W3E6SKUF","","img/set1/S4.jpg","68","4","random","74","random,structured_load,structured_incentive,structured_normal","","4,2,3,1","false","","",""
"null","","html-keyboard-response","74","1141647","0.0-74.0","3PMBY0YE28PD4D04ARGVD4S3414C9X","A3K9GTQBOI7O5A","3RKHNXPHGWIRLJ219DNI80W3E6SKUF","","<img src=""img/set1/S4.jpg"" width=""540"" height = ""360"">","null","","","","","","","","","",""
"null","","html-keyboard-response","75","1141851","0.0-75.0","3PMBY0YE28PD4D04ARGVD4S3414C9X","A3K9GTQBOI7O5A","3RKHNXPHGWIRLJ219DNI80W3E6SKUF","","","null","","","","","","","","","",""
"806.8999998569489","","image-keyboard-response","76","1142659","0.0-76.0","3PMBY0YE28PD4D04ARGVD4S3414C9X","A3K9GTQBOI7O5A","3RKHNXPHGWIRLJ219DNI80W3E6SKUF","","img/set1/S1.jpg","83","1","random","83","random,structured_load,structured_incentive,structured_normal","","4,2,3,1","true","","",""
"null","","html-keyboard-response","77","1143015","0.0-77.0","3PMBY0YE28PD4D04ARGVD4S3414C9X","A3K9GTQBOI7O5A","3RKHNXPHGWIRLJ219DNI80W3E6SKUF","","<img src=""img/set1/S1.jpg"" width=""540"" height = ""360"" style=""border:16px solid orange"">","null","","","","","","","","","",""
"null","","html-keyboard-response","78","1143230","0.0-78.0","3PMBY0YE28PD4D04ARGVD4S3414C9X","A3K9GTQBOI7O5A","3RKHNXPHGWIRLJ219DNI80W3E6SKUF","","","null","","","","","","","","","",""
"994.2000000476837","","image-keyboard-response","79","1144225","0.0-79.0","3PMBY0YE28PD4D04ARGVD4S3414C9X","A3K9GTQBOI7O5A","3RKHNXPHGWIRLJ219DNI80W3E6SKUF","","img/set1/S2.jpg","74","2","random","68","random,structured_load,structured_incentive,structured_normal","","4,2,3,1","false","","",""
"null","","html-keyboard-response","80","1144578","0.0-80.0","3PMBY0YE28PD4D04ARGVD4S3414C9X","A3K9GTQBOI7O5A","3RKHNXPHGWIRLJ219DNI80W3E6SKUF","","<img src=""img/set1/S2.jpg"" width=""540"" height = ""360"">","null","","","","","","","","","",""
"null","","html-keyboard-response","81","1144781","0.0-81.0","3PMBY0YE28PD4D04ARGVD4S3414C9X","A3K9GTQBOI7O5A","3RKHNXPHGWIRLJ219DNI80W3E6SKUF","","","null","","","","","","","","","",""
"2007","","image-keyboard-response","82","1146789","0.0-82.0","3PMBY0YE28PD4D04ARGVD4S3414C9X","A3K9GTQBOI7O5A","3RKHNXPHGWIRLJ219DNI80W3E6SKUF","","img/set1/S2.jpg","68","2","random","68","random,structured_load,structured_incentive,structured_normal","","4,2,3,1","true","","",""
"null","","html-keyboard-response","83","1147142","0.0-83.0","3PMBY0YE28PD4D04ARGVD4S3414C9X","A3K9GTQBOI7O5A","3RKHNXPHGWIRLJ219DNI80W3E6SKUF","","<img src=""img/set1/S2.jpg"" width=""540"" height = ""360"" style=""border:16px solid orange"">","null","","","","","","","","","",""
"null","","html-keyboard-response","84","1147357","0.0-84.0","3PMBY0YE28PD4D04ARGVD4S3414C9X","A3K9GTQBOI7O5A","3RKHNXPHGWIRLJ219DNI80W3E6SKUF","","","null","","","","","","","","","",""
"1370.2999999523163","","image-keyboard-response","85","1148729","0.0-85.0","3PMBY0YE28PD4D04ARGVD4S3414C9X","A3K9GTQBOI7O5A","3RKHNXPHGWIRLJ219DNI80W3E6SKUF","","img/set1/S2.jpg","72","2","random","68","random,structured_load,structured_incentive,structured_normal","","4,2,3,1","false","","",""
"null","","html-keyboard-response","86","1149085","0.0-86.0","3PMBY0YE28PD4D04ARGVD4S3414C9X","A3K9GTQBOI7O5A","3RKHNXPHGWIRLJ219DNI80W3E6SKUF","","<img src=""img/set1/S2.jpg"" width=""540"" height = ""360"">","null","","","","","","","","","",""
"null","","html-keyboard-response","87","1149290","0.0-87.0","3PMBY0YE28PD4D04ARGVD4S3414C9X","A3K9GTQBOI7O5A","3RKHNXPHGWIRLJ219DNI80W3E6SKUF","","","null","","","","","","","","","",""
"872.9000000953674","","image-keyboard-response","88","1150164","0.0-88.0","3PMBY0YE28PD4D04ARGVD4S3414C9X","A3K9GTQBOI7O5A","3RKHNXPHGWIRLJ219DNI80W3E6SKUF","","img/set1/S1.jpg","83","1","random","83","random,structured_load,structured_incentive,structured_normal","","4,2,3,1","true","","",""
"null","","html-keyboard-response","89","1150520","0.0-89.0","3PMBY0YE28PD4D04ARGVD4S3414C9X","A3K9GTQBOI7O5A","3RKHNXPHGWIRLJ219DNI80W3E6SKUF","","<img src=""img/set1/S1.jpg"" width=""540"" height = ""360"" style=""border:16px solid orange"">","null","","","","","","","","","",""
"null","","html-keyboard-response","90","1150736","0.0-90.0","3PMBY0YE28PD4D04ARGVD4S3414C9X","A3K9GTQBOI7O5A","3RKHNXPHGWIRLJ219DNI80W3E6SKUF","","","null","","","","","","","","","",""
"1041","","image-keyboard-response","91","1151779","0.0-91.0","3PMBY0YE28PD4D04ARGVD4S3414C9X","A3K9GTQBOI7O5A","3RKHNXPHGWIRLJ219DNI80W3E6SKUF","","img/set1/S4.jpg","72","4","random","74","random,structured_load,structured_incentive,structured_normal","","4,2,3,1","false","","",""
"null","","html-keyboard-response","92","1152134","0.0-92.0","3PMBY0YE28PD4D04ARGVD4S3414C9X","A3K9GTQBOI7O5A","3RKHNXPHGWIRLJ219DNI80W3E6SKUF","","<img src=""img/set1/S4.jpg"" width=""540"" height = ""360"">","null","","","","","","","","","",""
"null","","html-keyboard-response","93","1152351","0.0-93.0","3PMBY0YE28PD4D04ARGVD4S3414C9X","A3K9GTQBOI7O5A","3RKHNXPHGWIRLJ219DNI80W3E6SKUF","","","null","","","","","","","","","",""
"859.5","","image-keyboard-response","94","1153212","0.0-94.0","3PMBY0YE28PD4D04ARGVD4S3414C9X","A3K9GTQBOI7O5A","3RKHNXPHGWIRLJ219DNI80W3E6SKUF","","img/set1/S3.jpg","68","3","random","72","random,structured_load,structured_incentive,structured_normal","","4,2,3,1","false","","",""
"null","","html-keyboard-response","95","1153565","0.0-95.0","3PMBY0YE28PD4D04ARGVD4S3414C9X","A3K9GTQBOI7O5A","3RKHNXPHGWIRLJ219DNI80W3E6SKUF","","<img src=""img/set1/S3.jpg"" width=""540"" height = ""360"">","null","","","","","","","","","",""
"null","","html-keyboard-response","96","1153768","0.0-96.0","3PMBY0YE28PD4D04ARGVD4S3414C9X","A3K9GTQBOI7O5A","3RKHNXPHGWIRLJ219DNI80W3E6SKUF","","","null","","","","","","","","","",""
"933.4000000953674","","image-keyboard-response","97","1154703","0.0-97.0","3PMBY0YE28PD4D04ARGVD4S3414C9X","A3K9GTQBOI7O5A","3RKHNXPHGWIRLJ219DNI80W3E6SKUF","","img/set1/S2.jpg","74","2","random","68","random,structured_load,structured_incentive,structured_normal","","4,2,3,1","false","","",""
"null","","html-keyboard-response","98","1155058","0.0-98.0","3PMBY0YE28PD4D04ARGVD4S3414C9X","A3K9GTQBOI7O5A","3RKHNXPHGWIRLJ219DNI80W3E6SKUF","","<img src=""img/set1/S2.jpg"" width=""540"" height = ""360"">","null","","","","","","","","","",""
"null","","html-keyboard-response","99","1155262","0.0-99.0","3PMBY0YE28PD4D04ARGVD4S3414C9X","A3K9GTQBOI7O5A","3RKHNXPHGWIRLJ219DNI80W3E6SKUF","","","null","","","","","","","","","",""
"1153.6000001430511","","image-keyboard-response","100","1156417","0.0-100.0","3PMBY0YE28PD4D04ARGVD4S3414C9X","A3K9GTQBOI7O5A","3RKHNXPHGWIRLJ219DNI80W3E6SKUF","","img/set1/S2.jpg","72","2","random","68","random,structured_load,structured_incentive,structured_normal","","4,2,3,1","false","","",""
"null","","html-keyboard-response","101","1156772","0.0-101.0","3PMBY0YE28PD4D04ARGVD4S3414C9X","A3K9GTQBOI7O5A","3RKHNXPHGWIRLJ219DNI80W3E6SKUF","","<img src=""img/set1/S2.jpg"" width=""540"" height = ""360"">","null","","","","","","","","","",""
"null","","html-keyboard-response","102","1156973","0.0-102.0","3PMBY0YE28PD4D04ARGVD4S3414C9X","A3K9GTQBOI7O5A","3RKHNXPHGWIRLJ219DNI80W3E6SKUF","","","null","","","","","","","","","",""
"1212.5999999046326","","image-keyboard-response","103","1158187","0.0-103.0","3PMBY0YE28PD4D04ARGVD4S3414C9X","A3K9GTQBOI7O5A","3RKHNXPHGWIRLJ219DNI80W3E6SKUF","","img/set1/S4.jpg","83","4","random","74","random,structured_load,structured_incentive,structured_normal","","4,2,3,1","false","","",""
"null","","html-keyboard-response","104","1158555","0.0-104.0","3PMBY0YE28PD4D04ARGVD4S3414C9X","A3K9GTQBOI7O5A","3RKHNXPHGWIRLJ219DNI80W3E6SKUF","","<img src=""img/set1/S4.jpg"" width=""540"" height = ""360"">","null","","","","","","","","","",""
"null","","html-keyboard-response","105","1158758","0.0-105.0","3PMBY0YE28PD4D04ARGVD4S3414C9X","A3K9GTQBOI7O5A","3RKHNXPHGWIRLJ219DNI80W3E6SKUF","","","null","","","","","","","","","",""
"1060.4000000953674","","image-keyboard-response","106","1159820","0.0-106.0","3PMBY0YE28PD4D04ARGVD4S3414C9X","A3K9GTQBOI7O5A","3RKHNXPHGWIRLJ219DNI80W3E6SKUF","","img/set1/S1.jpg","83","1","random","83","random,structured_load,structured_incentive,structured_normal","","4,2,3,1","true","","",""
"null","","html-keyboard-response","107","1160175","0.0-107.0","3PMBY0YE28PD4D04ARGVD4S3414C9X","A3K9GTQBOI7O5A","3RKHNXPHGWIRLJ219DNI80W3E6SKUF","","<img src=""img/set1/S1.jpg"" width=""540"" height = ""360"" style=""border:16px solid orange"">","null","","","","","","","","","",""
"null","","html-keyboard-response","108","1160391","0.0-108.0","3PMBY0YE28PD4D04ARGVD4S3414C9X","A3K9GTQBOI7O5A","3RKHNXPHGWIRLJ219DNI80W3E6SKUF","","","null","","","","","","","","","",""
"1061.4000000953674","","image-keyboard-response","109","1161454","0.0-109.0","3PMBY0YE28PD4D04ARGVD4S3414C9X","A3K9GTQBOI7O5A","3RKHNXPHGWIRLJ219DNI80W3E6SKUF","","img/set1/S4.jpg","72","4","random","74","random,structured_load,structured_incentive,structured_normal","","4,2,3,1","false","","",""
"null","","html-keyboard-response","110","1161809","0.0-110.0","3PMBY0YE28PD4D04ARGVD4S3414C9X","A3K9GTQBOI7O5A","3RKHNXPHGWIRLJ219DNI80W3E6SKUF","","<img src=""img/set1/S4.jpg"" width=""540"" height = ""360"">","null","","","","","","","","","",""
"null","","html-keyboard-response","111","1162010","0.0-111.0","3PMBY0YE28PD4D04ARGVD4S3414C9X","A3K9GTQBOI7O5A","3RKHNXPHGWIRLJ219DNI80W3E6SKUF","","","null","","","","","","","","","",""
"1027.5","","image-keyboard-response","112","1163039","0.0-112.0","3PMBY0YE28PD4D04ARGVD4S3414C9X","A3K9GTQBOI7O5A","3RKHNXPHGWIRLJ219DNI80W3E6SKUF","","img/set1/S4.jpg","68","4","random","74","random,structured_load,structured_incentive,structured_normal","","4,2,3,1","false","","",""
"null","","html-keyboard-response","113","1163392","0.0-113.0","3PMBY0YE28PD4D04ARGVD4S3414C9X","A3K9GTQBOI7O5A","3RKHNXPHGWIRLJ219DNI80W3E6SKUF","","<img src=""img/set1/S4.jpg"" width=""540"" height = ""360"">","null","","","","","","","","","",""
"null","","html-keyboard-response","114","1163595","0.0-114.0","3PMBY0YE28PD4D04ARGVD4S3414C9X","A3K9GTQBOI7O5A","3RKHNXPHGWIRLJ219DNI80W3E6SKUF","","","null","","","","","","","","","",""
"1321.5","","image-keyboard-response","115","1164918","0.0-115.0","3PMBY0YE28PD4D04ARGVD4S3414C9X","A3K9GTQBOI7O5A","3RKHNXPHGWIRLJ219DNI80W3E6SKUF","","img/set1/S1.jpg","74","1","random","83","random,structured_load,structured_incentive,structured_normal","","4,2,3,1","false","","",""
"null","","html-keyboard-response","116","1165284","0.0-116.0","3PMBY0YE28PD4D04ARGVD4S3414C9X","A3K9GTQBOI7O5A","3RKHNXPHGWIRLJ219DNI80W3E6SKUF","","<img src=""img/set1/S1.jpg"" width=""540"" height = ""360"">","null","","","","","","","","","",""
"null","","html-keyboard-response","117","1165500","0.0-117.0","3PMBY0YE28PD4D04ARGVD4S3414C9X","A3K9GTQBOI7O5A","3RKHNXPHGWIRLJ219DNI80W3E6SKUF","","","null","","","","","","","","","",""
"1041.4000000953674","","image-keyboard-response","118","1166543","0.0-118.0","3PMBY0YE28PD4D04ARGVD4S3414C9X","A3K9GTQBOI7O5A","3RKHNXPHGWIRLJ219DNI80W3E6SKUF","","img/set1/S2.jpg","83","2","random","68","random,structured_load,structured_incentive,structured_normal","","4,2,3,1","false","","",""
"null","","html-keyboard-response","119","1166898","0.0-119.0","3PMBY0YE28PD4D04ARGVD4S3414C9X","A3K9GTQBOI7O5A","3RKHNXPHGWIRLJ219DNI80W3E6SKUF","","<img src=""img/set1/S2.jpg"" width=""540"" height = ""360"">","null","","","","","","","","","",""
"null","","html-keyboard-response","120","1167112","0.0-120.0","3PMBY0YE28PD4D04ARGVD4S3414C9X","A3K9GTQBOI7O5A","3RKHNXPHGWIRLJ219DNI80W3E6SKUF","","","null","","","","","","","","","",""
"1425.5","","image-keyboard-response","121","1168539","0.0-121.0","3PMBY0YE28PD4D04ARGVD4S3414C9X","A3K9GTQBOI7O5A","3RKHNXPHGWIRLJ219DNI80W3E6SKUF","","img/set1/S3.jpg","68","3","random","72","random,structured_load,structured_incentive,structured_normal","","4,2,3,1","false","","",""
"null","","html-keyboard-response","122","1168894","0.0-122.0","3PMBY0YE28PD4D04ARGVD4S3414C9X","A3K9GTQBOI7O5A","3RKHNXPHGWIRLJ219DNI80W3E6SKUF","","<img src=""img/set1/S3.jpg"" width=""540"" height = ""360"">","null","","","","","","","","","",""
"null","","html-keyboard-response","123","1169109","0.0-123.0","3PMBY0YE28PD4D04ARGVD4S3414C9X","A3K9GTQBOI7O5A","3RKHNXPHGWIRLJ219DNI80W3E6SKUF","","","null","","","","","","","","","",""
"922.7999999523163","","image-keyboard-response","124","1170033","0.0-124.0","3PMBY0YE28PD4D04ARGVD4S3414C9X","A3K9GTQBOI7O5A","3RKHNXPHGWIRLJ219DNI80W3E6SKUF","","img/set1/S2.jpg","68","2","random","68","random,structured_load,structured_incentive,structured_normal","","4,2,3,1","true","","",""
"null","","html-keyboard-response","125","1170400","0.0-125.0","3PMBY0YE28PD4D04ARGVD4S3414C9X","A3K9GTQBOI7O5A","3RKHNXPHGWIRLJ219DNI80W3E6SKUF","","<img src=""img/set1/S2.jpg"" width=""540"" height = ""360"" style=""border:16px solid orange"">","null","","","","","","","","","",""
"null","","html-keyboard-response","126","1170603","0.0-126.0","3PMBY0YE28PD4D04ARGVD4S3414C9X","A3K9GTQBOI7O5A","3RKHNXPHGWIRLJ219DNI80W3E6SKUF","","","null","","","","","","","","","",""
"995.5999999046326","","image-keyboard-response","127","1171600","0.0-127.0","3PMBY0YE28PD4D04ARGVD4S3414C9X","A3K9GTQBOI7O5A","3RKHNXPHGWIRLJ219DNI80W3E6SKUF","","img/set1/S2.jpg","68","2","random","68","random,structured_load,structured_incentive,structured_normal","","4,2,3,1","true","","",""
"null","","html-keyboard-response","128","1171952","0.0-128.0","3PMBY0YE28PD4D04ARGVD4S3414C9X","A3K9GTQBOI7O5A","3RKHNXPHGWIRLJ219DNI80W3E6SKUF","","<img src=""img/set1/S2.jpg"" width=""540"" height = ""360"" style=""border:16px solid orange"">","null","","","","","","","","","",""
"null","","html-keyboard-response","129","1172155","0.0-129.0","3PMBY0YE28PD4D04ARGVD4S3414C9X","A3K9GTQBOI7O5A","3RKHNXPHGWIRLJ219DNI80W3E6SKUF","","","null","","","","","","","","","",""
"1445.5999999046326","","image-keyboard-response","130","1173602","0.0-130.0","3PMBY0YE28PD4D04ARGVD4S3414C9X","A3K9GTQBOI7O5A","3RKHNXPHGWIRLJ219DNI80W3E6SKUF","","img/set1/S4.jpg","72","4","random","74","random,structured_load,structured_incentive,structured_normal","","4,2,3,1","false","","",""
"null","","html-keyboard-response","131","1173960","0.0-131.0","3PMBY0YE28PD4D04ARGVD4S3414C9X","A3K9GTQBOI7O5A","3RKHNXPHGWIRLJ219DNI80W3E6SKUF","","<img src=""img/set1/S4.jpg"" width=""540"" height = ""360"">","null","","","","","","","","","",""
"null","","html-keyboard-response","132","1174176","0.0-132.0","3PMBY0YE28PD4D04ARGVD4S3414C9X","A3K9GTQBOI7O5A","3RKHNXPHGWIRLJ219DNI80W3E6SKUF","","","null","","","","","","","","","",""
"2169.399999856949","","image-keyboard-response","133","1176346","0.0-133.0","3PMBY0YE28PD4D04ARGVD4S3414C9X","A3K9GTQBOI7O5A","3RKHNXPHGWIRLJ219DNI80W3E6SKUF","","img/set1/S2.jpg","68","2","random","68","random,structured_load,structured_incentive,structured_normal","","4,2,3,1","true","","",""
"null","","html-keyboard-response","134","1176702","0.0-134.0","3PMBY0YE28PD4D04ARGVD4S3414C9X","A3K9GTQBOI7O5A","3RKHNXPHGWIRLJ219DNI80W3E6SKUF","","<img src=""img/set1/S2.jpg"" width=""540"" height = ""360"" style=""border:16px solid orange"">","null","","","","","","","","","",""
"null","","html-keyboard-response","135","1176919","0.0-135.0","3PMBY0YE28PD4D04ARGVD4S3414C9X","A3K9GTQBOI7O5A","3RKHNXPHGWIRLJ219DNI80W3E6SKUF","","","null","","","","","","","","","",""
"933.3000001907349","","image-keyboard-response","136","1177853","0.0-136.0","3PMBY0YE28PD4D04ARGVD4S3414C9X","A3K9GTQBOI7O5A","3RKHNXPHGWIRLJ219DNI80W3E6SKUF","","img/set1/S2.jpg","68","2","random","68","random,structured_load,structured_incentive,structured_normal","","4,2,3,1","true","","",""
"null","","html-keyboard-response","137","1178210","0.0-137.0","3PMBY0YE28PD4D04ARGVD4S3414C9X","A3K9GTQBOI7O5A","3RKHNXPHGWIRLJ219DNI80W3E6SKUF","","<img src=""img/set1/S2.jpg"" width=""540"" height = ""360"" style=""border:16px solid orange"">","null","","","","","","","","","",""
"null","","html-keyboard-response","138","1178413","0.0-138.0","3PMBY0YE28PD4D04ARGVD4S3414C9X","A3K9GTQBOI7O5A","3RKHNXPHGWIRLJ219DNI80W3E6SKUF","","","null","","","","","","","","","",""
"935.0999999046326","","image-keyboard-response","139","1179350","0.0-139.0","3PMBY0YE28PD4D04ARGVD4S3414C9X","A3K9GTQBOI7O5A","3RKHNXPHGWIRLJ219DNI80W3E6SKUF","","img/set1/S1.jpg","74","1","random","83","random,structured_load,structured_incentive,structured_normal","","4,2,3,1","false","","",""
"null","","html-keyboard-response","140","1179704","0.0-140.0","3PMBY0YE28PD4D04ARGVD4S3414C9X","A3K9GTQBOI7O5A","3RKHNXPHGWIRLJ219DNI80W3E6SKUF","","<img src=""img/set1/S1.jpg"" width=""540"" height = ""360"">","null","","","","","","","","","",""
"null","","html-keyboard-response","141","1179906","0.0-141.0","3PMBY0YE28PD4D04ARGVD4S3414C9X","A3K9GTQBOI7O5A","3RKHNXPHGWIRLJ219DNI80W3E6SKUF","","","null","","","","","","","","","",""
"1321.4000000953674","","image-keyboard-response","142","1181229","0.0-142.0","3PMBY0YE28PD4D04ARGVD4S3414C9X","A3K9GTQBOI7O5A","3RKHNXPHGWIRLJ219DNI80W3E6SKUF","","img/set1/S4.jpg","72","4","random","74","random,structured_load,structured_incentive,structured_normal","","4,2,3,1","false","","",""
"null","","html-keyboard-response","143","1181584","0.0-143.0","3PMBY0YE28PD4D04ARGVD4S3414C9X","A3K9GTQBOI7O5A","3RKHNXPHGWIRLJ219DNI80W3E6SKUF","","<img src=""img/set1/S4.jpg"" width=""540"" height = ""360"">","null","","","","","","","","","",""
"null","","html-keyboard-response","144","1181786","0.0-144.0","3PMBY0YE28PD4D04ARGVD4S3414C9X","A3K9GTQBOI7O5A","3RKHNXPHGWIRLJ219DNI80W3E6SKUF","","","null","","","","","","","","","",""
"1185.1000001430511","","image-keyboard-response","145","1182973","0.0-145.0","3PMBY0YE28PD4D04ARGVD4S3414C9X","A3K9GTQBOI7O5A","3RKHNXPHGWIRLJ219DNI80W3E6SKUF","","img/set1/S1.jpg","83","1","random","83","random,structured_load,structured_incentive,structured_normal","","4,2,3,1","true","","",""
"null","","html-keyboard-response","146","1183326","0.0-146.0","3PMBY0YE28PD4D04ARGVD4S3414C9X","A3K9GTQBOI7O5A","3RKHNXPHGWIRLJ219DNI80W3E6SKUF","","<img src=""img/set1/S1.jpg"" width=""540"" height = ""360"" style=""border:16px solid orange"">","null","","","","","","","","","",""
"null","","html-keyboard-response","147","1183542","0.0-147.0","3PMBY0YE28PD4D04ARGVD4S3414C9X","A3K9GTQBOI7O5A","3RKHNXPHGWIRLJ219DNI80W3E6SKUF","","","null","","","","","","","","","",""
"1803.9000000953674","","image-keyboard-response","148","1185347","0.0-148.0","3PMBY0YE28PD4D04ARGVD4S3414C9X","A3K9GTQBOI7O5A","3RKHNXPHGWIRLJ219DNI80W3E6SKUF","","img/set1/S4.jpg","74","4","random","74","random,structured_load,structured_incentive,structured_normal","","4,2,3,1","true","","",""
"null","","html-keyboard-response","149","1185702","0.0-149.0","3PMBY0YE28PD4D04ARGVD4S3414C9X","A3K9GTQBOI7O5A","3RKHNXPHGWIRLJ219DNI80W3E6SKUF","","<img src=""img/set1/S4.jpg"" width=""540"" height = ""360"" style=""border:16px solid orange"">","null","","","","","","","","","",""
"null","","html-keyboard-response","150","1185904","0.0-150.0","3PMBY0YE28PD4D04ARGVD4S3414C9X","A3K9GTQBOI7O5A","3RKHNXPHGWIRLJ219DNI80W3E6SKUF","","","null","","","","","","","","","",""
"821.1000001430511","","image-keyboard-response","151","1186727","0.0-151.0","3PMBY0YE28PD4D04ARGVD4S3414C9X","A3K9GTQBOI7O5A","3RKHNXPHGWIRLJ219DNI80W3E6SKUF","","img/set1/S4.jpg","74","4","random","74","random,structured_load,structured_incentive,structured_normal","","4,2,3,1","true","","",""
"null","","html-keyboard-response","152","1187084","0.0-152.0","3PMBY0YE28PD4D04ARGVD4S3414C9X","A3K9GTQBOI7O5A","3RKHNXPHGWIRLJ219DNI80W3E6SKUF","","<img src=""img/set1/S4.jpg"" width=""540"" height = ""360"" style=""border:16px solid orange"">","null","","","","","","","","","",""
"null","","html-keyboard-response","153","1187287","0.0-153.0","3PMBY0YE28PD4D04ARGVD4S3414C9X","A3K9GTQBOI7O5A","3RKHNXPHGWIRLJ219DNI80W3E6SKUF","","","null","","","","","","","","","",""
"1183.5","","image-keyboard-response","154","1188472","0.0-154.0","3PMBY0YE28PD4D04ARGVD4S3414C9X","A3K9GTQBOI7O5A","3RKHNXPHGWIRLJ219DNI80W3E6SKUF","","img/set1/S2.jpg","68","2","random","68","random,structured_load,structured_incentive,structured_normal","","4,2,3,1","true","","",""
"null","","html-keyboard-response","155","1188828","0.0-155.0","3PMBY0YE28PD4D04ARGVD4S3414C9X","A3K9GTQBOI7O5A","3RKHNXPHGWIRLJ219DNI80W3E6SKUF","","<img src=""img/set1/S2.jpg"" width=""540"" height = ""360"" style=""border:16px solid orange"">","null","","","","","","","","","",""
"null","","html-keyboard-response","156","1189029","0.0-156.0","3PMBY0YE28PD4D04ARGVD4S3414C9X","A3K9GTQBOI7O5A","3RKHNXPHGWIRLJ219DNI80W3E6SKUF","","","null","","","","","","","","","",""
"946.7999999523163","","image-keyboard-response","157","1189977","0.0-157.0","3PMBY0YE28PD4D04ARGVD4S3414C9X","A3K9GTQBOI7O5A","3RKHNXPHGWIRLJ219DNI80W3E6SKUF","","img/set1/S2.jpg","68","2","random","68","random,structured_load,structured_incentive,structured_normal","","4,2,3,1","true","","",""
"null","","html-keyboard-response","158","1190331","0.0-158.0","3PMBY0YE28PD4D04ARGVD4S3414C9X","A3K9GTQBOI7O5A","3RKHNXPHGWIRLJ219DNI80W3E6SKUF","","<img src=""img/set1/S2.jpg"" width=""540"" height = ""360"" style=""border:16px solid orange"">","null","","","","","","","","","",""
"null","","html-keyboard-response","159","1190548","0.0-159.0","3PMBY0YE28PD4D04ARGVD4S3414C9X","A3K9GTQBOI7O5A","3RKHNXPHGWIRLJ219DNI80W3E6SKUF","","","null","","","","","","","","","",""
"796.2999999523163","","image-keyboard-response","160","1191346","0.0-160.0","3PMBY0YE28PD4D04ARGVD4S3414C9X","A3K9GTQBOI7O5A","3RKHNXPHGWIRLJ219DNI80W3E6SKUF","","img/set1/S4.jpg","74","4","random","74","random,structured_load,structured_incentive,structured_normal","","4,2,3,1","true","","",""
"null","","html-keyboard-response","161","1191714","0.0-161.0","3PMBY0YE28PD4D04ARGVD4S3414C9X","A3K9GTQBOI7O5A","3RKHNXPHGWIRLJ219DNI80W3E6SKUF","","<img src=""img/set1/S4.jpg"" width=""540"" height = ""360"" style=""border:16px solid orange"">","null","","","","","","","","","",""
"null","","html-keyboard-response","162","1191930","0.0-162.0","3PMBY0YE28PD4D04ARGVD4S3414C9X","A3K9GTQBOI7O5A","3RKHNXPHGWIRLJ219DNI80W3E6SKUF","","","null","","","","","","","","","",""
"1055.3000001907349","","image-keyboard-response","163","1192987","0.0-163.0","3PMBY0YE28PD4D04ARGVD4S3414C9X","A3K9GTQBOI7O5A","3RKHNXPHGWIRLJ219DNI80W3E6SKUF","","img/set1/S2.jpg","68","2","random","68","random,structured_load,structured_incentive,structured_normal","","4,2,3,1","true","","",""
"null","","html-keyboard-response","164","1193344","0.0-164.0","3PMBY0YE28PD4D04ARGVD4S3414C9X","A3K9GTQBOI7O5A","3RKHNXPHGWIRLJ219DNI80W3E6SKUF","","<img src=""img/set1/S2.jpg"" width=""540"" height = ""360"" style=""border:16px solid orange"">","null","","","","","","","","","",""
"null","","html-keyboard-response","165","1193561","0.0-165.0","3PMBY0YE28PD4D04ARGVD4S3414C9X","A3K9GTQBOI7O5A","3RKHNXPHGWIRLJ219DNI80W3E6SKUF","","","null","","","","","","","","","",""
"1055.5999999046326","","image-keyboard-response","166","1194619","0.0-166.0","3PMBY0YE28PD4D04ARGVD4S3414C9X","A3K9GTQBOI7O5A","3RKHNXPHGWIRLJ219DNI80W3E6SKUF","","img/set1/S1.jpg","83","1","random","83","random,structured_load,structured_incentive,structured_normal","","4,2,3,1","true","","",""
"null","","html-keyboard-response","167","1194975","0.0-167.0","3PMBY0YE28PD4D04ARGVD4S3414C9X","A3K9GTQBOI7O5A","3RKHNXPHGWIRLJ219DNI80W3E6SKUF","","<img src=""img/set1/S1.jpg"" width=""540"" height = ""360"" style=""border:16px solid orange"">","null","","","","","","","","","",""
"null","","html-keyboard-response","168","1195178","0.0-168.0","3PMBY0YE28PD4D04ARGVD4S3414C9X","A3K9GTQBOI7O5A","3RKHNXPHGWIRLJ219DNI80W3E6SKUF","","","null","","","","","","","","","",""
"1366.4000000953674","","image-keyboard-response","169","1196546","0.0-169.0","3PMBY0YE28PD4D04ARGVD4S3414C9X","A3K9GTQBOI7O5A","3RKHNXPHGWIRLJ219DNI80W3E6SKUF","","img/set1/S4.jpg","74","4","random","74","random,structured_load,structured_incentive,structured_normal","","4,2,3,1","true","","",""
"null","","html-keyboard-response","170","1196900","0.0-170.0","3PMBY0YE28PD4D04ARGVD4S3414C9X","A3K9GTQBOI7O5A","3RKHNXPHGWIRLJ219DNI80W3E6SKUF","","<img src=""img/set1/S4.jpg"" width=""540"" height = ""360"" style=""border:16px solid orange"">","null","","","","","","","","","",""
"null","","html-keyboard-response","171","1197102","0.0-171.0","3PMBY0YE28PD4D04ARGVD4S3414C9X","A3K9GTQBOI7O5A","3RKHNXPHGWIRLJ219DNI80W3E6SKUF","","","null","","","","","","","","","",""
"1196.2999999523163","","image-keyboard-response","172","1198300","0.0-172.0","3PMBY0YE28PD4D04ARGVD4S3414C9X","A3K9GTQBOI7O5A","3RKHNXPHGWIRLJ219DNI80W3E6SKUF","","img/set1/S1.jpg","68","1","random","83","random,structured_load,structured_incentive,structured_normal","","4,2,3,1","false","","",""
"null","","html-keyboard-response","173","1198654","0.0-173.0","3PMBY0YE28PD4D04ARGVD4S3414C9X","A3K9GTQBOI7O5A","3RKHNXPHGWIRLJ219DNI80W3E6SKUF","","<img src=""img/set1/S1.jpg"" width=""540"" height = ""360"">","null","","","","","","","","","",""
"null","","html-keyboard-response","174","1198857","0.0-174.0","3PMBY0YE28PD4D04ARGVD4S3414C9X","A3K9GTQBOI7O5A","3RKHNXPHGWIRLJ219DNI80W3E6SKUF","","","null","","","","","","","","","",""
"1147.9000000953674","","image-keyboard-response","175","1200006","0.0-175.0","3PMBY0YE28PD4D04ARGVD4S3414C9X","A3K9GTQBOI7O5A","3RKHNXPHGWIRLJ219DNI80W3E6SKUF","","img/set1/S4.jpg","74","4","random","74","random,structured_load,structured_incentive,structured_normal","","4,2,3,1","true","","",""
"null","","html-keyboard-response","176","1200361","0.0-176.0","3PMBY0YE28PD4D04ARGVD4S3414C9X","A3K9GTQBOI7O5A","3RKHNXPHGWIRLJ219DNI80W3E6SKUF","","<img src=""img/set1/S4.jpg"" width=""540"" height = ""360"" style=""border:16px solid orange"">","null","","","","","","","","","",""
"null","","html-keyboard-response","177","1200579","0.0-177.0","3PMBY0YE28PD4D04ARGVD4S3414C9X","A3K9GTQBOI7O5A","3RKHNXPHGWIRLJ219DNI80W3E6SKUF","","","null","","","","","","","","","",""
"2425.2999999523163","","image-keyboard-response","178","1203006","0.0-178.0","3PMBY0YE28PD4D04ARGVD4S3414C9X","A3K9GTQBOI7O5A","3RKHNXPHGWIRLJ219DNI80W3E6SKUF","","img/set1/S3.jpg","72","3","random","72","random,structured_load,structured_incentive,structured_normal","","4,2,3,1","true","","",""
"null","","html-keyboard-response","179","1203361","0.0-179.0","3PMBY0YE28PD4D04ARGVD4S3414C9X","A3K9GTQBOI7O5A","3RKHNXPHGWIRLJ219DNI80W3E6SKUF","","<img src=""img/set1/S3.jpg"" width=""540"" height = ""360"" style=""border:16px solid orange"">","null","","","","","","","","","",""
"null","","html-keyboard-response","180","1203577","0.0-180.0","3PMBY0YE28PD4D04ARGVD4S3414C9X","A3K9GTQBOI7O5A","3RKHNXPHGWIRLJ219DNI80W3E6SKUF","","","null","","","","","","","","","",""
"1434.7999999523163","","image-keyboard-response","181","1205014","0.0-181.0","3PMBY0YE28PD4D04ARGVD4S3414C9X","A3K9GTQBOI7O5A","3RKHNXPHGWIRLJ219DNI80W3E6SKUF","","img/set1/S4.jpg","74","4","random","74","random,structured_load,structured_incentive,structured_normal","","4,2,3,1","true","","",""
"null","","html-keyboard-response","182","1205366","0.0-182.0","3PMBY0YE28PD4D04ARGVD4S3414C9X","A3K9GTQBOI7O5A","3RKHNXPHGWIRLJ219DNI80W3E6SKUF","","<img src=""img/set1/S4.jpg"" width=""540"" height = ""360"" style=""border:16px solid orange"">","null","","","","","","","","","",""
"null","","html-keyboard-response","183","1205582","0.0-183.0","3PMBY0YE28PD4D04ARGVD4S3414C9X","A3K9GTQBOI7O5A","3RKHNXPHGWIRLJ219DNI80W3E6SKUF","","","null","","","","","","","","","",""
"1240.7999999523163","","image-keyboard-response","184","1206824","0.0-184.0","3PMBY0YE28PD4D04ARGVD4S3414C9X","A3K9GTQBOI7O5A","3RKHNXPHGWIRLJ219DNI80W3E6SKUF","","img/set1/S1.jpg","83","1","random","83","random,structured_load,structured_incentive,structured_normal","","4,2,3,1","true","","",""
"null","","html-keyboard-response","185","1207179","0.0-185.0","3PMBY0YE28PD4D04ARGVD4S3414C9X","A3K9GTQBOI7O5A","3RKHNXPHGWIRLJ219DNI80W3E6SKUF","","<img src=""img/set1/S1.jpg"" width=""540"" height = ""360"" style=""border:16px solid orange"">","null","","","","","","","","","",""
"null","","html-keyboard-response","186","1207395","0.0-186.0","3PMBY0YE28PD4D04ARGVD4S3414C9X","A3K9GTQBOI7O5A","3RKHNXPHGWIRLJ219DNI80W3E6SKUF","","","null","","","","","","","","","",""
"null","","image-keyboard-response","187","1209910","0.0-187.0","3PMBY0YE28PD4D04ARGVD4S3414C9X","A3K9GTQBOI7O5A","3RKHNXPHGWIRLJ219DNI80W3E6SKUF","","img/set1/S2.jpg","null","2","random","68","random,structured_load,structured_incentive,structured_normal","","4,2,3,1","false","","",""
"null","","html-keyboard-response","188","1210262","0.0-188.0","3PMBY0YE28PD4D04ARGVD4S3414C9X","A3K9GTQBOI7O5A","3RKHNXPHGWIRLJ219DNI80W3E6SKUF","","<img src=""img/set1/S2.jpg"" width=""540"" height = ""360"">","null","","","","","","","","","",""
"null","","html-keyboard-response","189","1210464","0.0-189.0","3PMBY0YE28PD4D04ARGVD4S3414C9X","A3K9GTQBOI7O5A","3RKHNXPHGWIRLJ219DNI80W3E6SKUF","","","null","","","","","","","","","",""
"939.6000001430511","","image-keyboard-response","190","1211405","0.0-190.0","3PMBY0YE28PD4D04ARGVD4S3414C9X","A3K9GTQBOI7O5A","3RKHNXPHGWIRLJ219DNI80W3E6SKUF","","img/set1/S2.jpg","68","2","random","68","random,structured_load,structured_incentive,structured_normal","","4,2,3,1","true","","",""
"null","","html-keyboard-response","191","1211759","0.0-191.0","3PMBY0YE28PD4D04ARGVD4S3414C9X","A3K9GTQBOI7O5A","3RKHNXPHGWIRLJ219DNI80W3E6SKUF","","<img src=""img/set1/S2.jpg"" width=""540"" height = ""360"" style=""border:16px solid orange"">","null","","","","","","","","","",""
"null","","html-keyboard-response","192","1211974","0.0-192.0","3PMBY0YE28PD4D04ARGVD4S3414C9X","A3K9GTQBOI7O5A","3RKHNXPHGWIRLJ219DNI80W3E6SKUF","","","null","","","","","","","","","",""
"1045.4000000953674","","image-keyboard-response","193","1213021","0.0-193.0","3PMBY0YE28PD4D04ARGVD4S3414C9X","A3K9GTQBOI7O5A","3RKHNXPHGWIRLJ219DNI80W3E6SKUF","","img/set1/S2.jpg","68","2","random","68","random,structured_load,structured_incentive,structured_normal","","4,2,3,1","true","","",""
"null","","html-keyboard-response","194","1213374","0.0-194.0","3PMBY0YE28PD4D04ARGVD4S3414C9X","A3K9GTQBOI7O5A","3RKHNXPHGWIRLJ219DNI80W3E6SKUF","","<img src=""img/set1/S2.jpg"" width=""540"" height = ""360"" style=""border:16px solid orange"">","null","","","","","","","","","",""
"null","","html-keyboard-response","195","1213590","0.0-195.0","3PMBY0YE28PD4D04ARGVD4S3414C9X","A3K9GTQBOI7O5A","3RKHNXPHGWIRLJ219DNI80W3E6SKUF","","","null","","","","","","","","","",""
"1613.5999999046326","","image-keyboard-response","196","1215205","0.0-196.0","3PMBY0YE28PD4D04ARGVD4S3414C9X","A3K9GTQBOI7O5A","3RKHNXPHGWIRLJ219DNI80W3E6SKUF","","img/set1/S3.jpg","83","3","random","72","random,structured_load,structured_incentive,structured_normal","","4,2,3,1","false","","",""
"null","","html-keyboard-response","197","1215561","0.0-197.0","3PMBY0YE28PD4D04ARGVD4S3414C9X","A3K9GTQBOI7O5A","3RKHNXPHGWIRLJ219DNI80W3E6SKUF","","<img src=""img/set1/S3.jpg"" width=""540"" height = ""360"">","null","","","","","","","","","",""
"null","","html-keyboard-response","198","1215777","0.0-198.0","3PMBY0YE28PD4D04ARGVD4S3414C9X","A3K9GTQBOI7O5A","3RKHNXPHGWIRLJ219DNI80W3E6SKUF","","","null","","","","","","","","","",""
"1150.5","","image-keyboard-response","199","1216930","0.0-199.0","3PMBY0YE28PD4D04ARGVD4S3414C9X","A3K9GTQBOI7O5A","3RKHNXPHGWIRLJ219DNI80W3E6SKUF","","img/set1/S4.jpg","74","4","random","74","random,structured_load,structured_incentive,structured_normal","","4,2,3,1","true","","",""
"null","","html-keyboard-response","200","1217283","0.0-200.0","3PMBY0YE28PD4D04ARGVD4S3414C9X","A3K9GTQBOI7O5A","3RKHNXPHGWIRLJ219DNI80W3E6SKUF","","<img src=""img/set1/S4.jpg"" width=""540"" height = ""360"" style=""border:16px solid orange"">","null","","","","","","","","","",""
"null","","html-keyboard-response","201","1217498","0.0-201.0","3PMBY0YE28PD4D04ARGVD4S3414C9X","A3K9GTQBOI7O5A","3RKHNXPHGWIRLJ219DNI80W3E6SKUF","","","null","","","","","","","","","",""
"888.5","","image-keyboard-response","202","1218388","0.0-202.0","3PMBY0YE28PD4D04ARGVD4S3414C9X","A3K9GTQBOI7O5A","3RKHNXPHGWIRLJ219DNI80W3E6SKUF","","img/set1/S4.jpg","74","4","random","74","random,structured_load,structured_incentive,structured_normal","","4,2,3,1","true","","",""
"null","","html-keyboard-response","203","1218754","0.0-203.0","3PMBY0YE28PD4D04ARGVD4S3414C9X","A3K9GTQBOI7O5A","3RKHNXPHGWIRLJ219DNI80W3E6SKUF","","<img src=""img/set1/S4.jpg"" width=""540"" height = ""360"" style=""border:16px solid orange"">","null","","","","","","","","","",""
"null","","html-keyboard-response","204","1218956","0.0-204.0","3PMBY0YE28PD4D04ARGVD4S3414C9X","A3K9GTQBOI7O5A","3RKHNXPHGWIRLJ219DNI80W3E6SKUF","","","null","","","","","","","","","",""
"1246.6999998092651","","image-keyboard-response","205","1220205","0.0-205.0","3PMBY0YE28PD4D04ARGVD4S3414C9X","A3K9GTQBOI7O5A","3RKHNXPHGWIRLJ219DNI80W3E6SKUF","","img/set1/S1.jpg","68","1","random","83","random,structured_load,structured_incentive,structured_normal","","4,2,3,1","false","","",""
"null","","html-keyboard-response","206","1220572","0.0-206.0","3PMBY0YE28PD4D04ARGVD4S3414C9X","A3K9GTQBOI7O5A","3RKHNXPHGWIRLJ219DNI80W3E6SKUF","","<img src=""img/set1/S1.jpg"" width=""540"" height = ""360"">","null","","","","","","","","","",""
"null","","html-keyboard-response","207","1220774","0.0-207.0","3PMBY0YE28PD4D04ARGVD4S3414C9X","A3K9GTQBOI7O5A","3RKHNXPHGWIRLJ219DNI80W3E6SKUF","","","null","","","","","","","","","",""
"1434.3000001907349","","image-keyboard-response","208","1222211","0.0-208.0","3PMBY0YE28PD4D04ARGVD4S3414C9X","A3K9GTQBOI7O5A","3RKHNXPHGWIRLJ219DNI80W3E6SKUF","","img/set1/S4.jpg","74","4","random","74","random,structured_load,structured_incentive,structured_normal","","4,2,3,1","true","","",""
"null","","html-keyboard-response","209","1222577","0.0-209.0","3PMBY0YE28PD4D04ARGVD4S3414C9X","A3K9GTQBOI7O5A","3RKHNXPHGWIRLJ219DNI80W3E6SKUF","","<img src=""img/set1/S4.jpg"" width=""540"" height = ""360"" style=""border:16px solid orange"">","null","","","","","","","","","",""
"null","","html-keyboard-response","210","1222780","0.0-210.0","3PMBY0YE28PD4D04ARGVD4S3414C9X","A3K9GTQBOI7O5A","3RKHNXPHGWIRLJ219DNI80W3E6SKUF","","","null","","","","","","","","","",""
"1739.4000000953674","","image-keyboard-response","211","1224521","0.0-211.0","3PMBY0YE28PD4D04ARGVD4S3414C9X","A3K9GTQBOI7O5A","3RKHNXPHGWIRLJ219DNI80W3E6SKUF","","img/set1/S1.jpg","68","1","random","83","random,structured_load,structured_incentive,structured_normal","","4,2,3,1","false","","",""
"null","","html-keyboard-response","212","1224877","0.0-212.0","3PMBY0YE28PD4D04ARGVD4S3414C9X","A3K9GTQBOI7O5A","3RKHNXPHGWIRLJ219DNI80W3E6SKUF","","<img src=""img/set1/S1.jpg"" width=""540"" height = ""360"">","null","","","","","","","","","",""
"null","","html-keyboard-response","213","1225080","0.0-213.0","3PMBY0YE28PD4D04ARGVD4S3414C9X","A3K9GTQBOI7O5A","3RKHNXPHGWIRLJ219DNI80W3E6SKUF","","","null","","","","","","","","","",""
"1317.4000000953674","","image-keyboard-response","214","1226398","0.0-214.0","3PMBY0YE28PD4D04ARGVD4S3414C9X","A3K9GTQBOI7O5A","3RKHNXPHGWIRLJ219DNI80W3E6SKUF","","img/set1/S2.jpg","68","2","random","68","random,structured_load,structured_incentive,structured_normal","","4,2,3,1","true","","",""
"null","","html-keyboard-response","215","1226753","0.0-215.0","3PMBY0YE28PD4D04ARGVD4S3414C9X","A3K9GTQBOI7O5A","3RKHNXPHGWIRLJ219DNI80W3E6SKUF","","<img src=""img/set1/S2.jpg"" width=""540"" height = ""360"" style=""border:16px solid orange"">","null","","","","","","","","","",""
"null","","html-keyboard-response","216","1226956","0.0-216.0","3PMBY0YE28PD4D04ARGVD4S3414C9X","A3K9GTQBOI7O5A","3RKHNXPHGWIRLJ219DNI80W3E6SKUF","","","null","","","","","","","","","",""
"1311.7999999523163","","image-keyboard-response","217","1228269","0.0-217.0","3PMBY0YE28PD4D04ARGVD4S3414C9X","A3K9GTQBOI7O5A","3RKHNXPHGWIRLJ219DNI80W3E6SKUF","","img/set1/S3.jpg","72","3","random","72","random,structured_load,structured_incentive,structured_normal","","4,2,3,1","true","","",""
"null","","html-keyboard-response","218","1228624","0.0-218.0","3PMBY0YE28PD4D04ARGVD4S3414C9X","A3K9GTQBOI7O5A","3RKHNXPHGWIRLJ219DNI80W3E6SKUF","","<img src=""img/set1/S3.jpg"" width=""540"" height = ""360"" style=""border:16px solid orange"">","null","","","","","","","","","",""
"null","","html-keyboard-response","219","1228842","0.0-219.0","3PMBY0YE28PD4D04ARGVD4S3414C9X","A3K9GTQBOI7O5A","3RKHNXPHGWIRLJ219DNI80W3E6SKUF","","","null","","","","","","","","","",""
"1057.6000001430511","","image-keyboard-response","220","1229901","0.0-220.0","3PMBY0YE28PD4D04ARGVD4S3414C9X","A3K9GTQBOI7O5A","3RKHNXPHGWIRLJ219DNI80W3E6SKUF","","img/set1/S1.jpg","83","1","random","83","random,structured_load,structured_incentive,structured_normal","","4,2,3,1","true","","",""
"null","","html-keyboard-response","221","1230256","0.0-221.0","3PMBY0YE28PD4D04ARGVD4S3414C9X","A3K9GTQBOI7O5A","3RKHNXPHGWIRLJ219DNI80W3E6SKUF","","<img src=""img/set1/S1.jpg"" width=""540"" height = ""360"" style=""border:16px solid orange"">","null","","","","","","","","","",""
"null","","html-keyboard-response","222","1230460","0.0-222.0","3PMBY0YE28PD4D04ARGVD4S3414C9X","A3K9GTQBOI7O5A","3RKHNXPHGWIRLJ219DNI80W3E6SKUF","","","null","","","","","","","","","",""
"1181.2999999523163","","image-keyboard-response","223","1231643","0.0-223.0","3PMBY0YE28PD4D04ARGVD4S3414C9X","A3K9GTQBOI7O5A","3RKHNXPHGWIRLJ219DNI80W3E6SKUF","","img/set1/S4.jpg","74","4","random","74","random,structured_load,structured_incentive,structured_normal","","4,2,3,1","true","","",""
"null","","html-keyboard-response","224","1231999","0.0-224.0","3PMBY0YE28PD4D04ARGVD4S3414C9X","A3K9GTQBOI7O5A","3RKHNXPHGWIRLJ219DNI80W3E6SKUF","","<img src=""img/set1/S4.jpg"" width=""540"" height = ""360"" style=""border:16px solid orange"">","null","","","","","","","","","",""
"null","","html-keyboard-response","225","1232216","0.0-225.0","3PMBY0YE28PD4D04ARGVD4S3414C9X","A3K9GTQBOI7O5A","3RKHNXPHGWIRLJ219DNI80W3E6SKUF","","","null","","","","","","","","","",""
"1366.4000000953674","","image-keyboard-response","226","1233584","0.0-226.0","3PMBY0YE28PD4D04ARGVD4S3414C9X","A3K9GTQBOI7O5A","3RKHNXPHGWIRLJ219DNI80W3E6SKUF","","img/set1/S1.jpg","83","1","random","83","random,structured_load,structured_incentive,structured_normal","","4,2,3,1","true","","",""
"null","","html-keyboard-response","227","1233941","0.0-227.0","3PMBY0YE28PD4D04ARGVD4S3414C9X","A3K9GTQBOI7O5A","3RKHNXPHGWIRLJ219DNI80W3E6SKUF","","<img src=""img/set1/S1.jpg"" width=""540"" height = ""360"" style=""border:16px solid orange"">","null","","","","","","","","","",""
"null","","html-keyboard-response","228","1234157","0.0-228.0","3PMBY0YE28PD4D04ARGVD4S3414C9X","A3K9GTQBOI7O5A","3RKHNXPHGWIRLJ219DNI80W3E6SKUF","","","null","","","","","","","","","",""
"1233.7999999523163","","image-keyboard-response","229","1235393","0.0-229.0","3PMBY0YE28PD4D04ARGVD4S3414C9X","A3K9GTQBOI7O5A","3RKHNXPHGWIRLJ219DNI80W3E6SKUF","","img/set1/S1.jpg","83","1","random","83","random,structured_load,structured_incentive,structured_normal","","4,2,3,1","true","","",""
"null","","html-keyboard-response","230","1235747","0.0-230.0","3PMBY0YE28PD4D04ARGVD4S3414C9X","A3K9GTQBOI7O5A","3RKHNXPHGWIRLJ219DNI80W3E6SKUF","","<img src=""img/set1/S1.jpg"" width=""540"" height = ""360"" style=""border:16px solid orange"">","null","","","","","","","","","",""
"null","","html-keyboard-response","231","1235949","0.0-231.0","3PMBY0YE28PD4D04ARGVD4S3414C9X","A3K9GTQBOI7O5A","3RKHNXPHGWIRLJ219DNI80W3E6SKUF","","","null","","","","","","","","","",""
"1753.1000001430511","","image-keyboard-response","232","1237705","0.0-232.0","3PMBY0YE28PD4D04ARGVD4S3414C9X","A3K9GTQBOI7O5A","3RKHNXPHGWIRLJ219DNI80W3E6SKUF","","img/set1/S3.jpg","72","3","random","72","random,structured_load,structured_incentive,structured_normal","","4,2,3,1","true","","",""
"null","","html-keyboard-response","233","1238059","0.0-233.0","3PMBY0YE28PD4D04ARGVD4S3414C9X","A3K9GTQBOI7O5A","3RKHNXPHGWIRLJ219DNI80W3E6SKUF","","<img src=""img/set1/S3.jpg"" width=""540"" height = ""360"" style=""border:16px solid orange"">","null","","","","","","","","","",""
"null","","html-keyboard-response","234","1238262","0.0-234.0","3PMBY0YE28PD4D04ARGVD4S3414C9X","A3K9GTQBOI7O5A","3RKHNXPHGWIRLJ219DNI80W3E6SKUF","","","null","","","","","","","","","",""
"1508.1999998092651","","image-keyboard-response","235","1239771","0.0-235.0","3PMBY0YE28PD4D04ARGVD4S3414C9X","A3K9GTQBOI7O5A","3RKHNXPHGWIRLJ219DNI80W3E6SKUF","","img/set1/S4.jpg","74","4","random","74","random,structured_load,structured_incentive,structured_normal","","4,2,3,1","true","","",""
"null","","html-keyboard-response","236","1240129","0.0-236.0","3PMBY0YE28PD4D04ARGVD4S3414C9X","A3K9GTQBOI7O5A","3RKHNXPHGWIRLJ219DNI80W3E6SKUF","","<img src=""img/set1/S4.jpg"" width=""540"" height = ""360"" style=""border:16px solid orange"">","null","","","","","","","","","",""
"null","","html-keyboard-response","237","1240331","0.0-237.0","3PMBY0YE28PD4D04ARGVD4S3414C9X","A3K9GTQBOI7O5A","3RKHNXPHGWIRLJ219DNI80W3E6SKUF","","","null","","","","","","","","","",""
"1336.5","","image-keyboard-response","238","1241669","0.0-238.0","3PMBY0YE28PD4D04ARGVD4S3414C9X","A3K9GTQBOI7O5A","3RKHNXPHGWIRLJ219DNI80W3E6SKUF","","img/set1/S1.jpg","83","1","random","83","random,structured_load,structured_incentive,structured_normal","","4,2,3,1","true","","",""
"null","","html-keyboard-response","239","1242024","0.0-239.0","3PMBY0YE28PD4D04ARGVD4S3414C9X","A3K9GTQBOI7O5A","3RKHNXPHGWIRLJ219DNI80W3E6SKUF","","<img src=""img/set1/S1.jpg"" width=""540"" height = ""360"" style=""border:16px solid orange"">","null","","","","","","","","","",""
"null","","html-keyboard-response","240","1242240","0.0-240.0","3PMBY0YE28PD4D04ARGVD4S3414C9X","A3K9GTQBOI7O5A","3RKHNXPHGWIRLJ219DNI80W3E6SKUF","","","null","","","","","","","","","",""
"978","","image-keyboard-response","241","1243220","0.0-241.0","3PMBY0YE28PD4D04ARGVD4S3414C9X","A3K9GTQBOI7O5A","3RKHNXPHGWIRLJ219DNI80W3E6SKUF","","img/set1/S1.jpg","83","1","random","83","random,structured_load,structured_incentive,structured_normal","","4,2,3,1","true","","",""
"null","","html-keyboard-response","242","1243576","0.0-242.0","3PMBY0YE28PD4D04ARGVD4S3414C9X","A3K9GTQBOI7O5A","3RKHNXPHGWIRLJ219DNI80W3E6SKUF","","<img src=""img/set1/S1.jpg"" width=""540"" height = ""360"" style=""border:16px solid orange"">","null","","","","","","","","","",""
"null","","html-keyboard-response","243","1243780","0.0-243.0","3PMBY0YE28PD4D04ARGVD4S3414C9X","A3K9GTQBOI7O5A","3RKHNXPHGWIRLJ219DNI80W3E6SKUF","","","null","","","","","","","","","",""
"1073.7000000476837","","image-keyboard-response","244","1244856","0.0-244.0","3PMBY0YE28PD4D04ARGVD4S3414C9X","A3K9GTQBOI7O5A","3RKHNXPHGWIRLJ219DNI80W3E6SKUF","","img/set1/S2.jpg","68","2","random","68","random,structured_load,structured_incentive,structured_normal","","4,2,3,1","true","","",""
"null","","html-keyboard-response","245","1245209","0.0-245.0","3PMBY0YE28PD4D04ARGVD4S3414C9X","A3K9GTQBOI7O5A","3RKHNXPHGWIRLJ219DNI80W3E6SKUF","","<img src=""img/set1/S2.jpg"" width=""540"" height = ""360"" style=""border:16px solid orange"">","null","","","","","","","","","",""
"null","","html-keyboard-response","246","1245426","0.0-246.0","3PMBY0YE28PD4D04ARGVD4S3414C9X","A3K9GTQBOI7O5A","3RKHNXPHGWIRLJ219DNI80W3E6SKUF","","","null","","","","","","","","","",""
"982.6999998092651","","image-keyboard-response","247","1246410","0.0-247.0","3PMBY0YE28PD4D04ARGVD4S3414C9X","A3K9GTQBOI7O5A","3RKHNXPHGWIRLJ219DNI80W3E6SKUF","","img/set1/S1.jpg","83","1","random","83","random,structured_load,structured_incentive,structured_normal","","4,2,3,1","true","","",""
"null","","html-keyboard-response","248","1246763","0.0-248.0","3PMBY0YE28PD4D04ARGVD4S3414C9X","A3K9GTQBOI7O5A","3RKHNXPHGWIRLJ219DNI80W3E6SKUF","","<img src=""img/set1/S1.jpg"" width=""540"" height = ""360"" style=""border:16px solid orange"">","null","","","","","","","","","",""
"null","","html-keyboard-response","249","1246966","0.0-249.0","3PMBY0YE28PD4D04ARGVD4S3414C9X","A3K9GTQBOI7O5A","3RKHNXPHGWIRLJ219DNI80W3E6SKUF","","","null","","","","","","","","","",""
"1327.2999999523163","","image-keyboard-response","250","1248295","0.0-250.0","3PMBY0YE28PD4D04ARGVD4S3414C9X","A3K9GTQBOI7O5A","3RKHNXPHGWIRLJ219DNI80W3E6SKUF","","img/set1/S3.jpg","72","3","random","72","random,structured_load,structured_incentive,structured_normal","","4,2,3,1","true","","",""
"null","","html-keyboard-response","251","1248650","0.0-251.0","3PMBY0YE28PD4D04ARGVD4S3414C9X","A3K9GTQBOI7O5A","3RKHNXPHGWIRLJ219DNI80W3E6SKUF","","<img src=""img/set1/S3.jpg"" width=""540"" height = ""360"" style=""border:16px solid orange"">","null","","","","","","","","","",""
"null","","html-keyboard-response","252","1248853","0.0-252.0","3PMBY0YE28PD4D04ARGVD4S3414C9X","A3K9GTQBOI7O5A","3RKHNXPHGWIRLJ219DNI80W3E6SKUF","","","null","","","","","","","","","",""
"1615","","image-keyboard-response","253","1250470","0.0-253.0","3PMBY0YE28PD4D04ARGVD4S3414C9X","A3K9GTQBOI7O5A","3RKHNXPHGWIRLJ219DNI80W3E6SKUF","","img/set1/S2.jpg","68","2","random","68","random,structured_load,structured_incentive,structured_normal","","4,2,3,1","true","","",""
"null","","html-keyboard-response","254","1250824","0.0-254.0","3PMBY0YE28PD4D04ARGVD4S3414C9X","A3K9GTQBOI7O5A","3RKHNXPHGWIRLJ219DNI80W3E6SKUF","","<img src=""img/set1/S2.jpg"" width=""540"" height = ""360"" style=""border:16px solid orange"">","null","","","","","","","","","",""
"null","","html-keyboard-response","255","1251026","0.0-255.0","3PMBY0YE28PD4D04ARGVD4S3414C9X","A3K9GTQBOI7O5A","3RKHNXPHGWIRLJ219DNI80W3E6SKUF","","","null","","","","","","","","","",""
"1021.5999999046326","","image-keyboard-response","256","1252049","0.0-256.0","3PMBY0YE28PD4D04ARGVD4S3414C9X","A3K9GTQBOI7O5A","3RKHNXPHGWIRLJ219DNI80W3E6SKUF","","img/set1/S4.jpg","74","4","random","74","random,structured_load,structured_incentive,structured_normal","","4,2,3,1","true","","",""
"null","","html-keyboard-response","257","1252401","0.0-257.0","3PMBY0YE28PD4D04ARGVD4S3414C9X","A3K9GTQBOI7O5A","3RKHNXPHGWIRLJ219DNI80W3E6SKUF","","<img src=""img/set1/S4.jpg"" width=""540"" height = ""360"" style=""border:16px solid orange"">","null","","","","","","","","","",""
"null","","html-keyboard-response","258","1252603","0.0-258.0","3PMBY0YE28PD4D04ARGVD4S3414C9X","A3K9GTQBOI7O5A","3RKHNXPHGWIRLJ219DNI80W3E6SKUF","","","null","","","","","","","","","",""
"1260.9000000953674","","image-keyboard-response","259","1253865","0.0-259.0","3PMBY0YE28PD4D04ARGVD4S3414C9X","A3K9GTQBOI7O5A","3RKHNXPHGWIRLJ219DNI80W3E6SKUF","","img/set1/S1.jpg","83","1","random","83","random,structured_load,structured_incentive,structured_normal","","4,2,3,1","true","","",""
"null","","html-keyboard-response","260","1254221","0.0-260.0","3PMBY0YE28PD4D04ARGVD4S3414C9X","A3K9GTQBOI7O5A","3RKHNXPHGWIRLJ219DNI80W3E6SKUF","","<img src=""img/set1/S1.jpg"" width=""540"" height = ""360"" style=""border:16px solid orange"">","null","","","","","","","","","",""
"null","","html-keyboard-response","261","1254438","0.0-261.0","3PMBY0YE28PD4D04ARGVD4S3414C9X","A3K9GTQBOI7O5A","3RKHNXPHGWIRLJ219DNI80W3E6SKUF","","","null","","","","","","","","","",""
"1178.8999998569489","","image-keyboard-response","262","1255619","0.0-262.0","3PMBY0YE28PD4D04ARGVD4S3414C9X","A3K9GTQBOI7O5A","3RKHNXPHGWIRLJ219DNI80W3E6SKUF","","img/set1/S2.jpg","72","2","random","68","random,structured_load,structured_incentive,structured_normal","","4,2,3,1","false","","",""
"null","","html-keyboard-response","263","1255975","0.0-263.0","3PMBY0YE28PD4D04ARGVD4S3414C9X","A3K9GTQBOI7O5A","3RKHNXPHGWIRLJ219DNI80W3E6SKUF","","<img src=""img/set1/S2.jpg"" width=""540"" height = ""360"">","null","","","","","","","","","",""
"null","","html-keyboard-response","264","1256192","0.0-264.0","3PMBY0YE28PD4D04ARGVD4S3414C9X","A3K9GTQBOI7O5A","3RKHNXPHGWIRLJ219DNI80W3E6SKUF","","","null","","","","","","","","","",""
"1168.6999998092651","","image-keyboard-response","265","1257362","0.0-265.0","3PMBY0YE28PD4D04ARGVD4S3414C9X","A3K9GTQBOI7O5A","3RKHNXPHGWIRLJ219DNI80W3E6SKUF","","img/set1/S3.jpg","72","3","random","72","random,structured_load,structured_incentive,structured_normal","","4,2,3,1","true","","",""
"null","","html-keyboard-response","266","1257718","0.0-266.0","3PMBY0YE28PD4D04ARGVD4S3414C9X","A3K9GTQBOI7O5A","3RKHNXPHGWIRLJ219DNI80W3E6SKUF","","<img src=""img/set1/S3.jpg"" width=""540"" height = ""360"" style=""border:16px solid orange"">","null","","","","","","","","","",""
"null","","html-keyboard-response","267","1257935","0.0-267.0","3PMBY0YE28PD4D04ARGVD4S3414C9X","A3K9GTQBOI7O5A","3RKHNXPHGWIRLJ219DNI80W3E6SKUF","","","null","","","","","","","","","",""
"1183","","image-keyboard-response","268","1259120","0.0-268.0","3PMBY0YE28PD4D04ARGVD4S3414C9X","A3K9GTQBOI7O5A","3RKHNXPHGWIRLJ219DNI80W3E6SKUF","","img/set1/S1.jpg","83","1","random","83","random,structured_load,structured_incentive,structured_normal","","4,2,3,1","true","","",""
"null","","html-keyboard-response","269","1259487","0.0-269.0","3PMBY0YE28PD4D04ARGVD4S3414C9X","A3K9GTQBOI7O5A","3RKHNXPHGWIRLJ219DNI80W3E6SKUF","","<img src=""img/set1/S1.jpg"" width=""540"" height = ""360"" style=""border:16px solid orange"">","null","","","","","","","","","",""
"null","","html-keyboard-response","270","1259703","0.0-270.0","3PMBY0YE28PD4D04ARGVD4S3414C9X","A3K9GTQBOI7O5A","3RKHNXPHGWIRLJ219DNI80W3E6SKUF","","","null","","","","","","","","","",""
"1167.5","","image-keyboard-response","271","1260873","0.0-271.0","3PMBY0YE28PD4D04ARGVD4S3414C9X","A3K9GTQBOI7O5A","3RKHNXPHGWIRLJ219DNI80W3E6SKUF","","img/set1/S3.jpg","74","3","random","72","random,structured_load,structured_incentive,structured_normal","","4,2,3,1","false","","",""
"null","","html-keyboard-response","272","1261226","0.0-272.0","3PMBY0YE28PD4D04ARGVD4S3414C9X","A3K9GTQBOI7O5A","3RKHNXPHGWIRLJ219DNI80W3E6SKUF","","<img src=""img/set1/S3.jpg"" width=""540"" height = ""360"">","null","","","","","","","","","",""
"null","","html-keyboard-response","273","1261429","0.0-273.0","3PMBY0YE28PD4D04ARGVD4S3414C9X","A3K9GTQBOI7O5A","3RKHNXPHGWIRLJ219DNI80W3E6SKUF","","","null","","","","","","","","","",""
"1057.1999998092651","","image-keyboard-response","274","1262487","0.0-274.0","3PMBY0YE28PD4D04ARGVD4S3414C9X","A3K9GTQBOI7O5A","3RKHNXPHGWIRLJ219DNI80W3E6SKUF","","img/set1/S2.jpg","68","2","random","68","random,structured_load,structured_incentive,structured_normal","","4,2,3,1","true","","",""
"null","","html-keyboard-response","275","1262845","0.0-275.0","3PMBY0YE28PD4D04ARGVD4S3414C9X","A3K9GTQBOI7O5A","3RKHNXPHGWIRLJ219DNI80W3E6SKUF","","<img src=""img/set1/S2.jpg"" width=""540"" height = ""360"" style=""border:16px solid orange"">","null","","","","","","","","","",""
"null","","html-keyboard-response","276","1263048","0.0-276.0","3PMBY0YE28PD4D04ARGVD4S3414C9X","A3K9GTQBOI7O5A","3RKHNXPHGWIRLJ219DNI80W3E6SKUF","","","null","","","","","","","","","",""
"1072.7000000476837","","image-keyboard-response","277","1264123","0.0-277.0","3PMBY0YE28PD4D04ARGVD4S3414C9X","A3K9GTQBOI7O5A","3RKHNXPHGWIRLJ219DNI80W3E6SKUF","","img/set1/S3.jpg","72","3","random","72","random,structured_load,structured_incentive,structured_normal","","4,2,3,1","true","","",""
"null","","html-keyboard-response","278","1264492","0.0-278.0","3PMBY0YE28PD4D04ARGVD4S3414C9X","A3K9GTQBOI7O5A","3RKHNXPHGWIRLJ219DNI80W3E6SKUF","","<img src=""img/set1/S3.jpg"" width=""540"" height = ""360"" style=""border:16px solid orange"">","null","","","","","","","","","",""
"null","","html-keyboard-response","279","1264695","0.0-279.0","3PMBY0YE28PD4D04ARGVD4S3414C9X","A3K9GTQBOI7O5A","3RKHNXPHGWIRLJ219DNI80W3E6SKUF","","","null","","","","","","","","","",""
"1727.7999999523163","","image-keyboard-response","280","1266424","0.0-280.0","3PMBY0YE28PD4D04ARGVD4S3414C9X","A3K9GTQBOI7O5A","3RKHNXPHGWIRLJ219DNI80W3E6SKUF","","img/set1/S2.jpg","68","2","random","68","random,structured_load,structured_incentive,structured_normal","","4,2,3,1","true","","",""
"null","","html-keyboard-response","281","1266779","0.0-281.0","3PMBY0YE28PD4D04ARGVD4S3414C9X","A3K9GTQBOI7O5A","3RKHNXPHGWIRLJ219DNI80W3E6SKUF","","<img src=""img/set1/S2.jpg"" width=""540"" height = ""360"" style=""border:16px solid orange"">","null","","","","","","","","","",""
"null","","html-keyboard-response","282","1266982","0.0-282.0","3PMBY0YE28PD4D04ARGVD4S3414C9X","A3K9GTQBOI7O5A","3RKHNXPHGWIRLJ219DNI80W3E6SKUF","","","null","","","","","","","","","",""
"1136.0999999046326","","image-keyboard-response","283","1268119","0.0-283.0","3PMBY0YE28PD4D04ARGVD4S3414C9X","A3K9GTQBOI7O5A","3RKHNXPHGWIRLJ219DNI80W3E6SKUF","","img/set1/S1.jpg","83","1","random","83","random,structured_load,structured_incentive,structured_normal","","4,2,3,1","true","","",""
"null","","html-keyboard-response","284","1268475","0.0-284.0","3PMBY0YE28PD4D04ARGVD4S3414C9X","A3K9GTQBOI7O5A","3RKHNXPHGWIRLJ219DNI80W3E6SKUF","","<img src=""img/set1/S1.jpg"" width=""540"" height = ""360"" style=""border:16px solid orange"">","null","","","","","","","","","",""
"null","","html-keyboard-response","285","1268677","0.0-285.0","3PMBY0YE28PD4D04ARGVD4S3414C9X","A3K9GTQBOI7O5A","3RKHNXPHGWIRLJ219DNI80W3E6SKUF","","","null","","","","","","","","","",""
"1127.7999999523163","","image-keyboard-response","286","1269807","0.0-286.0","3PMBY0YE28PD4D04ARGVD4S3414C9X","A3K9GTQBOI7O5A","3RKHNXPHGWIRLJ219DNI80W3E6SKUF","","img/set1/S2.jpg","68","2","random","68","random,structured_load,structured_incentive,structured_normal","","4,2,3,1","true","","",""
"null","","html-keyboard-response","287","1270175","0.0-287.0","3PMBY0YE28PD4D04ARGVD4S3414C9X","A3K9GTQBOI7O5A","3RKHNXPHGWIRLJ219DNI80W3E6SKUF","","<img src=""img/set1/S2.jpg"" width=""540"" height = ""360"" style=""border:16px solid orange"">","null","","","","","","","","","",""
"null","","html-keyboard-response","288","1270378","0.0-288.0","3PMBY0YE28PD4D04ARGVD4S3414C9X","A3K9GTQBOI7O5A","3RKHNXPHGWIRLJ219DNI80W3E6SKUF","","","null","","","","","","","","","",""
"922","","image-keyboard-response","289","1271301","0.0-289.0","3PMBY0YE28PD4D04ARGVD4S3414C9X","A3K9GTQBOI7O5A","3RKHNXPHGWIRLJ219DNI80W3E6SKUF","","img/set1/S2.jpg","68","2","random","68","random,structured_load,structured_incentive,structured_normal","","4,2,3,1","true","","",""
"null","","html-keyboard-response","290","1271656","0.0-290.0","3PMBY0YE28PD4D04ARGVD4S3414C9X","A3K9GTQBOI7O5A","3RKHNXPHGWIRLJ219DNI80W3E6SKUF","","<img src=""img/set1/S2.jpg"" width=""540"" height = ""360"" style=""border:16px solid orange"">","null","","","","","","","","","",""
"null","","html-keyboard-response","291","1271870","0.0-291.0","3PMBY0YE28PD4D04ARGVD4S3414C9X","A3K9GTQBOI7O5A","3RKHNXPHGWIRLJ219DNI80W3E6SKUF","","","null","","","","","","","","","",""
"1185.9000000953674","","image-keyboard-response","292","1273057","0.0-292.0","3PMBY0YE28PD4D04ARGVD4S3414C9X","A3K9GTQBOI7O5A","3RKHNXPHGWIRLJ219DNI80W3E6SKUF","","img/set1/S1.jpg","83","1","random","83","random,structured_load,structured_incentive,structured_normal","","4,2,3,1","true","","",""
"null","","html-keyboard-response","293","1273410","0.0-293.0","3PMBY0YE28PD4D04ARGVD4S3414C9X","A3K9GTQBOI7O5A","3RKHNXPHGWIRLJ219DNI80W3E6SKUF","","<img src=""img/set1/S1.jpg"" width=""540"" height = ""360"" style=""border:16px solid orange"">","null","","","","","","","","","",""
"null","","html-keyboard-response","294","1273613","0.0-294.0","3PMBY0YE28PD4D04ARGVD4S3414C9X","A3K9GTQBOI7O5A","3RKHNXPHGWIRLJ219DNI80W3E6SKUF","","","null","","","","","","","","","",""
"1071.9000000953674","","image-keyboard-response","295","1274687","0.0-295.0","3PMBY0YE28PD4D04ARGVD4S3414C9X","A3K9GTQBOI7O5A","3RKHNXPHGWIRLJ219DNI80W3E6SKUF","","img/set1/S3.jpg","74","3","random","72","random,structured_load,structured_incentive,structured_normal","","4,2,3,1","false","","",""
"null","","html-keyboard-response","296","1275040","0.0-296.0","3PMBY0YE28PD4D04ARGVD4S3414C9X","A3K9GTQBOI7O5A","3RKHNXPHGWIRLJ219DNI80W3E6SKUF","","<img src=""img/set1/S3.jpg"" width=""540"" height = ""360"">","null","","","","","","","","","",""
"null","","html-keyboard-response","297","1275244","0.0-297.0","3PMBY0YE28PD4D04ARGVD4S3414C9X","A3K9GTQBOI7O5A","3RKHNXPHGWIRLJ219DNI80W3E6SKUF","","","null","","","","","","","","","",""
"1383.7000000476837","","image-keyboard-response","298","1276630","0.0-298.0","3PMBY0YE28PD4D04ARGVD4S3414C9X","A3K9GTQBOI7O5A","3RKHNXPHGWIRLJ219DNI80W3E6SKUF","","img/set1/S1.jpg","83","1","random","83","random,structured_load,structured_incentive,structured_normal","","4,2,3,1","true","","",""
"null","","html-keyboard-response","299","1276985","0.0-299.0","3PMBY0YE28PD4D04ARGVD4S3414C9X","A3K9GTQBOI7O5A","3RKHNXPHGWIRLJ219DNI80W3E6SKUF","","<img src=""img/set1/S1.jpg"" width=""540"" height = ""360"" style=""border:16px solid orange"">","null","","","","","","","","","",""
"null","","html-keyboard-response","300","1277202","0.0-300.0","3PMBY0YE28PD4D04ARGVD4S3414C9X","A3K9GTQBOI7O5A","3RKHNXPHGWIRLJ219DNI80W3E6SKUF","","","null","","","","","","","","","",""
"1551.5999999046326","","image-keyboard-response","301","1278755","0.0-301.0","3PMBY0YE28PD4D04ARGVD4S3414C9X","A3K9GTQBOI7O5A","3RKHNXPHGWIRLJ219DNI80W3E6SKUF","","img/set1/S4.jpg","74","4","random","74","random,structured_load,structured_incentive,structured_normal","","4,2,3,1","true","","",""
"null","","html-keyboard-response","302","1279113","0.0-302.0","3PMBY0YE28PD4D04ARGVD4S3414C9X","A3K9GTQBOI7O5A","3RKHNXPHGWIRLJ219DNI80W3E6SKUF","","<img src=""img/set1/S4.jpg"" width=""540"" height = ""360"" style=""border:16px solid orange"">","null","","","","","","","","","",""
"null","","html-keyboard-response","303","1279316","0.0-303.0","3PMBY0YE28PD4D04ARGVD4S3414C9X","A3K9GTQBOI7O5A","3RKHNXPHGWIRLJ219DNI80W3E6SKUF","","","null","","","","","","","","","",""
"997","","image-keyboard-response","304","1280316","0.0-304.0","3PMBY0YE28PD4D04ARGVD4S3414C9X","A3K9GTQBOI7O5A","3RKHNXPHGWIRLJ219DNI80W3E6SKUF","","img/set1/S2.jpg","68","2","random","68","random,structured_load,structured_incentive,structured_normal","","4,2,3,1","true","","",""
"null","","html-keyboard-response","305","1280684","0.0-305.0","3PMBY0YE28PD4D04ARGVD4S3414C9X","A3K9GTQBOI7O5A","3RKHNXPHGWIRLJ219DNI80W3E6SKUF","","<img src=""img/set1/S2.jpg"" width=""540"" height = ""360"" style=""border:16px solid orange"">","null","","","","","","","","","",""
"null","","html-keyboard-response","306","1280900","0.0-306.0","3PMBY0YE28PD4D04ARGVD4S3414C9X","A3K9GTQBOI7O5A","3RKHNXPHGWIRLJ219DNI80W3E6SKUF","","","null","","","","","","","","","",""
"1041.7000000476837","","image-keyboard-response","307","1281944","0.0-307.0","3PMBY0YE28PD4D04ARGVD4S3414C9X","A3K9GTQBOI7O5A","3RKHNXPHGWIRLJ219DNI80W3E6SKUF","","img/set1/S3.jpg","72","3","random","72","random,structured_load,structured_incentive,structured_normal","","4,2,3,1","true","","",""
"null","","html-keyboard-response","308","1282312","0.0-308.0","3PMBY0YE28PD4D04ARGVD4S3414C9X","A3K9GTQBOI7O5A","3RKHNXPHGWIRLJ219DNI80W3E6SKUF","","<img src=""img/set1/S3.jpg"" width=""540"" height = ""360"" style=""border:16px solid orange"">","null","","","","","","","","","",""
"null","","html-keyboard-response","309","1282528","0.0-309.0","3PMBY0YE28PD4D04ARGVD4S3414C9X","A3K9GTQBOI7O5A","3RKHNXPHGWIRLJ219DNI80W3E6SKUF","","","null","","","","","","","","","",""
"1040.3000001907349","","image-keyboard-response","310","1283570","0.0-310.0","3PMBY0YE28PD4D04ARGVD4S3414C9X","A3K9GTQBOI7O5A","3RKHNXPHGWIRLJ219DNI80W3E6SKUF","","img/set1/S1.jpg","83","1","random","83","random,structured_load,structured_incentive,structured_normal","","4,2,3,1","true","","",""
"null","","html-keyboard-response","311","1283924","0.0-311.0","3PMBY0YE28PD4D04ARGVD4S3414C9X","A3K9GTQBOI7O5A","3RKHNXPHGWIRLJ219DNI80W3E6SKUF","","<img src=""img/set1/S1.jpg"" width=""540"" height = ""360"" style=""border:16px solid orange"">","null","","","","","","","","","",""
"null","","html-keyboard-response","312","1284126","0.0-312.0","3PMBY0YE28PD4D04ARGVD4S3414C9X","A3K9GTQBOI7O5A","3RKHNXPHGWIRLJ219DNI80W3E6SKUF","","","null","","","","","","","","","",""
"1318","","image-keyboard-response","313","1285445","0.0-313.0","3PMBY0YE28PD4D04ARGVD4S3414C9X","A3K9GTQBOI7O5A","3RKHNXPHGWIRLJ219DNI80W3E6SKUF","","img/set1/S3.jpg","74","3","random","72","random,structured_load,structured_incentive,structured_normal","","4,2,3,1","false","","",""
"null","","html-keyboard-response","314","1285801","0.0-314.0","3PMBY0YE28PD4D04ARGVD4S3414C9X","A3K9GTQBOI7O5A","3RKHNXPHGWIRLJ219DNI80W3E6SKUF","","<img src=""img/set1/S3.jpg"" width=""540"" height = ""360"">","null","","","","","","","","","",""
"null","","html-keyboard-response","315","1286005","0.0-315.0","3PMBY0YE28PD4D04ARGVD4S3414C9X","A3K9GTQBOI7O5A","3RKHNXPHGWIRLJ219DNI80W3E6SKUF","","","null","","","","","","","","","",""
"1057.5999999046326","","image-keyboard-response","316","1287064","0.0-316.0","3PMBY0YE28PD4D04ARGVD4S3414C9X","A3K9GTQBOI7O5A","3RKHNXPHGWIRLJ219DNI80W3E6SKUF","","img/set1/S4.jpg","74","4","random","74","random,structured_load,structured_incentive,structured_normal","","4,2,3,1","true","","",""
"null","","html-keyboard-response","317","1287418","0.0-317.0","3PMBY0YE28PD4D04ARGVD4S3414C9X","A3K9GTQBOI7O5A","3RKHNXPHGWIRLJ219DNI80W3E6SKUF","","<img src=""img/set1/S4.jpg"" width=""540"" height = ""360"" style=""border:16px solid orange"">","null","","","","","","","","","",""
"null","","html-keyboard-response","318","1287619","0.0-318.0","3PMBY0YE28PD4D04ARGVD4S3414C9X","A3K9GTQBOI7O5A","3RKHNXPHGWIRLJ219DNI80W3E6SKUF","","","null","","","","","","","","","",""
"884.2999999523163","","image-keyboard-response","319","1288505","0.0-319.0","3PMBY0YE28PD4D04ARGVD4S3414C9X","A3K9GTQBOI7O5A","3RKHNXPHGWIRLJ219DNI80W3E6SKUF","","img/set1/S3.jpg","72","3","random","72","random,structured_load,structured_incentive,structured_normal","","4,2,3,1","true","","",""
"null","","html-keyboard-response","320","1288860","0.0-320.0","3PMBY0YE28PD4D04ARGVD4S3414C9X","A3K9GTQBOI7O5A","3RKHNXPHGWIRLJ219DNI80W3E6SKUF","","<img src=""img/set1/S3.jpg"" width=""540"" height = ""360"" style=""border:16px solid orange"">","null","","","","","","","","","",""
"null","","html-keyboard-response","321","1289075","0.0-321.0","3PMBY0YE28PD4D04ARGVD4S3414C9X","A3K9GTQBOI7O5A","3RKHNXPHGWIRLJ219DNI80W3E6SKUF","","","null","","","","","","","","","",""
"839.5","","image-keyboard-response","322","1289916","0.0-322.0","3PMBY0YE28PD4D04ARGVD4S3414C9X","A3K9GTQBOI7O5A","3RKHNXPHGWIRLJ219DNI80W3E6SKUF","","img/set1/S3.jpg","72","3","random","72","random,structured_load,structured_incentive,structured_normal","","4,2,3,1","true","","",""
"null","","html-keyboard-response","323","1290272","0.0-323.0","3PMBY0YE28PD4D04ARGVD4S3414C9X","A3K9GTQBOI7O5A","3RKHNXPHGWIRLJ219DNI80W3E6SKUF","","<img src=""img/set1/S3.jpg"" width=""540"" height = ""360"" style=""border:16px solid orange"">","null","","","","","","","","","",""
"null","","html-keyboard-response","324","1290487","0.0-324.0","3PMBY0YE28PD4D04ARGVD4S3414C9X","A3K9GTQBOI7O5A","3RKHNXPHGWIRLJ219DNI80W3E6SKUF","","","null","","","","","","","","","",""
"989.2999999523163","","image-keyboard-response","325","1291478","0.0-325.0","3PMBY0YE28PD4D04ARGVD4S3414C9X","A3K9GTQBOI7O5A","3RKHNXPHGWIRLJ219DNI80W3E6SKUF","","img/set1/S4.jpg","74","4","random","74","random,structured_load,structured_incentive,structured_normal","","4,2,3,1","true","","",""
"null","","html-keyboard-response","326","1291834","0.0-326.0","3PMBY0YE28PD4D04ARGVD4S3414C9X","A3K9GTQBOI7O5A","3RKHNXPHGWIRLJ219DNI80W3E6SKUF","","<img src=""img/set1/S4.jpg"" width=""540"" height = ""360"" style=""border:16px solid orange"">","null","","","","","","","","","",""
"null","","html-keyboard-response","327","1292037","0.0-327.0","3PMBY0YE28PD4D04ARGVD4S3414C9X","A3K9GTQBOI7O5A","3RKHNXPHGWIRLJ219DNI80W3E6SKUF","","","null","","","","","","","","","",""
"1132.6000001430511","","image-keyboard-response","328","1293172","0.0-328.0","3PMBY0YE28PD4D04ARGVD4S3414C9X","A3K9GTQBOI7O5A","3RKHNXPHGWIRLJ219DNI80W3E6SKUF","","img/set1/S1.jpg","83","1","random","83","random,structured_load,structured_incentive,structured_normal","","4,2,3,1","true","","",""
"null","","html-keyboard-response","329","1293541","0.0-329.0","3PMBY0YE28PD4D04ARGVD4S3414C9X","A3K9GTQBOI7O5A","3RKHNXPHGWIRLJ219DNI80W3E6SKUF","","<img src=""img/set1/S1.jpg"" width=""540"" height = ""360"" style=""border:16px solid orange"">","null","","","","","","","","","",""
"null","","html-keyboard-response","330","1293758","0.0-330.0","3PMBY0YE28PD4D04ARGVD4S3414C9X","A3K9GTQBOI7O5A","3RKHNXPHGWIRLJ219DNI80W3E6SKUF","","","null","","","","","","","","","",""
"1103.1000001430511","","image-keyboard-response","331","1294863","0.0-331.0","3PMBY0YE28PD4D04ARGVD4S3414C9X","A3K9GTQBOI7O5A","3RKHNXPHGWIRLJ219DNI80W3E6SKUF","","img/set1/S4.jpg","74","4","random","74","random,structured_load,structured_incentive,structured_normal","","4,2,3,1","true","","",""
"null","","html-keyboard-response","332","1295220","0.0-332.0","3PMBY0YE28PD4D04ARGVD4S3414C9X","A3K9GTQBOI7O5A","3RKHNXPHGWIRLJ219DNI80W3E6SKUF","","<img src=""img/set1/S4.jpg"" width=""540"" height = ""360"" style=""border:16px solid orange"">","null","","","","","","","","","",""
"null","","html-keyboard-response","333","1295424","0.0-333.0","3PMBY0YE28PD4D04ARGVD4S3414C9X","A3K9GTQBOI7O5A","3RKHNXPHGWIRLJ219DNI80W3E6SKUF","","","null","","","","","","","","","",""
"940.3999998569489","","image-keyboard-response","334","1296366","0.0-334.0","3PMBY0YE28PD4D04ARGVD4S3414C9X","A3K9GTQBOI7O5A","3RKHNXPHGWIRLJ219DNI80W3E6SKUF","","img/set1/S2.jpg","68","2","random","68","random,structured_load,structured_incentive,structured_normal","","4,2,3,1","true","","",""
"null","","html-keyboard-response","335","1296723","0.0-335.0","3PMBY0YE28PD4D04ARGVD4S3414C9X","A3K9GTQBOI7O5A","3RKHNXPHGWIRLJ219DNI80W3E6SKUF","","<img src=""img/set1/S2.jpg"" width=""540"" height = ""360"" style=""border:16px solid orange"">","null","","","","","","","","","",""
"null","","html-keyboard-response","336","1296926","0.0-336.0","3PMBY0YE28PD4D04ARGVD4S3414C9X","A3K9GTQBOI7O5A","3RKHNXPHGWIRLJ219DNI80W3E6SKUF","","","null","","","","","","","","","",""
"1123.7999999523163","","image-keyboard-response","337","1298052","0.0-337.0","3PMBY0YE28PD4D04ARGVD4S3414C9X","A3K9GTQBOI7O5A","3RKHNXPHGWIRLJ219DNI80W3E6SKUF","","img/set1/S3.jpg","72","3","random","72","random,structured_load,structured_incentive,structured_normal","","4,2,3,1","true","","",""
"null","","html-keyboard-response","338","1298418","0.0-338.0","3PMBY0YE28PD4D04ARGVD4S3414C9X","A3K9GTQBOI7O5A","3RKHNXPHGWIRLJ219DNI80W3E6SKUF","","<img src=""img/set1/S3.jpg"" width=""540"" height = ""360"" style=""border:16px solid orange"">","null","","","","","","","","","",""
"null","","html-keyboard-response","339","1298634","0.0-339.0","3PMBY0YE28PD4D04ARGVD4S3414C9X","A3K9GTQBOI7O5A","3RKHNXPHGWIRLJ219DNI80W3E6SKUF","","","null","","","","","","","","","",""
"1098.7999999523163","","image-keyboard-response","340","1299735","0.0-340.0","3PMBY0YE28PD4D04ARGVD4S3414C9X","A3K9GTQBOI7O5A","3RKHNXPHGWIRLJ219DNI80W3E6SKUF","","img/set1/S2.jpg","83","2","random","68","random,structured_load,structured_incentive,structured_normal","","4,2,3,1","false","","",""
"null","","html-keyboard-response","341","1300101","0.0-341.0","3PMBY0YE28PD4D04ARGVD4S3414C9X","A3K9GTQBOI7O5A","3RKHNXPHGWIRLJ219DNI80W3E6SKUF","","<img src=""img/set1/S2.jpg"" width=""540"" height = ""360"">","null","","","","","","","","","",""
"null","","html-keyboard-response","342","1300317","0.0-342.0","3PMBY0YE28PD4D04ARGVD4S3414C9X","A3K9GTQBOI7O5A","3RKHNXPHGWIRLJ219DNI80W3E6SKUF","","","null","","","","","","","","","",""
"915","","image-keyboard-response","343","1301233","0.0-343.0","3PMBY0YE28PD4D04ARGVD4S3414C9X","A3K9GTQBOI7O5A","3RKHNXPHGWIRLJ219DNI80W3E6SKUF","","img/set1/S2.jpg","68","2","random","68","random,structured_load,structured_incentive,structured_normal","","4,2,3,1","true","","",""
"null","","html-keyboard-response","344","1301591","0.0-344.0","3PMBY0YE28PD4D04ARGVD4S3414C9X","A3K9GTQBOI7O5A","3RKHNXPHGWIRLJ219DNI80W3E6SKUF","","<img src=""img/set1/S2.jpg"" width=""540"" height = ""360"" style=""border:16px solid orange"">","null","","","","","","","","","",""
"null","","html-keyboard-response","345","1301794","0.0-345.0","3PMBY0YE28PD4D04ARGVD4S3414C9X","A3K9GTQBOI7O5A","3RKHNXPHGWIRLJ219DNI80W3E6SKUF","","","null","","","","","","","","","",""
"962.9000000953674","","image-keyboard-response","346","1302758","0.0-346.0","3PMBY0YE28PD4D04ARGVD4S3414C9X","A3K9GTQBOI7O5A","3RKHNXPHGWIRLJ219DNI80W3E6SKUF","","img/set1/S1.jpg","83","1","random","83","random,structured_load,structured_incentive,structured_normal","","4,2,3,1","true","","",""
"null","","html-keyboard-response","347","1303115","0.0-347.0","3PMBY0YE28PD4D04ARGVD4S3414C9X","A3K9GTQBOI7O5A","3RKHNXPHGWIRLJ219DNI80W3E6SKUF","","<img src=""img/set1/S1.jpg"" width=""540"" height = ""360"" style=""border:16px solid orange"">","null","","","","","","","","","",""
"null","","html-keyboard-response","348","1303331","0.0-348.0","3PMBY0YE28PD4D04ARGVD4S3414C9X","A3K9GTQBOI7O5A","3RKHNXPHGWIRLJ219DNI80W3E6SKUF","","","null","","","","","","","","","",""
"945.7000000476837","","image-keyboard-response","349","1304279","0.0-349.0","3PMBY0YE28PD4D04ARGVD4S3414C9X","A3K9GTQBOI7O5A","3RKHNXPHGWIRLJ219DNI80W3E6SKUF","","img/set1/S1.jpg","83","1","random","83","random,structured_load,structured_incentive,structured_normal","","4,2,3,1","true","","",""
"null","","html-keyboard-response","350","1304634","0.0-350.0","3PMBY0YE28PD4D04ARGVD4S3414C9X","A3K9GTQBOI7O5A","3RKHNXPHGWIRLJ219DNI80W3E6SKUF","","<img src=""img/set1/S1.jpg"" width=""540"" height = ""360"" style=""border:16px solid orange"">","null","","","","","","","","","",""
"null","","html-keyboard-response","351","1304850","0.0-351.0","3PMBY0YE28PD4D04ARGVD4S3414C9X","A3K9GTQBOI7O5A","3RKHNXPHGWIRLJ219DNI80W3E6SKUF","","","null","","","","","","","","","",""
"917.3000001907349","","image-keyboard-response","352","1305769","0.0-352.0","3PMBY0YE28PD4D04ARGVD4S3414C9X","A3K9GTQBOI7O5A","3RKHNXPHGWIRLJ219DNI80W3E6SKUF","","img/set1/S1.jpg","83","1","random","83","random,structured_load,structured_incentive,structured_normal","","4,2,3,1","true","","",""
"null","","html-keyboard-response","353","1306124","0.0-353.0","3PMBY0YE28PD4D04ARGVD4S3414C9X","A3K9GTQBOI7O5A","3RKHNXPHGWIRLJ219DNI80W3E6SKUF","","<img src=""img/set1/S1.jpg"" width=""540"" height = ""360"" style=""border:16px solid orange"">","null","","","","","","","","","",""
"null","","html-keyboard-response","354","1306341","0.0-354.0","3PMBY0YE28PD4D04ARGVD4S3414C9X","A3K9GTQBOI7O5A","3RKHNXPHGWIRLJ219DNI80W3E6SKUF","","","null","","","","","","","","","",""
"948.5","","image-keyboard-response","355","1307291","0.0-355.0","3PMBY0YE28PD4D04ARGVD4S3414C9X","A3K9GTQBOI7O5A","3RKHNXPHGWIRLJ219DNI80W3E6SKUF","","img/set1/S2.jpg","68","2","random","68","random,structured_load,structured_incentive,structured_normal","","4,2,3,1","true","","",""
"null","","html-keyboard-response","356","1307648","0.0-356.0","3PMBY0YE28PD4D04ARGVD4S3414C9X","A3K9GTQBOI7O5A","3RKHNXPHGWIRLJ219DNI80W3E6SKUF","","<img src=""img/set1/S2.jpg"" width=""540"" height = ""360"" style=""border:16px solid orange"">","null","","","","","","","","","",""
"null","","html-keyboard-response","357","1307863","0.0-357.0","3PMBY0YE28PD4D04ARGVD4S3414C9X","A3K9GTQBOI7O5A","3RKHNXPHGWIRLJ219DNI80W3E6SKUF","","","null","","","","","","","","","",""
"1053.7000000476837","","image-keyboard-response","358","1308918","0.0-358.0","3PMBY0YE28PD4D04ARGVD4S3414C9X","A3K9GTQBOI7O5A","3RKHNXPHGWIRLJ219DNI80W3E6SKUF","","img/set1/S4.jpg","74","4","random","74","random,structured_load,structured_incentive,structured_normal","","4,2,3,1","true","","",""
"null","","html-keyboard-response","359","1309272","0.0-359.0","3PMBY0YE28PD4D04ARGVD4S3414C9X","A3K9GTQBOI7O5A","3RKHNXPHGWIRLJ219DNI80W3E6SKUF","","<img src=""img/set1/S4.jpg"" width=""540"" height = ""360"" style=""border:16px solid orange"">","null","","","","","","","","","",""
"null","","html-keyboard-response","360","1309475","0.0-360.0","3PMBY0YE28PD4D04ARGVD4S3414C9X","A3K9GTQBOI7O5A","3RKHNXPHGWIRLJ219DNI80W3E6SKUF","","","null","","","","","","","","","",""
"868.0999999046326","","image-keyboard-response","361","1310344","0.0-361.0","3PMBY0YE28PD4D04ARGVD4S3414C9X","A3K9GTQBOI7O5A","3RKHNXPHGWIRLJ219DNI80W3E6SKUF","","img/set1/S3.jpg","72","3","random","72","random,structured_load,structured_incentive,structured_normal","","4,2,3,1","true","","",""
"null","","html-keyboard-response","362","1310700","0.0-362.0","3PMBY0YE28PD4D04ARGVD4S3414C9X","A3K9GTQBOI7O5A","3RKHNXPHGWIRLJ219DNI80W3E6SKUF","","<img src=""img/set1/S3.jpg"" width=""540"" height = ""360"" style=""border:16px solid orange"">","null","","","","","","","","","",""
"null","","html-keyboard-response","363","1310902","0.0-363.0","3PMBY0YE28PD4D04ARGVD4S3414C9X","A3K9GTQBOI7O5A","3RKHNXPHGWIRLJ219DNI80W3E6SKUF","","","null","","","","","","","","","",""
"1258.4000000953674","","image-keyboard-response","364","1312163","0.0-364.0","3PMBY0YE28PD4D04ARGVD4S3414C9X","A3K9GTQBOI7O5A","3RKHNXPHGWIRLJ219DNI80W3E6SKUF","","img/set1/S2.jpg","68","2","random","68","random,structured_load,structured_incentive,structured_normal","","4,2,3,1","true","","",""
"null","","html-keyboard-response","365","1312517","0.0-365.0","3PMBY0YE28PD4D04ARGVD4S3414C9X","A3K9GTQBOI7O5A","3RKHNXPHGWIRLJ219DNI80W3E6SKUF","","<img src=""img/set1/S2.jpg"" width=""540"" height = ""360"" style=""border:16px solid orange"">","null","","","","","","","","","",""
"null","","html-keyboard-response","366","1312720","0.0-366.0","3PMBY0YE28PD4D04ARGVD4S3414C9X","A3K9GTQBOI7O5A","3RKHNXPHGWIRLJ219DNI80W3E6SKUF","","","null","","","","","","","","","",""
"945.4000000953674","","image-keyboard-response","367","1313667","0.0-367.0","3PMBY0YE28PD4D04ARGVD4S3414C9X","A3K9GTQBOI7O5A","3RKHNXPHGWIRLJ219DNI80W3E6SKUF","","img/set1/S2.jpg","68","2","random","68","random,structured_load,structured_incentive,structured_normal","","4,2,3,1","true","","",""
"null","","html-keyboard-response","368","1314019","0.0-368.0","3PMBY0YE28PD4D04ARGVD4S3414C9X","A3K9GTQBOI7O5A","3RKHNXPHGWIRLJ219DNI80W3E6SKUF","","<img src=""img/set1/S2.jpg"" width=""540"" height = ""360"" style=""border:16px solid orange"">","null","","","","","","","","","",""
"null","","html-keyboard-response","369","1314223","0.0-369.0","3PMBY0YE28PD4D04ARGVD4S3414C9X","A3K9GTQBOI7O5A","3RKHNXPHGWIRLJ219DNI80W3E6SKUF","","","null","","","","","","","","","",""
"868.1000001430511","","image-keyboard-response","370","1315094","0.0-370.0","3PMBY0YE28PD4D04ARGVD4S3414C9X","A3K9GTQBOI7O5A","3RKHNXPHGWIRLJ219DNI80W3E6SKUF","","img/set1/S2.jpg","68","2","random","68","random,structured_load,structured_incentive,structured_normal","","4,2,3,1","true","","",""
"null","","html-keyboard-response","371","1315446","0.0-371.0","3PMBY0YE28PD4D04ARGVD4S3414C9X","A3K9GTQBOI7O5A","3RKHNXPHGWIRLJ219DNI80W3E6SKUF","","<img src=""img/set1/S2.jpg"" width=""540"" height = ""360"" style=""border:16px solid orange"">","null","","","","","","","","","",""
"null","","html-keyboard-response","372","1315663","0.0-372.0","3PMBY0YE28PD4D04ARGVD4S3414C9X","A3K9GTQBOI7O5A","3RKHNXPHGWIRLJ219DNI80W3E6SKUF","","","null","","","","","","","","","",""
"1867.1000001430511","","image-keyboard-response","373","1317531","0.0-373.0","3PMBY0YE28PD4D04ARGVD4S3414C9X","A3K9GTQBOI7O5A","3RKHNXPHGWIRLJ219DNI80W3E6SKUF","","img/set1/S3.jpg","72","3","random","72","random,structured_load,structured_incentive,structured_normal","","4,2,3,1","true","","",""
"null","","html-keyboard-response","374","1317888","0.0-374.0","3PMBY0YE28PD4D04ARGVD4S3414C9X","A3K9GTQBOI7O5A","3RKHNXPHGWIRLJ219DNI80W3E6SKUF","","<img src=""img/set1/S3.jpg"" width=""540"" height = ""360"" style=""border:16px solid orange"">","null","","","","","","","","","",""
"null","","html-keyboard-response","375","1318104","0.0-375.0","3PMBY0YE28PD4D04ARGVD4S3414C9X","A3K9GTQBOI7O5A","3RKHNXPHGWIRLJ219DNI80W3E6SKUF","","","null","","","","","","","","","",""
"872.3000001907349","","image-keyboard-response","376","1318978","0.0-376.0","3PMBY0YE28PD4D04ARGVD4S3414C9X","A3K9GTQBOI7O5A","3RKHNXPHGWIRLJ219DNI80W3E6SKUF","","img/set1/S3.jpg","72","3","random","72","random,structured_load,structured_incentive,structured_normal","","4,2,3,1","true","","",""
"null","","html-keyboard-response","377","1319343","0.0-377.0","3PMBY0YE28PD4D04ARGVD4S3414C9X","A3K9GTQBOI7O5A","3RKHNXPHGWIRLJ219DNI80W3E6SKUF","","<img src=""img/set1/S3.jpg"" width=""540"" height = ""360"" style=""border:16px solid orange"">","null","","","","","","","","","",""
"null","","html-keyboard-response","378","1319560","0.0-378.0","3PMBY0YE28PD4D04ARGVD4S3414C9X","A3K9GTQBOI7O5A","3RKHNXPHGWIRLJ219DNI80W3E6SKUF","","","null","","","","","","","","","",""
"857.5","","image-keyboard-response","379","1320420","0.0-379.0","3PMBY0YE28PD4D04ARGVD4S3414C9X","A3K9GTQBOI7O5A","3RKHNXPHGWIRLJ219DNI80W3E6SKUF","","img/set1/S3.jpg","72","3","random","72","random,structured_load,structured_incentive,structured_normal","","4,2,3,1","true","","",""
"null","","html-keyboard-response","380","1320774","0.0-380.0","3PMBY0YE28PD4D04ARGVD4S3414C9X","A3K9GTQBOI7O5A","3RKHNXPHGWIRLJ219DNI80W3E6SKUF","","<img src=""img/set1/S3.jpg"" width=""540"" height = ""360"" style=""border:16px solid orange"">","null","","","","","","","","","",""
"null","","html-keyboard-response","381","1320990","0.0-381.0","3PMBY0YE28PD4D04ARGVD4S3414C9X","A3K9GTQBOI7O5A","3RKHNXPHGWIRLJ219DNI80W3E6SKUF","","","null","","","","","","","","","",""
"918.7999999523163","","image-keyboard-response","382","1321910","0.0-382.0","3PMBY0YE28PD4D04ARGVD4S3414C9X","A3K9GTQBOI7O5A","3RKHNXPHGWIRLJ219DNI80W3E6SKUF","","img/set1/S2.jpg","68","2","random","68","random,structured_load,structured_incentive,structured_normal","","4,2,3,1","true","","",""
"null","","html-keyboard-response","383","1322263","0.0-383.0","3PMBY0YE28PD4D04ARGVD4S3414C9X","A3K9GTQBOI7O5A","3RKHNXPHGWIRLJ219DNI80W3E6SKUF","","<img src=""img/set1/S2.jpg"" width=""540"" height = ""360"" style=""border:16px solid orange"">","null","","","","","","","","","",""
"null","","html-keyboard-response","384","1322465","0.0-384.0","3PMBY0YE28PD4D04ARGVD4S3414C9X","A3K9GTQBOI7O5A","3RKHNXPHGWIRLJ219DNI80W3E6SKUF","","","null","","","","","","","","","",""
"1138.0999999046326","","image-keyboard-response","385","1323605","0.0-385.0","3PMBY0YE28PD4D04ARGVD4S3414C9X","A3K9GTQBOI7O5A","3RKHNXPHGWIRLJ219DNI80W3E6SKUF","","img/set1/S3.jpg","72","3","random","72","random,structured_load,structured_incentive,structured_normal","","4,2,3,1","true","","",""
"null","","html-keyboard-response","386","1323961","0.0-386.0","3PMBY0YE28PD4D04ARGVD4S3414C9X","A3K9GTQBOI7O5A","3RKHNXPHGWIRLJ219DNI80W3E6SKUF","","<img src=""img/set1/S3.jpg"" width=""540"" height = ""360"" style=""border:16px solid orange"">","null","","","","","","","","","",""
"null","","html-keyboard-response","387","1324178","0.0-387.0","3PMBY0YE28PD4D04ARGVD4S3414C9X","A3K9GTQBOI7O5A","3RKHNXPHGWIRLJ219DNI80W3E6SKUF","","","null","","","","","","","","","",""
"981","","image-keyboard-response","388","1325161","0.0-388.0","3PMBY0YE28PD4D04ARGVD4S3414C9X","A3K9GTQBOI7O5A","3RKHNXPHGWIRLJ219DNI80W3E6SKUF","","img/set1/S4.jpg","74","4","random","74","random,structured_load,structured_incentive,structured_normal","","4,2,3,1","true","","",""
"null","","html-keyboard-response","389","1325515","0.0-389.0","3PMBY0YE28PD4D04ARGVD4S3414C9X","A3K9GTQBOI7O5A","3RKHNXPHGWIRLJ219DNI80W3E6SKUF","","<img src=""img/set1/S4.jpg"" width=""540"" height = ""360"" style=""border:16px solid orange"">","null","","","","","","","","","",""
"null","","html-keyboard-response","390","1325730","0.0-390.0","3PMBY0YE28PD4D04ARGVD4S3414C9X","A3K9GTQBOI7O5A","3RKHNXPHGWIRLJ219DNI80W3E6SKUF","","","null","","","","","","","","","",""
"999.1000001430511","","image-keyboard-response","391","1326731","0.0-391.0","3PMBY0YE28PD4D04ARGVD4S3414C9X","A3K9GTQBOI7O5A","3RKHNXPHGWIRLJ219DNI80W3E6SKUF","","img/set1/S2.jpg","68","2","random","68","random,structured_load,structured_incentive,structured_normal","","4,2,3,1","true","","",""
"null","","html-keyboard-response","392","1327084","0.0-392.0","3PMBY0YE28PD4D04ARGVD4S3414C9X","A3K9GTQBOI7O5A","3RKHNXPHGWIRLJ219DNI80W3E6SKUF","","<img src=""img/set1/S2.jpg"" width=""540"" height = ""360"" style=""border:16px solid orange"">","null","","","","","","","","","",""
