"rt","url","trial_type","trial_index","time_elapsed","internal_node_id","assignmentID","mturkID","hitID","view_history","stimulus","key_press","state","test_part","correct_response","order_block","order_chunk","order_freq","correct","responses","question_order","bonus"
"1387.199999988079","consent.html","external-html","0","1421","0.0-0.0","3A0EX8ZRN9A9V9G643CG11FCUUHBYF","A3LL096CAY5WHB","388CL5C1RJ9X03EZUESK4LKS9TSHL1","","","","","","","","","","","","",""
"50346.69999998808","","instructions","1","51769","0.0-1.0","3A0EX8ZRN9A9V9G643CG11FCUUHBYF","A3LL096CAY5WHB","388CL5C1RJ9X03EZUESK4LKS9TSHL1","[{""page_index"":0,""viewing_time"":9716.099999964237},{""page_index"":1,""viewing_time"":2989},{""page_index"":2,""viewing_time"":4361},{""page_index"":3,""viewing_time"":7839.900000035763},{""page_index"":4,""viewing_time"":6900.099999964237},{""page_index"":5,""viewing_time"":13549.900000035763},{""page_index"":6,""viewing_time"":4990}]","","","","","","","","","","","",""
"3608.100000023842","","instructions","2","55378","0.0-2.0","3A0EX8ZRN9A9V9G643CG11FCUUHBYF","A3LL096CAY5WHB","388CL5C1RJ9X03EZUESK4LKS9TSHL1","[{""page_index"":0,""viewing_time"":3607.800000011921}]","","","","","","","","","","","",""
"1461.2000000476837","","instructions","3","56840","0.0-3.0","3A0EX8ZRN9A9V9G643CG11FCUUHBYF","A3LL096CAY5WHB","388CL5C1RJ9X03EZUESK4LKS9TSHL1","[{""page_index"":0,""viewing_time"":1461}]","","","","","","","","","","","",""
"1344.800000011921","","image-keyboard-response","4","58186","0.0-4.0","3A0EX8ZRN9A9V9G643CG11FCUUHBYF","A3LL096CAY5WHB","388CL5C1RJ9X03EZUESK4LKS9TSHL1","","img/set1/S4.jpg","74","4","structured_normal","74","structured_normal,structured_incentive,structured_load,random","2,3,2,1,3,4","2,3,4,1","true","","",""
"null","","html-keyboard-response","5","58550","0.0-5.0","3A0EX8ZRN9A9V9G643CG11FCUUHBYF","A3LL096CAY5WHB","388CL5C1RJ9X03EZUESK4LKS9TSHL1","","<img src=""img/set1/S4.jpg"" width=""540"" height = ""360"" style=""border:16px solid orange"">","null","","","","","","","","","",""
"null","","html-keyboard-response","6","58751","0.0-6.0","3A0EX8ZRN9A9V9G643CG11FCUUHBYF","A3LL096CAY5WHB","388CL5C1RJ9X03EZUESK4LKS9TSHL1","","","null","","","","","","","","","",""
"719","","image-keyboard-response","7","59471","0.0-7.0","3A0EX8ZRN9A9V9G643CG11FCUUHBYF","A3LL096CAY5WHB","388CL5C1RJ9X03EZUESK4LKS9TSHL1","","img/set1/S1.jpg","83","1","structured_normal","83","structured_normal,structured_incentive,structured_load,random","2,3,2,1,3,4","2,3,4,1","true","","",""
"null","","html-keyboard-response","8","59824","0.0-8.0","3A0EX8ZRN9A9V9G643CG11FCUUHBYF","A3LL096CAY5WHB","388CL5C1RJ9X03EZUESK4LKS9TSHL1","","<img src=""img/set1/S1.jpg"" width=""540"" height = ""360"" style=""border:16px solid orange"">","null","","","","","","","","","",""
"null","","html-keyboard-response","9","60027","0.0-9.0","3A0EX8ZRN9A9V9G643CG11FCUUHBYF","A3LL096CAY5WHB","388CL5C1RJ9X03EZUESK4LKS9TSHL1","","","null","","","","","","","","","",""
"922.4000000357628","","image-keyboard-response","10","60950","0.0-10.0","3A0EX8ZRN9A9V9G643CG11FCUUHBYF","A3LL096CAY5WHB","388CL5C1RJ9X03EZUESK4LKS9TSHL1","","img/set1/S2.jpg","72","2","structured_normal","68","structured_normal,structured_incentive,structured_load,random","2,3,2,1,3,4","2,3,4,1","false","","",""
"null","","html-keyboard-response","11","61304","0.0-11.0","3A0EX8ZRN9A9V9G643CG11FCUUHBYF","A3LL096CAY5WHB","388CL5C1RJ9X03EZUESK4LKS9TSHL1","","<img src=""img/set1/S2.jpg"" width=""540"" height = ""360"">","null","","","","","","","","","",""
"null","","html-keyboard-response","12","61519","0.0-12.0","3A0EX8ZRN9A9V9G643CG11FCUUHBYF","A3LL096CAY5WHB","388CL5C1RJ9X03EZUESK4LKS9TSHL1","","","null","","","","","","","","","",""
"443.7000000476837","","image-keyboard-response","13","61964","0.0-13.0","3A0EX8ZRN9A9V9G643CG11FCUUHBYF","A3LL096CAY5WHB","388CL5C1RJ9X03EZUESK4LKS9TSHL1","","img/set1/S3.jpg","74","3","structured_normal","72","structured_normal,structured_incentive,structured_load,random","2,3,2,1,3,4","2,3,4,1","false","","",""
"null","","html-keyboard-response","14","62325","0.0-14.0","3A0EX8ZRN9A9V9G643CG11FCUUHBYF","A3LL096CAY5WHB","388CL5C1RJ9X03EZUESK4LKS9TSHL1","","<img src=""img/set1/S3.jpg"" width=""540"" height = ""360"">","null","","","","","","","","","",""
"null","","html-keyboard-response","15","62528","0.0-15.0","3A0EX8ZRN9A9V9G643CG11FCUUHBYF","A3LL096CAY5WHB","388CL5C1RJ9X03EZUESK4LKS9TSHL1","","","null","","","","","","","","","",""
"366.19999998807907","","image-keyboard-response","16","62895","0.0-16.0","3A0EX8ZRN9A9V9G643CG11FCUUHBYF","A3LL096CAY5WHB","388CL5C1RJ9X03EZUESK4LKS9TSHL1","","img/set1/S4.jpg","74","4","structured_normal","74","structured_normal,structured_incentive,structured_load,random","2,3,2,1,3,4","2,3,4,1","true","","",""
"null","","html-keyboard-response","17","63260","0.0-17.0","3A0EX8ZRN9A9V9G643CG11FCUUHBYF","A3LL096CAY5WHB","388CL5C1RJ9X03EZUESK4LKS9TSHL1","","<img src=""img/set1/S4.jpg"" width=""540"" height = ""360"" style=""border:16px solid orange"">","null","","","","","","","","","",""
"null","","html-keyboard-response","18","63463","0.0-18.0","3A0EX8ZRN9A9V9G643CG11FCUUHBYF","A3LL096CAY5WHB","388CL5C1RJ9X03EZUESK4LKS9TSHL1","","","null","","","","","","","","","",""
"300.5","","image-keyboard-response","19","63764","0.0-19.0","3A0EX8ZRN9A9V9G643CG11FCUUHBYF","A3LL096CAY5WHB","388CL5C1RJ9X03EZUESK4LKS9TSHL1","","img/set1/S1.jpg","83","1","structured_normal","83","structured_normal,structured_incentive,structured_load,random","2,3,2,1,3,4","2,3,4,1","true","","",""
"null","","html-keyboard-response","20","64130","0.0-20.0","3A0EX8ZRN9A9V9G643CG11FCUUHBYF","A3LL096CAY5WHB","388CL5C1RJ9X03EZUESK4LKS9TSHL1","","<img src=""img/set1/S1.jpg"" width=""540"" height = ""360"" style=""border:16px solid orange"">","null","","","","","","","","","",""
"null","","html-keyboard-response","21","64350","0.0-21.0","3A0EX8ZRN9A9V9G643CG11FCUUHBYF","A3LL096CAY5WHB","388CL5C1RJ9X03EZUESK4LKS9TSHL1","","","null","","","","","","","","","",""
"859.2000000476837","","image-keyboard-response","22","65210","0.0-22.0","3A0EX8ZRN9A9V9G643CG11FCUUHBYF","A3LL096CAY5WHB","388CL5C1RJ9X03EZUESK4LKS9TSHL1","","img/set1/S2.jpg","68","2","structured_normal","68","structured_normal,structured_incentive,structured_load,random","2,3,2,1,3,4","2,3,4,1","true","","",""
"null","","html-keyboard-response","23","65576","0.0-23.0","3A0EX8ZRN9A9V9G643CG11FCUUHBYF","A3LL096CAY5WHB","388CL5C1RJ9X03EZUESK4LKS9TSHL1","","<img src=""img/set1/S2.jpg"" width=""540"" height = ""360"" style=""border:16px solid orange"">","null","","","","","","","","","",""
"null","","html-keyboard-response","24","65778","0.0-24.0","3A0EX8ZRN9A9V9G643CG11FCUUHBYF","A3LL096CAY5WHB","388CL5C1RJ9X03EZUESK4LKS9TSHL1","","","null","","","","","","","","","",""
"1504.5999999642372","","image-keyboard-response","25","67284","0.0-25.0","3A0EX8ZRN9A9V9G643CG11FCUUHBYF","A3LL096CAY5WHB","388CL5C1RJ9X03EZUESK4LKS9TSHL1","","img/set1/S3.jpg","72","3","structured_normal","72","structured_normal,structured_incentive,structured_load,random","2,3,2,1,3,4","2,3,4,1","true","","",""
"null","","html-keyboard-response","26","67643","0.0-26.0","3A0EX8ZRN9A9V9G643CG11FCUUHBYF","A3LL096CAY5WHB","388CL5C1RJ9X03EZUESK4LKS9TSHL1","","<img src=""img/set1/S3.jpg"" width=""540"" height = ""360"" style=""border:16px solid orange"">","null","","","","","","","","","",""
"null","","html-keyboard-response","27","67846","0.0-27.0","3A0EX8ZRN9A9V9G643CG11FCUUHBYF","A3LL096CAY5WHB","388CL5C1RJ9X03EZUESK4LKS9TSHL1","","","null","","","","","","","","","",""
"1157.699999988079","","image-keyboard-response","28","69004","0.0-28.0","3A0EX8ZRN9A9V9G643CG11FCUUHBYF","A3LL096CAY5WHB","388CL5C1RJ9X03EZUESK4LKS9TSHL1","","img/set1/S2.jpg","83","2","structured_normal","68","structured_normal,structured_incentive,structured_load,random","2,3,2,1,3,4","2,3,4,1","false","","",""
"null","","html-keyboard-response","29","69369","0.0-29.0","3A0EX8ZRN9A9V9G643CG11FCUUHBYF","A3LL096CAY5WHB","388CL5C1RJ9X03EZUESK4LKS9TSHL1","","<img src=""img/set1/S2.jpg"" width=""540"" height = ""360"">","null","","","","","","","","","",""
"null","","html-keyboard-response","30","69571","0.0-30.0","3A0EX8ZRN9A9V9G643CG11FCUUHBYF","A3LL096CAY5WHB","388CL5C1RJ9X03EZUESK4LKS9TSHL1","","","null","","","","","","","","","",""
"620.8000000119209","","image-keyboard-response","31","70193","0.0-31.0","3A0EX8ZRN9A9V9G643CG11FCUUHBYF","A3LL096CAY5WHB","388CL5C1RJ9X03EZUESK4LKS9TSHL1","","img/set1/S3.jpg","72","3","structured_normal","72","structured_normal,structured_incentive,structured_load,random","2,3,2,1,3,4","2,3,4,1","true","","",""
"null","","html-keyboard-response","32","70549","0.0-32.0","3A0EX8ZRN9A9V9G643CG11FCUUHBYF","A3LL096CAY5WHB","388CL5C1RJ9X03EZUESK4LKS9TSHL1","","<img src=""img/set1/S3.jpg"" width=""540"" height = ""360"" style=""border:16px solid orange"">","null","","","","","","","","","",""
"null","","html-keyboard-response","33","70751","0.0-33.0","3A0EX8ZRN9A9V9G643CG11FCUUHBYF","A3LL096CAY5WHB","388CL5C1RJ9X03EZUESK4LKS9TSHL1","","","null","","","","","","","","","",""
"1065","","image-keyboard-response","34","71817","0.0-34.0","3A0EX8ZRN9A9V9G643CG11FCUUHBYF","A3LL096CAY5WHB","388CL5C1RJ9X03EZUESK4LKS9TSHL1","","img/set1/S1.jpg","72","1","structured_normal","83","structured_normal,structured_incentive,structured_load,random","2,3,2,1,3,4","2,3,4,1","false","","",""
"null","","html-keyboard-response","35","72177","0.0-35.0","3A0EX8ZRN9A9V9G643CG11FCUUHBYF","A3LL096CAY5WHB","388CL5C1RJ9X03EZUESK4LKS9TSHL1","","<img src=""img/set1/S1.jpg"" width=""540"" height = ""360"">","null","","","","","","","","","",""
"null","","html-keyboard-response","36","72381","0.0-36.0","3A0EX8ZRN9A9V9G643CG11FCUUHBYF","A3LL096CAY5WHB","388CL5C1RJ9X03EZUESK4LKS9TSHL1","","","null","","","","","","","","","",""
"447.7999999523163","","image-keyboard-response","37","72830","0.0-37.0","3A0EX8ZRN9A9V9G643CG11FCUUHBYF","A3LL096CAY5WHB","388CL5C1RJ9X03EZUESK4LKS9TSHL1","","img/set1/S2.jpg","74","2","structured_normal","68","structured_normal,structured_incentive,structured_load,random","2,3,2,1,3,4","2,3,4,1","false","","",""
"null","","html-keyboard-response","38","73188","0.0-38.0","3A0EX8ZRN9A9V9G643CG11FCUUHBYF","A3LL096CAY5WHB","388CL5C1RJ9X03EZUESK4LKS9TSHL1","","<img src=""img/set1/S2.jpg"" width=""540"" height = ""360"">","null","","","","","","","","","",""
"null","","html-keyboard-response","39","73391","0.0-39.0","3A0EX8ZRN9A9V9G643CG11FCUUHBYF","A3LL096CAY5WHB","388CL5C1RJ9X03EZUESK4LKS9TSHL1","","","null","","","","","","","","","",""
"450.9000000357628","","image-keyboard-response","40","73842","0.0-40.0","3A0EX8ZRN9A9V9G643CG11FCUUHBYF","A3LL096CAY5WHB","388CL5C1RJ9X03EZUESK4LKS9TSHL1","","img/set1/S3.jpg","68","3","structured_normal","72","structured_normal,structured_incentive,structured_load,random","2,3,2,1,3,4","2,3,4,1","false","","",""
"null","","html-keyboard-response","41","74200","0.0-41.0","3A0EX8ZRN9A9V9G643CG11FCUUHBYF","A3LL096CAY5WHB","388CL5C1RJ9X03EZUESK4LKS9TSHL1","","<img src=""img/set1/S3.jpg"" width=""540"" height = ""360"">","null","","","","","","","","","",""
"null","","html-keyboard-response","42","74402","0.0-42.0","3A0EX8ZRN9A9V9G643CG11FCUUHBYF","A3LL096CAY5WHB","388CL5C1RJ9X03EZUESK4LKS9TSHL1","","","null","","","","","","","","","",""
"645.0999999642372","","image-keyboard-response","43","75048","0.0-43.0","3A0EX8ZRN9A9V9G643CG11FCUUHBYF","A3LL096CAY5WHB","388CL5C1RJ9X03EZUESK4LKS9TSHL1","","img/set1/S2.jpg","83","2","structured_normal","68","structured_normal,structured_incentive,structured_load,random","2,3,2,1,3,4","2,3,4,1","false","","",""
"null","","html-keyboard-response","44","75408","0.0-44.0","3A0EX8ZRN9A9V9G643CG11FCUUHBYF","A3LL096CAY5WHB","388CL5C1RJ9X03EZUESK4LKS9TSHL1","","<img src=""img/set1/S2.jpg"" width=""540"" height = ""360"">","null","","","","","","","","","",""
"null","","html-keyboard-response","45","75612","0.0-45.0","3A0EX8ZRN9A9V9G643CG11FCUUHBYF","A3LL096CAY5WHB","388CL5C1RJ9X03EZUESK4LKS9TSHL1","","","null","","","","","","","","","",""
"913.3000000119209","","image-keyboard-response","46","76526","0.0-46.0","3A0EX8ZRN9A9V9G643CG11FCUUHBYF","A3LL096CAY5WHB","388CL5C1RJ9X03EZUESK4LKS9TSHL1","","img/set1/S3.jpg","72","3","structured_normal","72","structured_normal,structured_incentive,structured_load,random","2,3,2,1,3,4","2,3,4,1","true","","",""
"null","","html-keyboard-response","47","76888","0.0-47.0","3A0EX8ZRN9A9V9G643CG11FCUUHBYF","A3LL096CAY5WHB","388CL5C1RJ9X03EZUESK4LKS9TSHL1","","<img src=""img/set1/S3.jpg"" width=""540"" height = ""360"" style=""border:16px solid orange"">","null","","","","","","","","","",""
"null","","html-keyboard-response","48","77092","0.0-48.0","3A0EX8ZRN9A9V9G643CG11FCUUHBYF","A3LL096CAY5WHB","388CL5C1RJ9X03EZUESK4LKS9TSHL1","","","null","","","","","","","","","",""
"575.3000000119209","","image-keyboard-response","49","77668","0.0-49.0","3A0EX8ZRN9A9V9G643CG11FCUUHBYF","A3LL096CAY5WHB","388CL5C1RJ9X03EZUESK4LKS9TSHL1","","img/set1/S4.jpg","74","4","structured_normal","74","structured_normal,structured_incentive,structured_load,random","2,3,2,1,3,4","2,3,4,1","true","","",""
"null","","html-keyboard-response","50","78024","0.0-50.0","3A0EX8ZRN9A9V9G643CG11FCUUHBYF","A3LL096CAY5WHB","388CL5C1RJ9X03EZUESK4LKS9TSHL1","","<img src=""img/set1/S4.jpg"" width=""540"" height = ""360"" style=""border:16px solid orange"">","null","","","","","","","","","",""
"null","","html-keyboard-response","51","78228","0.0-51.0","3A0EX8ZRN9A9V9G643CG11FCUUHBYF","A3LL096CAY5WHB","388CL5C1RJ9X03EZUESK4LKS9TSHL1","","","null","","","","","","","","","",""
"837.8000000119209","","image-keyboard-response","52","79066","0.0-52.0","3A0EX8ZRN9A9V9G643CG11FCUUHBYF","A3LL096CAY5WHB","388CL5C1RJ9X03EZUESK4LKS9TSHL1","","img/set1/S2.jpg","83","2","structured_normal","68","structured_normal,structured_incentive,structured_load,random","2,3,2,1,3,4","2,3,4,1","false","","",""
"null","","html-keyboard-response","53","79426","0.0-53.0","3A0EX8ZRN9A9V9G643CG11FCUUHBYF","A3LL096CAY5WHB","388CL5C1RJ9X03EZUESK4LKS9TSHL1","","<img src=""img/set1/S2.jpg"" width=""540"" height = ""360"">","null","","","","","","","","","",""
"null","","html-keyboard-response","54","79630","0.0-54.0","3A0EX8ZRN9A9V9G643CG11FCUUHBYF","A3LL096CAY5WHB","388CL5C1RJ9X03EZUESK4LKS9TSHL1","","","null","","","","","","","","","",""
"705","","image-keyboard-response","55","80336","0.0-55.0","3A0EX8ZRN9A9V9G643CG11FCUUHBYF","A3LL096CAY5WHB","388CL5C1RJ9X03EZUESK4LKS9TSHL1","","img/set1/S3.jpg","72","3","structured_normal","72","structured_normal,structured_incentive,structured_load,random","2,3,2,1,3,4","2,3,4,1","true","","",""
"null","","html-keyboard-response","56","80701","0.0-56.0","3A0EX8ZRN9A9V9G643CG11FCUUHBYF","A3LL096CAY5WHB","388CL5C1RJ9X03EZUESK4LKS9TSHL1","","<img src=""img/set1/S3.jpg"" width=""540"" height = ""360"" style=""border:16px solid orange"">","null","","","","","","","","","",""
"null","","html-keyboard-response","57","80905","0.0-57.0","3A0EX8ZRN9A9V9G643CG11FCUUHBYF","A3LL096CAY5WHB","388CL5C1RJ9X03EZUESK4LKS9TSHL1","","","null","","","","","","","","","",""
"700.3000000119209","","image-keyboard-response","58","81606","0.0-58.0","3A0EX8ZRN9A9V9G643CG11FCUUHBYF","A3LL096CAY5WHB","388CL5C1RJ9X03EZUESK4LKS9TSHL1","","img/set1/S1.jpg","83","1","structured_normal","83","structured_normal,structured_incentive,structured_load,random","2,3,2,1,3,4","2,3,4,1","true","","",""
"null","","html-keyboard-response","59","81967","0.0-59.0","3A0EX8ZRN9A9V9G643CG11FCUUHBYF","A3LL096CAY5WHB","388CL5C1RJ9X03EZUESK4LKS9TSHL1","","<img src=""img/set1/S1.jpg"" width=""540"" height = ""360"" style=""border:16px solid orange"">","null","","","","","","","","","",""
"null","","html-keyboard-response","60","82170","0.0-60.0","3A0EX8ZRN9A9V9G643CG11FCUUHBYF","A3LL096CAY5WHB","388CL5C1RJ9X03EZUESK4LKS9TSHL1","","","null","","","","","","","","","",""
"753.5","","image-keyboard-response","61","82925","0.0-61.0","3A0EX8ZRN9A9V9G643CG11FCUUHBYF","A3LL096CAY5WHB","388CL5C1RJ9X03EZUESK4LKS9TSHL1","","img/set1/S2.jpg","72","2","structured_normal","68","structured_normal,structured_incentive,structured_load,random","2,3,2,1,3,4","2,3,4,1","false","","",""
"null","","html-keyboard-response","62","83287","0.0-62.0","3A0EX8ZRN9A9V9G643CG11FCUUHBYF","A3LL096CAY5WHB","388CL5C1RJ9X03EZUESK4LKS9TSHL1","","<img src=""img/set1/S2.jpg"" width=""540"" height = ""360"">","null","","","","","","","","","",""
"null","","html-keyboard-response","63","83488","0.0-63.0","3A0EX8ZRN9A9V9G643CG11FCUUHBYF","A3LL096CAY5WHB","388CL5C1RJ9X03EZUESK4LKS9TSHL1","","","null","","","","","","","","","",""
"512.3999999761581","","image-keyboard-response","64","84001","0.0-64.0","3A0EX8ZRN9A9V9G643CG11FCUUHBYF","A3LL096CAY5WHB","388CL5C1RJ9X03EZUESK4LKS9TSHL1","","img/set1/S3.jpg","72","3","structured_normal","72","structured_normal,structured_incentive,structured_load,random","2,3,2,1,3,4","2,3,4,1","true","","",""
"null","","html-keyboard-response","65","84362","0.0-65.0","3A0EX8ZRN9A9V9G643CG11FCUUHBYF","A3LL096CAY5WHB","388CL5C1RJ9X03EZUESK4LKS9TSHL1","","<img src=""img/set1/S3.jpg"" width=""540"" height = ""360"" style=""border:16px solid orange"">","null","","","","","","","","","",""
"null","","html-keyboard-response","66","84563","0.0-66.0","3A0EX8ZRN9A9V9G643CG11FCUUHBYF","A3LL096CAY5WHB","388CL5C1RJ9X03EZUESK4LKS9TSHL1","","","null","","","","","","","","","",""
"594.6999999880791","","image-keyboard-response","67","85158","0.0-67.0","3A0EX8ZRN9A9V9G643CG11FCUUHBYF","A3LL096CAY5WHB","388CL5C1RJ9X03EZUESK4LKS9TSHL1","","img/set1/S2.jpg","68","2","structured_normal","68","structured_normal,structured_incentive,structured_load,random","2,3,2,1,3,4","2,3,4,1","true","","",""
"null","","html-keyboard-response","68","85512","0.0-68.0","3A0EX8ZRN9A9V9G643CG11FCUUHBYF","A3LL096CAY5WHB","388CL5C1RJ9X03EZUESK4LKS9TSHL1","","<img src=""img/set1/S2.jpg"" width=""540"" height = ""360"" style=""border:16px solid orange"">","null","","","","","","","","","",""
"null","","html-keyboard-response","69","85714","0.0-69.0","3A0EX8ZRN9A9V9G643CG11FCUUHBYF","A3LL096CAY5WHB","388CL5C1RJ9X03EZUESK4LKS9TSHL1","","","null","","","","","","","","","",""
"535.6999999880791","","image-keyboard-response","70","86251","0.0-70.0","3A0EX8ZRN9A9V9G643CG11FCUUHBYF","A3LL096CAY5WHB","388CL5C1RJ9X03EZUESK4LKS9TSHL1","","img/set1/S3.jpg","72","3","structured_normal","72","structured_normal,structured_incentive,structured_load,random","2,3,2,1,3,4","2,3,4,1","true","","",""
"null","","html-keyboard-response","71","86613","0.0-71.0","3A0EX8ZRN9A9V9G643CG11FCUUHBYF","A3LL096CAY5WHB","388CL5C1RJ9X03EZUESK4LKS9TSHL1","","<img src=""img/set1/S3.jpg"" width=""540"" height = ""360"" style=""border:16px solid orange"">","null","","","","","","","","","",""
"null","","html-keyboard-response","72","86814","0.0-72.0","3A0EX8ZRN9A9V9G643CG11FCUUHBYF","A3LL096CAY5WHB","388CL5C1RJ9X03EZUESK4LKS9TSHL1","","","null","","","","","","","","","",""
"577.2999999523163","","image-keyboard-response","73","87392","0.0-73.0","3A0EX8ZRN9A9V9G643CG11FCUUHBYF","A3LL096CAY5WHB","388CL5C1RJ9X03EZUESK4LKS9TSHL1","","img/set1/S1.jpg","83","1","structured_normal","83","structured_normal,structured_incentive,structured_load,random","2,3,2,1,3,4","2,3,4,1","true","","",""
"null","","html-keyboard-response","74","87747","0.0-74.0","3A0EX8ZRN9A9V9G643CG11FCUUHBYF","A3LL096CAY5WHB","388CL5C1RJ9X03EZUESK4LKS9TSHL1","","<img src=""img/set1/S1.jpg"" width=""540"" height = ""360"" style=""border:16px solid orange"">","null","","","","","","","","","",""
"null","","html-keyboard-response","75","87949","0.0-75.0","3A0EX8ZRN9A9V9G643CG11FCUUHBYF","A3LL096CAY5WHB","388CL5C1RJ9X03EZUESK4LKS9TSHL1","","","null","","","","","","","","","",""
"503.19999998807907","","image-keyboard-response","76","88453","0.0-76.0","3A0EX8ZRN9A9V9G643CG11FCUUHBYF","A3LL096CAY5WHB","388CL5C1RJ9X03EZUESK4LKS9TSHL1","","img/set1/S4.jpg","74","4","structured_normal","74","structured_normal,structured_incentive,structured_load,random","2,3,2,1,3,4","2,3,4,1","true","","",""
"null","","html-keyboard-response","77","88804","0.0-77.0","3A0EX8ZRN9A9V9G643CG11FCUUHBYF","A3LL096CAY5WHB","388CL5C1RJ9X03EZUESK4LKS9TSHL1","","<img src=""img/set1/S4.jpg"" width=""540"" height = ""360"" style=""border:16px solid orange"">","null","","","","","","","","","",""
"null","","html-keyboard-response","78","89006","0.0-78.0","3A0EX8ZRN9A9V9G643CG11FCUUHBYF","A3LL096CAY5WHB","388CL5C1RJ9X03EZUESK4LKS9TSHL1","","","null","","","","","","","","","",""
"1038","","image-keyboard-response","79","90045","0.0-79.0","3A0EX8ZRN9A9V9G643CG11FCUUHBYF","A3LL096CAY5WHB","388CL5C1RJ9X03EZUESK4LKS9TSHL1","","img/set1/S1.jpg","72","1","structured_normal","83","structured_normal,structured_incentive,structured_load,random","2,3,2,1,3,4","2,3,4,1","false","","",""
"null","","html-keyboard-response","80","90405","0.0-80.0","3A0EX8ZRN9A9V9G643CG11FCUUHBYF","A3LL096CAY5WHB","388CL5C1RJ9X03EZUESK4LKS9TSHL1","","<img src=""img/set1/S1.jpg"" width=""540"" height = ""360"">","null","","","","","","","","","",""
"null","","html-keyboard-response","81","90608","0.0-81.0","3A0EX8ZRN9A9V9G643CG11FCUUHBYF","A3LL096CAY5WHB","388CL5C1RJ9X03EZUESK4LKS9TSHL1","","","null","","","","","","","","","",""
"336.19999998807907","","image-keyboard-response","82","90945","0.0-82.0","3A0EX8ZRN9A9V9G643CG11FCUUHBYF","A3LL096CAY5WHB","388CL5C1RJ9X03EZUESK4LKS9TSHL1","","img/set1/S1.jpg","68","1","structured_normal","83","structured_normal,structured_incentive,structured_load,random","2,3,2,1,3,4","2,3,4,1","false","","",""
"null","","html-keyboard-response","83","91309","0.0-83.0","3A0EX8ZRN9A9V9G643CG11FCUUHBYF","A3LL096CAY5WHB","388CL5C1RJ9X03EZUESK4LKS9TSHL1","","<img src=""img/set1/S1.jpg"" width=""540"" height = ""360"">","null","","","","","","","","","",""
"null","","html-keyboard-response","84","91511","0.0-84.0","3A0EX8ZRN9A9V9G643CG11FCUUHBYF","A3LL096CAY5WHB","388CL5C1RJ9X03EZUESK4LKS9TSHL1","","","null","","","","","","","","","",""
"542.1000000238419","","image-keyboard-response","85","92054","0.0-85.0","3A0EX8ZRN9A9V9G643CG11FCUUHBYF","A3LL096CAY5WHB","388CL5C1RJ9X03EZUESK4LKS9TSHL1","","img/set1/S4.jpg","74","4","structured_normal","74","structured_normal,structured_incentive,structured_load,random","2,3,2,1,3,4","2,3,4,1","true","","",""
"null","","html-keyboard-response","86","92415","0.0-86.0","3A0EX8ZRN9A9V9G643CG11FCUUHBYF","A3LL096CAY5WHB","388CL5C1RJ9X03EZUESK4LKS9TSHL1","","<img src=""img/set1/S4.jpg"" width=""540"" height = ""360"" style=""border:16px solid orange"">","null","","","","","","","","","",""
"null","","html-keyboard-response","87","92619","0.0-87.0","3A0EX8ZRN9A9V9G643CG11FCUUHBYF","A3LL096CAY5WHB","388CL5C1RJ9X03EZUESK4LKS9TSHL1","","","null","","","","","","","","","",""
"704.8000000119209","","image-keyboard-response","88","93325","0.0-88.0","3A0EX8ZRN9A9V9G643CG11FCUUHBYF","A3LL096CAY5WHB","388CL5C1RJ9X03EZUESK4LKS9TSHL1","","img/set1/S2.jpg","68","2","structured_normal","68","structured_normal,structured_incentive,structured_load,random","2,3,2,1,3,4","2,3,4,1","true","","",""
"null","","html-keyboard-response","89","93676","0.0-89.0","3A0EX8ZRN9A9V9G643CG11FCUUHBYF","A3LL096CAY5WHB","388CL5C1RJ9X03EZUESK4LKS9TSHL1","","<img src=""img/set1/S2.jpg"" width=""540"" height = ""360"" style=""border:16px solid orange"">","null","","","","","","","","","",""
"null","","html-keyboard-response","90","93880","0.0-90.0","3A0EX8ZRN9A9V9G643CG11FCUUHBYF","A3LL096CAY5WHB","388CL5C1RJ9X03EZUESK4LKS9TSHL1","","","null","","","","","","","","","",""
"616.1999999880791","","image-keyboard-response","91","94497","0.0-91.0","3A0EX8ZRN9A9V9G643CG11FCUUHBYF","A3LL096CAY5WHB","388CL5C1RJ9X03EZUESK4LKS9TSHL1","","img/set1/S3.jpg","72","3","structured_normal","72","structured_normal,structured_incentive,structured_load,random","2,3,2,1,3,4","2,3,4,1","true","","",""
"null","","html-keyboard-response","92","94860","0.0-92.0","3A0EX8ZRN9A9V9G643CG11FCUUHBYF","A3LL096CAY5WHB","388CL5C1RJ9X03EZUESK4LKS9TSHL1","","<img src=""img/set1/S3.jpg"" width=""540"" height = ""360"" style=""border:16px solid orange"">","null","","","","","","","","","",""
"null","","html-keyboard-response","93","95064","0.0-93.0","3A0EX8ZRN9A9V9G643CG11FCUUHBYF","A3LL096CAY5WHB","388CL5C1RJ9X03EZUESK4LKS9TSHL1","","","null","","","","","","","","","",""
"654.4000000357628","","image-keyboard-response","94","95719","0.0-94.0","3A0EX8ZRN9A9V9G643CG11FCUUHBYF","A3LL096CAY5WHB","388CL5C1RJ9X03EZUESK4LKS9TSHL1","","img/set1/S1.jpg","83","1","structured_normal","83","structured_normal,structured_incentive,structured_load,random","2,3,2,1,3,4","2,3,4,1","true","","",""
"null","","html-keyboard-response","95","96077","0.0-95.0","3A0EX8ZRN9A9V9G643CG11FCUUHBYF","A3LL096CAY5WHB","388CL5C1RJ9X03EZUESK4LKS9TSHL1","","<img src=""img/set1/S1.jpg"" width=""540"" height = ""360"" style=""border:16px solid orange"">","null","","","","","","","","","",""
"null","","html-keyboard-response","96","96279","0.0-96.0","3A0EX8ZRN9A9V9G643CG11FCUUHBYF","A3LL096CAY5WHB","388CL5C1RJ9X03EZUESK4LKS9TSHL1","","","null","","","","","","","","","",""
"644.8999999761581","","image-keyboard-response","97","96925","0.0-97.0","3A0EX8ZRN9A9V9G643CG11FCUUHBYF","A3LL096CAY5WHB","388CL5C1RJ9X03EZUESK4LKS9TSHL1","","img/set1/S1.jpg","83","1","structured_normal","83","structured_normal,structured_incentive,structured_load,random","2,3,2,1,3,4","2,3,4,1","true","","",""
"null","","html-keyboard-response","98","97289","0.0-98.0","3A0EX8ZRN9A9V9G643CG11FCUUHBYF","A3LL096CAY5WHB","388CL5C1RJ9X03EZUESK4LKS9TSHL1","","<img src=""img/set1/S1.jpg"" width=""540"" height = ""360"" style=""border:16px solid orange"">","null","","","","","","","","","",""
"null","","html-keyboard-response","99","97493","0.0-99.0","3A0EX8ZRN9A9V9G643CG11FCUUHBYF","A3LL096CAY5WHB","388CL5C1RJ9X03EZUESK4LKS9TSHL1","","","null","","","","","","","","","",""
"701.1999999880791","","image-keyboard-response","100","98195","0.0-100.0","3A0EX8ZRN9A9V9G643CG11FCUUHBYF","A3LL096CAY5WHB","388CL5C1RJ9X03EZUESK4LKS9TSHL1","","img/set1/S4.jpg","74","4","structured_normal","74","structured_normal,structured_incentive,structured_load,random","2,3,2,1,3,4","2,3,4,1","true","","",""
"null","","html-keyboard-response","101","98549","0.0-101.0","3A0EX8ZRN9A9V9G643CG11FCUUHBYF","A3LL096CAY5WHB","388CL5C1RJ9X03EZUESK4LKS9TSHL1","","<img src=""img/set1/S4.jpg"" width=""540"" height = ""360"" style=""border:16px solid orange"">","null","","","","","","","","","",""
"null","","html-keyboard-response","102","98765","0.0-102.0","3A0EX8ZRN9A9V9G643CG11FCUUHBYF","A3LL096CAY5WHB","388CL5C1RJ9X03EZUESK4LKS9TSHL1","","","null","","","","","","","","","",""
"586","","image-keyboard-response","103","99352","0.0-103.0","3A0EX8ZRN9A9V9G643CG11FCUUHBYF","A3LL096CAY5WHB","388CL5C1RJ9X03EZUESK4LKS9TSHL1","","img/set1/S4.jpg","74","4","structured_normal","74","structured_normal,structured_incentive,structured_load,random","2,3,2,1,3,4","2,3,4,1","true","","",""
"null","","html-keyboard-response","104","99708","0.0-104.0","3A0EX8ZRN9A9V9G643CG11FCUUHBYF","A3LL096CAY5WHB","388CL5C1RJ9X03EZUESK4LKS9TSHL1","","<img src=""img/set1/S4.jpg"" width=""540"" height = ""360"" style=""border:16px solid orange"">","null","","","","","","","","","",""
"null","","html-keyboard-response","105","99912","0.0-105.0","3A0EX8ZRN9A9V9G643CG11FCUUHBYF","A3LL096CAY5WHB","388CL5C1RJ9X03EZUESK4LKS9TSHL1","","","null","","","","","","","","","",""
"405.30000001192093","","image-keyboard-response","106","100318","0.0-106.0","3A0EX8ZRN9A9V9G643CG11FCUUHBYF","A3LL096CAY5WHB","388CL5C1RJ9X03EZUESK4LKS9TSHL1","","img/set1/S4.jpg","74","4","structured_normal","74","structured_normal,structured_incentive,structured_load,random","2,3,2,1,3,4","2,3,4,1","true","","",""
"null","","html-keyboard-response","107","100671","0.0-107.0","3A0EX8ZRN9A9V9G643CG11FCUUHBYF","A3LL096CAY5WHB","388CL5C1RJ9X03EZUESK4LKS9TSHL1","","<img src=""img/set1/S4.jpg"" width=""540"" height = ""360"" style=""border:16px solid orange"">","null","","","","","","","","","",""
"null","","html-keyboard-response","108","100875","0.0-108.0","3A0EX8ZRN9A9V9G643CG11FCUUHBYF","A3LL096CAY5WHB","388CL5C1RJ9X03EZUESK4LKS9TSHL1","","","null","","","","","","","","","",""
"470.19999998807907","","image-keyboard-response","109","101345","0.0-109.0","3A0EX8ZRN9A9V9G643CG11FCUUHBYF","A3LL096CAY5WHB","388CL5C1RJ9X03EZUESK4LKS9TSHL1","","img/set1/S4.jpg","74","4","structured_normal","74","structured_normal,structured_incentive,structured_load,random","2,3,2,1,3,4","2,3,4,1","true","","",""
"null","","html-keyboard-response","110","101699","0.0-110.0","3A0EX8ZRN9A9V9G643CG11FCUUHBYF","A3LL096CAY5WHB","388CL5C1RJ9X03EZUESK4LKS9TSHL1","","<img src=""img/set1/S4.jpg"" width=""540"" height = ""360"" style=""border:16px solid orange"">","null","","","","","","","","","",""
"null","","html-keyboard-response","111","101902","0.0-111.0","3A0EX8ZRN9A9V9G643CG11FCUUHBYF","A3LL096CAY5WHB","388CL5C1RJ9X03EZUESK4LKS9TSHL1","","","null","","","","","","","","","",""
"744.3000000119209","","image-keyboard-response","112","102647","0.0-112.0","3A0EX8ZRN9A9V9G643CG11FCUUHBYF","A3LL096CAY5WHB","388CL5C1RJ9X03EZUESK4LKS9TSHL1","","img/set1/S1.jpg","83","1","structured_normal","83","structured_normal,structured_incentive,structured_load,random","2,3,2,1,3,4","2,3,4,1","true","","",""
"null","","html-keyboard-response","113","103006","0.0-113.0","3A0EX8ZRN9A9V9G643CG11FCUUHBYF","A3LL096CAY5WHB","388CL5C1RJ9X03EZUESK4LKS9TSHL1","","<img src=""img/set1/S1.jpg"" width=""540"" height = ""360"" style=""border:16px solid orange"">","null","","","","","","","","","",""
"null","","html-keyboard-response","114","103207","0.0-114.0","3A0EX8ZRN9A9V9G643CG11FCUUHBYF","A3LL096CAY5WHB","388CL5C1RJ9X03EZUESK4LKS9TSHL1","","","null","","","","","","","","","",""
"614","","image-keyboard-response","115","103822","0.0-115.0","3A0EX8ZRN9A9V9G643CG11FCUUHBYF","A3LL096CAY5WHB","388CL5C1RJ9X03EZUESK4LKS9TSHL1","","img/set1/S1.jpg","83","1","structured_normal","83","structured_normal,structured_incentive,structured_load,random","2,3,2,1,3,4","2,3,4,1","true","","",""
"null","","html-keyboard-response","116","104184","0.0-116.0","3A0EX8ZRN9A9V9G643CG11FCUUHBYF","A3LL096CAY5WHB","388CL5C1RJ9X03EZUESK4LKS9TSHL1","","<img src=""img/set1/S1.jpg"" width=""540"" height = ""360"" style=""border:16px solid orange"">","null","","","","","","","","","",""
"null","","html-keyboard-response","117","104400","0.0-117.0","3A0EX8ZRN9A9V9G643CG11FCUUHBYF","A3LL096CAY5WHB","388CL5C1RJ9X03EZUESK4LKS9TSHL1","","","null","","","","","","","","","",""
"529.5","","image-keyboard-response","118","104930","0.0-118.0","3A0EX8ZRN9A9V9G643CG11FCUUHBYF","A3LL096CAY5WHB","388CL5C1RJ9X03EZUESK4LKS9TSHL1","","img/set1/S4.jpg","74","4","structured_normal","74","structured_normal,structured_incentive,structured_load,random","2,3,2,1,3,4","2,3,4,1","true","","",""
"null","","html-keyboard-response","119","105286","0.0-119.0","3A0EX8ZRN9A9V9G643CG11FCUUHBYF","A3LL096CAY5WHB","388CL5C1RJ9X03EZUESK4LKS9TSHL1","","<img src=""img/set1/S4.jpg"" width=""540"" height = ""360"" style=""border:16px solid orange"">","null","","","","","","","","","",""
"null","","html-keyboard-response","120","105492","0.0-120.0","3A0EX8ZRN9A9V9G643CG11FCUUHBYF","A3LL096CAY5WHB","388CL5C1RJ9X03EZUESK4LKS9TSHL1","","","null","","","","","","","","","",""
"642.6000000238419","","image-keyboard-response","121","106135","0.0-121.0","3A0EX8ZRN9A9V9G643CG11FCUUHBYF","A3LL096CAY5WHB","388CL5C1RJ9X03EZUESK4LKS9TSHL1","","img/set1/S1.jpg","83","1","structured_normal","83","structured_normal,structured_incentive,structured_load,random","2,3,2,1,3,4","2,3,4,1","true","","",""
"null","","html-keyboard-response","122","106501","0.0-122.0","3A0EX8ZRN9A9V9G643CG11FCUUHBYF","A3LL096CAY5WHB","388CL5C1RJ9X03EZUESK4LKS9TSHL1","","<img src=""img/set1/S1.jpg"" width=""540"" height = ""360"" style=""border:16px solid orange"">","null","","","","","","","","","",""
"null","","html-keyboard-response","123","106704","0.0-123.0","3A0EX8ZRN9A9V9G643CG11FCUUHBYF","A3LL096CAY5WHB","388CL5C1RJ9X03EZUESK4LKS9TSHL1","","","null","","","","","","","","","",""
"394.9000000357628","","image-keyboard-response","124","107100","0.0-124.0","3A0EX8ZRN9A9V9G643CG11FCUUHBYF","A3LL096CAY5WHB","388CL5C1RJ9X03EZUESK4LKS9TSHL1","","img/set1/S1.jpg","83","1","structured_normal","83","structured_normal,structured_incentive,structured_load,random","2,3,2,1,3,4","2,3,4,1","true","","",""
"null","","html-keyboard-response","125","107465","0.0-125.0","3A0EX8ZRN9A9V9G643CG11FCUUHBYF","A3LL096CAY5WHB","388CL5C1RJ9X03EZUESK4LKS9TSHL1","","<img src=""img/set1/S1.jpg"" width=""540"" height = ""360"" style=""border:16px solid orange"">","null","","","","","","","","","",""
"null","","html-keyboard-response","126","107681","0.0-126.0","3A0EX8ZRN9A9V9G643CG11FCUUHBYF","A3LL096CAY5WHB","388CL5C1RJ9X03EZUESK4LKS9TSHL1","","","null","","","","","","","","","",""
"686.8000000119209","","image-keyboard-response","127","108369","0.0-127.0","3A0EX8ZRN9A9V9G643CG11FCUUHBYF","A3LL096CAY5WHB","388CL5C1RJ9X03EZUESK4LKS9TSHL1","","img/set1/S4.jpg","74","4","structured_normal","74","structured_normal,structured_incentive,structured_load,random","2,3,2,1,3,4","2,3,4,1","true","","",""
"null","","html-keyboard-response","128","108727","0.0-128.0","3A0EX8ZRN9A9V9G643CG11FCUUHBYF","A3LL096CAY5WHB","388CL5C1RJ9X03EZUESK4LKS9TSHL1","","<img src=""img/set1/S4.jpg"" width=""540"" height = ""360"" style=""border:16px solid orange"">","null","","","","","","","","","",""
"null","","html-keyboard-response","129","108929","0.0-129.0","3A0EX8ZRN9A9V9G643CG11FCUUHBYF","A3LL096CAY5WHB","388CL5C1RJ9X03EZUESK4LKS9TSHL1","","","null","","","","","","","","","",""
"837.5","","image-keyboard-response","130","109768","0.0-130.0","3A0EX8ZRN9A9V9G643CG11FCUUHBYF","A3LL096CAY5WHB","388CL5C1RJ9X03EZUESK4LKS9TSHL1","","img/set1/S2.jpg","68","2","structured_normal","68","structured_normal,structured_incentive,structured_load,random","2,3,2,1,3,4","2,3,4,1","true","","",""
"null","","html-keyboard-response","131","110129","0.0-131.0","3A0EX8ZRN9A9V9G643CG11FCUUHBYF","A3LL096CAY5WHB","388CL5C1RJ9X03EZUESK4LKS9TSHL1","","<img src=""img/set1/S2.jpg"" width=""540"" height = ""360"" style=""border:16px solid orange"">","null","","","","","","","","","",""
"null","","html-keyboard-response","132","110331","0.0-132.0","3A0EX8ZRN9A9V9G643CG11FCUUHBYF","A3LL096CAY5WHB","388CL5C1RJ9X03EZUESK4LKS9TSHL1","","","null","","","","","","","","","",""
"399.89999997615814","","image-keyboard-response","133","110732","0.0-133.0","3A0EX8ZRN9A9V9G643CG11FCUUHBYF","A3LL096CAY5WHB","388CL5C1RJ9X03EZUESK4LKS9TSHL1","","img/set1/S3.jpg","72","3","structured_normal","72","structured_normal,structured_incentive,structured_load,random","2,3,2,1,3,4","2,3,4,1","true","","",""
"null","","html-keyboard-response","134","111094","0.0-134.0","3A0EX8ZRN9A9V9G643CG11FCUUHBYF","A3LL096CAY5WHB","388CL5C1RJ9X03EZUESK4LKS9TSHL1","","<img src=""img/set1/S3.jpg"" width=""540"" height = ""360"" style=""border:16px solid orange"">","null","","","","","","","","","",""
"null","","html-keyboard-response","135","111299","0.0-135.0","3A0EX8ZRN9A9V9G643CG11FCUUHBYF","A3LL096CAY5WHB","388CL5C1RJ9X03EZUESK4LKS9TSHL1","","","null","","","","","","","","","",""
"782.9000000357628","","image-keyboard-response","136","112083","0.0-136.0","3A0EX8ZRN9A9V9G643CG11FCUUHBYF","A3LL096CAY5WHB","388CL5C1RJ9X03EZUESK4LKS9TSHL1","","img/set1/S2.jpg","68","2","structured_normal","68","structured_normal,structured_incentive,structured_load,random","2,3,2,1,3,4","2,3,4,1","true","","",""
"null","","html-keyboard-response","137","112448","0.0-137.0","3A0EX8ZRN9A9V9G643CG11FCUUHBYF","A3LL096CAY5WHB","388CL5C1RJ9X03EZUESK4LKS9TSHL1","","<img src=""img/set1/S2.jpg"" width=""540"" height = ""360"" style=""border:16px solid orange"">","null","","","","","","","","","",""
"null","","html-keyboard-response","138","112665","0.0-138.0","3A0EX8ZRN9A9V9G643CG11FCUUHBYF","A3LL096CAY5WHB","388CL5C1RJ9X03EZUESK4LKS9TSHL1","","","null","","","","","","","","","",""
"445.19999998807907","","image-keyboard-response","139","113111","0.0-139.0","3A0EX8ZRN9A9V9G643CG11FCUUHBYF","A3LL096CAY5WHB","388CL5C1RJ9X03EZUESK4LKS9TSHL1","","img/set1/S3.jpg","72","3","structured_normal","72","structured_normal,structured_incentive,structured_load,random","2,3,2,1,3,4","2,3,4,1","true","","",""
"null","","html-keyboard-response","140","113473","0.0-140.0","3A0EX8ZRN9A9V9G643CG11FCUUHBYF","A3LL096CAY5WHB","388CL5C1RJ9X03EZUESK4LKS9TSHL1","","<img src=""img/set1/S3.jpg"" width=""540"" height = ""360"" style=""border:16px solid orange"">","null","","","","","","","","","",""
"null","","html-keyboard-response","141","113674","0.0-141.0","3A0EX8ZRN9A9V9G643CG11FCUUHBYF","A3LL096CAY5WHB","388CL5C1RJ9X03EZUESK4LKS9TSHL1","","","null","","","","","","","","","",""
"465.7999999523163","","image-keyboard-response","142","114140","0.0-142.0","3A0EX8ZRN9A9V9G643CG11FCUUHBYF","A3LL096CAY5WHB","388CL5C1RJ9X03EZUESK4LKS9TSHL1","","img/set1/S4.jpg","74","4","structured_normal","74","structured_normal,structured_incentive,structured_load,random","2,3,2,1,3,4","2,3,4,1","true","","",""
"null","","html-keyboard-response","143","114499","0.0-143.0","3A0EX8ZRN9A9V9G643CG11FCUUHBYF","A3LL096CAY5WHB","388CL5C1RJ9X03EZUESK4LKS9TSHL1","","<img src=""img/set1/S4.jpg"" width=""540"" height = ""360"" style=""border:16px solid orange"">","null","","","","","","","","","",""
"null","","html-keyboard-response","144","114701","0.0-144.0","3A0EX8ZRN9A9V9G643CG11FCUUHBYF","A3LL096CAY5WHB","388CL5C1RJ9X03EZUESK4LKS9TSHL1","","","null","","","","","","","","","",""
"322","","image-keyboard-response","145","115024","0.0-145.0","3A0EX8ZRN9A9V9G643CG11FCUUHBYF","A3LL096CAY5WHB","388CL5C1RJ9X03EZUESK4LKS9TSHL1","","img/set1/S4.jpg","74","4","structured_normal","74","structured_normal,structured_incentive,structured_load,random","2,3,2,1,3,4","2,3,4,1","true","","",""
"null","","html-keyboard-response","146","115384","0.0-146.0","3A0EX8ZRN9A9V9G643CG11FCUUHBYF","A3LL096CAY5WHB","388CL5C1RJ9X03EZUESK4LKS9TSHL1","","<img src=""img/set1/S4.jpg"" width=""540"" height = ""360"" style=""border:16px solid orange"">","null","","","","","","","","","",""
"null","","html-keyboard-response","147","115600","0.0-147.0","3A0EX8ZRN9A9V9G643CG11FCUUHBYF","A3LL096CAY5WHB","388CL5C1RJ9X03EZUESK4LKS9TSHL1","","","null","","","","","","","","","",""
"628.5999999642372","","image-keyboard-response","148","116230","0.0-148.0","3A0EX8ZRN9A9V9G643CG11FCUUHBYF","A3LL096CAY5WHB","388CL5C1RJ9X03EZUESK4LKS9TSHL1","","img/set1/S2.jpg","68","2","structured_normal","68","structured_normal,structured_incentive,structured_load,random","2,3,2,1,3,4","2,3,4,1","true","","",""
"null","","html-keyboard-response","149","116595","0.0-149.0","3A0EX8ZRN9A9V9G643CG11FCUUHBYF","A3LL096CAY5WHB","388CL5C1RJ9X03EZUESK4LKS9TSHL1","","<img src=""img/set1/S2.jpg"" width=""540"" height = ""360"" style=""border:16px solid orange"">","null","","","","","","","","","",""
"null","","html-keyboard-response","150","116797","0.0-150.0","3A0EX8ZRN9A9V9G643CG11FCUUHBYF","A3LL096CAY5WHB","388CL5C1RJ9X03EZUESK4LKS9TSHL1","","","null","","","","","","","","","",""
"460.4000000357628","","image-keyboard-response","151","117259","0.0-151.0","3A0EX8ZRN9A9V9G643CG11FCUUHBYF","A3LL096CAY5WHB","388CL5C1RJ9X03EZUESK4LKS9TSHL1","","img/set1/S3.jpg","72","3","structured_normal","72","structured_normal,structured_incentive,structured_load,random","2,3,2,1,3,4","2,3,4,1","true","","",""
"null","","html-keyboard-response","152","117622","0.0-152.0","3A0EX8ZRN9A9V9G643CG11FCUUHBYF","A3LL096CAY5WHB","388CL5C1RJ9X03EZUESK4LKS9TSHL1","","<img src=""img/set1/S3.jpg"" width=""540"" height = ""360"" style=""border:16px solid orange"">","null","","","","","","","","","",""
"null","","html-keyboard-response","153","117823","0.0-153.0","3A0EX8ZRN9A9V9G643CG11FCUUHBYF","A3LL096CAY5WHB","388CL5C1RJ9X03EZUESK4LKS9TSHL1","","","null","","","","","","","","","",""
"479.30000001192093","","image-keyboard-response","154","118303","0.0-154.0","3A0EX8ZRN9A9V9G643CG11FCUUHBYF","A3LL096CAY5WHB","388CL5C1RJ9X03EZUESK4LKS9TSHL1","","img/set1/S2.jpg","68","2","structured_normal","68","structured_normal,structured_incentive,structured_load,random","2,3,2,1,3,4","2,3,4,1","true","","",""
"null","","html-keyboard-response","155","118658","0.0-155.0","3A0EX8ZRN9A9V9G643CG11FCUUHBYF","A3LL096CAY5WHB","388CL5C1RJ9X03EZUESK4LKS9TSHL1","","<img src=""img/set1/S2.jpg"" width=""540"" height = ""360"" style=""border:16px solid orange"">","null","","","","","","","","","",""
"null","","html-keyboard-response","156","118862","0.0-156.0","3A0EX8ZRN9A9V9G643CG11FCUUHBYF","A3LL096CAY5WHB","388CL5C1RJ9X03EZUESK4LKS9TSHL1","","","null","","","","","","","","","",""
"469.10000002384186","","image-keyboard-response","157","119332","0.0-157.0","3A0EX8ZRN9A9V9G643CG11FCUUHBYF","A3LL096CAY5WHB","388CL5C1RJ9X03EZUESK4LKS9TSHL1","","img/set1/S3.jpg","72","3","structured_normal","72","structured_normal,structured_incentive,structured_load,random","2,3,2,1,3,4","2,3,4,1","true","","",""
"null","","html-keyboard-response","158","119684","0.0-158.0","3A0EX8ZRN9A9V9G643CG11FCUUHBYF","A3LL096CAY5WHB","388CL5C1RJ9X03EZUESK4LKS9TSHL1","","<img src=""img/set1/S3.jpg"" width=""540"" height = ""360"" style=""border:16px solid orange"">","null","","","","","","","","","",""
"null","","html-keyboard-response","159","119887","0.0-159.0","3A0EX8ZRN9A9V9G643CG11FCUUHBYF","A3LL096CAY5WHB","388CL5C1RJ9X03EZUESK4LKS9TSHL1","","","null","","","","","","","","","",""
"1066.3999999761581","","image-keyboard-response","160","120955","0.0-160.0","3A0EX8ZRN9A9V9G643CG11FCUUHBYF","A3LL096CAY5WHB","388CL5C1RJ9X03EZUESK4LKS9TSHL1","","img/set1/S1.jpg","83","1","structured_normal","83","structured_normal,structured_incentive,structured_load,random","2,3,2,1,3,4","2,3,4,1","true","","",""
"null","","html-keyboard-response","161","121315","0.0-161.0","3A0EX8ZRN9A9V9G643CG11FCUUHBYF","A3LL096CAY5WHB","388CL5C1RJ9X03EZUESK4LKS9TSHL1","","<img src=""img/set1/S1.jpg"" width=""540"" height = ""360"" style=""border:16px solid orange"">","null","","","","","","","","","",""
"null","","html-keyboard-response","162","121516","0.0-162.0","3A0EX8ZRN9A9V9G643CG11FCUUHBYF","A3LL096CAY5WHB","388CL5C1RJ9X03EZUESK4LKS9TSHL1","","","null","","","","","","","","","",""
"498.5","","image-keyboard-response","163","122016","0.0-163.0","3A0EX8ZRN9A9V9G643CG11FCUUHBYF","A3LL096CAY5WHB","388CL5C1RJ9X03EZUESK4LKS9TSHL1","","img/set1/S1.jpg","83","1","structured_normal","83","structured_normal,structured_incentive,structured_load,random","2,3,2,1,3,4","2,3,4,1","true","","",""
"null","","html-keyboard-response","164","122376","0.0-164.0","3A0EX8ZRN9A9V9G643CG11FCUUHBYF","A3LL096CAY5WHB","388CL5C1RJ9X03EZUESK4LKS9TSHL1","","<img src=""img/set1/S1.jpg"" width=""540"" height = ""360"" style=""border:16px solid orange"">","null","","","","","","","","","",""
"null","","html-keyboard-response","165","122579","0.0-165.0","3A0EX8ZRN9A9V9G643CG11FCUUHBYF","A3LL096CAY5WHB","388CL5C1RJ9X03EZUESK4LKS9TSHL1","","","null","","","","","","","","","",""
"657.8000000119209","","image-keyboard-response","166","123238","0.0-166.0","3A0EX8ZRN9A9V9G643CG11FCUUHBYF","A3LL096CAY5WHB","388CL5C1RJ9X03EZUESK4LKS9TSHL1","","img/set1/S4.jpg","72","4","structured_normal","74","structured_normal,structured_incentive,structured_load,random","2,3,2,1,3,4","2,3,4,1","false","","",""
"null","","html-keyboard-response","167","123592","0.0-167.0","3A0EX8ZRN9A9V9G643CG11FCUUHBYF","A3LL096CAY5WHB","388CL5C1RJ9X03EZUESK4LKS9TSHL1","","<img src=""img/set1/S4.jpg"" width=""540"" height = ""360"">","null","","","","","","","","","",""
"null","","html-keyboard-response","168","123795","0.0-168.0","3A0EX8ZRN9A9V9G643CG11FCUUHBYF","A3LL096CAY5WHB","388CL5C1RJ9X03EZUESK4LKS9TSHL1","","","null","","","","","","","","","",""
"713","","image-keyboard-response","169","124508","0.0-169.0","3A0EX8ZRN9A9V9G643CG11FCUUHBYF","A3LL096CAY5WHB","388CL5C1RJ9X03EZUESK4LKS9TSHL1","","img/set1/S2.jpg","68","2","structured_normal","68","structured_normal,structured_incentive,structured_load,random","2,3,2,1,3,4","2,3,4,1","true","","",""
"null","","html-keyboard-response","170","124865","0.0-170.0","3A0EX8ZRN9A9V9G643CG11FCUUHBYF","A3LL096CAY5WHB","388CL5C1RJ9X03EZUESK4LKS9TSHL1","","<img src=""img/set1/S2.jpg"" width=""540"" height = ""360"" style=""border:16px solid orange"">","null","","","","","","","","","",""
"null","","html-keyboard-response","171","125067","0.0-171.0","3A0EX8ZRN9A9V9G643CG11FCUUHBYF","A3LL096CAY5WHB","388CL5C1RJ9X03EZUESK4LKS9TSHL1","","","null","","","","","","","","","",""
"404.9000000357628","","image-keyboard-response","172","125472","0.0-172.0","3A0EX8ZRN9A9V9G643CG11FCUUHBYF","A3LL096CAY5WHB","388CL5C1RJ9X03EZUESK4LKS9TSHL1","","img/set1/S3.jpg","72","3","structured_normal","72","structured_normal,structured_incentive,structured_load,random","2,3,2,1,3,4","2,3,4,1","true","","",""
"null","","html-keyboard-response","173","125827","0.0-173.0","3A0EX8ZRN9A9V9G643CG11FCUUHBYF","A3LL096CAY5WHB","388CL5C1RJ9X03EZUESK4LKS9TSHL1","","<img src=""img/set1/S3.jpg"" width=""540"" height = ""360"" style=""border:16px solid orange"">","null","","","","","","","","","",""
"null","","html-keyboard-response","174","126029","0.0-174.0","3A0EX8ZRN9A9V9G643CG11FCUUHBYF","A3LL096CAY5WHB","388CL5C1RJ9X03EZUESK4LKS9TSHL1","","","null","","","","","","","","","",""
"697.2000000476837","","image-keyboard-response","175","126727","0.0-175.0","3A0EX8ZRN9A9V9G643CG11FCUUHBYF","A3LL096CAY5WHB","388CL5C1RJ9X03EZUESK4LKS9TSHL1","","img/set1/S1.jpg","83","1","structured_normal","83","structured_normal,structured_incentive,structured_load,random","2,3,2,1,3,4","2,3,4,1","true","","",""
"null","","html-keyboard-response","176","127079","0.0-176.0","3A0EX8ZRN9A9V9G643CG11FCUUHBYF","A3LL096CAY5WHB","388CL5C1RJ9X03EZUESK4LKS9TSHL1","","<img src=""img/set1/S1.jpg"" width=""540"" height = ""360"" style=""border:16px solid orange"">","null","","","","","","","","","",""
"null","","html-keyboard-response","177","127281","0.0-177.0","3A0EX8ZRN9A9V9G643CG11FCUUHBYF","A3LL096CAY5WHB","388CL5C1RJ9X03EZUESK4LKS9TSHL1","","","null","","","","","","","","","",""
"554","","image-keyboard-response","178","127836","0.0-178.0","3A0EX8ZRN9A9V9G643CG11FCUUHBYF","A3LL096CAY5WHB","388CL5C1RJ9X03EZUESK4LKS9TSHL1","","img/set1/S4.jpg","74","4","structured_normal","74","structured_normal,structured_incentive,structured_load,random","2,3,2,1,3,4","2,3,4,1","true","","",""
"null","","html-keyboard-response","179","128198","0.0-179.0","3A0EX8ZRN9A9V9G643CG11FCUUHBYF","A3LL096CAY5WHB","388CL5C1RJ9X03EZUESK4LKS9TSHL1","","<img src=""img/set1/S4.jpg"" width=""540"" height = ""360"" style=""border:16px solid orange"">","null","","","","","","","","","",""
"null","","html-keyboard-response","180","128399","0.0-180.0","3A0EX8ZRN9A9V9G643CG11FCUUHBYF","A3LL096CAY5WHB","388CL5C1RJ9X03EZUESK4LKS9TSHL1","","","null","","","","","","","","","",""
"496.7999999523163","","image-keyboard-response","181","128897","0.0-181.0","3A0EX8ZRN9A9V9G643CG11FCUUHBYF","A3LL096CAY5WHB","388CL5C1RJ9X03EZUESK4LKS9TSHL1","","img/set1/S1.jpg","83","1","structured_normal","83","structured_normal,structured_incentive,structured_load,random","2,3,2,1,3,4","2,3,4,1","true","","",""
"null","","html-keyboard-response","182","129251","0.0-182.0","3A0EX8ZRN9A9V9G643CG11FCUUHBYF","A3LL096CAY5WHB","388CL5C1RJ9X03EZUESK4LKS9TSHL1","","<img src=""img/set1/S1.jpg"" width=""540"" height = ""360"" style=""border:16px solid orange"">","null","","","","","","","","","",""
"null","","html-keyboard-response","183","129454","0.0-183.0","3A0EX8ZRN9A9V9G643CG11FCUUHBYF","A3LL096CAY5WHB","388CL5C1RJ9X03EZUESK4LKS9TSHL1","","","null","","","","","","","","","",""
"437.39999997615814","","image-keyboard-response","184","129892","0.0-184.0","3A0EX8ZRN9A9V9G643CG11FCUUHBYF","A3LL096CAY5WHB","388CL5C1RJ9X03EZUESK4LKS9TSHL1","","img/set1/S4.jpg","74","4","structured_normal","74","structured_normal,structured_incentive,structured_load,random","2,3,2,1,3,4","2,3,4,1","true","","",""
"null","","html-keyboard-response","185","130250","0.0-185.0","3A0EX8ZRN9A9V9G643CG11FCUUHBYF","A3LL096CAY5WHB","388CL5C1RJ9X03EZUESK4LKS9TSHL1","","<img src=""img/set1/S4.jpg"" width=""540"" height = ""360"" style=""border:16px solid orange"">","null","","","","","","","","","",""
"null","","html-keyboard-response","186","130453","0.0-186.0","3A0EX8ZRN9A9V9G643CG11FCUUHBYF","A3LL096CAY5WHB","388CL5C1RJ9X03EZUESK4LKS9TSHL1","","","null","","","","","","","","","",""
"322.80000001192093","","image-keyboard-response","187","130776","0.0-187.0","3A0EX8ZRN9A9V9G643CG11FCUUHBYF","A3LL096CAY5WHB","388CL5C1RJ9X03EZUESK4LKS9TSHL1","","img/set1/S4.jpg","74","4","structured_normal","74","structured_normal,structured_incentive,structured_load,random","2,3,2,1,3,4","2,3,4,1","true","","",""
"null","","html-keyboard-response","188","131139","0.0-188.0","3A0EX8ZRN9A9V9G643CG11FCUUHBYF","A3LL096CAY5WHB","388CL5C1RJ9X03EZUESK4LKS9TSHL1","","<img src=""img/set1/S4.jpg"" width=""540"" height = ""360"" style=""border:16px solid orange"">","null","","","","","","","","","",""
"null","","html-keyboard-response","189","131341","0.0-189.0","3A0EX8ZRN9A9V9G643CG11FCUUHBYF","A3LL096CAY5WHB","388CL5C1RJ9X03EZUESK4LKS9TSHL1","","","null","","","","","","","","","",""
"592.9000000357628","","image-keyboard-response","190","131935","0.0-190.0","3A0EX8ZRN9A9V9G643CG11FCUUHBYF","A3LL096CAY5WHB","388CL5C1RJ9X03EZUESK4LKS9TSHL1","","img/set1/S1.jpg","83","1","structured_normal","83","structured_normal,structured_incentive,structured_load,random","2,3,2,1,3,4","2,3,4,1","true","","",""
"null","","html-keyboard-response","191","132292","0.0-191.0","3A0EX8ZRN9A9V9G643CG11FCUUHBYF","A3LL096CAY5WHB","388CL5C1RJ9X03EZUESK4LKS9TSHL1","","<img src=""img/set1/S1.jpg"" width=""540"" height = ""360"" style=""border:16px solid orange"">","null","","","","","","","","","",""
"null","","html-keyboard-response","192","132493","0.0-192.0","3A0EX8ZRN9A9V9G643CG11FCUUHBYF","A3LL096CAY5WHB","388CL5C1RJ9X03EZUESK4LKS9TSHL1","","","null","","","","","","","","","",""
"452.4000000357628","","image-keyboard-response","193","132947","0.0-193.0","3A0EX8ZRN9A9V9G643CG11FCUUHBYF","A3LL096CAY5WHB","388CL5C1RJ9X03EZUESK4LKS9TSHL1","","img/set1/S1.jpg","83","1","structured_normal","83","structured_normal,structured_incentive,structured_load,random","2,3,2,1,3,4","2,3,4,1","true","","",""
"null","","html-keyboard-response","194","133304","0.0-194.0","3A0EX8ZRN9A9V9G643CG11FCUUHBYF","A3LL096CAY5WHB","388CL5C1RJ9X03EZUESK4LKS9TSHL1","","<img src=""img/set1/S1.jpg"" width=""540"" height = ""360"" style=""border:16px solid orange"">","null","","","","","","","","","",""
"null","","html-keyboard-response","195","133519","0.0-195.0","3A0EX8ZRN9A9V9G643CG11FCUUHBYF","A3LL096CAY5WHB","388CL5C1RJ9X03EZUESK4LKS9TSHL1","","","null","","","","","","","","","",""
"391.60000002384186","","image-keyboard-response","196","133912","0.0-196.0","3A0EX8ZRN9A9V9G643CG11FCUUHBYF","A3LL096CAY5WHB","388CL5C1RJ9X03EZUESK4LKS9TSHL1","","img/set1/S1.jpg","83","1","structured_normal","83","structured_normal,structured_incentive,structured_load,random","2,3,2,1,3,4","2,3,4,1","true","","",""
"null","","html-keyboard-response","197","134268","0.0-197.0","3A0EX8ZRN9A9V9G643CG11FCUUHBYF","A3LL096CAY5WHB","388CL5C1RJ9X03EZUESK4LKS9TSHL1","","<img src=""img/set1/S1.jpg"" width=""540"" height = ""360"" style=""border:16px solid orange"">","null","","","","","","","","","",""
"null","","html-keyboard-response","198","134470","0.0-198.0","3A0EX8ZRN9A9V9G643CG11FCUUHBYF","A3LL096CAY5WHB","388CL5C1RJ9X03EZUESK4LKS9TSHL1","","","null","","","","","","","","","",""
"421.80000001192093","","image-keyboard-response","199","134892","0.0-199.0","3A0EX8ZRN9A9V9G643CG11FCUUHBYF","A3LL096CAY5WHB","388CL5C1RJ9X03EZUESK4LKS9TSHL1","","img/set1/S4.jpg","74","4","structured_normal","74","structured_normal,structured_incentive,structured_load,random","2,3,2,1,3,4","2,3,4,1","true","","",""
"null","","html-keyboard-response","200","135248","0.0-200.0","3A0EX8ZRN9A9V9G643CG11FCUUHBYF","A3LL096CAY5WHB","388CL5C1RJ9X03EZUESK4LKS9TSHL1","","<img src=""img/set1/S4.jpg"" width=""540"" height = ""360"" style=""border:16px solid orange"">","null","","","","","","","","","",""
"null","","html-keyboard-response","201","135450","0.0-201.0","3A0EX8ZRN9A9V9G643CG11FCUUHBYF","A3LL096CAY5WHB","388CL5C1RJ9X03EZUESK4LKS9TSHL1","","","null","","","","","","","","","",""
"631.5","","image-keyboard-response","202","136082","0.0-202.0","3A0EX8ZRN9A9V9G643CG11FCUUHBYF","A3LL096CAY5WHB","388CL5C1RJ9X03EZUESK4LKS9TSHL1","","img/set1/S2.jpg","68","2","structured_normal","68","structured_normal,structured_incentive,structured_load,random","2,3,2,1,3,4","2,3,4,1","true","","",""
"null","","html-keyboard-response","203","136440","0.0-203.0","3A0EX8ZRN9A9V9G643CG11FCUUHBYF","A3LL096CAY5WHB","388CL5C1RJ9X03EZUESK4LKS9TSHL1","","<img src=""img/set1/S2.jpg"" width=""540"" height = ""360"" style=""border:16px solid orange"">","null","","","","","","","","","",""
"null","","html-keyboard-response","204","136642","0.0-204.0","3A0EX8ZRN9A9V9G643CG11FCUUHBYF","A3LL096CAY5WHB","388CL5C1RJ9X03EZUESK4LKS9TSHL1","","","null","","","","","","","","","",""
"291.30000001192093","","image-keyboard-response","205","136934","0.0-205.0","3A0EX8ZRN9A9V9G643CG11FCUUHBYF","A3LL096CAY5WHB","388CL5C1RJ9X03EZUESK4LKS9TSHL1","","img/set1/S3.jpg","72","3","structured_normal","72","structured_normal,structured_incentive,structured_load,random","2,3,2,1,3,4","2,3,4,1","true","","",""
"null","","html-keyboard-response","206","137293","0.0-206.0","3A0EX8ZRN9A9V9G643CG11FCUUHBYF","A3LL096CAY5WHB","388CL5C1RJ9X03EZUESK4LKS9TSHL1","","<img src=""img/set1/S3.jpg"" width=""540"" height = ""360"" style=""border:16px solid orange"">","null","","","","","","","","","",""
"null","","html-keyboard-response","207","137508","0.0-207.0","3A0EX8ZRN9A9V9G643CG11FCUUHBYF","A3LL096CAY5WHB","388CL5C1RJ9X03EZUESK4LKS9TSHL1","","","null","","","","","","","","","",""
"469.89999997615814","","image-keyboard-response","208","137979","0.0-208.0","3A0EX8ZRN9A9V9G643CG11FCUUHBYF","A3LL096CAY5WHB","388CL5C1RJ9X03EZUESK4LKS9TSHL1","","img/set1/S2.jpg","83","2","structured_normal","68","structured_normal,structured_incentive,structured_load,random","2,3,2,1,3,4","2,3,4,1","false","","",""
"null","","html-keyboard-response","209","138332","0.0-209.0","3A0EX8ZRN9A9V9G643CG11FCUUHBYF","A3LL096CAY5WHB","388CL5C1RJ9X03EZUESK4LKS9TSHL1","","<img src=""img/set1/S2.jpg"" width=""540"" height = ""360"">","null","","","","","","","","","",""
"null","","html-keyboard-response","210","138536","0.0-210.0","3A0EX8ZRN9A9V9G643CG11FCUUHBYF","A3LL096CAY5WHB","388CL5C1RJ9X03EZUESK4LKS9TSHL1","","","null","","","","","","","","","",""
"583.1000000238419","","image-keyboard-response","211","139120","0.0-211.0","3A0EX8ZRN9A9V9G643CG11FCUUHBYF","A3LL096CAY5WHB","388CL5C1RJ9X03EZUESK4LKS9TSHL1","","img/set1/S3.jpg","72","3","structured_normal","72","structured_normal,structured_incentive,structured_load,random","2,3,2,1,3,4","2,3,4,1","true","","",""
"null","","html-keyboard-response","212","139485","0.0-212.0","3A0EX8ZRN9A9V9G643CG11FCUUHBYF","A3LL096CAY5WHB","388CL5C1RJ9X03EZUESK4LKS9TSHL1","","<img src=""img/set1/S3.jpg"" width=""540"" height = ""360"" style=""border:16px solid orange"">","null","","","","","","","","","",""
"null","","html-keyboard-response","213","139701","0.0-213.0","3A0EX8ZRN9A9V9G643CG11FCUUHBYF","A3LL096CAY5WHB","388CL5C1RJ9X03EZUESK4LKS9TSHL1","","","null","","","","","","","","","",""
"640.3999999761581","","image-keyboard-response","214","140342","0.0-214.0","3A0EX8ZRN9A9V9G643CG11FCUUHBYF","A3LL096CAY5WHB","388CL5C1RJ9X03EZUESK4LKS9TSHL1","","img/set1/S4.jpg","74","4","structured_normal","74","structured_normal,structured_incentive,structured_load,random","2,3,2,1,3,4","2,3,4,1","true","","",""
"null","","html-keyboard-response","215","140707","0.0-215.0","3A0EX8ZRN9A9V9G643CG11FCUUHBYF","A3LL096CAY5WHB","388CL5C1RJ9X03EZUESK4LKS9TSHL1","","<img src=""img/set1/S4.jpg"" width=""540"" height = ""360"" style=""border:16px solid orange"">","null","","","","","","","","","",""
"null","","html-keyboard-response","216","140910","0.0-216.0","3A0EX8ZRN9A9V9G643CG11FCUUHBYF","A3LL096CAY5WHB","388CL5C1RJ9X03EZUESK4LKS9TSHL1","","","null","","","","","","","","","",""
"540.3999999761581","","image-keyboard-response","217","141451","0.0-217.0","3A0EX8ZRN9A9V9G643CG11FCUUHBYF","A3LL096CAY5WHB","388CL5C1RJ9X03EZUESK4LKS9TSHL1","","img/set1/S1.jpg","83","1","structured_normal","83","structured_normal,structured_incentive,structured_load,random","2,3,2,1,3,4","2,3,4,1","true","","",""
"null","","html-keyboard-response","218","141813","0.0-218.0","3A0EX8ZRN9A9V9G643CG11FCUUHBYF","A3LL096CAY5WHB","388CL5C1RJ9X03EZUESK4LKS9TSHL1","","<img src=""img/set1/S1.jpg"" width=""540"" height = ""360"" style=""border:16px solid orange"">","null","","","","","","","","","",""
"null","","html-keyboard-response","219","142017","0.0-219.0","3A0EX8ZRN9A9V9G643CG11FCUUHBYF","A3LL096CAY5WHB","388CL5C1RJ9X03EZUESK4LKS9TSHL1","","","null","","","","","","","","","",""
"590.3999999761581","","image-keyboard-response","220","142608","0.0-220.0","3A0EX8ZRN9A9V9G643CG11FCUUHBYF","A3LL096CAY5WHB","388CL5C1RJ9X03EZUESK4LKS9TSHL1","","img/set1/S2.jpg","68","2","structured_normal","68","structured_normal,structured_incentive,structured_load,random","2,3,2,1,3,4","2,3,4,1","true","","",""
"null","","html-keyboard-response","221","142966","0.0-221.0","3A0EX8ZRN9A9V9G643CG11FCUUHBYF","A3LL096CAY5WHB","388CL5C1RJ9X03EZUESK4LKS9TSHL1","","<img src=""img/set1/S2.jpg"" width=""540"" height = ""360"" style=""border:16px solid orange"">","null","","","","","","","","","",""
"null","","html-keyboard-response","222","143167","0.0-222.0","3A0EX8ZRN9A9V9G643CG11FCUUHBYF","A3LL096CAY5WHB","388CL5C1RJ9X03EZUESK4LKS9TSHL1","","","null","","","","","","","","","",""
"356.39999997615814","","image-keyboard-response","223","143524","0.0-223.0","3A0EX8ZRN9A9V9G643CG11FCUUHBYF","A3LL096CAY5WHB","388CL5C1RJ9X03EZUESK4LKS9TSHL1","","img/set1/S3.jpg","72","3","structured_normal","72","structured_normal,structured_incentive,structured_load,random","2,3,2,1,3,4","2,3,4,1","true","","",""
"null","","html-keyboard-response","224","143884","0.0-224.0","3A0EX8ZRN9A9V9G643CG11FCUUHBYF","A3LL096CAY5WHB","388CL5C1RJ9X03EZUESK4LKS9TSHL1","","<img src=""img/set1/S3.jpg"" width=""540"" height = ""360"" style=""border:16px solid orange"">","null","","","","","","","","","",""
"null","","html-keyboard-response","225","144086","0.0-225.0","3A0EX8ZRN9A9V9G643CG11FCUUHBYF","A3LL096CAY5WHB","388CL5C1RJ9X03EZUESK4LKS9TSHL1","","","null","","","","","","","","","",""
"481.7999999523163","","image-keyboard-response","226","144569","0.0-226.0","3A0EX8ZRN9A9V9G643CG11FCUUHBYF","A3LL096CAY5WHB","388CL5C1RJ9X03EZUESK4LKS9TSHL1","","img/set1/S1.jpg","83","1","structured_normal","83","structured_normal,structured_incentive,structured_load,random","2,3,2,1,3,4","2,3,4,1","true","","",""
"null","","html-keyboard-response","227","144926","0.0-227.0","3A0EX8ZRN9A9V9G643CG11FCUUHBYF","A3LL096CAY5WHB","388CL5C1RJ9X03EZUESK4LKS9TSHL1","","<img src=""img/set1/S1.jpg"" width=""540"" height = ""360"" style=""border:16px solid orange"">","null","","","","","","","","","",""
"null","","html-keyboard-response","228","145142","0.0-228.0","3A0EX8ZRN9A9V9G643CG11FCUUHBYF","A3LL096CAY5WHB","388CL5C1RJ9X03EZUESK4LKS9TSHL1","","","null","","","","","","","","","",""
"326.5999999642372","","image-keyboard-response","229","145470","0.0-229.0","3A0EX8ZRN9A9V9G643CG11FCUUHBYF","A3LL096CAY5WHB","388CL5C1RJ9X03EZUESK4LKS9TSHL1","","img/set1/S1.jpg","68","1","structured_normal","83","structured_normal,structured_incentive,structured_load,random","2,3,2,1,3,4","2,3,4,1","false","","",""
"null","","html-keyboard-response","230","145829","0.0-230.0","3A0EX8ZRN9A9V9G643CG11FCUUHBYF","A3LL096CAY5WHB","388CL5C1RJ9X03EZUESK4LKS9TSHL1","","<img src=""img/set1/S1.jpg"" width=""540"" height = ""360"">","null","","","","","","","","","",""
"null","","html-keyboard-response","231","146032","0.0-231.0","3A0EX8ZRN9A9V9G643CG11FCUUHBYF","A3LL096CAY5WHB","388CL5C1RJ9X03EZUESK4LKS9TSHL1","","","null","","","","","","","","","",""
"352.2000000476837","","image-keyboard-response","232","146385","0.0-232.0","3A0EX8ZRN9A9V9G643CG11FCUUHBYF","A3LL096CAY5WHB","388CL5C1RJ9X03EZUESK4LKS9TSHL1","","img/set1/S1.jpg","83","1","structured_normal","83","structured_normal,structured_incentive,structured_load,random","2,3,2,1,3,4","2,3,4,1","true","","",""
"null","","html-keyboard-response","233","146748","0.0-233.0","3A0EX8ZRN9A9V9G643CG11FCUUHBYF","A3LL096CAY5WHB","388CL5C1RJ9X03EZUESK4LKS9TSHL1","","<img src=""img/set1/S1.jpg"" width=""540"" height = ""360"" style=""border:16px solid orange"">","null","","","","","","","","","",""
"null","","html-keyboard-response","234","146964","0.0-234.0","3A0EX8ZRN9A9V9G643CG11FCUUHBYF","A3LL096CAY5WHB","388CL5C1RJ9X03EZUESK4LKS9TSHL1","","","null","","","","","","","","","",""
"1139.5","","image-keyboard-response","235","148105","0.0-235.0","3A0EX8ZRN9A9V9G643CG11FCUUHBYF","A3LL096CAY5WHB","388CL5C1RJ9X03EZUESK4LKS9TSHL1","","img/set1/S2.jpg","68","2","structured_normal","68","structured_normal,structured_incentive,structured_load,random","2,3,2,1,3,4","2,3,4,1","true","","",""
"null","","html-keyboard-response","236","148464","0.0-236.0","3A0EX8ZRN9A9V9G643CG11FCUUHBYF","A3LL096CAY5WHB","388CL5C1RJ9X03EZUESK4LKS9TSHL1","","<img src=""img/set1/S2.jpg"" width=""540"" height = ""360"" style=""border:16px solid orange"">","null","","","","","","","","","",""
"null","","html-keyboard-response","237","148667","0.0-237.0","3A0EX8ZRN9A9V9G643CG11FCUUHBYF","A3LL096CAY5WHB","388CL5C1RJ9X03EZUESK4LKS9TSHL1","","","null","","","","","","","","","",""
"529.8000000119209","","image-keyboard-response","238","149198","0.0-238.0","3A0EX8ZRN9A9V9G643CG11FCUUHBYF","A3LL096CAY5WHB","388CL5C1RJ9X03EZUESK4LKS9TSHL1","","img/set1/S3.jpg","72","3","structured_normal","72","structured_normal,structured_incentive,structured_load,random","2,3,2,1,3,4","2,3,4,1","true","","",""
"null","","html-keyboard-response","239","149553","0.0-239.0","3A0EX8ZRN9A9V9G643CG11FCUUHBYF","A3LL096CAY5WHB","388CL5C1RJ9X03EZUESK4LKS9TSHL1","","<img src=""img/set1/S3.jpg"" width=""540"" height = ""360"" style=""border:16px solid orange"">","null","","","","","","","","","",""
"null","","html-keyboard-response","240","149755","0.0-240.0","3A0EX8ZRN9A9V9G643CG11FCUUHBYF","A3LL096CAY5WHB","388CL5C1RJ9X03EZUESK4LKS9TSHL1","","","null","","","","","","","","","",""
"470.89999997615814","","image-keyboard-response","241","150227","0.0-241.0","3A0EX8ZRN9A9V9G643CG11FCUUHBYF","A3LL096CAY5WHB","388CL5C1RJ9X03EZUESK4LKS9TSHL1","","img/set1/S1.jpg","83","1","structured_normal","83","structured_normal,structured_incentive,structured_load,random","2,3,2,1,3,4","2,3,4,1","true","","",""
"null","","html-keyboard-response","242","150580","0.0-242.0","3A0EX8ZRN9A9V9G643CG11FCUUHBYF","A3LL096CAY5WHB","388CL5C1RJ9X03EZUESK4LKS9TSHL1","","<img src=""img/set1/S1.jpg"" width=""540"" height = ""360"" style=""border:16px solid orange"">","null","","","","","","","","","",""
"null","","html-keyboard-response","243","150784","0.0-243.0","3A0EX8ZRN9A9V9G643CG11FCUUHBYF","A3LL096CAY5WHB","388CL5C1RJ9X03EZUESK4LKS9TSHL1","","","null","","","","","","","","","",""
"294","","image-keyboard-response","244","151079","0.0-244.0","3A0EX8ZRN9A9V9G643CG11FCUUHBYF","A3LL096CAY5WHB","388CL5C1RJ9X03EZUESK4LKS9TSHL1","","img/set1/S1.jpg","68","1","structured_normal","83","structured_normal,structured_incentive,structured_load,random","2,3,2,1,3,4","2,3,4,1","false","","",""
"null","","html-keyboard-response","245","151439","0.0-245.0","3A0EX8ZRN9A9V9G643CG11FCUUHBYF","A3LL096CAY5WHB","388CL5C1RJ9X03EZUESK4LKS9TSHL1","","<img src=""img/set1/S1.jpg"" width=""540"" height = ""360"">","null","","","","","","","","","",""
"null","","html-keyboard-response","246","151641","0.0-246.0","3A0EX8ZRN9A9V9G643CG11FCUUHBYF","A3LL096CAY5WHB","388CL5C1RJ9X03EZUESK4LKS9TSHL1","","","null","","","","","","","","","",""
"1140.4000000357628","","image-keyboard-response","247","152782","0.0-247.0","3A0EX8ZRN9A9V9G643CG11FCUUHBYF","A3LL096CAY5WHB","388CL5C1RJ9X03EZUESK4LKS9TSHL1","","img/set1/S2.jpg","72","2","structured_normal","68","structured_normal,structured_incentive,structured_load,random","2,3,2,1,3,4","2,3,4,1","false","","",""
"null","","html-keyboard-response","248","153150","0.0-248.0","3A0EX8ZRN9A9V9G643CG11FCUUHBYF","A3LL096CAY5WHB","388CL5C1RJ9X03EZUESK4LKS9TSHL1","","<img src=""img/set1/S2.jpg"" width=""540"" height = ""360"">","null","","","","","","","","","",""
"null","","html-keyboard-response","249","153355","0.0-249.0","3A0EX8ZRN9A9V9G643CG11FCUUHBYF","A3LL096CAY5WHB","388CL5C1RJ9X03EZUESK4LKS9TSHL1","","","null","","","","","","","","","",""
"536.5999999642372","","image-keyboard-response","250","153892","0.0-250.0","3A0EX8ZRN9A9V9G643CG11FCUUHBYF","A3LL096CAY5WHB","388CL5C1RJ9X03EZUESK4LKS9TSHL1","","img/set1/S3.jpg","72","3","structured_normal","72","structured_normal,structured_incentive,structured_load,random","2,3,2,1,3,4","2,3,4,1","true","","",""
"null","","html-keyboard-response","251","154254","0.0-251.0","3A0EX8ZRN9A9V9G643CG11FCUUHBYF","A3LL096CAY5WHB","388CL5C1RJ9X03EZUESK4LKS9TSHL1","","<img src=""img/set1/S3.jpg"" width=""540"" height = ""360"" style=""border:16px solid orange"">","null","","","","","","","","","",""
"null","","html-keyboard-response","252","154455","0.0-252.0","3A0EX8ZRN9A9V9G643CG11FCUUHBYF","A3LL096CAY5WHB","388CL5C1RJ9X03EZUESK4LKS9TSHL1","","","null","","","","","","","","","",""
"576.8000000119209","","image-keyboard-response","253","155033","0.0-253.0","3A0EX8ZRN9A9V9G643CG11FCUUHBYF","A3LL096CAY5WHB","388CL5C1RJ9X03EZUESK4LKS9TSHL1","","img/set1/S2.jpg","83","2","structured_normal","68","structured_normal,structured_incentive,structured_load,random","2,3,2,1,3,4","2,3,4,1","false","","",""
"null","","html-keyboard-response","254","155389","0.0-254.0","3A0EX8ZRN9A9V9G643CG11FCUUHBYF","A3LL096CAY5WHB","388CL5C1RJ9X03EZUESK4LKS9TSHL1","","<img src=""img/set1/S2.jpg"" width=""540"" height = ""360"">","null","","","","","","","","","",""
"null","","html-keyboard-response","255","155590","0.0-255.0","3A0EX8ZRN9A9V9G643CG11FCUUHBYF","A3LL096CAY5WHB","388CL5C1RJ9X03EZUESK4LKS9TSHL1","","","null","","","","","","","","","",""
"551.7999999523163","","image-keyboard-response","256","156143","0.0-256.0","3A0EX8ZRN9A9V9G643CG11FCUUHBYF","A3LL096CAY5WHB","388CL5C1RJ9X03EZUESK4LKS9TSHL1","","img/set1/S3.jpg","72","3","structured_normal","72","structured_normal,structured_incentive,structured_load,random","2,3,2,1,3,4","2,3,4,1","true","","",""
"null","","html-keyboard-response","257","156507","0.0-257.0","3A0EX8ZRN9A9V9G643CG11FCUUHBYF","A3LL096CAY5WHB","388CL5C1RJ9X03EZUESK4LKS9TSHL1","","<img src=""img/set1/S3.jpg"" width=""540"" height = ""360"" style=""border:16px solid orange"">","null","","","","","","","","","",""
"null","","html-keyboard-response","258","156708","0.0-258.0","3A0EX8ZRN9A9V9G643CG11FCUUHBYF","A3LL096CAY5WHB","388CL5C1RJ9X03EZUESK4LKS9TSHL1","","","null","","","","","","","","","",""
"654.5","","image-keyboard-response","259","157364","0.0-259.0","3A0EX8ZRN9A9V9G643CG11FCUUHBYF","A3LL096CAY5WHB","388CL5C1RJ9X03EZUESK4LKS9TSHL1","","img/set1/S1.jpg","83","1","structured_normal","83","structured_normal,structured_incentive,structured_load,random","2,3,2,1,3,4","2,3,4,1","true","","",""
"null","","html-keyboard-response","260","157718","0.0-260.0","3A0EX8ZRN9A9V9G643CG11FCUUHBYF","A3LL096CAY5WHB","388CL5C1RJ9X03EZUESK4LKS9TSHL1","","<img src=""img/set1/S1.jpg"" width=""540"" height = ""360"" style=""border:16px solid orange"">","null","","","","","","","","","",""
"null","","html-keyboard-response","261","157921","0.0-261.0","3A0EX8ZRN9A9V9G643CG11FCUUHBYF","A3LL096CAY5WHB","388CL5C1RJ9X03EZUESK4LKS9TSHL1","","","null","","","","","","","","","",""
"391","","image-keyboard-response","262","158312","0.0-262.0","3A0EX8ZRN9A9V9G643CG11FCUUHBYF","A3LL096CAY5WHB","388CL5C1RJ9X03EZUESK4LKS9TSHL1","","img/set1/S1.jpg","83","1","structured_normal","83","structured_normal,structured_incentive,structured_load,random","2,3,2,1,3,4","2,3,4,1","true","","",""
"null","","html-keyboard-response","263","158668","0.0-263.0","3A0EX8ZRN9A9V9G643CG11FCUUHBYF","A3LL096CAY5WHB","388CL5C1RJ9X03EZUESK4LKS9TSHL1","","<img src=""img/set1/S1.jpg"" width=""540"" height = ""360"" style=""border:16px solid orange"">","null","","","","","","","","","",""
"null","","html-keyboard-response","264","158870","0.0-264.0","3A0EX8ZRN9A9V9G643CG11FCUUHBYF","A3LL096CAY5WHB","388CL5C1RJ9X03EZUESK4LKS9TSHL1","","","null","","","","","","","","","",""
"985.1000000238419","","image-keyboard-response","265","159856","0.0-265.0","3A0EX8ZRN9A9V9G643CG11FCUUHBYF","A3LL096CAY5WHB","388CL5C1RJ9X03EZUESK4LKS9TSHL1","","img/set1/S4.jpg","74","4","structured_normal","74","structured_normal,structured_incentive,structured_load,random","2,3,2,1,3,4","2,3,4,1","true","","",""
"null","","html-keyboard-response","266","160209","0.0-266.0","3A0EX8ZRN9A9V9G643CG11FCUUHBYF","A3LL096CAY5WHB","388CL5C1RJ9X03EZUESK4LKS9TSHL1","","<img src=""img/set1/S4.jpg"" width=""540"" height = ""360"" style=""border:16px solid orange"">","null","","","","","","","","","",""
"null","","html-keyboard-response","267","160412","0.0-267.0","3A0EX8ZRN9A9V9G643CG11FCUUHBYF","A3LL096CAY5WHB","388CL5C1RJ9X03EZUESK4LKS9TSHL1","","","null","","","","","","","","","",""
"727.9000000357628","","image-keyboard-response","268","161140","0.0-268.0","3A0EX8ZRN9A9V9G643CG11FCUUHBYF","A3LL096CAY5WHB","388CL5C1RJ9X03EZUESK4LKS9TSHL1","","img/set1/S2.jpg","68","2","structured_normal","68","structured_normal,structured_incentive,structured_load,random","2,3,2,1,3,4","2,3,4,1","true","","",""
"null","","html-keyboard-response","269","161499","0.0-269.0","3A0EX8ZRN9A9V9G643CG11FCUUHBYF","A3LL096CAY5WHB","388CL5C1RJ9X03EZUESK4LKS9TSHL1","","<img src=""img/set1/S2.jpg"" width=""540"" height = ""360"" style=""border:16px solid orange"">","null","","","","","","","","","",""
"null","","html-keyboard-response","270","161704","0.0-270.0","3A0EX8ZRN9A9V9G643CG11FCUUHBYF","A3LL096CAY5WHB","388CL5C1RJ9X03EZUESK4LKS9TSHL1","","","null","","","","","","","","","",""
"448.9000000357628","","image-keyboard-response","271","162153","0.0-271.0","3A0EX8ZRN9A9V9G643CG11FCUUHBYF","A3LL096CAY5WHB","388CL5C1RJ9X03EZUESK4LKS9TSHL1","","img/set1/S3.jpg","72","3","structured_normal","72","structured_normal,structured_incentive,structured_load,random","2,3,2,1,3,4","2,3,4,1","true","","",""
"null","","html-keyboard-response","272","162512","0.0-272.0","3A0EX8ZRN9A9V9G643CG11FCUUHBYF","A3LL096CAY5WHB","388CL5C1RJ9X03EZUESK4LKS9TSHL1","","<img src=""img/set1/S3.jpg"" width=""540"" height = ""360"" style=""border:16px solid orange"">","null","","","","","","","","","",""
"null","","html-keyboard-response","273","162714","0.0-273.0","3A0EX8ZRN9A9V9G643CG11FCUUHBYF","A3LL096CAY5WHB","388CL5C1RJ9X03EZUESK4LKS9TSHL1","","","null","","","","","","","","","",""
"532","","image-keyboard-response","274","163247","0.0-274.0","3A0EX8ZRN9A9V9G643CG11FCUUHBYF","A3LL096CAY5WHB","388CL5C1RJ9X03EZUESK4LKS9TSHL1","","img/set1/S4.jpg","74","4","structured_normal","74","structured_normal,structured_incentive,structured_load,random","2,3,2,1,3,4","2,3,4,1","true","","",""
"null","","html-keyboard-response","275","163612","0.0-275.0","3A0EX8ZRN9A9V9G643CG11FCUUHBYF","A3LL096CAY5WHB","388CL5C1RJ9X03EZUESK4LKS9TSHL1","","<img src=""img/set1/S4.jpg"" width=""540"" height = ""360"" style=""border:16px solid orange"">","null","","","","","","","","","",""
"null","","html-keyboard-response","276","163815","0.0-276.0","3A0EX8ZRN9A9V9G643CG11FCUUHBYF","A3LL096CAY5WHB","388CL5C1RJ9X03EZUESK4LKS9TSHL1","","","null","","","","","","","","","",""
"475.60000002384186","","image-keyboard-response","277","164292","0.0-277.0","3A0EX8ZRN9A9V9G643CG11FCUUHBYF","A3LL096CAY5WHB","388CL5C1RJ9X03EZUESK4LKS9TSHL1","","img/set1/S1.jpg","83","1","structured_normal","83","structured_normal,structured_incentive,structured_load,random","2,3,2,1,3,4","2,3,4,1","true","","",""
"null","","html-keyboard-response","278","164657","0.0-278.0","3A0EX8ZRN9A9V9G643CG11FCUUHBYF","A3LL096CAY5WHB","388CL5C1RJ9X03EZUESK4LKS9TSHL1","","<img src=""img/set1/S1.jpg"" width=""540"" height = ""360"" style=""border:16px solid orange"">","null","","","","","","","","","",""
"null","","html-keyboard-response","279","164860","0.0-279.0","3A0EX8ZRN9A9V9G643CG11FCUUHBYF","A3LL096CAY5WHB","388CL5C1RJ9X03EZUESK4LKS9TSHL1","","","null","","","","","","","","","",""
"812.6000000238419","","image-keyboard-response","280","165674","0.0-280.0","3A0EX8ZRN9A9V9G643CG11FCUUHBYF","A3LL096CAY5WHB","388CL5C1RJ9X03EZUESK4LKS9TSHL1","","img/set1/S4.jpg","74","4","structured_normal","74","structured_normal,structured_incentive,structured_load,random","2,3,2,1,3,4","2,3,4,1","true","","",""
"null","","html-keyboard-response","281","166027","0.0-281.0","3A0EX8ZRN9A9V9G643CG11FCUUHBYF","A3LL096CAY5WHB","388CL5C1RJ9X03EZUESK4LKS9TSHL1","","<img src=""img/set1/S4.jpg"" width=""540"" height = ""360"" style=""border:16px solid orange"">","null","","","","","","","","","",""
"null","","html-keyboard-response","282","166229","0.0-282.0","3A0EX8ZRN9A9V9G643CG11FCUUHBYF","A3LL096CAY5WHB","388CL5C1RJ9X03EZUESK4LKS9TSHL1","","","null","","","","","","","","","",""
"505.7000000476837","","image-keyboard-response","283","166736","0.0-283.0","3A0EX8ZRN9A9V9G643CG11FCUUHBYF","A3LL096CAY5WHB","388CL5C1RJ9X03EZUESK4LKS9TSHL1","","img/set1/S2.jpg","68","2","structured_normal","68","structured_normal,structured_incentive,structured_load,random","2,3,2,1,3,4","2,3,4,1","true","","",""
"null","","html-keyboard-response","284","167097","0.0-284.0","3A0EX8ZRN9A9V9G643CG11FCUUHBYF","A3LL096CAY5WHB","388CL5C1RJ9X03EZUESK4LKS9TSHL1","","<img src=""img/set1/S2.jpg"" width=""540"" height = ""360"" style=""border:16px solid orange"">","null","","","","","","","","","",""
"null","","html-keyboard-response","285","167301","0.0-285.0","3A0EX8ZRN9A9V9G643CG11FCUUHBYF","A3LL096CAY5WHB","388CL5C1RJ9X03EZUESK4LKS9TSHL1","","","null","","","","","","","","","",""
"639.1999999880791","","image-keyboard-response","286","167941","0.0-286.0","3A0EX8ZRN9A9V9G643CG11FCUUHBYF","A3LL096CAY5WHB","388CL5C1RJ9X03EZUESK4LKS9TSHL1","","img/set1/S3.jpg","72","3","structured_normal","72","structured_normal,structured_incentive,structured_load,random","2,3,2,1,3,4","2,3,4,1","true","","",""
"null","","html-keyboard-response","287","168296","0.0-287.0","3A0EX8ZRN9A9V9G643CG11FCUUHBYF","A3LL096CAY5WHB","388CL5C1RJ9X03EZUESK4LKS9TSHL1","","<img src=""img/set1/S3.jpg"" width=""540"" height = ""360"" style=""border:16px solid orange"">","null","","","","","","","","","",""
"null","","html-keyboard-response","288","168500","0.0-288.0","3A0EX8ZRN9A9V9G643CG11FCUUHBYF","A3LL096CAY5WHB","388CL5C1RJ9X03EZUESK4LKS9TSHL1","","","null","","","","","","","","","",""
"516.8999999761581","","image-keyboard-response","289","169018","0.0-289.0","3A0EX8ZRN9A9V9G643CG11FCUUHBYF","A3LL096CAY5WHB","388CL5C1RJ9X03EZUESK4LKS9TSHL1","","img/set1/S1.jpg","83","1","structured_normal","83","structured_normal,structured_incentive,structured_load,random","2,3,2,1,3,4","2,3,4,1","true","","",""
"null","","html-keyboard-response","290","169377","0.0-290.0","3A0EX8ZRN9A9V9G643CG11FCUUHBYF","A3LL096CAY5WHB","388CL5C1RJ9X03EZUESK4LKS9TSHL1","","<img src=""img/set1/S1.jpg"" width=""540"" height = ""360"" style=""border:16px solid orange"">","null","","","","","","","","","",""
"null","","html-keyboard-response","291","169592","0.0-291.0","3A0EX8ZRN9A9V9G643CG11FCUUHBYF","A3LL096CAY5WHB","388CL5C1RJ9X03EZUESK4LKS9TSHL1","","","null","","","","","","","","","",""
"388.80000001192093","","image-keyboard-response","292","169982","0.0-292.0","3A0EX8ZRN9A9V9G643CG11FCUUHBYF","A3LL096CAY5WHB","388CL5C1RJ9X03EZUESK4LKS9TSHL1","","img/set1/S1.jpg","83","1","structured_normal","83","structured_normal,structured_incentive,structured_load,random","2,3,2,1,3,4","2,3,4,1","true","","",""
"null","","html-keyboard-response","293","170336","0.0-293.0","3A0EX8ZRN9A9V9G643CG11FCUUHBYF","A3LL096CAY5WHB","388CL5C1RJ9X03EZUESK4LKS9TSHL1","","<img src=""img/set1/S1.jpg"" width=""540"" height = ""360"" style=""border:16px solid orange"">","null","","","","","","","","","",""
"null","","html-keyboard-response","294","170552","0.0-294.0","3A0EX8ZRN9A9V9G643CG11FCUUHBYF","A3LL096CAY5WHB","388CL5C1RJ9X03EZUESK4LKS9TSHL1","","","null","","","","","","","","","",""
"313.19999998807907","","image-keyboard-response","295","170866","0.0-295.0","3A0EX8ZRN9A9V9G643CG11FCUUHBYF","A3LL096CAY5WHB","388CL5C1RJ9X03EZUESK4LKS9TSHL1","","img/set1/S1.jpg","83","1","structured_normal","83","structured_normal,structured_incentive,structured_load,random","2,3,2,1,3,4","2,3,4,1","true","","",""
"null","","html-keyboard-response","296","171219","0.0-296.0","3A0EX8ZRN9A9V9G643CG11FCUUHBYF","A3LL096CAY5WHB","388CL5C1RJ9X03EZUESK4LKS9TSHL1","","<img src=""img/set1/S1.jpg"" width=""540"" height = ""360"" style=""border:16px solid orange"">","null","","","","","","","","","",""
"null","","html-keyboard-response","297","171422","0.0-297.0","3A0EX8ZRN9A9V9G643CG11FCUUHBYF","A3LL096CAY5WHB","388CL5C1RJ9X03EZUESK4LKS9TSHL1","","","null","","","","","","","","","",""
"520","","image-keyboard-response","298","171943","0.0-298.0","3A0EX8ZRN9A9V9G643CG11FCUUHBYF","A3LL096CAY5WHB","388CL5C1RJ9X03EZUESK4LKS9TSHL1","","img/set1/S2.jpg","68","2","structured_normal","68","structured_normal,structured_incentive,structured_load,random","2,3,2,1,3,4","2,3,4,1","true","","",""
"null","","html-keyboard-response","299","172309","0.0-299.0","3A0EX8ZRN9A9V9G643CG11FCUUHBYF","A3LL096CAY5WHB","388CL5C1RJ9X03EZUESK4LKS9TSHL1","","<img src=""img/set1/S2.jpg"" width=""540"" height = ""360"" style=""border:16px solid orange"">","null","","","","","","","","","",""
"null","","html-keyboard-response","300","172513","0.0-300.0","3A0EX8ZRN9A9V9G643CG11FCUUHBYF","A3LL096CAY5WHB","388CL5C1RJ9X03EZUESK4LKS9TSHL1","","","null","","","","","","","","","",""
"361.89999997615814","","image-keyboard-response","301","172876","0.0-301.0","3A0EX8ZRN9A9V9G643CG11FCUUHBYF","A3LL096CAY5WHB","388CL5C1RJ9X03EZUESK4LKS9TSHL1","","img/set1/S3.jpg","72","3","structured_normal","72","structured_normal,structured_incentive,structured_load,random","2,3,2,1,3,4","2,3,4,1","true","","",""
"null","","html-keyboard-response","302","173230","0.0-302.0","3A0EX8ZRN9A9V9G643CG11FCUUHBYF","A3LL096CAY5WHB","388CL5C1RJ9X03EZUESK4LKS9TSHL1","","<img src=""img/set1/S3.jpg"" width=""540"" height = ""360"" style=""border:16px solid orange"">","null","","","","","","","","","",""
"null","","html-keyboard-response","303","173434","0.0-303.0","3A0EX8ZRN9A9V9G643CG11FCUUHBYF","A3LL096CAY5WHB","388CL5C1RJ9X03EZUESK4LKS9TSHL1","","","null","","","","","","","","","",""
"422.10000002384186","","image-keyboard-response","304","173857","0.0-304.0","3A0EX8ZRN9A9V9G643CG11FCUUHBYF","A3LL096CAY5WHB","388CL5C1RJ9X03EZUESK4LKS9TSHL1","","img/set1/S4.jpg","74","4","structured_normal","74","structured_normal,structured_incentive,structured_load,random","2,3,2,1,3,4","2,3,4,1","true","","",""
"null","","html-keyboard-response","305","174211","0.0-305.0","3A0EX8ZRN9A9V9G643CG11FCUUHBYF","A3LL096CAY5WHB","388CL5C1RJ9X03EZUESK4LKS9TSHL1","","<img src=""img/set1/S4.jpg"" width=""540"" height = ""360"" style=""border:16px solid orange"">","null","","","","","","","","","",""
"null","","html-keyboard-response","306","174413","0.0-306.0","3A0EX8ZRN9A9V9G643CG11FCUUHBYF","A3LL096CAY5WHB","388CL5C1RJ9X03EZUESK4LKS9TSHL1","","","null","","","","","","","","","",""
"503","","image-keyboard-response","307","174917","0.0-307.0","3A0EX8ZRN9A9V9G643CG11FCUUHBYF","A3LL096CAY5WHB","388CL5C1RJ9X03EZUESK4LKS9TSHL1","","img/set1/S2.jpg","83","2","structured_normal","68","structured_normal,structured_incentive,structured_load,random","2,3,2,1,3,4","2,3,4,1","false","","",""
"null","","html-keyboard-response","308","175282","0.0-308.0","3A0EX8ZRN9A9V9G643CG11FCUUHBYF","A3LL096CAY5WHB","388CL5C1RJ9X03EZUESK4LKS9TSHL1","","<img src=""img/set1/S2.jpg"" width=""540"" height = ""360"">","null","","","","","","","","","",""
"null","","html-keyboard-response","309","175483","0.0-309.0","3A0EX8ZRN9A9V9G643CG11FCUUHBYF","A3LL096CAY5WHB","388CL5C1RJ9X03EZUESK4LKS9TSHL1","","","null","","","","","","","","","",""
"639.2000000476837","","image-keyboard-response","310","176123","0.0-310.0","3A0EX8ZRN9A9V9G643CG11FCUUHBYF","A3LL096CAY5WHB","388CL5C1RJ9X03EZUESK4LKS9TSHL1","","img/set1/S3.jpg","72","3","structured_normal","72","structured_normal,structured_incentive,structured_load,random","2,3,2,1,3,4","2,3,4,1","true","","",""
"null","","html-keyboard-response","311","176487","0.0-311.0","3A0EX8ZRN9A9V9G643CG11FCUUHBYF","A3LL096CAY5WHB","388CL5C1RJ9X03EZUESK4LKS9TSHL1","","<img src=""img/set1/S3.jpg"" width=""540"" height = ""360"" style=""border:16px solid orange"">","null","","","","","","","","","",""
"null","","html-keyboard-response","312","176702","0.0-312.0","3A0EX8ZRN9A9V9G643CG11FCUUHBYF","A3LL096CAY5WHB","388CL5C1RJ9X03EZUESK4LKS9TSHL1","","","null","","","","","","","","","",""
"979.8999999761581","","image-keyboard-response","313","177683","0.0-313.0","3A0EX8ZRN9A9V9G643CG11FCUUHBYF","A3LL096CAY5WHB","388CL5C1RJ9X03EZUESK4LKS9TSHL1","","img/set1/S4.jpg","74","4","structured_normal","74","structured_normal,structured_incentive,structured_load,random","2,3,2,1,3,4","2,3,4,1","true","","",""
"null","","html-keyboard-response","314","178036","0.0-314.0","3A0EX8ZRN9A9V9G643CG11FCUUHBYF","A3LL096CAY5WHB","388CL5C1RJ9X03EZUESK4LKS9TSHL1","","<img src=""img/set1/S4.jpg"" width=""540"" height = ""360"" style=""border:16px solid orange"">","null","","","","","","","","","",""
"null","","html-keyboard-response","315","178238","0.0-315.0","3A0EX8ZRN9A9V9G643CG11FCUUHBYF","A3LL096CAY5WHB","388CL5C1RJ9X03EZUESK4LKS9TSHL1","","","null","","","","","","","","","",""
"552.8999999761581","","image-keyboard-response","316","178792","0.0-316.0","3A0EX8ZRN9A9V9G643CG11FCUUHBYF","A3LL096CAY5WHB","388CL5C1RJ9X03EZUESK4LKS9TSHL1","","img/set1/S4.jpg","74","4","structured_normal","74","structured_normal,structured_incentive,structured_load,random","2,3,2,1,3,4","2,3,4,1","true","","",""
"null","","html-keyboard-response","317","179152","0.0-317.0","3A0EX8ZRN9A9V9G643CG11FCUUHBYF","A3LL096CAY5WHB","388CL5C1RJ9X03EZUESK4LKS9TSHL1","","<img src=""img/set1/S4.jpg"" width=""540"" height = ""360"" style=""border:16px solid orange"">","null","","","","","","","","","",""
"null","","html-keyboard-response","318","179368","0.0-318.0","3A0EX8ZRN9A9V9G643CG11FCUUHBYF","A3LL096CAY5WHB","388CL5C1RJ9X03EZUESK4LKS9TSHL1","","","null","","","","","","","","","",""
"676.1999999880791","","image-keyboard-response","319","180045","0.0-319.0","3A0EX8ZRN9A9V9G643CG11FCUUHBYF","A3LL096CAY5WHB","388CL5C1RJ9X03EZUESK4LKS9TSHL1","","img/set1/S1.jpg","83","1","structured_normal","83","structured_normal,structured_incentive,structured_load,random","2,3,2,1,3,4","2,3,4,1","true","","",""
"null","","html-keyboard-response","320","180407","0.0-320.0","3A0EX8ZRN9A9V9G643CG11FCUUHBYF","A3LL096CAY5WHB","388CL5C1RJ9X03EZUESK4LKS9TSHL1","","<img src=""img/set1/S1.jpg"" width=""540"" height = ""360"" style=""border:16px solid orange"">","null","","","","","","","","","",""
"null","","html-keyboard-response","321","180611","0.0-321.0","3A0EX8ZRN9A9V9G643CG11FCUUHBYF","A3LL096CAY5WHB","388CL5C1RJ9X03EZUESK4LKS9TSHL1","","","null","","","","","","","","","",""
"751.1999999880791","","image-keyboard-response","322","181363","0.0-322.0","3A0EX8ZRN9A9V9G643CG11FCUUHBYF","A3LL096CAY5WHB","388CL5C1RJ9X03EZUESK4LKS9TSHL1","","img/set1/S2.jpg","68","2","structured_normal","68","structured_normal,structured_incentive,structured_load,random","2,3,2,1,3,4","2,3,4,1","true","","",""
"null","","html-keyboard-response","323","181714","0.0-323.0","3A0EX8ZRN9A9V9G643CG11FCUUHBYF","A3LL096CAY5WHB","388CL5C1RJ9X03EZUESK4LKS9TSHL1","","<img src=""img/set1/S2.jpg"" width=""540"" height = ""360"" style=""border:16px solid orange"">","null","","","","","","","","","",""
"null","","html-keyboard-response","324","181916","0.0-324.0","3A0EX8ZRN9A9V9G643CG11FCUUHBYF","A3LL096CAY5WHB","388CL5C1RJ9X03EZUESK4LKS9TSHL1","","","null","","","","","","","","","",""
"539.5","","image-keyboard-response","325","182456","0.0-325.0","3A0EX8ZRN9A9V9G643CG11FCUUHBYF","A3LL096CAY5WHB","388CL5C1RJ9X03EZUESK4LKS9TSHL1","","img/set1/S3.jpg","72","3","structured_normal","72","structured_normal,structured_incentive,structured_load,random","2,3,2,1,3,4","2,3,4,1","true","","",""
"null","","html-keyboard-response","326","182817","0.0-326.0","3A0EX8ZRN9A9V9G643CG11FCUUHBYF","A3LL096CAY5WHB","388CL5C1RJ9X03EZUESK4LKS9TSHL1","","<img src=""img/set1/S3.jpg"" width=""540"" height = ""360"" style=""border:16px solid orange"">","null","","","","","","","","","",""
"null","","html-keyboard-response","327","183022","0.0-327.0","3A0EX8ZRN9A9V9G643CG11FCUUHBYF","A3LL096CAY5WHB","388CL5C1RJ9X03EZUESK4LKS9TSHL1","","","null","","","","","","","","","",""
"623.5999999642372","","image-keyboard-response","328","183646","0.0-328.0","3A0EX8ZRN9A9V9G643CG11FCUUHBYF","A3LL096CAY5WHB","388CL5C1RJ9X03EZUESK4LKS9TSHL1","","img/set1/S1.jpg","83","1","structured_normal","83","structured_normal,structured_incentive,structured_load,random","2,3,2,1,3,4","2,3,4,1","true","","",""
"null","","html-keyboard-response","329","184004","0.0-329.0","3A0EX8ZRN9A9V9G643CG11FCUUHBYF","A3LL096CAY5WHB","388CL5C1RJ9X03EZUESK4LKS9TSHL1","","<img src=""img/set1/S1.jpg"" width=""540"" height = ""360"" style=""border:16px solid orange"">","null","","","","","","","","","",""
"null","","html-keyboard-response","330","184207","0.0-330.0","3A0EX8ZRN9A9V9G643CG11FCUUHBYF","A3LL096CAY5WHB","388CL5C1RJ9X03EZUESK4LKS9TSHL1","","","null","","","","","","","","","",""
"660.1999999880791","","image-keyboard-response","331","184868","0.0-331.0","3A0EX8ZRN9A9V9G643CG11FCUUHBYF","A3LL096CAY5WHB","388CL5C1RJ9X03EZUESK4LKS9TSHL1","","img/set1/S2.jpg","68","2","structured_normal","68","structured_normal,structured_incentive,structured_load,random","2,3,2,1,3,4","2,3,4,1","true","","",""
"null","","html-keyboard-response","332","185234","0.0-332.0","3A0EX8ZRN9A9V9G643CG11FCUUHBYF","A3LL096CAY5WHB","388CL5C1RJ9X03EZUESK4LKS9TSHL1","","<img src=""img/set1/S2.jpg"" width=""540"" height = ""360"" style=""border:16px solid orange"">","null","","","","","","","","","",""
"null","","html-keyboard-response","333","185436","0.0-333.0","3A0EX8ZRN9A9V9G643CG11FCUUHBYF","A3LL096CAY5WHB","388CL5C1RJ9X03EZUESK4LKS9TSHL1","","","null","","","","","","","","","",""
"1102.199999988079","","image-keyboard-response","334","186539","0.0-334.0","3A0EX8ZRN9A9V9G643CG11FCUUHBYF","A3LL096CAY5WHB","388CL5C1RJ9X03EZUESK4LKS9TSHL1","","img/set1/S3.jpg","72","3","structured_normal","72","structured_normal,structured_incentive,structured_load,random","2,3,2,1,3,4","2,3,4,1","true","","",""
"null","","html-keyboard-response","335","186897","0.0-335.0","3A0EX8ZRN9A9V9G643CG11FCUUHBYF","A3LL096CAY5WHB","388CL5C1RJ9X03EZUESK4LKS9TSHL1","","<img src=""img/set1/S3.jpg"" width=""540"" height = ""360"" style=""border:16px solid orange"">","null","","","","","","","","","",""
"null","","html-keyboard-response","336","187113","0.0-336.0","3A0EX8ZRN9A9V9G643CG11FCUUHBYF","A3LL096CAY5WHB","388CL5C1RJ9X03EZUESK4LKS9TSHL1","","","null","","","","","","","","","",""
"808.9000000357628","","image-keyboard-response","337","187923","0.0-337.0","3A0EX8ZRN9A9V9G643CG11FCUUHBYF","A3LL096CAY5WHB","388CL5C1RJ9X03EZUESK4LKS9TSHL1","","img/set1/S2.jpg","68","2","structured_normal","68","structured_normal,structured_incentive,structured_load,random","2,3,2,1,3,4","2,3,4,1","true","","",""
"null","","html-keyboard-response","338","188281","0.0-338.0","3A0EX8ZRN9A9V9G643CG11FCUUHBYF","A3LL096CAY5WHB","388CL5C1RJ9X03EZUESK4LKS9TSHL1","","<img src=""img/set1/S2.jpg"" width=""540"" height = ""360"" style=""border:16px solid orange"">","null","","","","","","","","","",""
"null","","html-keyboard-response","339","188483","0.0-339.0","3A0EX8ZRN9A9V9G643CG11FCUUHBYF","A3LL096CAY5WHB","388CL5C1RJ9X03EZUESK4LKS9TSHL1","","","null","","","","","","","","","",""
"997.4000000357628","","image-keyboard-response","340","189481","0.0-340.0","3A0EX8ZRN9A9V9G643CG11FCUUHBYF","A3LL096CAY5WHB","388CL5C1RJ9X03EZUESK4LKS9TSHL1","","img/set1/S3.jpg","72","3","structured_normal","72","structured_normal,structured_incentive,structured_load,random","2,3,2,1,3,4","2,3,4,1","true","","",""
"null","","html-keyboard-response","341","189840","0.0-341.0","3A0EX8ZRN9A9V9G643CG11FCUUHBYF","A3LL096CAY5WHB","388CL5C1RJ9X03EZUESK4LKS9TSHL1","","<img src=""img/set1/S3.jpg"" width=""540"" height = ""360"" style=""border:16px solid orange"">","null","","","","","","","","","",""
"null","","html-keyboard-response","342","190042","0.0-342.0","3A0EX8ZRN9A9V9G643CG11FCUUHBYF","A3LL096CAY5WHB","388CL5C1RJ9X03EZUESK4LKS9TSHL1","","","null","","","","","","","","","",""
"820","","image-keyboard-response","343","190863","0.0-343.0","3A0EX8ZRN9A9V9G643CG11FCUUHBYF","A3LL096CAY5WHB","388CL5C1RJ9X03EZUESK4LKS9TSHL1","","img/set1/S2.jpg","68","2","structured_normal","68","structured_normal,structured_incentive,structured_load,random","2,3,2,1,3,4","2,3,4,1","true","","",""
"null","","html-keyboard-response","344","191222","0.0-344.0","3A0EX8ZRN9A9V9G643CG11FCUUHBYF","A3LL096CAY5WHB","388CL5C1RJ9X03EZUESK4LKS9TSHL1","","<img src=""img/set1/S2.jpg"" width=""540"" height = ""360"" style=""border:16px solid orange"">","null","","","","","","","","","",""
"null","","html-keyboard-response","345","191423","0.0-345.0","3A0EX8ZRN9A9V9G643CG11FCUUHBYF","A3LL096CAY5WHB","388CL5C1RJ9X03EZUESK4LKS9TSHL1","","","null","","","","","","","","","",""
"772.6999999880791","","image-keyboard-response","346","192197","0.0-346.0","3A0EX8ZRN9A9V9G643CG11FCUUHBYF","A3LL096CAY5WHB","388CL5C1RJ9X03EZUESK4LKS9TSHL1","","img/set1/S3.jpg","72","3","structured_normal","72","structured_normal,structured_incentive,structured_load,random","2,3,2,1,3,4","2,3,4,1","true","","",""
"null","","html-keyboard-response","347","192553","0.0-347.0","3A0EX8ZRN9A9V9G643CG11FCUUHBYF","A3LL096CAY5WHB","388CL5C1RJ9X03EZUESK4LKS9TSHL1","","<img src=""img/set1/S3.jpg"" width=""540"" height = ""360"" style=""border:16px solid orange"">","null","","","","","","","","","",""
"null","","html-keyboard-response","348","192758","0.0-348.0","3A0EX8ZRN9A9V9G643CG11FCUUHBYF","A3LL096CAY5WHB","388CL5C1RJ9X03EZUESK4LKS9TSHL1","","","null","","","","","","","","","",""
"578.8999999761581","","image-keyboard-response","349","193338","0.0-349.0","3A0EX8ZRN9A9V9G643CG11FCUUHBYF","A3LL096CAY5WHB","388CL5C1RJ9X03EZUESK4LKS9TSHL1","","img/set1/S2.jpg","68","2","structured_normal","68","structured_normal,structured_incentive,structured_load,random","2,3,2,1,3,4","2,3,4,1","true","","",""
"null","","html-keyboard-response","350","193701","0.0-350.0","3A0EX8ZRN9A9V9G643CG11FCUUHBYF","A3LL096CAY5WHB","388CL5C1RJ9X03EZUESK4LKS9TSHL1","","<img src=""img/set1/S2.jpg"" width=""540"" height = ""360"" style=""border:16px solid orange"">","null","","","","","","","","","",""
"null","","html-keyboard-response","351","193906","0.0-351.0","3A0EX8ZRN9A9V9G643CG11FCUUHBYF","A3LL096CAY5WHB","388CL5C1RJ9X03EZUESK4LKS9TSHL1","","","null","","","","","","","","","",""
"396.30000001192093","","image-keyboard-response","352","194303","0.0-352.0","3A0EX8ZRN9A9V9G643CG11FCUUHBYF","A3LL096CAY5WHB","388CL5C1RJ9X03EZUESK4LKS9TSHL1","","img/set1/S3.jpg","72","3","structured_normal","72","structured_normal,structured_incentive,structured_load,random","2,3,2,1,3,4","2,3,4,1","true","","",""
"null","","html-keyboard-response","353","194668","0.0-353.0","3A0EX8ZRN9A9V9G643CG11FCUUHBYF","A3LL096CAY5WHB","388CL5C1RJ9X03EZUESK4LKS9TSHL1","","<img src=""img/set1/S3.jpg"" width=""540"" height = ""360"" style=""border:16px solid orange"">","null","","","","","","","","","",""
"null","","html-keyboard-response","354","194870","0.0-354.0","3A0EX8ZRN9A9V9G643CG11FCUUHBYF","A3LL096CAY5WHB","388CL5C1RJ9X03EZUESK4LKS9TSHL1","","","null","","","","","","","","","",""
"637.1000000238419","","image-keyboard-response","355","195508","0.0-355.0","3A0EX8ZRN9A9V9G643CG11FCUUHBYF","A3LL096CAY5WHB","388CL5C1RJ9X03EZUESK4LKS9TSHL1","","img/set1/S2.jpg","68","2","structured_normal","68","structured_normal,structured_incentive,structured_load,random","2,3,2,1,3,4","2,3,4,1","true","","",""
"null","","html-keyboard-response","356","195865","0.0-356.0","3A0EX8ZRN9A9V9G643CG11FCUUHBYF","A3LL096CAY5WHB","388CL5C1RJ9X03EZUESK4LKS9TSHL1","","<img src=""img/set1/S2.jpg"" width=""540"" height = ""360"" style=""border:16px solid orange"">","null","","","","","","","","","",""
"null","","html-keyboard-response","357","196067","0.0-357.0","3A0EX8ZRN9A9V9G643CG11FCUUHBYF","A3LL096CAY5WHB","388CL5C1RJ9X03EZUESK4LKS9TSHL1","","","null","","","","","","","","","",""
"583.1999999880791","","image-keyboard-response","358","196650","0.0-358.0","3A0EX8ZRN9A9V9G643CG11FCUUHBYF","A3LL096CAY5WHB","388CL5C1RJ9X03EZUESK4LKS9TSHL1","","img/set1/S3.jpg","72","3","structured_normal","72","structured_normal,structured_incentive,structured_load,random","2,3,2,1,3,4","2,3,4,1","true","","",""
"null","","html-keyboard-response","359","197012","0.0-359.0","3A0EX8ZRN9A9V9G643CG11FCUUHBYF","A3LL096CAY5WHB","388CL5C1RJ9X03EZUESK4LKS9TSHL1","","<img src=""img/set1/S3.jpg"" width=""540"" height = ""360"" style=""border:16px solid orange"">","null","","","","","","","","","",""
"null","","html-keyboard-response","360","197216","0.0-360.0","3A0EX8ZRN9A9V9G643CG11FCUUHBYF","A3LL096CAY5WHB","388CL5C1RJ9X03EZUESK4LKS9TSHL1","","","null","","","","","","","","","",""
"606.5999999642372","","image-keyboard-response","361","197823","0.0-361.0","3A0EX8ZRN9A9V9G643CG11FCUUHBYF","A3LL096CAY5WHB","388CL5C1RJ9X03EZUESK4LKS9TSHL1","","img/set1/S1.jpg","68","1","structured_normal","83","structured_normal,structured_incentive,structured_load,random","2,3,2,1,3,4","2,3,4,1","false","","",""
"null","","html-keyboard-response","362","198181","0.0-362.0","3A0EX8ZRN9A9V9G643CG11FCUUHBYF","A3LL096CAY5WHB","388CL5C1RJ9X03EZUESK4LKS9TSHL1","","<img src=""img/set1/S1.jpg"" width=""540"" height = ""360"">","null","","","","","","","","","",""
"null","","html-keyboard-response","363","198396","0.0-363.0","3A0EX8ZRN9A9V9G643CG11FCUUHBYF","A3LL096CAY5WHB","388CL5C1RJ9X03EZUESK4LKS9TSHL1","","","null","","","","","","","","","",""
"3413.300000011921","","html-keyboard-response","364","201810","0.0-364.0","3A0EX8ZRN9A9V9G643CG11FCUUHBYF","A3LL096CAY5WHB","388CL5C1RJ9X03EZUESK4LKS9TSHL1","","<p class=""center-content"">You have completed a block! </p><p class=""center-content"">Press any key on the keyboard to continue, </p><p class=""center-content"">or wait for the automatic progression to the next block after one minute.</p>","38","","","","","","","","","",""
"5692.199999988079","","instructions","365","207503","0.0-365.0","3A0EX8ZRN9A9V9G643CG11FCUUHBYF","A3LL096CAY5WHB","388CL5C1RJ9X03EZUESK4LKS9TSHL1","[{""page_index"":0,""viewing_time"":5691.899999976158}]","","","","","","","","","","","",""
"10089.600000023842","","instructions","366","217593","0.0-366.0","3A0EX8ZRN9A9V9G643CG11FCUUHBYF","A3LL096CAY5WHB","388CL5C1RJ9X03EZUESK4LKS9TSHL1","[{""page_index"":0,""viewing_time"":5923.600000023842},{""page_index"":1,""viewing_time"":4165.799999952316}]","","","","","","","","","","","",""
"1204.0999999642372","","image-keyboard-response","367","218798","0.0-367.0","3A0EX8ZRN9A9V9G643CG11FCUUHBYF","A3LL096CAY5WHB","388CL5C1RJ9X03EZUESK4LKS9TSHL1","","img/set2/S2.jpg","83","2","structured_incentive","68","structured_normal,structured_incentive,structured_load,random","2,3,2,1,3,4","2,3,4,1","false","","",""
"null","","html-keyboard-response","368","219159","0.0-368.0","3A0EX8ZRN9A9V9G643CG11FCUUHBYF","A3LL096CAY5WHB","388CL5C1RJ9X03EZUESK4LKS9TSHL1","","<img src=""img/set2/S2.jpg"" width=""540"" height = ""360"">","null","","","","","","","","","",""
"null","","html-keyboard-response","369","219361","0.0-369.0","3A0EX8ZRN9A9V9G643CG11FCUUHBYF","A3LL096CAY5WHB","388CL5C1RJ9X03EZUESK4LKS9TSHL1","","","null","","","","","","","","","",""
"931.2000000476837","","image-keyboard-response","370","220293","0.0-370.0","3A0EX8ZRN9A9V9G643CG11FCUUHBYF","A3LL096CAY5WHB","388CL5C1RJ9X03EZUESK4LKS9TSHL1","","img/set2/S1.jpg","72","1","structured_incentive","83","structured_normal,structured_incentive,structured_load,random","2,3,2,1,3,4","2,3,4,1","false","","",""
"null","","html-keyboard-response","371","220648","0.0-371.0","3A0EX8ZRN9A9V9G643CG11FCUUHBYF","A3LL096CAY5WHB","388CL5C1RJ9X03EZUESK4LKS9TSHL1","","<img src=""img/set2/S1.jpg"" width=""540"" height = ""360"">","null","","","","","","","","","",""
"null","","html-keyboard-response","372","220851","0.0-372.0","3A0EX8ZRN9A9V9G643CG11FCUUHBYF","A3LL096CAY5WHB","388CL5C1RJ9X03EZUESK4LKS9TSHL1","","","null","","","","","","","","","",""
"968.1000000238419","","image-keyboard-response","373","221820","0.0-373.0","3A0EX8ZRN9A9V9G643CG11FCUUHBYF","A3LL096CAY5WHB","388CL5C1RJ9X03EZUESK4LKS9TSHL1","","img/set2/S2.jpg","74","2","structured_incentive","68","structured_normal,structured_incentive,structured_load,random","2,3,2,1,3,4","2,3,4,1","false","","",""
"null","","html-keyboard-response","374","222186","0.0-374.0","3A0EX8ZRN9A9V9G643CG11FCUUHBYF","A3LL096CAY5WHB","388CL5C1RJ9X03EZUESK4LKS9TSHL1","","<img src=""img/set2/S2.jpg"" width=""540"" height = ""360"">","null","","","","","","","","","",""
"null","","html-keyboard-response","375","222389","0.0-375.0","3A0EX8ZRN9A9V9G643CG11FCUUHBYF","A3LL096CAY5WHB","388CL5C1RJ9X03EZUESK4LKS9TSHL1","","","null","","","","","","","","","",""
"603.6999999880791","","image-keyboard-response","376","222994","0.0-376.0","3A0EX8ZRN9A9V9G643CG11FCUUHBYF","A3LL096CAY5WHB","388CL5C1RJ9X03EZUESK4LKS9TSHL1","","img/set2/S1.jpg","83","1","structured_incentive","83","structured_normal,structured_incentive,structured_load,random","2,3,2,1,3,4","2,3,4,1","true","","",""
"null","","html-keyboard-response","377","223351","0.0-377.0","3A0EX8ZRN9A9V9G643CG11FCUUHBYF","A3LL096CAY5WHB","388CL5C1RJ9X03EZUESK4LKS9TSHL1","","<img src=""img/set2/S1.jpg"" width=""540"" height = ""360"" style=""border:16px solid Violet"">","null","","","","","","","","","",""
"null","","html-keyboard-response","378","223553","0.0-378.0","3A0EX8ZRN9A9V9G643CG11FCUUHBYF","A3LL096CAY5WHB","388CL5C1RJ9X03EZUESK4LKS9TSHL1","","","null","","","","","","","","","",""
"871.0999999642372","","image-keyboard-response","379","224425","0.0-379.0","3A0EX8ZRN9A9V9G643CG11FCUUHBYF","A3LL096CAY5WHB","388CL5C1RJ9X03EZUESK4LKS9TSHL1","","img/set2/S3.jpg","74","3","structured_incentive","72","structured_normal,structured_incentive,structured_load,random","2,3,2,1,3,4","2,3,4,1","false","","",""
"null","","html-keyboard-response","380","224784","0.0-380.0","3A0EX8ZRN9A9V9G643CG11FCUUHBYF","A3LL096CAY5WHB","388CL5C1RJ9X03EZUESK4LKS9TSHL1","","<img src=""img/set2/S3.jpg"" width=""540"" height = ""360"">","null","","","","","","","","","",""
