"rt","url","trial_type","trial_index","time_elapsed","internal_node_id","assignmentID","mturkID","hitID","view_history","stimulus","key_press","state","test_part","correct_response","order_block","order_chunk","order_freq","correct","responses","question_order","bonus"
"5181","consent.html","external-html","0","7779","0.0-0.0","3F1567XTNXRHYEANF9HQX9HK8Q49QI","A3LVLZS8S41ZD7","3RSBJ6YZECCLSSQQCGKCTHC9OPAFOK","","","","","","","","","","","","",""
"188653","","instructions","1","196435","0.0-1.0","3F1567XTNXRHYEANF9HQX9HK8Q49QI","A3LVLZS8S41ZD7","3RSBJ6YZECCLSSQQCGKCTHC9OPAFOK","[{""page_index"":0,""viewing_time"":10597},{""page_index"":1,""viewing_time"":26922},{""page_index"":2,""viewing_time"":28749},{""page_index"":3,""viewing_time"":45049},{""page_index"":4,""viewing_time"":9576},{""page_index"":5,""viewing_time"":53192},{""page_index"":6,""viewing_time"":14567}]","","","","","","","","","","","",""
"35814","","instructions","2","232251","0.0-2.0","3F1567XTNXRHYEANF9HQX9HK8Q49QI","A3LVLZS8S41ZD7","3RSBJ6YZECCLSSQQCGKCTHC9OPAFOK","[{""page_index"":0,""viewing_time"":35813}]","","","","","","","","","","","",""
"63093","","instructions","3","295346","0.0-3.0","3F1567XTNXRHYEANF9HQX9HK8Q49QI","A3LVLZS8S41ZD7","3RSBJ6YZECCLSSQQCGKCTHC9OPAFOK","[{""page_index"":0,""viewing_time"":56181},{""page_index"":1,""viewing_time"":6912}]","","","","","","","","","","","",""
"null","","image-keyboard-response","4","297887","0.0-4.0","3F1567XTNXRHYEANF9HQX9HK8Q49QI","A3LVLZS8S41ZD7","3RSBJ6YZECCLSSQQCGKCTHC9OPAFOK","","img/set1/S4.jpg","null","4","structured_load","74","structured_load,random,structured_incentive,structured_normal","4,2,2,3,1,2","4,1,3,2","false","","",""
"null","","html-keyboard-response","5","298241","0.0-5.0","3F1567XTNXRHYEANF9HQX9HK8Q49QI","A3LVLZS8S41ZD7","3RSBJ6YZECCLSSQQCGKCTHC9OPAFOK","","<img src=""img/set1/S4.jpg"" width=""540"" height = ""360"">","null","","","","","","","","","",""
"null","","html-keyboard-response","6","298447","0.0-6.0","3F1567XTNXRHYEANF9HQX9HK8Q49QI","A3LVLZS8S41ZD7","3RSBJ6YZECCLSSQQCGKCTHC9OPAFOK","","","null","","","","","","","","","",""
"2455","","image-keyboard-response","7","300906","0.0-7.0","3F1567XTNXRHYEANF9HQX9HK8Q49QI","A3LVLZS8S41ZD7","3RSBJ6YZECCLSSQQCGKCTHC9OPAFOK","","img/set1/S3.jpg","72","3","structured_load","72","structured_load,random,structured_incentive,structured_normal","4,2,2,3,1,2","4,1,3,2","true","","",""
"null","","html-keyboard-response","8","301262","0.0-8.0","3F1567XTNXRHYEANF9HQX9HK8Q49QI","A3LVLZS8S41ZD7","3RSBJ6YZECCLSSQQCGKCTHC9OPAFOK","","<img src=""img/set1/S3.jpg"" width=""540"" height = ""360"" style=""border:16px solid orange"">","null","","","","","","","","","",""
"null","","html-keyboard-response","9","301473","0.0-9.0","3F1567XTNXRHYEANF9HQX9HK8Q49QI","A3LVLZS8S41ZD7","3RSBJ6YZECCLSSQQCGKCTHC9OPAFOK","","","null","","","","","","","","","",""
"1101","","image-keyboard-response","10","302576","0.0-10.0","3F1567XTNXRHYEANF9HQX9HK8Q49QI","A3LVLZS8S41ZD7","3RSBJ6YZECCLSSQQCGKCTHC9OPAFOK","","img/set1/S4.jpg","83","4","structured_load","74","structured_load,random,structured_incentive,structured_normal","4,2,2,3,1,2","4,1,3,2","false","","",""
"null","","html-keyboard-response","11","302939","0.0-11.0","3F1567XTNXRHYEANF9HQX9HK8Q49QI","A3LVLZS8S41ZD7","3RSBJ6YZECCLSSQQCGKCTHC9OPAFOK","","<img src=""img/set1/S4.jpg"" width=""540"" height = ""360"">","null","","","","","","","","","",""
"null","","html-keyboard-response","12","303141","0.0-12.0","3F1567XTNXRHYEANF9HQX9HK8Q49QI","A3LVLZS8S41ZD7","3RSBJ6YZECCLSSQQCGKCTHC9OPAFOK","","","null","","","","","","","","","",""
"777","","image-keyboard-response","13","303920","0.0-13.0","3F1567XTNXRHYEANF9HQX9HK8Q49QI","A3LVLZS8S41ZD7","3RSBJ6YZECCLSSQQCGKCTHC9OPAFOK","","img/set1/S3.jpg","72","3","structured_load","72","structured_load,random,structured_incentive,structured_normal","4,2,2,3,1,2","4,1,3,2","true","","",""
"null","","html-keyboard-response","14","304277","0.0-14.0","3F1567XTNXRHYEANF9HQX9HK8Q49QI","A3LVLZS8S41ZD7","3RSBJ6YZECCLSSQQCGKCTHC9OPAFOK","","<img src=""img/set1/S3.jpg"" width=""540"" height = ""360"" style=""border:16px solid orange"">","null","","","","","","","","","",""
"null","","html-keyboard-response","15","304479","0.0-15.0","3F1567XTNXRHYEANF9HQX9HK8Q49QI","A3LVLZS8S41ZD7","3RSBJ6YZECCLSSQQCGKCTHC9OPAFOK","","","null","","","","","","","","","",""
"815","","image-keyboard-response","16","305296","0.0-16.0","3F1567XTNXRHYEANF9HQX9HK8Q49QI","A3LVLZS8S41ZD7","3RSBJ6YZECCLSSQQCGKCTHC9OPAFOK","","img/set1/S4.jpg","68","4","structured_load","74","structured_load,random,structured_incentive,structured_normal","4,2,2,3,1,2","4,1,3,2","false","","",""
"null","","html-keyboard-response","17","305672","0.0-17.0","3F1567XTNXRHYEANF9HQX9HK8Q49QI","A3LVLZS8S41ZD7","3RSBJ6YZECCLSSQQCGKCTHC9OPAFOK","","<img src=""img/set1/S4.jpg"" width=""540"" height = ""360"">","null","","","","","","","","","",""
"null","","html-keyboard-response","18","305883","0.0-18.0","3F1567XTNXRHYEANF9HQX9HK8Q49QI","A3LVLZS8S41ZD7","3RSBJ6YZECCLSSQQCGKCTHC9OPAFOK","","","null","","","","","","","","","",""
"1139","","image-keyboard-response","19","307024","0.0-19.0","3F1567XTNXRHYEANF9HQX9HK8Q49QI","A3LVLZS8S41ZD7","3RSBJ6YZECCLSSQQCGKCTHC9OPAFOK","","img/set1/S2.jpg","74","2","structured_load","68","structured_load,random,structured_incentive,structured_normal","4,2,2,3,1,2","4,1,3,2","false","","",""
"null","","html-keyboard-response","20","307384","0.0-20.0","3F1567XTNXRHYEANF9HQX9HK8Q49QI","A3LVLZS8S41ZD7","3RSBJ6YZECCLSSQQCGKCTHC9OPAFOK","","<img src=""img/set1/S2.jpg"" width=""540"" height = ""360"">","null","","","","","","","","","",""
"null","","html-keyboard-response","21","307593","0.0-21.0","3F1567XTNXRHYEANF9HQX9HK8Q49QI","A3LVLZS8S41ZD7","3RSBJ6YZECCLSSQQCGKCTHC9OPAFOK","","","null","","","","","","","","","",""
"869","","image-keyboard-response","22","308464","0.0-22.0","3F1567XTNXRHYEANF9HQX9HK8Q49QI","A3LVLZS8S41ZD7","3RSBJ6YZECCLSSQQCGKCTHC9OPAFOK","","img/set1/S1.jpg","68","1","structured_load","83","structured_load,random,structured_incentive,structured_normal","4,2,2,3,1,2","4,1,3,2","false","","",""
"null","","html-keyboard-response","23","308827","0.0-23.0","3F1567XTNXRHYEANF9HQX9HK8Q49QI","A3LVLZS8S41ZD7","3RSBJ6YZECCLSSQQCGKCTHC9OPAFOK","","<img src=""img/set1/S1.jpg"" width=""540"" height = ""360"">","null","","","","","","","","","",""
"null","","html-keyboard-response","24","309031","0.0-24.0","3F1567XTNXRHYEANF9HQX9HK8Q49QI","A3LVLZS8S41ZD7","3RSBJ6YZECCLSSQQCGKCTHC9OPAFOK","","","null","","","","","","","","","",""
"696","","image-keyboard-response","25","309729","0.0-25.0","3F1567XTNXRHYEANF9HQX9HK8Q49QI","A3LVLZS8S41ZD7","3RSBJ6YZECCLSSQQCGKCTHC9OPAFOK","","img/set1/S1.jpg","83","1","structured_load","83","structured_load,random,structured_incentive,structured_normal","4,2,2,3,1,2","4,1,3,2","true","","",""
"null","","html-keyboard-response","26","310093","0.0-26.0","3F1567XTNXRHYEANF9HQX9HK8Q49QI","A3LVLZS8S41ZD7","3RSBJ6YZECCLSSQQCGKCTHC9OPAFOK","","<img src=""img/set1/S1.jpg"" width=""540"" height = ""360"" style=""border:16px solid orange"">","null","","","","","","","","","",""
"null","","html-keyboard-response","27","310298","0.0-27.0","3F1567XTNXRHYEANF9HQX9HK8Q49QI","A3LVLZS8S41ZD7","3RSBJ6YZECCLSSQQCGKCTHC9OPAFOK","","","null","","","","","","","","","",""
"732","","image-keyboard-response","28","311032","0.0-28.0","3F1567XTNXRHYEANF9HQX9HK8Q49QI","A3LVLZS8S41ZD7","3RSBJ6YZECCLSSQQCGKCTHC9OPAFOK","","img/set1/S3.jpg","72","3","structured_load","72","structured_load,random,structured_incentive,structured_normal","4,2,2,3,1,2","4,1,3,2","true","","",""
"null","","html-keyboard-response","29","311416","0.0-29.0","3F1567XTNXRHYEANF9HQX9HK8Q49QI","A3LVLZS8S41ZD7","3RSBJ6YZECCLSSQQCGKCTHC9OPAFOK","","<img src=""img/set1/S3.jpg"" width=""540"" height = ""360"" style=""border:16px solid orange"">","null","","","","","","","","","",""
"null","","html-keyboard-response","30","311634","0.0-30.0","3F1567XTNXRHYEANF9HQX9HK8Q49QI","A3LVLZS8S41ZD7","3RSBJ6YZECCLSSQQCGKCTHC9OPAFOK","","","null","","","","","","","","","",""
"1116","","image-keyboard-response","31","312751","0.0-31.0","3F1567XTNXRHYEANF9HQX9HK8Q49QI","A3LVLZS8S41ZD7","3RSBJ6YZECCLSSQQCGKCTHC9OPAFOK","","img/set1/S4.jpg","72","4","structured_load","74","structured_load,random,structured_incentive,structured_normal","4,2,2,3,1,2","4,1,3,2","false","","",""
"null","","html-keyboard-response","32","313113","0.0-32.0","3F1567XTNXRHYEANF9HQX9HK8Q49QI","A3LVLZS8S41ZD7","3RSBJ6YZECCLSSQQCGKCTHC9OPAFOK","","<img src=""img/set1/S4.jpg"" width=""540"" height = ""360"">","null","","","","","","","","","",""
"null","","html-keyboard-response","33","313321","0.0-33.0","3F1567XTNXRHYEANF9HQX9HK8Q49QI","A3LVLZS8S41ZD7","3RSBJ6YZECCLSSQQCGKCTHC9OPAFOK","","","null","","","","","","","","","",""
"844","","image-keyboard-response","34","314168","0.0-34.0","3F1567XTNXRHYEANF9HQX9HK8Q49QI","A3LVLZS8S41ZD7","3RSBJ6YZECCLSSQQCGKCTHC9OPAFOK","","img/set1/S2.jpg","74","2","structured_load","68","structured_load,random,structured_incentive,structured_normal","4,2,2,3,1,2","4,1,3,2","false","","",""
"null","","html-keyboard-response","35","314537","0.0-35.0","3F1567XTNXRHYEANF9HQX9HK8Q49QI","A3LVLZS8S41ZD7","3RSBJ6YZECCLSSQQCGKCTHC9OPAFOK","","<img src=""img/set1/S2.jpg"" width=""540"" height = ""360"">","null","","","","","","","","","",""
"null","","html-keyboard-response","36","314744","0.0-36.0","3F1567XTNXRHYEANF9HQX9HK8Q49QI","A3LVLZS8S41ZD7","3RSBJ6YZECCLSSQQCGKCTHC9OPAFOK","","","null","","","","","","","","","",""
"807","","image-keyboard-response","37","315553","0.0-37.0","3F1567XTNXRHYEANF9HQX9HK8Q49QI","A3LVLZS8S41ZD7","3RSBJ6YZECCLSSQQCGKCTHC9OPAFOK","","img/set1/S3.jpg","72","3","structured_load","72","structured_load,random,structured_incentive,structured_normal","4,2,2,3,1,2","4,1,3,2","true","","",""
"null","","html-keyboard-response","38","315917","0.0-38.0","3F1567XTNXRHYEANF9HQX9HK8Q49QI","A3LVLZS8S41ZD7","3RSBJ6YZECCLSSQQCGKCTHC9OPAFOK","","<img src=""img/set1/S3.jpg"" width=""540"" height = ""360"" style=""border:16px solid orange"">","null","","","","","","","","","",""
"null","","html-keyboard-response","39","316133","0.0-39.0","3F1567XTNXRHYEANF9HQX9HK8Q49QI","A3LVLZS8S41ZD7","3RSBJ6YZECCLSSQQCGKCTHC9OPAFOK","","","null","","","","","","","","","",""
"1024","","image-keyboard-response","40","317160","0.0-40.0","3F1567XTNXRHYEANF9HQX9HK8Q49QI","A3LVLZS8S41ZD7","3RSBJ6YZECCLSSQQCGKCTHC9OPAFOK","","img/set1/S1.jpg","83","1","structured_load","83","structured_load,random,structured_incentive,structured_normal","4,2,2,3,1,2","4,1,3,2","true","","",""
"null","","html-keyboard-response","41","317523","0.0-41.0","3F1567XTNXRHYEANF9HQX9HK8Q49QI","A3LVLZS8S41ZD7","3RSBJ6YZECCLSSQQCGKCTHC9OPAFOK","","<img src=""img/set1/S1.jpg"" width=""540"" height = ""360"" style=""border:16px solid orange"">","null","","","","","","","","","",""
"null","","html-keyboard-response","42","317731","0.0-42.0","3F1567XTNXRHYEANF9HQX9HK8Q49QI","A3LVLZS8S41ZD7","3RSBJ6YZECCLSSQQCGKCTHC9OPAFOK","","","null","","","","","","","","","",""
"891","","image-keyboard-response","43","318625","0.0-43.0","3F1567XTNXRHYEANF9HQX9HK8Q49QI","A3LVLZS8S41ZD7","3RSBJ6YZECCLSSQQCGKCTHC9OPAFOK","","img/set1/S1.jpg","83","1","structured_load","83","structured_load,random,structured_incentive,structured_normal","4,2,2,3,1,2","4,1,3,2","true","","",""
"null","","html-keyboard-response","44","318978","0.0-44.0","3F1567XTNXRHYEANF9HQX9HK8Q49QI","A3LVLZS8S41ZD7","3RSBJ6YZECCLSSQQCGKCTHC9OPAFOK","","<img src=""img/set1/S1.jpg"" width=""540"" height = ""360"" style=""border:16px solid orange"">","null","","","","","","","","","",""
"null","","html-keyboard-response","45","319185","0.0-45.0","3F1567XTNXRHYEANF9HQX9HK8Q49QI","A3LVLZS8S41ZD7","3RSBJ6YZECCLSSQQCGKCTHC9OPAFOK","","","null","","","","","","","","","",""
"1549","","image-keyboard-response","46","320735","0.0-46.0","3F1567XTNXRHYEANF9HQX9HK8Q49QI","A3LVLZS8S41ZD7","3RSBJ6YZECCLSSQQCGKCTHC9OPAFOK","","img/set1/S4.jpg","68","4","structured_load","74","structured_load,random,structured_incentive,structured_normal","4,2,2,3,1,2","4,1,3,2","false","","",""
"null","","html-keyboard-response","47","321089","0.0-47.0","3F1567XTNXRHYEANF9HQX9HK8Q49QI","A3LVLZS8S41ZD7","3RSBJ6YZECCLSSQQCGKCTHC9OPAFOK","","<img src=""img/set1/S4.jpg"" width=""540"" height = ""360"">","null","","","","","","","","","",""
"null","","html-keyboard-response","48","321294","0.0-48.0","3F1567XTNXRHYEANF9HQX9HK8Q49QI","A3LVLZS8S41ZD7","3RSBJ6YZECCLSSQQCGKCTHC9OPAFOK","","","null","","","","","","","","","",""
"912","","image-keyboard-response","49","322207","0.0-49.0","3F1567XTNXRHYEANF9HQX9HK8Q49QI","A3LVLZS8S41ZD7","3RSBJ6YZECCLSSQQCGKCTHC9OPAFOK","","img/set1/S2.jpg","74","2","structured_load","68","structured_load,random,structured_incentive,structured_normal","4,2,2,3,1,2","4,1,3,2","false","","",""
"null","","html-keyboard-response","50","322572","0.0-50.0","3F1567XTNXRHYEANF9HQX9HK8Q49QI","A3LVLZS8S41ZD7","3RSBJ6YZECCLSSQQCGKCTHC9OPAFOK","","<img src=""img/set1/S2.jpg"" width=""540"" height = ""360"">","null","","","","","","","","","",""
"null","","html-keyboard-response","51","322796","0.0-51.0","3F1567XTNXRHYEANF9HQX9HK8Q49QI","A3LVLZS8S41ZD7","3RSBJ6YZECCLSSQQCGKCTHC9OPAFOK","","","null","","","","","","","","","",""
"874","","image-keyboard-response","52","323672","0.0-52.0","3F1567XTNXRHYEANF9HQX9HK8Q49QI","A3LVLZS8S41ZD7","3RSBJ6YZECCLSSQQCGKCTHC9OPAFOK","","img/set1/S1.jpg","72","1","structured_load","83","structured_load,random,structured_incentive,structured_normal","4,2,2,3,1,2","4,1,3,2","false","","",""
"null","","html-keyboard-response","53","324033","0.0-53.0","3F1567XTNXRHYEANF9HQX9HK8Q49QI","A3LVLZS8S41ZD7","3RSBJ6YZECCLSSQQCGKCTHC9OPAFOK","","<img src=""img/set1/S1.jpg"" width=""540"" height = ""360"">","null","","","","","","","","","",""
"null","","html-keyboard-response","54","324244","0.0-54.0","3F1567XTNXRHYEANF9HQX9HK8Q49QI","A3LVLZS8S41ZD7","3RSBJ6YZECCLSSQQCGKCTHC9OPAFOK","","","null","","","","","","","","","",""
"1329","","image-keyboard-response","55","325576","0.0-55.0","3F1567XTNXRHYEANF9HQX9HK8Q49QI","A3LVLZS8S41ZD7","3RSBJ6YZECCLSSQQCGKCTHC9OPAFOK","","img/set1/S4.jpg","83","4","structured_load","74","structured_load,random,structured_incentive,structured_normal","4,2,2,3,1,2","4,1,3,2","false","","",""
"null","","html-keyboard-response","56","325934","0.0-56.0","3F1567XTNXRHYEANF9HQX9HK8Q49QI","A3LVLZS8S41ZD7","3RSBJ6YZECCLSSQQCGKCTHC9OPAFOK","","<img src=""img/set1/S4.jpg"" width=""540"" height = ""360"">","null","","","","","","","","","",""
"null","","html-keyboard-response","57","326140","0.0-57.0","3F1567XTNXRHYEANF9HQX9HK8Q49QI","A3LVLZS8S41ZD7","3RSBJ6YZECCLSSQQCGKCTHC9OPAFOK","","","null","","","","","","","","","",""
"1433","","image-keyboard-response","58","327575","0.0-58.0","3F1567XTNXRHYEANF9HQX9HK8Q49QI","A3LVLZS8S41ZD7","3RSBJ6YZECCLSSQQCGKCTHC9OPAFOK","","img/set1/S2.jpg","68","2","structured_load","68","structured_load,random,structured_incentive,structured_normal","4,2,2,3,1,2","4,1,3,2","true","","",""
"null","","html-keyboard-response","59","327934","0.0-59.0","3F1567XTNXRHYEANF9HQX9HK8Q49QI","A3LVLZS8S41ZD7","3RSBJ6YZECCLSSQQCGKCTHC9OPAFOK","","<img src=""img/set1/S2.jpg"" width=""540"" height = ""360"" style=""border:16px solid orange"">","null","","","","","","","","","",""
"null","","html-keyboard-response","60","328141","0.0-60.0","3F1567XTNXRHYEANF9HQX9HK8Q49QI","A3LVLZS8S41ZD7","3RSBJ6YZECCLSSQQCGKCTHC9OPAFOK","","","null","","","","","","","","","",""
"961","","image-keyboard-response","61","329105","0.0-61.0","3F1567XTNXRHYEANF9HQX9HK8Q49QI","A3LVLZS8S41ZD7","3RSBJ6YZECCLSSQQCGKCTHC9OPAFOK","","img/set1/S3.jpg","72","3","structured_load","72","structured_load,random,structured_incentive,structured_normal","4,2,2,3,1,2","4,1,3,2","true","","",""
"null","","html-keyboard-response","62","329465","0.0-62.0","3F1567XTNXRHYEANF9HQX9HK8Q49QI","A3LVLZS8S41ZD7","3RSBJ6YZECCLSSQQCGKCTHC9OPAFOK","","<img src=""img/set1/S3.jpg"" width=""540"" height = ""360"" style=""border:16px solid orange"">","null","","","","","","","","","",""
"null","","html-keyboard-response","63","329666","0.0-63.0","3F1567XTNXRHYEANF9HQX9HK8Q49QI","A3LVLZS8S41ZD7","3RSBJ6YZECCLSSQQCGKCTHC9OPAFOK","","","null","","","","","","","","","",""
"684","","image-keyboard-response","64","330352","0.0-64.0","3F1567XTNXRHYEANF9HQX9HK8Q49QI","A3LVLZS8S41ZD7","3RSBJ6YZECCLSSQQCGKCTHC9OPAFOK","","img/set1/S3.jpg","72","3","structured_load","72","structured_load,random,structured_incentive,structured_normal","4,2,2,3,1,2","4,1,3,2","true","","",""
"null","","html-keyboard-response","65","330770","0.0-65.0","3F1567XTNXRHYEANF9HQX9HK8Q49QI","A3LVLZS8S41ZD7","3RSBJ6YZECCLSSQQCGKCTHC9OPAFOK","","<img src=""img/set1/S3.jpg"" width=""540"" height = ""360"" style=""border:16px solid orange"">","null","","","","","","","","","",""
"null","","html-keyboard-response","66","330973","0.0-66.0","3F1567XTNXRHYEANF9HQX9HK8Q49QI","A3LVLZS8S41ZD7","3RSBJ6YZECCLSSQQCGKCTHC9OPAFOK","","","null","","","","","","","","","",""
"1161","","image-keyboard-response","67","332135","0.0-67.0","3F1567XTNXRHYEANF9HQX9HK8Q49QI","A3LVLZS8S41ZD7","3RSBJ6YZECCLSSQQCGKCTHC9OPAFOK","","img/set1/S4.jpg","74","4","structured_load","74","structured_load,random,structured_incentive,structured_normal","4,2,2,3,1,2","4,1,3,2","true","","",""
"null","","html-keyboard-response","68","332496","0.0-68.0","3F1567XTNXRHYEANF9HQX9HK8Q49QI","A3LVLZS8S41ZD7","3RSBJ6YZECCLSSQQCGKCTHC9OPAFOK","","<img src=""img/set1/S4.jpg"" width=""540"" height = ""360"" style=""border:16px solid orange"">","null","","","","","","","","","",""
"null","","html-keyboard-response","69","332715","0.0-69.0","3F1567XTNXRHYEANF9HQX9HK8Q49QI","A3LVLZS8S41ZD7","3RSBJ6YZECCLSSQQCGKCTHC9OPAFOK","","","null","","","","","","","","","",""
"1306","","image-keyboard-response","70","334048","0.0-70.0","3F1567XTNXRHYEANF9HQX9HK8Q49QI","A3LVLZS8S41ZD7","3RSBJ6YZECCLSSQQCGKCTHC9OPAFOK","","img/set1/S2.jpg","68","2","structured_load","68","structured_load,random,structured_incentive,structured_normal","4,2,2,3,1,2","4,1,3,2","true","","",""
"null","","html-keyboard-response","71","334404","0.0-71.0","3F1567XTNXRHYEANF9HQX9HK8Q49QI","A3LVLZS8S41ZD7","3RSBJ6YZECCLSSQQCGKCTHC9OPAFOK","","<img src=""img/set1/S2.jpg"" width=""540"" height = ""360"" style=""border:16px solid orange"">","null","","","","","","","","","",""
"null","","html-keyboard-response","72","334607","0.0-72.0","3F1567XTNXRHYEANF9HQX9HK8Q49QI","A3LVLZS8S41ZD7","3RSBJ6YZECCLSSQQCGKCTHC9OPAFOK","","","null","","","","","","","","","",""
"983","","image-keyboard-response","73","335592","0.0-73.0","3F1567XTNXRHYEANF9HQX9HK8Q49QI","A3LVLZS8S41ZD7","3RSBJ6YZECCLSSQQCGKCTHC9OPAFOK","","img/set1/S1.jpg","83","1","structured_load","83","structured_load,random,structured_incentive,structured_normal","4,2,2,3,1,2","4,1,3,2","true","","",""
"null","","html-keyboard-response","74","335953","0.0-74.0","3F1567XTNXRHYEANF9HQX9HK8Q49QI","A3LVLZS8S41ZD7","3RSBJ6YZECCLSSQQCGKCTHC9OPAFOK","","<img src=""img/set1/S1.jpg"" width=""540"" height = ""360"" style=""border:16px solid orange"">","null","","","","","","","","","",""
"null","","html-keyboard-response","75","336159","0.0-75.0","3F1567XTNXRHYEANF9HQX9HK8Q49QI","A3LVLZS8S41ZD7","3RSBJ6YZECCLSSQQCGKCTHC9OPAFOK","","","null","","","","","","","","","",""
"599","","image-keyboard-response","76","336760","0.0-76.0","3F1567XTNXRHYEANF9HQX9HK8Q49QI","A3LVLZS8S41ZD7","3RSBJ6YZECCLSSQQCGKCTHC9OPAFOK","","img/set1/S1.jpg","83","1","structured_load","83","structured_load,random,structured_incentive,structured_normal","4,2,2,3,1,2","4,1,3,2","true","","",""
"null","","html-keyboard-response","77","337116","0.0-77.0","3F1567XTNXRHYEANF9HQX9HK8Q49QI","A3LVLZS8S41ZD7","3RSBJ6YZECCLSSQQCGKCTHC9OPAFOK","","<img src=""img/set1/S1.jpg"" width=""540"" height = ""360"" style=""border:16px solid orange"">","null","","","","","","","","","",""
"null","","html-keyboard-response","78","337323","0.0-78.0","3F1567XTNXRHYEANF9HQX9HK8Q49QI","A3LVLZS8S41ZD7","3RSBJ6YZECCLSSQQCGKCTHC9OPAFOK","","","null","","","","","","","","","",""
"null","","image-keyboard-response","79","339828","0.0-79.0","3F1567XTNXRHYEANF9HQX9HK8Q49QI","A3LVLZS8S41ZD7","3RSBJ6YZECCLSSQQCGKCTHC9OPAFOK","","img/set1/S4.jpg","null","4","structured_load","74","structured_load,random,structured_incentive,structured_normal","4,2,2,3,1,2","4,1,3,2","false","","",""
"null","","html-keyboard-response","80","340190","0.0-80.0","3F1567XTNXRHYEANF9HQX9HK8Q49QI","A3LVLZS8S41ZD7","3RSBJ6YZECCLSSQQCGKCTHC9OPAFOK","","<img src=""img/set1/S4.jpg"" width=""540"" height = ""360"">","null","","","","","","","","","",""
"null","","html-keyboard-response","81","340391","0.0-81.0","3F1567XTNXRHYEANF9HQX9HK8Q49QI","A3LVLZS8S41ZD7","3RSBJ6YZECCLSSQQCGKCTHC9OPAFOK","","","null","","","","","","","","","",""
"646","","image-keyboard-response","82","341040","0.0-82.0","3F1567XTNXRHYEANF9HQX9HK8Q49QI","A3LVLZS8S41ZD7","3RSBJ6YZECCLSSQQCGKCTHC9OPAFOK","","img/set1/S3.jpg","72","3","structured_load","72","structured_load,random,structured_incentive,structured_normal","4,2,2,3,1,2","4,1,3,2","true","","",""
"null","","html-keyboard-response","83","341405","0.0-83.0","3F1567XTNXRHYEANF9HQX9HK8Q49QI","A3LVLZS8S41ZD7","3RSBJ6YZECCLSSQQCGKCTHC9OPAFOK","","<img src=""img/set1/S3.jpg"" width=""540"" height = ""360"" style=""border:16px solid orange"">","null","","","","","","","","","",""
"null","","html-keyboard-response","84","341614","0.0-84.0","3F1567XTNXRHYEANF9HQX9HK8Q49QI","A3LVLZS8S41ZD7","3RSBJ6YZECCLSSQQCGKCTHC9OPAFOK","","","null","","","","","","","","","",""
"526","","image-keyboard-response","85","342143","0.0-85.0","3F1567XTNXRHYEANF9HQX9HK8Q49QI","A3LVLZS8S41ZD7","3RSBJ6YZECCLSSQQCGKCTHC9OPAFOK","","img/set1/S4.jpg","74","4","structured_load","74","structured_load,random,structured_incentive,structured_normal","4,2,2,3,1,2","4,1,3,2","true","","",""
"null","","html-keyboard-response","86","342500","0.0-86.0","3F1567XTNXRHYEANF9HQX9HK8Q49QI","A3LVLZS8S41ZD7","3RSBJ6YZECCLSSQQCGKCTHC9OPAFOK","","<img src=""img/set1/S4.jpg"" width=""540"" height = ""360"" style=""border:16px solid orange"">","null","","","","","","","","","",""
"null","","html-keyboard-response","87","342706","0.0-87.0","3F1567XTNXRHYEANF9HQX9HK8Q49QI","A3LVLZS8S41ZD7","3RSBJ6YZECCLSSQQCGKCTHC9OPAFOK","","","null","","","","","","","","","",""
"972","","image-keyboard-response","88","343680","0.0-88.0","3F1567XTNXRHYEANF9HQX9HK8Q49QI","A3LVLZS8S41ZD7","3RSBJ6YZECCLSSQQCGKCTHC9OPAFOK","","img/set1/S2.jpg","68","2","structured_load","68","structured_load,random,structured_incentive,structured_normal","4,2,2,3,1,2","4,1,3,2","true","","",""
"null","","html-keyboard-response","89","344041","0.0-89.0","3F1567XTNXRHYEANF9HQX9HK8Q49QI","A3LVLZS8S41ZD7","3RSBJ6YZECCLSSQQCGKCTHC9OPAFOK","","<img src=""img/set1/S2.jpg"" width=""540"" height = ""360"" style=""border:16px solid orange"">","null","","","","","","","","","",""
"null","","html-keyboard-response","90","344249","0.0-90.0","3F1567XTNXRHYEANF9HQX9HK8Q49QI","A3LVLZS8S41ZD7","3RSBJ6YZECCLSSQQCGKCTHC9OPAFOK","","","null","","","","","","","","","",""
"677","","image-keyboard-response","91","344928","0.0-91.0","3F1567XTNXRHYEANF9HQX9HK8Q49QI","A3LVLZS8S41ZD7","3RSBJ6YZECCLSSQQCGKCTHC9OPAFOK","","img/set1/S1.jpg","83","1","structured_load","83","structured_load,random,structured_incentive,structured_normal","4,2,2,3,1,2","4,1,3,2","true","","",""
"null","","html-keyboard-response","92","345332","0.0-92.0","3F1567XTNXRHYEANF9HQX9HK8Q49QI","A3LVLZS8S41ZD7","3RSBJ6YZECCLSSQQCGKCTHC9OPAFOK","","<img src=""img/set1/S1.jpg"" width=""540"" height = ""360"" style=""border:16px solid orange"">","null","","","","","","","","","",""
"null","","html-keyboard-response","93","345553","0.0-93.0","3F1567XTNXRHYEANF9HQX9HK8Q49QI","A3LVLZS8S41ZD7","3RSBJ6YZECCLSSQQCGKCTHC9OPAFOK","","","null","","","","","","","","","",""
"853","","image-keyboard-response","94","346408","0.0-94.0","3F1567XTNXRHYEANF9HQX9HK8Q49QI","A3LVLZS8S41ZD7","3RSBJ6YZECCLSSQQCGKCTHC9OPAFOK","","img/set1/S4.jpg","74","4","structured_load","74","structured_load,random,structured_incentive,structured_normal","4,2,2,3,1,2","4,1,3,2","true","","",""
"null","","html-keyboard-response","95","346763","0.0-95.0","3F1567XTNXRHYEANF9HQX9HK8Q49QI","A3LVLZS8S41ZD7","3RSBJ6YZECCLSSQQCGKCTHC9OPAFOK","","<img src=""img/set1/S4.jpg"" width=""540"" height = ""360"" style=""border:16px solid orange"">","null","","","","","","","","","",""
"null","","html-keyboard-response","96","346965","0.0-96.0","3F1567XTNXRHYEANF9HQX9HK8Q49QI","A3LVLZS8S41ZD7","3RSBJ6YZECCLSSQQCGKCTHC9OPAFOK","","","null","","","","","","","","","",""
"753","","image-keyboard-response","97","347719","0.0-97.0","3F1567XTNXRHYEANF9HQX9HK8Q49QI","A3LVLZS8S41ZD7","3RSBJ6YZECCLSSQQCGKCTHC9OPAFOK","","img/set1/S2.jpg","68","2","structured_load","68","structured_load,random,structured_incentive,structured_normal","4,2,2,3,1,2","4,1,3,2","true","","",""
"null","","html-keyboard-response","98","348087","0.0-98.0","3F1567XTNXRHYEANF9HQX9HK8Q49QI","A3LVLZS8S41ZD7","3RSBJ6YZECCLSSQQCGKCTHC9OPAFOK","","<img src=""img/set1/S2.jpg"" width=""540"" height = ""360"" style=""border:16px solid orange"">","null","","","","","","","","","",""
"null","","html-keyboard-response","99","348302","0.0-99.0","3F1567XTNXRHYEANF9HQX9HK8Q49QI","A3LVLZS8S41ZD7","3RSBJ6YZECCLSSQQCGKCTHC9OPAFOK","","","null","","","","","","","","","",""
"632","","image-keyboard-response","100","348935","0.0-100.0","3F1567XTNXRHYEANF9HQX9HK8Q49QI","A3LVLZS8S41ZD7","3RSBJ6YZECCLSSQQCGKCTHC9OPAFOK","","img/set1/S3.jpg","72","3","structured_load","72","structured_load,random,structured_incentive,structured_normal","4,2,2,3,1,2","4,1,3,2","true","","",""
"null","","html-keyboard-response","101","349353","0.0-101.0","3F1567XTNXRHYEANF9HQX9HK8Q49QI","A3LVLZS8S41ZD7","3RSBJ6YZECCLSSQQCGKCTHC9OPAFOK","","<img src=""img/set1/S3.jpg"" width=""540"" height = ""360"" style=""border:16px solid orange"">","null","","","","","","","","","",""
"null","","html-keyboard-response","102","349567","0.0-102.0","3F1567XTNXRHYEANF9HQX9HK8Q49QI","A3LVLZS8S41ZD7","3RSBJ6YZECCLSSQQCGKCTHC9OPAFOK","","","null","","","","","","","","","",""
"821","","image-keyboard-response","103","350408","0.0-103.0","3F1567XTNXRHYEANF9HQX9HK8Q49QI","A3LVLZS8S41ZD7","3RSBJ6YZECCLSSQQCGKCTHC9OPAFOK","","img/set1/S1.jpg","83","1","structured_load","83","structured_load,random,structured_incentive,structured_normal","4,2,2,3,1,2","4,1,3,2","true","","",""
"null","","html-keyboard-response","104","350771","0.0-104.0","3F1567XTNXRHYEANF9HQX9HK8Q49QI","A3LVLZS8S41ZD7","3RSBJ6YZECCLSSQQCGKCTHC9OPAFOK","","<img src=""img/set1/S1.jpg"" width=""540"" height = ""360"" style=""border:16px solid orange"">","null","","","","","","","","","",""
"null","","html-keyboard-response","105","350972","0.0-105.0","3F1567XTNXRHYEANF9HQX9HK8Q49QI","A3LVLZS8S41ZD7","3RSBJ6YZECCLSSQQCGKCTHC9OPAFOK","","","null","","","","","","","","","",""
"650","","image-keyboard-response","106","351624","0.0-106.0","3F1567XTNXRHYEANF9HQX9HK8Q49QI","A3LVLZS8S41ZD7","3RSBJ6YZECCLSSQQCGKCTHC9OPAFOK","","img/set1/S3.jpg","72","3","structured_load","72","structured_load,random,structured_incentive,structured_normal","4,2,2,3,1,2","4,1,3,2","true","","",""
"null","","html-keyboard-response","107","351978","0.0-107.0","3F1567XTNXRHYEANF9HQX9HK8Q49QI","A3LVLZS8S41ZD7","3RSBJ6YZECCLSSQQCGKCTHC9OPAFOK","","<img src=""img/set1/S3.jpg"" width=""540"" height = ""360"" style=""border:16px solid orange"">","null","","","","","","","","","",""
"null","","html-keyboard-response","108","352279","0.0-108.0","3F1567XTNXRHYEANF9HQX9HK8Q49QI","A3LVLZS8S41ZD7","3RSBJ6YZECCLSSQQCGKCTHC9OPAFOK","","","null","","","","","","","","","",""
"478","","image-keyboard-response","109","352759","0.0-109.0","3F1567XTNXRHYEANF9HQX9HK8Q49QI","A3LVLZS8S41ZD7","3RSBJ6YZECCLSSQQCGKCTHC9OPAFOK","","img/set1/S3.jpg","72","3","structured_load","72","structured_load,random,structured_incentive,structured_normal","4,2,2,3,1,2","4,1,3,2","true","","",""
"null","","html-keyboard-response","110","353126","0.0-110.0","3F1567XTNXRHYEANF9HQX9HK8Q49QI","A3LVLZS8S41ZD7","3RSBJ6YZECCLSSQQCGKCTHC9OPAFOK","","<img src=""img/set1/S3.jpg"" width=""540"" height = ""360"" style=""border:16px solid orange"">","null","","","","","","","","","",""
"null","","html-keyboard-response","111","353329","0.0-111.0","3F1567XTNXRHYEANF9HQX9HK8Q49QI","A3LVLZS8S41ZD7","3RSBJ6YZECCLSSQQCGKCTHC9OPAFOK","","","null","","","","","","","","","",""
"1061","","image-keyboard-response","112","354391","0.0-112.0","3F1567XTNXRHYEANF9HQX9HK8Q49QI","A3LVLZS8S41ZD7","3RSBJ6YZECCLSSQQCGKCTHC9OPAFOK","","img/set1/S4.jpg","74","4","structured_load","74","structured_load,random,structured_incentive,structured_normal","4,2,2,3,1,2","4,1,3,2","true","","",""
"null","","html-keyboard-response","113","354750","0.0-113.0","3F1567XTNXRHYEANF9HQX9HK8Q49QI","A3LVLZS8S41ZD7","3RSBJ6YZECCLSSQQCGKCTHC9OPAFOK","","<img src=""img/set1/S4.jpg"" width=""540"" height = ""360"" style=""border:16px solid orange"">","null","","","","","","","","","",""
"null","","html-keyboard-response","114","354957","0.0-114.0","3F1567XTNXRHYEANF9HQX9HK8Q49QI","A3LVLZS8S41ZD7","3RSBJ6YZECCLSSQQCGKCTHC9OPAFOK","","","null","","","","","","","","","",""
"699","","image-keyboard-response","115","355658","0.0-115.0","3F1567XTNXRHYEANF9HQX9HK8Q49QI","A3LVLZS8S41ZD7","3RSBJ6YZECCLSSQQCGKCTHC9OPAFOK","","img/set1/S2.jpg","68","2","structured_load","68","structured_load,random,structured_incentive,structured_normal","4,2,2,3,1,2","4,1,3,2","true","","",""
"null","","html-keyboard-response","116","356019","0.0-116.0","3F1567XTNXRHYEANF9HQX9HK8Q49QI","A3LVLZS8S41ZD7","3RSBJ6YZECCLSSQQCGKCTHC9OPAFOK","","<img src=""img/set1/S2.jpg"" width=""540"" height = ""360"" style=""border:16px solid orange"">","null","","","","","","","","","",""
"null","","html-keyboard-response","117","356260","0.0-117.0","3F1567XTNXRHYEANF9HQX9HK8Q49QI","A3LVLZS8S41ZD7","3RSBJ6YZECCLSSQQCGKCTHC9OPAFOK","","","null","","","","","","","","","",""
"858","","image-keyboard-response","118","357120","0.0-118.0","3F1567XTNXRHYEANF9HQX9HK8Q49QI","A3LVLZS8S41ZD7","3RSBJ6YZECCLSSQQCGKCTHC9OPAFOK","","img/set1/S4.jpg","74","4","structured_load","74","structured_load,random,structured_incentive,structured_normal","4,2,2,3,1,2","4,1,3,2","true","","",""
"null","","html-keyboard-response","119","357487","0.0-119.0","3F1567XTNXRHYEANF9HQX9HK8Q49QI","A3LVLZS8S41ZD7","3RSBJ6YZECCLSSQQCGKCTHC9OPAFOK","","<img src=""img/set1/S4.jpg"" width=""540"" height = ""360"" style=""border:16px solid orange"">","null","","","","","","","","","",""
"null","","html-keyboard-response","120","357697","0.0-120.0","3F1567XTNXRHYEANF9HQX9HK8Q49QI","A3LVLZS8S41ZD7","3RSBJ6YZECCLSSQQCGKCTHC9OPAFOK","","","null","","","","","","","","","",""
"821","","image-keyboard-response","121","358520","0.0-121.0","3F1567XTNXRHYEANF9HQX9HK8Q49QI","A3LVLZS8S41ZD7","3RSBJ6YZECCLSSQQCGKCTHC9OPAFOK","","img/set1/S2.jpg","68","2","structured_load","68","structured_load,random,structured_incentive,structured_normal","4,2,2,3,1,2","4,1,3,2","true","","",""
"null","","html-keyboard-response","122","358880","0.0-122.0","3F1567XTNXRHYEANF9HQX9HK8Q49QI","A3LVLZS8S41ZD7","3RSBJ6YZECCLSSQQCGKCTHC9OPAFOK","","<img src=""img/set1/S2.jpg"" width=""540"" height = ""360"" style=""border:16px solid orange"">","null","","","","","","","","","",""
"null","","html-keyboard-response","123","359086","0.0-123.0","3F1567XTNXRHYEANF9HQX9HK8Q49QI","A3LVLZS8S41ZD7","3RSBJ6YZECCLSSQQCGKCTHC9OPAFOK","","","null","","","","","","","","","",""
"718","","image-keyboard-response","124","359807","0.0-124.0","3F1567XTNXRHYEANF9HQX9HK8Q49QI","A3LVLZS8S41ZD7","3RSBJ6YZECCLSSQQCGKCTHC9OPAFOK","","img/set1/S4.jpg","74","4","structured_load","74","structured_load,random,structured_incentive,structured_normal","4,2,2,3,1,2","4,1,3,2","true","","",""
"null","","html-keyboard-response","125","360166","0.0-125.0","3F1567XTNXRHYEANF9HQX9HK8Q49QI","A3LVLZS8S41ZD7","3RSBJ6YZECCLSSQQCGKCTHC9OPAFOK","","<img src=""img/set1/S4.jpg"" width=""540"" height = ""360"" style=""border:16px solid orange"">","null","","","","","","","","","",""
"null","","html-keyboard-response","126","360369","0.0-126.0","3F1567XTNXRHYEANF9HQX9HK8Q49QI","A3LVLZS8S41ZD7","3RSBJ6YZECCLSSQQCGKCTHC9OPAFOK","","","null","","","","","","","","","",""
"742","","image-keyboard-response","127","361113","0.0-127.0","3F1567XTNXRHYEANF9HQX9HK8Q49QI","A3LVLZS8S41ZD7","3RSBJ6YZECCLSSQQCGKCTHC9OPAFOK","","img/set1/S2.jpg","68","2","structured_load","68","structured_load,random,structured_incentive,structured_normal","4,2,2,3,1,2","4,1,3,2","true","","",""
"null","","html-keyboard-response","128","361475","0.0-128.0","3F1567XTNXRHYEANF9HQX9HK8Q49QI","A3LVLZS8S41ZD7","3RSBJ6YZECCLSSQQCGKCTHC9OPAFOK","","<img src=""img/set1/S2.jpg"" width=""540"" height = ""360"" style=""border:16px solid orange"">","null","","","","","","","","","",""
"null","","html-keyboard-response","129","361707","0.0-129.0","3F1567XTNXRHYEANF9HQX9HK8Q49QI","A3LVLZS8S41ZD7","3RSBJ6YZECCLSSQQCGKCTHC9OPAFOK","","","null","","","","","","","","","",""
"642","","image-keyboard-response","130","362351","0.0-130.0","3F1567XTNXRHYEANF9HQX9HK8Q49QI","A3LVLZS8S41ZD7","3RSBJ6YZECCLSSQQCGKCTHC9OPAFOK","","img/set1/S3.jpg","72","3","structured_load","72","structured_load,random,structured_incentive,structured_normal","4,2,2,3,1,2","4,1,3,2","true","","",""
"null","","html-keyboard-response","131","362709","0.0-131.0","3F1567XTNXRHYEANF9HQX9HK8Q49QI","A3LVLZS8S41ZD7","3RSBJ6YZECCLSSQQCGKCTHC9OPAFOK","","<img src=""img/set1/S3.jpg"" width=""540"" height = ""360"" style=""border:16px solid orange"">","null","","","","","","","","","",""
"null","","html-keyboard-response","132","362918","0.0-132.0","3F1567XTNXRHYEANF9HQX9HK8Q49QI","A3LVLZS8S41ZD7","3RSBJ6YZECCLSSQQCGKCTHC9OPAFOK","","","null","","","","","","","","","",""
"675","","image-keyboard-response","133","363595","0.0-133.0","3F1567XTNXRHYEANF9HQX9HK8Q49QI","A3LVLZS8S41ZD7","3RSBJ6YZECCLSSQQCGKCTHC9OPAFOK","","img/set1/S1.jpg","83","1","structured_load","83","structured_load,random,structured_incentive,structured_normal","4,2,2,3,1,2","4,1,3,2","true","","",""
"null","","html-keyboard-response","134","363958","0.0-134.0","3F1567XTNXRHYEANF9HQX9HK8Q49QI","A3LVLZS8S41ZD7","3RSBJ6YZECCLSSQQCGKCTHC9OPAFOK","","<img src=""img/set1/S1.jpg"" width=""540"" height = ""360"" style=""border:16px solid orange"">","null","","","","","","","","","",""
"null","","html-keyboard-response","135","364176","0.0-135.0","3F1567XTNXRHYEANF9HQX9HK8Q49QI","A3LVLZS8S41ZD7","3RSBJ6YZECCLSSQQCGKCTHC9OPAFOK","","","null","","","","","","","","","",""
"777","","image-keyboard-response","136","364954","0.0-136.0","3F1567XTNXRHYEANF9HQX9HK8Q49QI","A3LVLZS8S41ZD7","3RSBJ6YZECCLSSQQCGKCTHC9OPAFOK","","img/set1/S3.jpg","72","3","structured_load","72","structured_load,random,structured_incentive,structured_normal","4,2,2,3,1,2","4,1,3,2","true","","",""
"null","","html-keyboard-response","137","365309","0.0-137.0","3F1567XTNXRHYEANF9HQX9HK8Q49QI","A3LVLZS8S41ZD7","3RSBJ6YZECCLSSQQCGKCTHC9OPAFOK","","<img src=""img/set1/S3.jpg"" width=""540"" height = ""360"" style=""border:16px solid orange"">","null","","","","","","","","","",""
"null","","html-keyboard-response","138","365537","0.0-138.0","3F1567XTNXRHYEANF9HQX9HK8Q49QI","A3LVLZS8S41ZD7","3RSBJ6YZECCLSSQQCGKCTHC9OPAFOK","","","null","","","","","","","","","",""
"533","","image-keyboard-response","139","366072","0.0-139.0","3F1567XTNXRHYEANF9HQX9HK8Q49QI","A3LVLZS8S41ZD7","3RSBJ6YZECCLSSQQCGKCTHC9OPAFOK","","img/set1/S3.jpg","72","3","structured_load","72","structured_load,random,structured_incentive,structured_normal","4,2,2,3,1,2","4,1,3,2","true","","",""
"null","","html-keyboard-response","140","366439","0.0-140.0","3F1567XTNXRHYEANF9HQX9HK8Q49QI","A3LVLZS8S41ZD7","3RSBJ6YZECCLSSQQCGKCTHC9OPAFOK","","<img src=""img/set1/S3.jpg"" width=""540"" height = ""360"" style=""border:16px solid orange"">","null","","","","","","","","","",""
"null","","html-keyboard-response","141","366652","0.0-141.0","3F1567XTNXRHYEANF9HQX9HK8Q49QI","A3LVLZS8S41ZD7","3RSBJ6YZECCLSSQQCGKCTHC9OPAFOK","","","null","","","","","","","","","",""
"643","","image-keyboard-response","142","367298","0.0-142.0","3F1567XTNXRHYEANF9HQX9HK8Q49QI","A3LVLZS8S41ZD7","3RSBJ6YZECCLSSQQCGKCTHC9OPAFOK","","img/set1/S1.jpg","83","1","structured_load","83","structured_load,random,structured_incentive,structured_normal","4,2,2,3,1,2","4,1,3,2","true","","",""
"null","","html-keyboard-response","143","367663","0.0-143.0","3F1567XTNXRHYEANF9HQX9HK8Q49QI","A3LVLZS8S41ZD7","3RSBJ6YZECCLSSQQCGKCTHC9OPAFOK","","<img src=""img/set1/S1.jpg"" width=""540"" height = ""360"" style=""border:16px solid orange"">","null","","","","","","","","","",""
"null","","html-keyboard-response","144","367869","0.0-144.0","3F1567XTNXRHYEANF9HQX9HK8Q49QI","A3LVLZS8S41ZD7","3RSBJ6YZECCLSSQQCGKCTHC9OPAFOK","","","null","","","","","","","","","",""
"656","","image-keyboard-response","145","368527","0.0-145.0","3F1567XTNXRHYEANF9HQX9HK8Q49QI","A3LVLZS8S41ZD7","3RSBJ6YZECCLSSQQCGKCTHC9OPAFOK","","img/set1/S4.jpg","72","4","structured_load","74","structured_load,random,structured_incentive,structured_normal","4,2,2,3,1,2","4,1,3,2","false","","",""
"null","","html-keyboard-response","146","368894","0.0-146.0","3F1567XTNXRHYEANF9HQX9HK8Q49QI","A3LVLZS8S41ZD7","3RSBJ6YZECCLSSQQCGKCTHC9OPAFOK","","<img src=""img/set1/S4.jpg"" width=""540"" height = ""360"">","null","","","","","","","","","",""
"null","","html-keyboard-response","147","369106","0.0-147.0","3F1567XTNXRHYEANF9HQX9HK8Q49QI","A3LVLZS8S41ZD7","3RSBJ6YZECCLSSQQCGKCTHC9OPAFOK","","","null","","","","","","","","","",""
"772","","image-keyboard-response","148","369880","0.0-148.0","3F1567XTNXRHYEANF9HQX9HK8Q49QI","A3LVLZS8S41ZD7","3RSBJ6YZECCLSSQQCGKCTHC9OPAFOK","","img/set1/S2.jpg","68","2","structured_load","68","structured_load,random,structured_incentive,structured_normal","4,2,2,3,1,2","4,1,3,2","true","","",""
"null","","html-keyboard-response","149","370240","0.0-149.0","3F1567XTNXRHYEANF9HQX9HK8Q49QI","A3LVLZS8S41ZD7","3RSBJ6YZECCLSSQQCGKCTHC9OPAFOK","","<img src=""img/set1/S2.jpg"" width=""540"" height = ""360"" style=""border:16px solid orange"">","null","","","","","","","","","",""
"null","","html-keyboard-response","150","370446","0.0-150.0","3F1567XTNXRHYEANF9HQX9HK8Q49QI","A3LVLZS8S41ZD7","3RSBJ6YZECCLSSQQCGKCTHC9OPAFOK","","","null","","","","","","","","","",""
"809","","image-keyboard-response","151","371257","0.0-151.0","3F1567XTNXRHYEANF9HQX9HK8Q49QI","A3LVLZS8S41ZD7","3RSBJ6YZECCLSSQQCGKCTHC9OPAFOK","","img/set1/S2.jpg","68","2","structured_load","68","structured_load,random,structured_incentive,structured_normal","4,2,2,3,1,2","4,1,3,2","true","","",""
"null","","html-keyboard-response","152","371610","0.0-152.0","3F1567XTNXRHYEANF9HQX9HK8Q49QI","A3LVLZS8S41ZD7","3RSBJ6YZECCLSSQQCGKCTHC9OPAFOK","","<img src=""img/set1/S2.jpg"" width=""540"" height = ""360"" style=""border:16px solid orange"">","null","","","","","","","","","",""
"null","","html-keyboard-response","153","371815","0.0-153.0","3F1567XTNXRHYEANF9HQX9HK8Q49QI","A3LVLZS8S41ZD7","3RSBJ6YZECCLSSQQCGKCTHC9OPAFOK","","","null","","","","","","","","","",""
"678","","image-keyboard-response","154","372495","0.0-154.0","3F1567XTNXRHYEANF9HQX9HK8Q49QI","A3LVLZS8S41ZD7","3RSBJ6YZECCLSSQQCGKCTHC9OPAFOK","","img/set1/S1.jpg","83","1","structured_load","83","structured_load,random,structured_incentive,structured_normal","4,2,2,3,1,2","4,1,3,2","true","","",""
"null","","html-keyboard-response","155","372853","0.0-155.0","3F1567XTNXRHYEANF9HQX9HK8Q49QI","A3LVLZS8S41ZD7","3RSBJ6YZECCLSSQQCGKCTHC9OPAFOK","","<img src=""img/set1/S1.jpg"" width=""540"" height = ""360"" style=""border:16px solid orange"">","null","","","","","","","","","",""
"null","","html-keyboard-response","156","373067","0.0-156.0","3F1567XTNXRHYEANF9HQX9HK8Q49QI","A3LVLZS8S41ZD7","3RSBJ6YZECCLSSQQCGKCTHC9OPAFOK","","","null","","","","","","","","","",""
"620","","image-keyboard-response","157","373689","0.0-157.0","3F1567XTNXRHYEANF9HQX9HK8Q49QI","A3LVLZS8S41ZD7","3RSBJ6YZECCLSSQQCGKCTHC9OPAFOK","","img/set1/S1.jpg","83","1","structured_load","83","structured_load,random,structured_incentive,structured_normal","4,2,2,3,1,2","4,1,3,2","true","","",""
"null","","html-keyboard-response","158","374043","0.0-158.0","3F1567XTNXRHYEANF9HQX9HK8Q49QI","A3LVLZS8S41ZD7","3RSBJ6YZECCLSSQQCGKCTHC9OPAFOK","","<img src=""img/set1/S1.jpg"" width=""540"" height = ""360"" style=""border:16px solid orange"">","null","","","","","","","","","",""
"null","","html-keyboard-response","159","374257","0.0-159.0","3F1567XTNXRHYEANF9HQX9HK8Q49QI","A3LVLZS8S41ZD7","3RSBJ6YZECCLSSQQCGKCTHC9OPAFOK","","","null","","","","","","","","","",""
"1110","","image-keyboard-response","160","375371","0.0-160.0","3F1567XTNXRHYEANF9HQX9HK8Q49QI","A3LVLZS8S41ZD7","3RSBJ6YZECCLSSQQCGKCTHC9OPAFOK","","img/set1/S4.jpg","74","4","structured_load","74","structured_load,random,structured_incentive,structured_normal","4,2,2,3,1,2","4,1,3,2","true","","",""
"null","","html-keyboard-response","161","375729","0.0-161.0","3F1567XTNXRHYEANF9HQX9HK8Q49QI","A3LVLZS8S41ZD7","3RSBJ6YZECCLSSQQCGKCTHC9OPAFOK","","<img src=""img/set1/S4.jpg"" width=""540"" height = ""360"" style=""border:16px solid orange"">","null","","","","","","","","","",""
"null","","html-keyboard-response","162","375964","0.0-162.0","3F1567XTNXRHYEANF9HQX9HK8Q49QI","A3LVLZS8S41ZD7","3RSBJ6YZECCLSSQQCGKCTHC9OPAFOK","","","null","","","","","","","","","",""
"974","","image-keyboard-response","163","376940","0.0-163.0","3F1567XTNXRHYEANF9HQX9HK8Q49QI","A3LVLZS8S41ZD7","3RSBJ6YZECCLSSQQCGKCTHC9OPAFOK","","img/set1/S2.jpg","68","2","structured_load","68","structured_load,random,structured_incentive,structured_normal","4,2,2,3,1,2","4,1,3,2","true","","",""
"null","","html-keyboard-response","164","377293","0.0-164.0","3F1567XTNXRHYEANF9HQX9HK8Q49QI","A3LVLZS8S41ZD7","3RSBJ6YZECCLSSQQCGKCTHC9OPAFOK","","<img src=""img/set1/S2.jpg"" width=""540"" height = ""360"" style=""border:16px solid orange"">","null","","","","","","","","","",""
"null","","html-keyboard-response","165","377535","0.0-165.0","3F1567XTNXRHYEANF9HQX9HK8Q49QI","A3LVLZS8S41ZD7","3RSBJ6YZECCLSSQQCGKCTHC9OPAFOK","","","null","","","","","","","","","",""
"671","","image-keyboard-response","166","378208","0.0-166.0","3F1567XTNXRHYEANF9HQX9HK8Q49QI","A3LVLZS8S41ZD7","3RSBJ6YZECCLSSQQCGKCTHC9OPAFOK","","img/set1/S3.jpg","72","3","structured_load","72","structured_load,random,structured_incentive,structured_normal","4,2,2,3,1,2","4,1,3,2","true","","",""
"null","","html-keyboard-response","167","378564","0.0-167.0","3F1567XTNXRHYEANF9HQX9HK8Q49QI","A3LVLZS8S41ZD7","3RSBJ6YZECCLSSQQCGKCTHC9OPAFOK","","<img src=""img/set1/S3.jpg"" width=""540"" height = ""360"" style=""border:16px solid orange"">","null","","","","","","","","","",""
"null","","html-keyboard-response","168","378784","0.0-168.0","3F1567XTNXRHYEANF9HQX9HK8Q49QI","A3LVLZS8S41ZD7","3RSBJ6YZECCLSSQQCGKCTHC9OPAFOK","","","null","","","","","","","","","",""
"572","","image-keyboard-response","169","379359","0.0-169.0","3F1567XTNXRHYEANF9HQX9HK8Q49QI","A3LVLZS8S41ZD7","3RSBJ6YZECCLSSQQCGKCTHC9OPAFOK","","img/set1/S3.jpg","72","3","structured_load","72","structured_load,random,structured_incentive,structured_normal","4,2,2,3,1,2","4,1,3,2","true","","",""
"null","","html-keyboard-response","170","379715","0.0-170.0","3F1567XTNXRHYEANF9HQX9HK8Q49QI","A3LVLZS8S41ZD7","3RSBJ6YZECCLSSQQCGKCTHC9OPAFOK","","<img src=""img/set1/S3.jpg"" width=""540"" height = ""360"" style=""border:16px solid orange"">","null","","","","","","","","","",""
"null","","html-keyboard-response","171","379920","0.0-171.0","3F1567XTNXRHYEANF9HQX9HK8Q49QI","A3LVLZS8S41ZD7","3RSBJ6YZECCLSSQQCGKCTHC9OPAFOK","","","null","","","","","","","","","",""
"733","","image-keyboard-response","172","380655","0.0-172.0","3F1567XTNXRHYEANF9HQX9HK8Q49QI","A3LVLZS8S41ZD7","3RSBJ6YZECCLSSQQCGKCTHC9OPAFOK","","img/set1/S3.jpg","72","3","structured_load","72","structured_load,random,structured_incentive,structured_normal","4,2,2,3,1,2","4,1,3,2","true","","",""
"null","","html-keyboard-response","173","381045","0.0-173.0","3F1567XTNXRHYEANF9HQX9HK8Q49QI","A3LVLZS8S41ZD7","3RSBJ6YZECCLSSQQCGKCTHC9OPAFOK","","<img src=""img/set1/S3.jpg"" width=""540"" height = ""360"" style=""border:16px solid orange"">","null","","","","","","","","","",""
"null","","html-keyboard-response","174","381291","0.0-174.0","3F1567XTNXRHYEANF9HQX9HK8Q49QI","A3LVLZS8S41ZD7","3RSBJ6YZECCLSSQQCGKCTHC9OPAFOK","","","null","","","","","","","","","",""
"604","","image-keyboard-response","175","381897","0.0-175.0","3F1567XTNXRHYEANF9HQX9HK8Q49QI","A3LVLZS8S41ZD7","3RSBJ6YZECCLSSQQCGKCTHC9OPAFOK","","img/set1/S1.jpg","83","1","structured_load","83","structured_load,random,structured_incentive,structured_normal","4,2,2,3,1,2","4,1,3,2","true","","",""
"null","","html-keyboard-response","176","382256","0.0-176.0","3F1567XTNXRHYEANF9HQX9HK8Q49QI","A3LVLZS8S41ZD7","3RSBJ6YZECCLSSQQCGKCTHC9OPAFOK","","<img src=""img/set1/S1.jpg"" width=""540"" height = ""360"" style=""border:16px solid orange"">","null","","","","","","","","","",""
"null","","html-keyboard-response","177","382459","0.0-177.0","3F1567XTNXRHYEANF9HQX9HK8Q49QI","A3LVLZS8S41ZD7","3RSBJ6YZECCLSSQQCGKCTHC9OPAFOK","","","null","","","","","","","","","",""
"579","","image-keyboard-response","178","383039","0.0-178.0","3F1567XTNXRHYEANF9HQX9HK8Q49QI","A3LVLZS8S41ZD7","3RSBJ6YZECCLSSQQCGKCTHC9OPAFOK","","img/set1/S1.jpg","83","1","structured_load","83","structured_load,random,structured_incentive,structured_normal","4,2,2,3,1,2","4,1,3,2","true","","",""
"null","","html-keyboard-response","179","383395","0.0-179.0","3F1567XTNXRHYEANF9HQX9HK8Q49QI","A3LVLZS8S41ZD7","3RSBJ6YZECCLSSQQCGKCTHC9OPAFOK","","<img src=""img/set1/S1.jpg"" width=""540"" height = ""360"" style=""border:16px solid orange"">","null","","","","","","","","","",""
"null","","html-keyboard-response","180","383617","0.0-180.0","3F1567XTNXRHYEANF9HQX9HK8Q49QI","A3LVLZS8S41ZD7","3RSBJ6YZECCLSSQQCGKCTHC9OPAFOK","","","null","","","","","","","","","",""
"692","","image-keyboard-response","181","384312","0.0-181.0","3F1567XTNXRHYEANF9HQX9HK8Q49QI","A3LVLZS8S41ZD7","3RSBJ6YZECCLSSQQCGKCTHC9OPAFOK","","img/set1/S4.jpg","74","4","structured_load","74","structured_load,random,structured_incentive,structured_normal","4,2,2,3,1,2","4,1,3,2","true","","",""
"null","","html-keyboard-response","182","384674","0.0-182.0","3F1567XTNXRHYEANF9HQX9HK8Q49QI","A3LVLZS8S41ZD7","3RSBJ6YZECCLSSQQCGKCTHC9OPAFOK","","<img src=""img/set1/S4.jpg"" width=""540"" height = ""360"" style=""border:16px solid orange"">","null","","","","","","","","","",""
"null","","html-keyboard-response","183","384906","0.0-183.0","3F1567XTNXRHYEANF9HQX9HK8Q49QI","A3LVLZS8S41ZD7","3RSBJ6YZECCLSSQQCGKCTHC9OPAFOK","","","null","","","","","","","","","",""
"881","","image-keyboard-response","184","385790","0.0-184.0","3F1567XTNXRHYEANF9HQX9HK8Q49QI","A3LVLZS8S41ZD7","3RSBJ6YZECCLSSQQCGKCTHC9OPAFOK","","img/set1/S2.jpg","68","2","structured_load","68","structured_load,random,structured_incentive,structured_normal","4,2,2,3,1,2","4,1,3,2","true","","",""
"null","","html-keyboard-response","185","386210","0.0-185.0","3F1567XTNXRHYEANF9HQX9HK8Q49QI","A3LVLZS8S41ZD7","3RSBJ6YZECCLSSQQCGKCTHC9OPAFOK","","<img src=""img/set1/S2.jpg"" width=""540"" height = ""360"" style=""border:16px solid orange"">","null","","","","","","","","","",""
"null","","html-keyboard-response","186","386414","0.0-186.0","3F1567XTNXRHYEANF9HQX9HK8Q49QI","A3LVLZS8S41ZD7","3RSBJ6YZECCLSSQQCGKCTHC9OPAFOK","","","null","","","","","","","","","",""
"712","","image-keyboard-response","187","387153","0.0-187.0","3F1567XTNXRHYEANF9HQX9HK8Q49QI","A3LVLZS8S41ZD7","3RSBJ6YZECCLSSQQCGKCTHC9OPAFOK","","img/set1/S3.jpg","72","3","structured_load","72","structured_load,random,structured_incentive,structured_normal","4,2,2,3,1,2","4,1,3,2","true","","",""
"null","","html-keyboard-response","188","387526","0.0-188.0","3F1567XTNXRHYEANF9HQX9HK8Q49QI","A3LVLZS8S41ZD7","3RSBJ6YZECCLSSQQCGKCTHC9OPAFOK","","<img src=""img/set1/S3.jpg"" width=""540"" height = ""360"" style=""border:16px solid orange"">","null","","","","","","","","","",""
"null","","html-keyboard-response","189","387729","0.0-189.0","3F1567XTNXRHYEANF9HQX9HK8Q49QI","A3LVLZS8S41ZD7","3RSBJ6YZECCLSSQQCGKCTHC9OPAFOK","","","null","","","","","","","","","",""
"661","","image-keyboard-response","190","388392","0.0-190.0","3F1567XTNXRHYEANF9HQX9HK8Q49QI","A3LVLZS8S41ZD7","3RSBJ6YZECCLSSQQCGKCTHC9OPAFOK","","img/set1/S4.jpg","74","4","structured_load","74","structured_load,random,structured_incentive,structured_normal","4,2,2,3,1,2","4,1,3,2","true","","",""
"null","","html-keyboard-response","191","388807","0.0-191.0","3F1567XTNXRHYEANF9HQX9HK8Q49QI","A3LVLZS8S41ZD7","3RSBJ6YZECCLSSQQCGKCTHC9OPAFOK","","<img src=""img/set1/S4.jpg"" width=""540"" height = ""360"" style=""border:16px solid orange"">","null","","","","","","","","","",""
"null","","html-keyboard-response","192","389061","0.0-192.0","3F1567XTNXRHYEANF9HQX9HK8Q49QI","A3LVLZS8S41ZD7","3RSBJ6YZECCLSSQQCGKCTHC9OPAFOK","","","null","","","","","","","","","",""
"785","","image-keyboard-response","193","389847","0.0-193.0","3F1567XTNXRHYEANF9HQX9HK8Q49QI","A3LVLZS8S41ZD7","3RSBJ6YZECCLSSQQCGKCTHC9OPAFOK","","img/set1/S2.jpg","68","2","structured_load","68","structured_load,random,structured_incentive,structured_normal","4,2,2,3,1,2","4,1,3,2","true","","",""
"null","","html-keyboard-response","194","390213","0.0-194.0","3F1567XTNXRHYEANF9HQX9HK8Q49QI","A3LVLZS8S41ZD7","3RSBJ6YZECCLSSQQCGKCTHC9OPAFOK","","<img src=""img/set1/S2.jpg"" width=""540"" height = ""360"" style=""border:16px solid orange"">","null","","","","","","","","","",""
"null","","html-keyboard-response","195","390424","0.0-195.0","3F1567XTNXRHYEANF9HQX9HK8Q49QI","A3LVLZS8S41ZD7","3RSBJ6YZECCLSSQQCGKCTHC9OPAFOK","","","null","","","","","","","","","",""
"646","","image-keyboard-response","196","391072","0.0-196.0","3F1567XTNXRHYEANF9HQX9HK8Q49QI","A3LVLZS8S41ZD7","3RSBJ6YZECCLSSQQCGKCTHC9OPAFOK","","img/set1/S3.jpg","72","3","structured_load","72","structured_load,random,structured_incentive,structured_normal","4,2,2,3,1,2","4,1,3,2","true","","",""
"null","","html-keyboard-response","197","391435","0.0-197.0","3F1567XTNXRHYEANF9HQX9HK8Q49QI","A3LVLZS8S41ZD7","3RSBJ6YZECCLSSQQCGKCTHC9OPAFOK","","<img src=""img/set1/S3.jpg"" width=""540"" height = ""360"" style=""border:16px solid orange"">","null","","","","","","","","","",""
"null","","html-keyboard-response","198","391656","0.0-198.0","3F1567XTNXRHYEANF9HQX9HK8Q49QI","A3LVLZS8S41ZD7","3RSBJ6YZECCLSSQQCGKCTHC9OPAFOK","","","null","","","","","","","","","",""
"695","","image-keyboard-response","199","392353","0.0-199.0","3F1567XTNXRHYEANF9HQX9HK8Q49QI","A3LVLZS8S41ZD7","3RSBJ6YZECCLSSQQCGKCTHC9OPAFOK","","img/set1/S2.jpg","68","2","structured_load","68","structured_load,random,structured_incentive,structured_normal","4,2,2,3,1,2","4,1,3,2","true","","",""
"null","","html-keyboard-response","200","392739","0.0-200.0","3F1567XTNXRHYEANF9HQX9HK8Q49QI","A3LVLZS8S41ZD7","3RSBJ6YZECCLSSQQCGKCTHC9OPAFOK","","<img src=""img/set1/S2.jpg"" width=""540"" height = ""360"" style=""border:16px solid orange"">","null","","","","","","","","","",""
"null","","html-keyboard-response","201","392940","0.0-201.0","3F1567XTNXRHYEANF9HQX9HK8Q49QI","A3LVLZS8S41ZD7","3RSBJ6YZECCLSSQQCGKCTHC9OPAFOK","","","null","","","","","","","","","",""
"584","","image-keyboard-response","202","393528","0.0-202.0","3F1567XTNXRHYEANF9HQX9HK8Q49QI","A3LVLZS8S41ZD7","3RSBJ6YZECCLSSQQCGKCTHC9OPAFOK","","img/set1/S1.jpg","83","1","structured_load","83","structured_load,random,structured_incentive,structured_normal","4,2,2,3,1,2","4,1,3,2","true","","",""
"null","","html-keyboard-response","203","393893","0.0-203.0","3F1567XTNXRHYEANF9HQX9HK8Q49QI","A3LVLZS8S41ZD7","3RSBJ6YZECCLSSQQCGKCTHC9OPAFOK","","<img src=""img/set1/S1.jpg"" width=""540"" height = ""360"" style=""border:16px solid orange"">","null","","","","","","","","","",""
"null","","html-keyboard-response","204","394140","0.0-204.0","3F1567XTNXRHYEANF9HQX9HK8Q49QI","A3LVLZS8S41ZD7","3RSBJ6YZECCLSSQQCGKCTHC9OPAFOK","","","null","","","","","","","","","",""
"586","","image-keyboard-response","205","394728","0.0-205.0","3F1567XTNXRHYEANF9HQX9HK8Q49QI","A3LVLZS8S41ZD7","3RSBJ6YZECCLSSQQCGKCTHC9OPAFOK","","img/set1/S2.jpg","68","2","structured_load","68","structured_load,random,structured_incentive,structured_normal","4,2,2,3,1,2","4,1,3,2","true","","",""
"null","","html-keyboard-response","206","395097","0.0-206.0","3F1567XTNXRHYEANF9HQX9HK8Q49QI","A3LVLZS8S41ZD7","3RSBJ6YZECCLSSQQCGKCTHC9OPAFOK","","<img src=""img/set1/S2.jpg"" width=""540"" height = ""360"" style=""border:16px solid orange"">","null","","","","","","","","","",""
"null","","html-keyboard-response","207","395317","0.0-207.0","3F1567XTNXRHYEANF9HQX9HK8Q49QI","A3LVLZS8S41ZD7","3RSBJ6YZECCLSSQQCGKCTHC9OPAFOK","","","null","","","","","","","","","",""
"592","","image-keyboard-response","208","395911","0.0-208.0","3F1567XTNXRHYEANF9HQX9HK8Q49QI","A3LVLZS8S41ZD7","3RSBJ6YZECCLSSQQCGKCTHC9OPAFOK","","img/set1/S1.jpg","83","1","structured_load","83","structured_load,random,structured_incentive,structured_normal","4,2,2,3,1,2","4,1,3,2","true","","",""
"null","","html-keyboard-response","209","396332","0.0-209.0","3F1567XTNXRHYEANF9HQX9HK8Q49QI","A3LVLZS8S41ZD7","3RSBJ6YZECCLSSQQCGKCTHC9OPAFOK","","<img src=""img/set1/S1.jpg"" width=""540"" height = ""360"" style=""border:16px solid orange"">","null","","","","","","","","","",""
"null","","html-keyboard-response","210","396539","0.0-210.0","3F1567XTNXRHYEANF9HQX9HK8Q49QI","A3LVLZS8S41ZD7","3RSBJ6YZECCLSSQQCGKCTHC9OPAFOK","","","null","","","","","","","","","",""
"754","","image-keyboard-response","211","397295","0.0-211.0","3F1567XTNXRHYEANF9HQX9HK8Q49QI","A3LVLZS8S41ZD7","3RSBJ6YZECCLSSQQCGKCTHC9OPAFOK","","img/set1/S3.jpg","72","3","structured_load","72","structured_load,random,structured_incentive,structured_normal","4,2,2,3,1,2","4,1,3,2","true","","",""
"null","","html-keyboard-response","212","397659","0.0-212.0","3F1567XTNXRHYEANF9HQX9HK8Q49QI","A3LVLZS8S41ZD7","3RSBJ6YZECCLSSQQCGKCTHC9OPAFOK","","<img src=""img/set1/S3.jpg"" width=""540"" height = ""360"" style=""border:16px solid orange"">","null","","","","","","","","","",""
"null","","html-keyboard-response","213","397889","0.0-213.0","3F1567XTNXRHYEANF9HQX9HK8Q49QI","A3LVLZS8S41ZD7","3RSBJ6YZECCLSSQQCGKCTHC9OPAFOK","","","null","","","","","","","","","",""
"525","","image-keyboard-response","214","398416","0.0-214.0","3F1567XTNXRHYEANF9HQX9HK8Q49QI","A3LVLZS8S41ZD7","3RSBJ6YZECCLSSQQCGKCTHC9OPAFOK","","img/set1/S4.jpg","74","4","structured_load","74","structured_load,random,structured_incentive,structured_normal","4,2,2,3,1,2","4,1,3,2","true","","",""
"null","","html-keyboard-response","215","398781","0.0-215.0","3F1567XTNXRHYEANF9HQX9HK8Q49QI","A3LVLZS8S41ZD7","3RSBJ6YZECCLSSQQCGKCTHC9OPAFOK","","<img src=""img/set1/S4.jpg"" width=""540"" height = ""360"" style=""border:16px solid orange"">","null","","","","","","","","","",""
"null","","html-keyboard-response","216","398984","0.0-216.0","3F1567XTNXRHYEANF9HQX9HK8Q49QI","A3LVLZS8S41ZD7","3RSBJ6YZECCLSSQQCGKCTHC9OPAFOK","","","null","","","","","","","","","",""
"805","","image-keyboard-response","217","399791","0.0-217.0","3F1567XTNXRHYEANF9HQX9HK8Q49QI","A3LVLZS8S41ZD7","3RSBJ6YZECCLSSQQCGKCTHC9OPAFOK","","img/set1/S2.jpg","68","2","structured_load","68","structured_load,random,structured_incentive,structured_normal","4,2,2,3,1,2","4,1,3,2","true","","",""
"null","","html-keyboard-response","218","400164","0.0-218.0","3F1567XTNXRHYEANF9HQX9HK8Q49QI","A3LVLZS8S41ZD7","3RSBJ6YZECCLSSQQCGKCTHC9OPAFOK","","<img src=""img/set1/S2.jpg"" width=""540"" height = ""360"" style=""border:16px solid orange"">","null","","","","","","","","","",""
"null","","html-keyboard-response","219","400375","0.0-219.0","3F1567XTNXRHYEANF9HQX9HK8Q49QI","A3LVLZS8S41ZD7","3RSBJ6YZECCLSSQQCGKCTHC9OPAFOK","","","null","","","","","","","","","",""
"623","","image-keyboard-response","220","401000","0.0-220.0","3F1567XTNXRHYEANF9HQX9HK8Q49QI","A3LVLZS8S41ZD7","3RSBJ6YZECCLSSQQCGKCTHC9OPAFOK","","img/set1/S4.jpg","74","4","structured_load","74","structured_load,random,structured_incentive,structured_normal","4,2,2,3,1,2","4,1,3,2","true","","",""
"null","","html-keyboard-response","221","401362","0.0-221.0","3F1567XTNXRHYEANF9HQX9HK8Q49QI","A3LVLZS8S41ZD7","3RSBJ6YZECCLSSQQCGKCTHC9OPAFOK","","<img src=""img/set1/S4.jpg"" width=""540"" height = ""360"" style=""border:16px solid orange"">","null","","","","","","","","","",""
"null","","html-keyboard-response","222","401570","0.0-222.0","3F1567XTNXRHYEANF9HQX9HK8Q49QI","A3LVLZS8S41ZD7","3RSBJ6YZECCLSSQQCGKCTHC9OPAFOK","","","null","","","","","","","","","",""
"654","","image-keyboard-response","223","402226","0.0-223.0","3F1567XTNXRHYEANF9HQX9HK8Q49QI","A3LVLZS8S41ZD7","3RSBJ6YZECCLSSQQCGKCTHC9OPAFOK","","img/set1/S2.jpg","68","2","structured_load","68","structured_load,random,structured_incentive,structured_normal","4,2,2,3,1,2","4,1,3,2","true","","",""
"null","","html-keyboard-response","224","402579","0.0-224.0","3F1567XTNXRHYEANF9HQX9HK8Q49QI","A3LVLZS8S41ZD7","3RSBJ6YZECCLSSQQCGKCTHC9OPAFOK","","<img src=""img/set1/S2.jpg"" width=""540"" height = ""360"" style=""border:16px solid orange"">","null","","","","","","","","","",""
"null","","html-keyboard-response","225","402841","0.0-225.0","3F1567XTNXRHYEANF9HQX9HK8Q49QI","A3LVLZS8S41ZD7","3RSBJ6YZECCLSSQQCGKCTHC9OPAFOK","","","null","","","","","","","","","",""
"560","","image-keyboard-response","226","403402","0.0-226.0","3F1567XTNXRHYEANF9HQX9HK8Q49QI","A3LVLZS8S41ZD7","3RSBJ6YZECCLSSQQCGKCTHC9OPAFOK","","img/set1/S1.jpg","83","1","structured_load","83","structured_load,random,structured_incentive,structured_normal","4,2,2,3,1,2","4,1,3,2","true","","",""
"null","","html-keyboard-response","227","403768","0.0-227.0","3F1567XTNXRHYEANF9HQX9HK8Q49QI","A3LVLZS8S41ZD7","3RSBJ6YZECCLSSQQCGKCTHC9OPAFOK","","<img src=""img/set1/S1.jpg"" width=""540"" height = ""360"" style=""border:16px solid orange"">","null","","","","","","","","","",""
"null","","html-keyboard-response","228","404003","0.0-228.0","3F1567XTNXRHYEANF9HQX9HK8Q49QI","A3LVLZS8S41ZD7","3RSBJ6YZECCLSSQQCGKCTHC9OPAFOK","","","null","","","","","","","","","",""
"522","","image-keyboard-response","229","404527","0.0-229.0","3F1567XTNXRHYEANF9HQX9HK8Q49QI","A3LVLZS8S41ZD7","3RSBJ6YZECCLSSQQCGKCTHC9OPAFOK","","img/set1/S3.jpg","72","3","structured_load","72","structured_load,random,structured_incentive,structured_normal","4,2,2,3,1,2","4,1,3,2","true","","",""
"null","","html-keyboard-response","230","404895","0.0-230.0","3F1567XTNXRHYEANF9HQX9HK8Q49QI","A3LVLZS8S41ZD7","3RSBJ6YZECCLSSQQCGKCTHC9OPAFOK","","<img src=""img/set1/S3.jpg"" width=""540"" height = ""360"" style=""border:16px solid orange"">","null","","","","","","","","","",""
"null","","html-keyboard-response","231","405104","0.0-231.0","3F1567XTNXRHYEANF9HQX9HK8Q49QI","A3LVLZS8S41ZD7","3RSBJ6YZECCLSSQQCGKCTHC9OPAFOK","","","null","","","","","","","","","",""
"622","","image-keyboard-response","232","405729","0.0-232.0","3F1567XTNXRHYEANF9HQX9HK8Q49QI","A3LVLZS8S41ZD7","3RSBJ6YZECCLSSQQCGKCTHC9OPAFOK","","img/set1/S2.jpg","72","2","structured_load","68","structured_load,random,structured_incentive,structured_normal","4,2,2,3,1,2","4,1,3,2","false","","",""
"null","","html-keyboard-response","233","406084","0.0-233.0","3F1567XTNXRHYEANF9HQX9HK8Q49QI","A3LVLZS8S41ZD7","3RSBJ6YZECCLSSQQCGKCTHC9OPAFOK","","<img src=""img/set1/S2.jpg"" width=""540"" height = ""360"">","null","","","","","","","","","",""
"null","","html-keyboard-response","234","406290","0.0-234.0","3F1567XTNXRHYEANF9HQX9HK8Q49QI","A3LVLZS8S41ZD7","3RSBJ6YZECCLSSQQCGKCTHC9OPAFOK","","","null","","","","","","","","","",""
"599","","image-keyboard-response","235","406891","0.0-235.0","3F1567XTNXRHYEANF9HQX9HK8Q49QI","A3LVLZS8S41ZD7","3RSBJ6YZECCLSSQQCGKCTHC9OPAFOK","","img/set1/S4.jpg","74","4","structured_load","74","structured_load,random,structured_incentive,structured_normal","4,2,2,3,1,2","4,1,3,2","true","","",""
"null","","html-keyboard-response","236","407274","0.0-236.0","3F1567XTNXRHYEANF9HQX9HK8Q49QI","A3LVLZS8S41ZD7","3RSBJ6YZECCLSSQQCGKCTHC9OPAFOK","","<img src=""img/set1/S4.jpg"" width=""540"" height = ""360"" style=""border:16px solid orange"">","null","","","","","","","","","",""
"null","","html-keyboard-response","237","407474","0.0-237.0","3F1567XTNXRHYEANF9HQX9HK8Q49QI","A3LVLZS8S41ZD7","3RSBJ6YZECCLSSQQCGKCTHC9OPAFOK","","","null","","","","","","","","","",""
"621","","image-keyboard-response","238","408097","0.0-238.0","3F1567XTNXRHYEANF9HQX9HK8Q49QI","A3LVLZS8S41ZD7","3RSBJ6YZECCLSSQQCGKCTHC9OPAFOK","","img/set1/S2.jpg","68","2","structured_load","68","structured_load,random,structured_incentive,structured_normal","4,2,2,3,1,2","4,1,3,2","true","","",""
"null","","html-keyboard-response","239","408458","0.0-239.0","3F1567XTNXRHYEANF9HQX9HK8Q49QI","A3LVLZS8S41ZD7","3RSBJ6YZECCLSSQQCGKCTHC9OPAFOK","","<img src=""img/set1/S2.jpg"" width=""540"" height = ""360"" style=""border:16px solid orange"">","null","","","","","","","","","",""
"null","","html-keyboard-response","240","408698","0.0-240.0","3F1567XTNXRHYEANF9HQX9HK8Q49QI","A3LVLZS8S41ZD7","3RSBJ6YZECCLSSQQCGKCTHC9OPAFOK","","","null","","","","","","","","","",""
"589","","image-keyboard-response","241","409289","0.0-241.0","3F1567XTNXRHYEANF9HQX9HK8Q49QI","A3LVLZS8S41ZD7","3RSBJ6YZECCLSSQQCGKCTHC9OPAFOK","","img/set1/S4.jpg","74","4","structured_load","74","structured_load,random,structured_incentive,structured_normal","4,2,2,3,1,2","4,1,3,2","true","","",""
"null","","html-keyboard-response","242","409652","0.0-242.0","3F1567XTNXRHYEANF9HQX9HK8Q49QI","A3LVLZS8S41ZD7","3RSBJ6YZECCLSSQQCGKCTHC9OPAFOK","","<img src=""img/set1/S4.jpg"" width=""540"" height = ""360"" style=""border:16px solid orange"">","null","","","","","","","","","",""
"null","","html-keyboard-response","243","409878","0.0-243.0","3F1567XTNXRHYEANF9HQX9HK8Q49QI","A3LVLZS8S41ZD7","3RSBJ6YZECCLSSQQCGKCTHC9OPAFOK","","","null","","","","","","","","","",""
"609","","image-keyboard-response","244","410489","0.0-244.0","3F1567XTNXRHYEANF9HQX9HK8Q49QI","A3LVLZS8S41ZD7","3RSBJ6YZECCLSSQQCGKCTHC9OPAFOK","","img/set1/S2.jpg","68","2","structured_load","68","structured_load,random,structured_incentive,structured_normal","4,2,2,3,1,2","4,1,3,2","true","","",""
"null","","html-keyboard-response","245","410860","0.0-245.0","3F1567XTNXRHYEANF9HQX9HK8Q49QI","A3LVLZS8S41ZD7","3RSBJ6YZECCLSSQQCGKCTHC9OPAFOK","","<img src=""img/set1/S2.jpg"" width=""540"" height = ""360"" style=""border:16px solid orange"">","null","","","","","","","","","",""
"null","","html-keyboard-response","246","411074","0.0-246.0","3F1567XTNXRHYEANF9HQX9HK8Q49QI","A3LVLZS8S41ZD7","3RSBJ6YZECCLSSQQCGKCTHC9OPAFOK","","","null","","","","","","","","","",""
"684","","image-keyboard-response","247","411760","0.0-247.0","3F1567XTNXRHYEANF9HQX9HK8Q49QI","A3LVLZS8S41ZD7","3RSBJ6YZECCLSSQQCGKCTHC9OPAFOK","","img/set1/S3.jpg","72","3","structured_load","72","structured_load,random,structured_incentive,structured_normal","4,2,2,3,1,2","4,1,3,2","true","","",""
"null","","html-keyboard-response","248","412157","0.0-248.0","3F1567XTNXRHYEANF9HQX9HK8Q49QI","A3LVLZS8S41ZD7","3RSBJ6YZECCLSSQQCGKCTHC9OPAFOK","","<img src=""img/set1/S3.jpg"" width=""540"" height = ""360"" style=""border:16px solid orange"">","null","","","","","","","","","",""
"null","","html-keyboard-response","249","412384","0.0-249.0","3F1567XTNXRHYEANF9HQX9HK8Q49QI","A3LVLZS8S41ZD7","3RSBJ6YZECCLSSQQCGKCTHC9OPAFOK","","","null","","","","","","","","","",""
"734","","image-keyboard-response","250","413120","0.0-250.0","3F1567XTNXRHYEANF9HQX9HK8Q49QI","A3LVLZS8S41ZD7","3RSBJ6YZECCLSSQQCGKCTHC9OPAFOK","","img/set1/S4.jpg","74","4","structured_load","74","structured_load,random,structured_incentive,structured_normal","4,2,2,3,1,2","4,1,3,2","true","","",""
"null","","html-keyboard-response","251","413509","0.0-251.0","3F1567XTNXRHYEANF9HQX9HK8Q49QI","A3LVLZS8S41ZD7","3RSBJ6YZECCLSSQQCGKCTHC9OPAFOK","","<img src=""img/set1/S4.jpg"" width=""540"" height = ""360"" style=""border:16px solid orange"">","null","","","","","","","","","",""
"null","","html-keyboard-response","252","413771","0.0-252.0","3F1567XTNXRHYEANF9HQX9HK8Q49QI","A3LVLZS8S41ZD7","3RSBJ6YZECCLSSQQCGKCTHC9OPAFOK","","","null","","","","","","","","","",""
"532","","image-keyboard-response","253","414305","0.0-253.0","3F1567XTNXRHYEANF9HQX9HK8Q49QI","A3LVLZS8S41ZD7","3RSBJ6YZECCLSSQQCGKCTHC9OPAFOK","","img/set1/S2.jpg","68","2","structured_load","68","structured_load,random,structured_incentive,structured_normal","4,2,2,3,1,2","4,1,3,2","true","","",""
"null","","html-keyboard-response","254","414677","0.0-254.0","3F1567XTNXRHYEANF9HQX9HK8Q49QI","A3LVLZS8S41ZD7","3RSBJ6YZECCLSSQQCGKCTHC9OPAFOK","","<img src=""img/set1/S2.jpg"" width=""540"" height = ""360"" style=""border:16px solid orange"">","null","","","","","","","","","",""
"null","","html-keyboard-response","255","414885","0.0-255.0","3F1567XTNXRHYEANF9HQX9HK8Q49QI","A3LVLZS8S41ZD7","3RSBJ6YZECCLSSQQCGKCTHC9OPAFOK","","","null","","","","","","","","","",""
"562","","image-keyboard-response","256","415449","0.0-256.0","3F1567XTNXRHYEANF9HQX9HK8Q49QI","A3LVLZS8S41ZD7","3RSBJ6YZECCLSSQQCGKCTHC9OPAFOK","","img/set1/S1.jpg","83","1","structured_load","83","structured_load,random,structured_incentive,structured_normal","4,2,2,3,1,2","4,1,3,2","true","","",""
"null","","html-keyboard-response","257","415815","0.0-257.0","3F1567XTNXRHYEANF9HQX9HK8Q49QI","A3LVLZS8S41ZD7","3RSBJ6YZECCLSSQQCGKCTHC9OPAFOK","","<img src=""img/set1/S1.jpg"" width=""540"" height = ""360"" style=""border:16px solid orange"">","null","","","","","","","","","",""
"null","","html-keyboard-response","258","416027","0.0-258.0","3F1567XTNXRHYEANF9HQX9HK8Q49QI","A3LVLZS8S41ZD7","3RSBJ6YZECCLSSQQCGKCTHC9OPAFOK","","","null","","","","","","","","","",""
"460","","image-keyboard-response","259","416489","0.0-259.0","3F1567XTNXRHYEANF9HQX9HK8Q49QI","A3LVLZS8S41ZD7","3RSBJ6YZECCLSSQQCGKCTHC9OPAFOK","","img/set1/S1.jpg","83","1","structured_load","83","structured_load,random,structured_incentive,structured_normal","4,2,2,3,1,2","4,1,3,2","true","","",""
"null","","html-keyboard-response","260","416841","0.0-260.0","3F1567XTNXRHYEANF9HQX9HK8Q49QI","A3LVLZS8S41ZD7","3RSBJ6YZECCLSSQQCGKCTHC9OPAFOK","","<img src=""img/set1/S1.jpg"" width=""540"" height = ""360"" style=""border:16px solid orange"">","null","","","","","","","","","",""
"null","","html-keyboard-response","261","417054","0.0-261.0","3F1567XTNXRHYEANF9HQX9HK8Q49QI","A3LVLZS8S41ZD7","3RSBJ6YZECCLSSQQCGKCTHC9OPAFOK","","","null","","","","","","","","","",""
"576","","image-keyboard-response","262","417632","0.0-262.0","3F1567XTNXRHYEANF9HQX9HK8Q49QI","A3LVLZS8S41ZD7","3RSBJ6YZECCLSSQQCGKCTHC9OPAFOK","","img/set1/S4.jpg","74","4","structured_load","74","structured_load,random,structured_incentive,structured_normal","4,2,2,3,1,2","4,1,3,2","true","","",""
"null","","html-keyboard-response","263","417987","0.0-263.0","3F1567XTNXRHYEANF9HQX9HK8Q49QI","A3LVLZS8S41ZD7","3RSBJ6YZECCLSSQQCGKCTHC9OPAFOK","","<img src=""img/set1/S4.jpg"" width=""540"" height = ""360"" style=""border:16px solid orange"">","null","","","","","","","","","",""
"null","","html-keyboard-response","264","418193","0.0-264.0","3F1567XTNXRHYEANF9HQX9HK8Q49QI","A3LVLZS8S41ZD7","3RSBJ6YZECCLSSQQCGKCTHC9OPAFOK","","","null","","","","","","","","","",""
"573","","image-keyboard-response","265","418769","0.0-265.0","3F1567XTNXRHYEANF9HQX9HK8Q49QI","A3LVLZS8S41ZD7","3RSBJ6YZECCLSSQQCGKCTHC9OPAFOK","","img/set1/S2.jpg","68","2","structured_load","68","structured_load,random,structured_incentive,structured_normal","4,2,2,3,1,2","4,1,3,2","true","","",""
"null","","html-keyboard-response","266","419137","0.0-266.0","3F1567XTNXRHYEANF9HQX9HK8Q49QI","A3LVLZS8S41ZD7","3RSBJ6YZECCLSSQQCGKCTHC9OPAFOK","","<img src=""img/set1/S2.jpg"" width=""540"" height = ""360"" style=""border:16px solid orange"">","null","","","","","","","","","",""
"null","","html-keyboard-response","267","419385","0.0-267.0","3F1567XTNXRHYEANF9HQX9HK8Q49QI","A3LVLZS8S41ZD7","3RSBJ6YZECCLSSQQCGKCTHC9OPAFOK","","","null","","","","","","","","","",""
"598","","image-keyboard-response","268","419985","0.0-268.0","3F1567XTNXRHYEANF9HQX9HK8Q49QI","A3LVLZS8S41ZD7","3RSBJ6YZECCLSSQQCGKCTHC9OPAFOK","","img/set1/S1.jpg","83","1","structured_load","83","structured_load,random,structured_incentive,structured_normal","4,2,2,3,1,2","4,1,3,2","true","","",""
"null","","html-keyboard-response","269","420344","0.0-269.0","3F1567XTNXRHYEANF9HQX9HK8Q49QI","A3LVLZS8S41ZD7","3RSBJ6YZECCLSSQQCGKCTHC9OPAFOK","","<img src=""img/set1/S1.jpg"" width=""540"" height = ""360"" style=""border:16px solid orange"">","null","","","","","","","","","",""
"null","","html-keyboard-response","270","420548","0.0-270.0","3F1567XTNXRHYEANF9HQX9HK8Q49QI","A3LVLZS8S41ZD7","3RSBJ6YZECCLSSQQCGKCTHC9OPAFOK","","","null","","","","","","","","","",""
"588","","image-keyboard-response","271","421138","0.0-271.0","3F1567XTNXRHYEANF9HQX9HK8Q49QI","A3LVLZS8S41ZD7","3RSBJ6YZECCLSSQQCGKCTHC9OPAFOK","","img/set1/S4.jpg","74","4","structured_load","74","structured_load,random,structured_incentive,structured_normal","4,2,2,3,1,2","4,1,3,2","true","","",""
"null","","html-keyboard-response","272","421502","0.0-272.0","3F1567XTNXRHYEANF9HQX9HK8Q49QI","A3LVLZS8S41ZD7","3RSBJ6YZECCLSSQQCGKCTHC9OPAFOK","","<img src=""img/set1/S4.jpg"" width=""540"" height = ""360"" style=""border:16px solid orange"">","null","","","","","","","","","",""
"null","","html-keyboard-response","273","421717","0.0-273.0","3F1567XTNXRHYEANF9HQX9HK8Q49QI","A3LVLZS8S41ZD7","3RSBJ6YZECCLSSQQCGKCTHC9OPAFOK","","","null","","","","","","","","","",""
"635","","image-keyboard-response","274","422354","0.0-274.0","3F1567XTNXRHYEANF9HQX9HK8Q49QI","A3LVLZS8S41ZD7","3RSBJ6YZECCLSSQQCGKCTHC9OPAFOK","","img/set1/S2.jpg","68","2","structured_load","68","structured_load,random,structured_incentive,structured_normal","4,2,2,3,1,2","4,1,3,2","true","","",""
"null","","html-keyboard-response","275","422764","0.0-275.0","3F1567XTNXRHYEANF9HQX9HK8Q49QI","A3LVLZS8S41ZD7","3RSBJ6YZECCLSSQQCGKCTHC9OPAFOK","","<img src=""img/set1/S2.jpg"" width=""540"" height = ""360"" style=""border:16px solid orange"">","null","","","","","","","","","",""
"null","","html-keyboard-response","276","422969","0.0-276.0","3F1567XTNXRHYEANF9HQX9HK8Q49QI","A3LVLZS8S41ZD7","3RSBJ6YZECCLSSQQCGKCTHC9OPAFOK","","","null","","","","","","","","","",""
"567","","image-keyboard-response","277","423539","0.0-277.0","3F1567XTNXRHYEANF9HQX9HK8Q49QI","A3LVLZS8S41ZD7","3RSBJ6YZECCLSSQQCGKCTHC9OPAFOK","","img/set1/S3.jpg","72","3","structured_load","72","structured_load,random,structured_incentive,structured_normal","4,2,2,3,1,2","4,1,3,2","true","","",""
"null","","html-keyboard-response","278","423905","0.0-278.0","3F1567XTNXRHYEANF9HQX9HK8Q49QI","A3LVLZS8S41ZD7","3RSBJ6YZECCLSSQQCGKCTHC9OPAFOK","","<img src=""img/set1/S3.jpg"" width=""540"" height = ""360"" style=""border:16px solid orange"">","null","","","","","","","","","",""
"null","","html-keyboard-response","279","424125","0.0-279.0","3F1567XTNXRHYEANF9HQX9HK8Q49QI","A3LVLZS8S41ZD7","3RSBJ6YZECCLSSQQCGKCTHC9OPAFOK","","","null","","","","","","","","","",""
"513","","image-keyboard-response","280","424641","0.0-280.0","3F1567XTNXRHYEANF9HQX9HK8Q49QI","A3LVLZS8S41ZD7","3RSBJ6YZECCLSSQQCGKCTHC9OPAFOK","","img/set1/S1.jpg","83","1","structured_load","83","structured_load,random,structured_incentive,structured_normal","4,2,2,3,1,2","4,1,3,2","true","","",""
"null","","html-keyboard-response","281","425003","0.0-281.0","3F1567XTNXRHYEANF9HQX9HK8Q49QI","A3LVLZS8S41ZD7","3RSBJ6YZECCLSSQQCGKCTHC9OPAFOK","","<img src=""img/set1/S1.jpg"" width=""540"" height = ""360"" style=""border:16px solid orange"">","null","","","","","","","","","",""
"null","","html-keyboard-response","282","425210","0.0-282.0","3F1567XTNXRHYEANF9HQX9HK8Q49QI","A3LVLZS8S41ZD7","3RSBJ6YZECCLSSQQCGKCTHC9OPAFOK","","","null","","","","","","","","","",""
"500","","image-keyboard-response","283","425712","0.0-283.0","3F1567XTNXRHYEANF9HQX9HK8Q49QI","A3LVLZS8S41ZD7","3RSBJ6YZECCLSSQQCGKCTHC9OPAFOK","","img/set1/S1.jpg","83","1","structured_load","83","structured_load,random,structured_incentive,structured_normal","4,2,2,3,1,2","4,1,3,2","true","","",""
"null","","html-keyboard-response","284","426138","0.0-284.0","3F1567XTNXRHYEANF9HQX9HK8Q49QI","A3LVLZS8S41ZD7","3RSBJ6YZECCLSSQQCGKCTHC9OPAFOK","","<img src=""img/set1/S1.jpg"" width=""540"" height = ""360"" style=""border:16px solid orange"">","null","","","","","","","","","",""
"null","","html-keyboard-response","285","426391","0.0-285.0","3F1567XTNXRHYEANF9HQX9HK8Q49QI","A3LVLZS8S41ZD7","3RSBJ6YZECCLSSQQCGKCTHC9OPAFOK","","","null","","","","","","","","","",""
"592","","image-keyboard-response","286","426985","0.0-286.0","3F1567XTNXRHYEANF9HQX9HK8Q49QI","A3LVLZS8S41ZD7","3RSBJ6YZECCLSSQQCGKCTHC9OPAFOK","","img/set1/S3.jpg","72","3","structured_load","72","structured_load,random,structured_incentive,structured_normal","4,2,2,3,1,2","4,1,3,2","true","","",""
"null","","html-keyboard-response","287","427396","0.0-287.0","3F1567XTNXRHYEANF9HQX9HK8Q49QI","A3LVLZS8S41ZD7","3RSBJ6YZECCLSSQQCGKCTHC9OPAFOK","","<img src=""img/set1/S3.jpg"" width=""540"" height = ""360"" style=""border:16px solid orange"">","null","","","","","","","","","",""
"null","","html-keyboard-response","288","427654","0.0-288.0","3F1567XTNXRHYEANF9HQX9HK8Q49QI","A3LVLZS8S41ZD7","3RSBJ6YZECCLSSQQCGKCTHC9OPAFOK","","","null","","","","","","","","","",""
"433","","image-keyboard-response","289","428088","0.0-289.0","3F1567XTNXRHYEANF9HQX9HK8Q49QI","A3LVLZS8S41ZD7","3RSBJ6YZECCLSSQQCGKCTHC9OPAFOK","","img/set1/S4.jpg","74","4","structured_load","74","structured_load,random,structured_incentive,structured_normal","4,2,2,3,1,2","4,1,3,2","true","","",""
"null","","html-keyboard-response","290","428447","0.0-290.0","3F1567XTNXRHYEANF9HQX9HK8Q49QI","A3LVLZS8S41ZD7","3RSBJ6YZECCLSSQQCGKCTHC9OPAFOK","","<img src=""img/set1/S4.jpg"" width=""540"" height = ""360"" style=""border:16px solid orange"">","null","","","","","","","","","",""
"null","","html-keyboard-response","291","428661","0.0-291.0","3F1567XTNXRHYEANF9HQX9HK8Q49QI","A3LVLZS8S41ZD7","3RSBJ6YZECCLSSQQCGKCTHC9OPAFOK","","","null","","","","","","","","","",""
"547","","image-keyboard-response","292","429210","0.0-292.0","3F1567XTNXRHYEANF9HQX9HK8Q49QI","A3LVLZS8S41ZD7","3RSBJ6YZECCLSSQQCGKCTHC9OPAFOK","","img/set1/S3.jpg","72","3","structured_load","72","structured_load,random,structured_incentive,structured_normal","4,2,2,3,1,2","4,1,3,2","true","","",""
"null","","html-keyboard-response","293","429574","0.0-293.0","3F1567XTNXRHYEANF9HQX9HK8Q49QI","A3LVLZS8S41ZD7","3RSBJ6YZECCLSSQQCGKCTHC9OPAFOK","","<img src=""img/set1/S3.jpg"" width=""540"" height = ""360"" style=""border:16px solid orange"">","null","","","","","","","","","",""
"null","","html-keyboard-response","294","429779","0.0-294.0","3F1567XTNXRHYEANF9HQX9HK8Q49QI","A3LVLZS8S41ZD7","3RSBJ6YZECCLSSQQCGKCTHC9OPAFOK","","","null","","","","","","","","","",""
"516","","image-keyboard-response","295","430297","0.0-295.0","3F1567XTNXRHYEANF9HQX9HK8Q49QI","A3LVLZS8S41ZD7","3RSBJ6YZECCLSSQQCGKCTHC9OPAFOK","","img/set1/S4.jpg","74","4","structured_load","74","structured_load,random,structured_incentive,structured_normal","4,2,2,3,1,2","4,1,3,2","true","","",""
"null","","html-keyboard-response","296","430660","0.0-296.0","3F1567XTNXRHYEANF9HQX9HK8Q49QI","A3LVLZS8S41ZD7","3RSBJ6YZECCLSSQQCGKCTHC9OPAFOK","","<img src=""img/set1/S4.jpg"" width=""540"" height = ""360"" style=""border:16px solid orange"">","null","","","","","","","","","",""
"null","","html-keyboard-response","297","430914","0.0-297.0","3F1567XTNXRHYEANF9HQX9HK8Q49QI","A3LVLZS8S41ZD7","3RSBJ6YZECCLSSQQCGKCTHC9OPAFOK","","","null","","","","","","","","","",""
"670","","image-keyboard-response","298","431587","0.0-298.0","3F1567XTNXRHYEANF9HQX9HK8Q49QI","A3LVLZS8S41ZD7","3RSBJ6YZECCLSSQQCGKCTHC9OPAFOK","","img/set1/S2.jpg","68","2","structured_load","68","structured_load,random,structured_incentive,structured_normal","4,2,2,3,1,2","4,1,3,2","true","","",""
"null","","html-keyboard-response","299","431947","0.0-299.0","3F1567XTNXRHYEANF9HQX9HK8Q49QI","A3LVLZS8S41ZD7","3RSBJ6YZECCLSSQQCGKCTHC9OPAFOK","","<img src=""img/set1/S2.jpg"" width=""540"" height = ""360"" style=""border:16px solid orange"">","null","","","","","","","","","",""
"null","","html-keyboard-response","300","432186","0.0-300.0","3F1567XTNXRHYEANF9HQX9HK8Q49QI","A3LVLZS8S41ZD7","3RSBJ6YZECCLSSQQCGKCTHC9OPAFOK","","","null","","","","","","","","","",""
"574","","image-keyboard-response","301","432761","0.0-301.0","3F1567XTNXRHYEANF9HQX9HK8Q49QI","A3LVLZS8S41ZD7","3RSBJ6YZECCLSSQQCGKCTHC9OPAFOK","","img/set1/S4.jpg","74","4","structured_load","74","structured_load,random,structured_incentive,structured_normal","4,2,2,3,1,2","4,1,3,2","true","","",""
"null","","html-keyboard-response","302","433138","0.0-302.0","3F1567XTNXRHYEANF9HQX9HK8Q49QI","A3LVLZS8S41ZD7","3RSBJ6YZECCLSSQQCGKCTHC9OPAFOK","","<img src=""img/set1/S4.jpg"" width=""540"" height = ""360"" style=""border:16px solid orange"">","null","","","","","","","","","",""
"null","","html-keyboard-response","303","433351","0.0-303.0","3F1567XTNXRHYEANF9HQX9HK8Q49QI","A3LVLZS8S41ZD7","3RSBJ6YZECCLSSQQCGKCTHC9OPAFOK","","","null","","","","","","","","","",""
"632","","image-keyboard-response","304","433986","0.0-304.0","3F1567XTNXRHYEANF9HQX9HK8Q49QI","A3LVLZS8S41ZD7","3RSBJ6YZECCLSSQQCGKCTHC9OPAFOK","","img/set1/S3.jpg","72","3","structured_load","72","structured_load,random,structured_incentive,structured_normal","4,2,2,3,1,2","4,1,3,2","true","","",""
"null","","html-keyboard-response","305","434353","0.0-305.0","3F1567XTNXRHYEANF9HQX9HK8Q49QI","A3LVLZS8S41ZD7","3RSBJ6YZECCLSSQQCGKCTHC9OPAFOK","","<img src=""img/set1/S3.jpg"" width=""540"" height = ""360"" style=""border:16px solid orange"">","null","","","","","","","","","",""
"null","","html-keyboard-response","306","434556","0.0-306.0","3F1567XTNXRHYEANF9HQX9HK8Q49QI","A3LVLZS8S41ZD7","3RSBJ6YZECCLSSQQCGKCTHC9OPAFOK","","","null","","","","","","","","","",""
"571","","image-keyboard-response","307","435129","0.0-307.0","3F1567XTNXRHYEANF9HQX9HK8Q49QI","A3LVLZS8S41ZD7","3RSBJ6YZECCLSSQQCGKCTHC9OPAFOK","","img/set1/S4.jpg","74","4","structured_load","74","structured_load,random,structured_incentive,structured_normal","4,2,2,3,1,2","4,1,3,2","true","","",""
"null","","html-keyboard-response","308","435495","0.0-308.0","3F1567XTNXRHYEANF9HQX9HK8Q49QI","A3LVLZS8S41ZD7","3RSBJ6YZECCLSSQQCGKCTHC9OPAFOK","","<img src=""img/set1/S4.jpg"" width=""540"" height = ""360"" style=""border:16px solid orange"">","null","","","","","","","","","",""
"null","","html-keyboard-response","309","435768","0.0-309.0","3F1567XTNXRHYEANF9HQX9HK8Q49QI","A3LVLZS8S41ZD7","3RSBJ6YZECCLSSQQCGKCTHC9OPAFOK","","","null","","","","","","","","","",""
"565","","image-keyboard-response","310","436336","0.0-310.0","3F1567XTNXRHYEANF9HQX9HK8Q49QI","A3LVLZS8S41ZD7","3RSBJ6YZECCLSSQQCGKCTHC9OPAFOK","","img/set1/S2.jpg","68","2","structured_load","68","structured_load,random,structured_incentive,structured_normal","4,2,2,3,1,2","4,1,3,2","true","","",""
"null","","html-keyboard-response","311","436689","0.0-311.0","3F1567XTNXRHYEANF9HQX9HK8Q49QI","A3LVLZS8S41ZD7","3RSBJ6YZECCLSSQQCGKCTHC9OPAFOK","","<img src=""img/set1/S2.jpg"" width=""540"" height = ""360"" style=""border:16px solid orange"">","null","","","","","","","","","",""
"null","","html-keyboard-response","312","436894","0.0-312.0","3F1567XTNXRHYEANF9HQX9HK8Q49QI","A3LVLZS8S41ZD7","3RSBJ6YZECCLSSQQCGKCTHC9OPAFOK","","","null","","","","","","","","","",""
"514","","image-keyboard-response","313","437411","0.0-313.0","3F1567XTNXRHYEANF9HQX9HK8Q49QI","A3LVLZS8S41ZD7","3RSBJ6YZECCLSSQQCGKCTHC9OPAFOK","","img/set1/S1.jpg","83","1","structured_load","83","structured_load,random,structured_incentive,structured_normal","4,2,2,3,1,2","4,1,3,2","true","","",""
"null","","html-keyboard-response","314","437804","0.0-314.0","3F1567XTNXRHYEANF9HQX9HK8Q49QI","A3LVLZS8S41ZD7","3RSBJ6YZECCLSSQQCGKCTHC9OPAFOK","","<img src=""img/set1/S1.jpg"" width=""540"" height = ""360"" style=""border:16px solid orange"">","null","","","","","","","","","",""
"null","","html-keyboard-response","315","438063","0.0-315.0","3F1567XTNXRHYEANF9HQX9HK8Q49QI","A3LVLZS8S41ZD7","3RSBJ6YZECCLSSQQCGKCTHC9OPAFOK","","","null","","","","","","","","","",""
"816","","image-keyboard-response","316","438881","0.0-316.0","3F1567XTNXRHYEANF9HQX9HK8Q49QI","A3LVLZS8S41ZD7","3RSBJ6YZECCLSSQQCGKCTHC9OPAFOK","","img/set1/S2.jpg","68","2","structured_load","68","structured_load,random,structured_incentive,structured_normal","4,2,2,3,1,2","4,1,3,2","true","","",""
"null","","html-keyboard-response","317","439242","0.0-317.0","3F1567XTNXRHYEANF9HQX9HK8Q49QI","A3LVLZS8S41ZD7","3RSBJ6YZECCLSSQQCGKCTHC9OPAFOK","","<img src=""img/set1/S2.jpg"" width=""540"" height = ""360"" style=""border:16px solid orange"">","null","","","","","","","","","",""
"null","","html-keyboard-response","318","439496","0.0-318.0","3F1567XTNXRHYEANF9HQX9HK8Q49QI","A3LVLZS8S41ZD7","3RSBJ6YZECCLSSQQCGKCTHC9OPAFOK","","","null","","","","","","","","","",""
"489","","image-keyboard-response","319","439987","0.0-319.0","3F1567XTNXRHYEANF9HQX9HK8Q49QI","A3LVLZS8S41ZD7","3RSBJ6YZECCLSSQQCGKCTHC9OPAFOK","","img/set1/S3.jpg","72","3","structured_load","72","structured_load,random,structured_incentive,structured_normal","4,2,2,3,1,2","4,1,3,2","true","","",""
"null","","html-keyboard-response","320","440348","0.0-320.0","3F1567XTNXRHYEANF9HQX9HK8Q49QI","A3LVLZS8S41ZD7","3RSBJ6YZECCLSSQQCGKCTHC9OPAFOK","","<img src=""img/set1/S3.jpg"" width=""540"" height = ""360"" style=""border:16px solid orange"">","null","","","","","","","","","",""
"null","","html-keyboard-response","321","440554","0.0-321.0","3F1567XTNXRHYEANF9HQX9HK8Q49QI","A3LVLZS8S41ZD7","3RSBJ6YZECCLSSQQCGKCTHC9OPAFOK","","","null","","","","","","","","","",""
"598","","image-keyboard-response","322","441154","0.0-322.0","3F1567XTNXRHYEANF9HQX9HK8Q49QI","A3LVLZS8S41ZD7","3RSBJ6YZECCLSSQQCGKCTHC9OPAFOK","","img/set1/S3.jpg","72","3","structured_load","72","structured_load,random,structured_incentive,structured_normal","4,2,2,3,1,2","4,1,3,2","true","","",""
"null","","html-keyboard-response","323","441541","0.0-323.0","3F1567XTNXRHYEANF9HQX9HK8Q49QI","A3LVLZS8S41ZD7","3RSBJ6YZECCLSSQQCGKCTHC9OPAFOK","","<img src=""img/set1/S3.jpg"" width=""540"" height = ""360"" style=""border:16px solid orange"">","null","","","","","","","","","",""
"null","","html-keyboard-response","324","441754","0.0-324.0","3F1567XTNXRHYEANF9HQX9HK8Q49QI","A3LVLZS8S41ZD7","3RSBJ6YZECCLSSQQCGKCTHC9OPAFOK","","","null","","","","","","","","","",""
"572","","image-keyboard-response","325","442329","0.0-325.0","3F1567XTNXRHYEANF9HQX9HK8Q49QI","A3LVLZS8S41ZD7","3RSBJ6YZECCLSSQQCGKCTHC9OPAFOK","","img/set1/S1.jpg","83","1","structured_load","83","structured_load,random,structured_incentive,structured_normal","4,2,2,3,1,2","4,1,3,2","true","","",""
"null","","html-keyboard-response","326","442740","0.0-326.0","3F1567XTNXRHYEANF9HQX9HK8Q49QI","A3LVLZS8S41ZD7","3RSBJ6YZECCLSSQQCGKCTHC9OPAFOK","","<img src=""img/set1/S1.jpg"" width=""540"" height = ""360"" style=""border:16px solid orange"">","null","","","","","","","","","",""
"null","","html-keyboard-response","327","442993","0.0-327.0","3F1567XTNXRHYEANF9HQX9HK8Q49QI","A3LVLZS8S41ZD7","3RSBJ6YZECCLSSQQCGKCTHC9OPAFOK","","","null","","","","","","","","","",""
"406","","image-keyboard-response","328","443401","0.0-328.0","3F1567XTNXRHYEANF9HQX9HK8Q49QI","A3LVLZS8S41ZD7","3RSBJ6YZECCLSSQQCGKCTHC9OPAFOK","","img/set1/S1.jpg","83","1","structured_load","83","structured_load,random,structured_incentive,structured_normal","4,2,2,3,1,2","4,1,3,2","true","","",""
"null","","html-keyboard-response","329","443766","0.0-329.0","3F1567XTNXRHYEANF9HQX9HK8Q49QI","A3LVLZS8S41ZD7","3RSBJ6YZECCLSSQQCGKCTHC9OPAFOK","","<img src=""img/set1/S1.jpg"" width=""540"" height = ""360"" style=""border:16px solid orange"">","null","","","","","","","","","",""
"null","","html-keyboard-response","330","444011","0.0-330.0","3F1567XTNXRHYEANF9HQX9HK8Q49QI","A3LVLZS8S41ZD7","3RSBJ6YZECCLSSQQCGKCTHC9OPAFOK","","","null","","","","","","","","","",""
"623","","image-keyboard-response","331","444636","0.0-331.0","3F1567XTNXRHYEANF9HQX9HK8Q49QI","A3LVLZS8S41ZD7","3RSBJ6YZECCLSSQQCGKCTHC9OPAFOK","","img/set1/S4.jpg","74","4","structured_load","74","structured_load,random,structured_incentive,structured_normal","4,2,2,3,1,2","4,1,3,2","true","","",""
"null","","html-keyboard-response","332","444996","0.0-332.0","3F1567XTNXRHYEANF9HQX9HK8Q49QI","A3LVLZS8S41ZD7","3RSBJ6YZECCLSSQQCGKCTHC9OPAFOK","","<img src=""img/set1/S4.jpg"" width=""540"" height = ""360"" style=""border:16px solid orange"">","null","","","","","","","","","",""
"null","","html-keyboard-response","333","445200","0.0-333.0","3F1567XTNXRHYEANF9HQX9HK8Q49QI","A3LVLZS8S41ZD7","3RSBJ6YZECCLSSQQCGKCTHC9OPAFOK","","","null","","","","","","","","","",""
"590","","image-keyboard-response","334","445793","0.0-334.0","3F1567XTNXRHYEANF9HQX9HK8Q49QI","A3LVLZS8S41ZD7","3RSBJ6YZECCLSSQQCGKCTHC9OPAFOK","","img/set1/S2.jpg","68","2","structured_load","68","structured_load,random,structured_incentive,structured_normal","4,2,2,3,1,2","4,1,3,2","true","","",""
"null","","html-keyboard-response","335","446153","0.0-335.0","3F1567XTNXRHYEANF9HQX9HK8Q49QI","A3LVLZS8S41ZD7","3RSBJ6YZECCLSSQQCGKCTHC9OPAFOK","","<img src=""img/set1/S2.jpg"" width=""540"" height = ""360"" style=""border:16px solid orange"">","null","","","","","","","","","",""
"null","","html-keyboard-response","336","446359","0.0-336.0","3F1567XTNXRHYEANF9HQX9HK8Q49QI","A3LVLZS8S41ZD7","3RSBJ6YZECCLSSQQCGKCTHC9OPAFOK","","","null","","","","","","","","","",""
"680","","image-keyboard-response","337","447041","0.0-337.0","3F1567XTNXRHYEANF9HQX9HK8Q49QI","A3LVLZS8S41ZD7","3RSBJ6YZECCLSSQQCGKCTHC9OPAFOK","","img/set1/S3.jpg","72","3","structured_load","72","structured_load,random,structured_incentive,structured_normal","4,2,2,3,1,2","4,1,3,2","true","","",""
"null","","html-keyboard-response","338","447404","0.0-338.0","3F1567XTNXRHYEANF9HQX9HK8Q49QI","A3LVLZS8S41ZD7","3RSBJ6YZECCLSSQQCGKCTHC9OPAFOK","","<img src=""img/set1/S3.jpg"" width=""540"" height = ""360"" style=""border:16px solid orange"">","null","","","","","","","","","",""
"null","","html-keyboard-response","339","447641","0.0-339.0","3F1567XTNXRHYEANF9HQX9HK8Q49QI","A3LVLZS8S41ZD7","3RSBJ6YZECCLSSQQCGKCTHC9OPAFOK","","","null","","","","","","","","","",""
"546","","image-keyboard-response","340","448189","0.0-340.0","3F1567XTNXRHYEANF9HQX9HK8Q49QI","A3LVLZS8S41ZD7","3RSBJ6YZECCLSSQQCGKCTHC9OPAFOK","","img/set1/S1.jpg","68","1","structured_load","83","structured_load,random,structured_incentive,structured_normal","4,2,2,3,1,2","4,1,3,2","false","","",""
"null","","html-keyboard-response","341","448551","0.0-341.0","3F1567XTNXRHYEANF9HQX9HK8Q49QI","A3LVLZS8S41ZD7","3RSBJ6YZECCLSSQQCGKCTHC9OPAFOK","","<img src=""img/set1/S1.jpg"" width=""540"" height = ""360"">","null","","","","","","","","","",""
"null","","html-keyboard-response","342","448774","0.0-342.0","3F1567XTNXRHYEANF9HQX9HK8Q49QI","A3LVLZS8S41ZD7","3RSBJ6YZECCLSSQQCGKCTHC9OPAFOK","","","null","","","","","","","","","",""
"569","","image-keyboard-response","343","449345","0.0-343.0","3F1567XTNXRHYEANF9HQX9HK8Q49QI","A3LVLZS8S41ZD7","3RSBJ6YZECCLSSQQCGKCTHC9OPAFOK","","img/set1/S1.jpg","83","1","structured_load","83","structured_load,random,structured_incentive,structured_normal","4,2,2,3,1,2","4,1,3,2","true","","",""
"null","","html-keyboard-response","344","449704","0.0-344.0","3F1567XTNXRHYEANF9HQX9HK8Q49QI","A3LVLZS8S41ZD7","3RSBJ6YZECCLSSQQCGKCTHC9OPAFOK","","<img src=""img/set1/S1.jpg"" width=""540"" height = ""360"" style=""border:16px solid orange"">","null","","","","","","","","","",""
"null","","html-keyboard-response","345","449907","0.0-345.0","3F1567XTNXRHYEANF9HQX9HK8Q49QI","A3LVLZS8S41ZD7","3RSBJ6YZECCLSSQQCGKCTHC9OPAFOK","","","null","","","","","","","","","",""
"482","","image-keyboard-response","346","450392","0.0-346.0","3F1567XTNXRHYEANF9HQX9HK8Q49QI","A3LVLZS8S41ZD7","3RSBJ6YZECCLSSQQCGKCTHC9OPAFOK","","img/set1/S1.jpg","83","1","structured_load","83","structured_load,random,structured_incentive,structured_normal","4,2,2,3,1,2","4,1,3,2","true","","",""
"null","","html-keyboard-response","347","450789","0.0-347.0","3F1567XTNXRHYEANF9HQX9HK8Q49QI","A3LVLZS8S41ZD7","3RSBJ6YZECCLSSQQCGKCTHC9OPAFOK","","<img src=""img/set1/S1.jpg"" width=""540"" height = ""360"" style=""border:16px solid orange"">","null","","","","","","","","","",""
"null","","html-keyboard-response","348","450996","0.0-348.0","3F1567XTNXRHYEANF9HQX9HK8Q49QI","A3LVLZS8S41ZD7","3RSBJ6YZECCLSSQQCGKCTHC9OPAFOK","","","null","","","","","","","","","",""
"594","","image-keyboard-response","349","451592","0.0-349.0","3F1567XTNXRHYEANF9HQX9HK8Q49QI","A3LVLZS8S41ZD7","3RSBJ6YZECCLSSQQCGKCTHC9OPAFOK","","img/set1/S2.jpg","68","2","structured_load","68","structured_load,random,structured_incentive,structured_normal","4,2,2,3,1,2","4,1,3,2","true","","",""
"null","","html-keyboard-response","350","451950","0.0-350.0","3F1567XTNXRHYEANF9HQX9HK8Q49QI","A3LVLZS8S41ZD7","3RSBJ6YZECCLSSQQCGKCTHC9OPAFOK","","<img src=""img/set1/S2.jpg"" width=""540"" height = ""360"" style=""border:16px solid orange"">","null","","","","","","","","","",""
"null","","html-keyboard-response","351","452221","0.0-351.0","3F1567XTNXRHYEANF9HQX9HK8Q49QI","A3LVLZS8S41ZD7","3RSBJ6YZECCLSSQQCGKCTHC9OPAFOK","","","null","","","","","","","","","",""
"602","","image-keyboard-response","352","452825","0.0-352.0","3F1567XTNXRHYEANF9HQX9HK8Q49QI","A3LVLZS8S41ZD7","3RSBJ6YZECCLSSQQCGKCTHC9OPAFOK","","img/set1/S3.jpg","74","3","structured_load","72","structured_load,random,structured_incentive,structured_normal","4,2,2,3,1,2","4,1,3,2","false","","",""
"null","","html-keyboard-response","353","453183","0.0-353.0","3F1567XTNXRHYEANF9HQX9HK8Q49QI","A3LVLZS8S41ZD7","3RSBJ6YZECCLSSQQCGKCTHC9OPAFOK","","<img src=""img/set1/S3.jpg"" width=""540"" height = ""360"">","null","","","","","","","","","",""
"null","","html-keyboard-response","354","453395","0.0-354.0","3F1567XTNXRHYEANF9HQX9HK8Q49QI","A3LVLZS8S41ZD7","3RSBJ6YZECCLSSQQCGKCTHC9OPAFOK","","","null","","","","","","","","","",""
"733","","image-keyboard-response","355","454129","0.0-355.0","3F1567XTNXRHYEANF9HQX9HK8Q49QI","A3LVLZS8S41ZD7","3RSBJ6YZECCLSSQQCGKCTHC9OPAFOK","","img/set1/S1.jpg","83","1","structured_load","83","structured_load,random,structured_incentive,structured_normal","4,2,2,3,1,2","4,1,3,2","true","","",""
"null","","html-keyboard-response","356","454496","0.0-356.0","3F1567XTNXRHYEANF9HQX9HK8Q49QI","A3LVLZS8S41ZD7","3RSBJ6YZECCLSSQQCGKCTHC9OPAFOK","","<img src=""img/set1/S1.jpg"" width=""540"" height = ""360"" style=""border:16px solid orange"">","null","","","","","","","","","",""
"null","","html-keyboard-response","357","454701","0.0-357.0","3F1567XTNXRHYEANF9HQX9HK8Q49QI","A3LVLZS8S41ZD7","3RSBJ6YZECCLSSQQCGKCTHC9OPAFOK","","","null","","","","","","","","","",""
"522","","image-keyboard-response","358","455225","0.0-358.0","3F1567XTNXRHYEANF9HQX9HK8Q49QI","A3LVLZS8S41ZD7","3RSBJ6YZECCLSSQQCGKCTHC9OPAFOK","","img/set1/S3.jpg","72","3","structured_load","72","structured_load,random,structured_incentive,structured_normal","4,2,2,3,1,2","4,1,3,2","true","","",""
"null","","html-keyboard-response","359","455581","0.0-359.0","3F1567XTNXRHYEANF9HQX9HK8Q49QI","A3LVLZS8S41ZD7","3RSBJ6YZECCLSSQQCGKCTHC9OPAFOK","","<img src=""img/set1/S3.jpg"" width=""540"" height = ""360"" style=""border:16px solid orange"">","null","","","","","","","","","",""
"null","","html-keyboard-response","360","455786","0.0-360.0","3F1567XTNXRHYEANF9HQX9HK8Q49QI","A3LVLZS8S41ZD7","3RSBJ6YZECCLSSQQCGKCTHC9OPAFOK","","","null","","","","","","","","","",""
"581","","image-keyboard-response","361","456369","0.0-361.0","3F1567XTNXRHYEANF9HQX9HK8Q49QI","A3LVLZS8S41ZD7","3RSBJ6YZECCLSSQQCGKCTHC9OPAFOK","","img/set1/S4.jpg","74","4","structured_load","74","structured_load,random,structured_incentive,structured_normal","4,2,2,3,1,2","4,1,3,2","true","","",""
"null","","html-keyboard-response","362","456759","0.0-362.0","3F1567XTNXRHYEANF9HQX9HK8Q49QI","A3LVLZS8S41ZD7","3RSBJ6YZECCLSSQQCGKCTHC9OPAFOK","","<img src=""img/set1/S4.jpg"" width=""540"" height = ""360"" style=""border:16px solid orange"">","null","","","","","","","","","",""
"null","","html-keyboard-response","363","456964","0.0-363.0","3F1567XTNXRHYEANF9HQX9HK8Q49QI","A3LVLZS8S41ZD7","3RSBJ6YZECCLSSQQCGKCTHC9OPAFOK","","","null","","","","","","","","","",""
"595","","image-keyboard-response","364","457561","0.0-364.0","3F1567XTNXRHYEANF9HQX9HK8Q49QI","A3LVLZS8S41ZD7","3RSBJ6YZECCLSSQQCGKCTHC9OPAFOK","","img/set1/S2.jpg","68","2","structured_load","68","structured_load,random,structured_incentive,structured_normal","4,2,2,3,1,2","4,1,3,2","true","","",""
"null","","html-keyboard-response","365","457920","0.0-365.0","3F1567XTNXRHYEANF9HQX9HK8Q49QI","A3LVLZS8S41ZD7","3RSBJ6YZECCLSSQQCGKCTHC9OPAFOK","","<img src=""img/set1/S2.jpg"" width=""540"" height = ""360"" style=""border:16px solid orange"">","null","","","","","","","","","",""
"null","","html-keyboard-response","366","458206","0.0-366.0","3F1567XTNXRHYEANF9HQX9HK8Q49QI","A3LVLZS8S41ZD7","3RSBJ6YZECCLSSQQCGKCTHC9OPAFOK","","","null","","","","","","","","","",""
"545","","image-keyboard-response","367","458752","0.0-367.0","3F1567XTNXRHYEANF9HQX9HK8Q49QI","A3LVLZS8S41ZD7","3RSBJ6YZECCLSSQQCGKCTHC9OPAFOK","","img/set1/S1.jpg","83","1","structured_load","83","structured_load,random,structured_incentive,structured_normal","4,2,2,3,1,2","4,1,3,2","true","","",""
"null","","html-keyboard-response","368","459180","0.0-368.0","3F1567XTNXRHYEANF9HQX9HK8Q49QI","A3LVLZS8S41ZD7","3RSBJ6YZECCLSSQQCGKCTHC9OPAFOK","","<img src=""img/set1/S1.jpg"" width=""540"" height = ""360"" style=""border:16px solid orange"">","null","","","","","","","","","",""
"null","","html-keyboard-response","369","459419","0.0-369.0","3F1567XTNXRHYEANF9HQX9HK8Q49QI","A3LVLZS8S41ZD7","3RSBJ6YZECCLSSQQCGKCTHC9OPAFOK","","","null","","","","","","","","","",""
"555","","image-keyboard-response","370","459976","0.0-370.0","3F1567XTNXRHYEANF9HQX9HK8Q49QI","A3LVLZS8S41ZD7","3RSBJ6YZECCLSSQQCGKCTHC9OPAFOK","","img/set1/S4.jpg","74","4","structured_load","74","structured_load,random,structured_incentive,structured_normal","4,2,2,3,1,2","4,1,3,2","true","","",""
"null","","html-keyboard-response","371","460330","0.0-371.0","3F1567XTNXRHYEANF9HQX9HK8Q49QI","A3LVLZS8S41ZD7","3RSBJ6YZECCLSSQQCGKCTHC9OPAFOK","","<img src=""img/set1/S4.jpg"" width=""540"" height = ""360"" style=""border:16px solid orange"">","null","","","","","","","","","",""
"null","","html-keyboard-response","372","460534","0.0-372.0","3F1567XTNXRHYEANF9HQX9HK8Q49QI","A3LVLZS8S41ZD7","3RSBJ6YZECCLSSQQCGKCTHC9OPAFOK","","","null","","","","","","","","","",""
"570","","image-keyboard-response","373","461105","0.0-373.0","3F1567XTNXRHYEANF9HQX9HK8Q49QI","A3LVLZS8S41ZD7","3RSBJ6YZECCLSSQQCGKCTHC9OPAFOK","","img/set1/S3.jpg","72","3","structured_load","72","structured_load,random,structured_incentive,structured_normal","4,2,2,3,1,2","4,1,3,2","true","","",""
"null","","html-keyboard-response","374","461499","0.0-374.0","3F1567XTNXRHYEANF9HQX9HK8Q49QI","A3LVLZS8S41ZD7","3RSBJ6YZECCLSSQQCGKCTHC9OPAFOK","","<img src=""img/set1/S3.jpg"" width=""540"" height = ""360"" style=""border:16px solid orange"">","null","","","","","","","","","",""
"null","","html-keyboard-response","375","461706","0.0-375.0","3F1567XTNXRHYEANF9HQX9HK8Q49QI","A3LVLZS8S41ZD7","3RSBJ6YZECCLSSQQCGKCTHC9OPAFOK","","","null","","","","","","","","","",""
"541","","image-keyboard-response","376","462248","0.0-376.0","3F1567XTNXRHYEANF9HQX9HK8Q49QI","A3LVLZS8S41ZD7","3RSBJ6YZECCLSSQQCGKCTHC9OPAFOK","","img/set1/S4.jpg","74","4","structured_load","74","structured_load,random,structured_incentive,structured_normal","4,2,2,3,1,2","4,1,3,2","true","","",""
"null","","html-keyboard-response","377","462602","0.0-377.0","3F1567XTNXRHYEANF9HQX9HK8Q49QI","A3LVLZS8S41ZD7","3RSBJ6YZECCLSSQQCGKCTHC9OPAFOK","","<img src=""img/set1/S4.jpg"" width=""540"" height = ""360"" style=""border:16px solid orange"">","null","","","","","","","","","",""
"null","","html-keyboard-response","378","462813","0.0-378.0","3F1567XTNXRHYEANF9HQX9HK8Q49QI","A3LVLZS8S41ZD7","3RSBJ6YZECCLSSQQCGKCTHC9OPAFOK","","","null","","","","","","","","","",""
"570","","image-keyboard-response","379","463385","0.0-379.0","3F1567XTNXRHYEANF9HQX9HK8Q49QI","A3LVLZS8S41ZD7","3RSBJ6YZECCLSSQQCGKCTHC9OPAFOK","","img/set1/S3.jpg","72","3","structured_load","72","structured_load,random,structured_incentive,structured_normal","4,2,2,3,1,2","4,1,3,2","true","","",""
"null","","html-keyboard-response","380","463777","0.0-380.0","3F1567XTNXRHYEANF9HQX9HK8Q49QI","A3LVLZS8S41ZD7","3RSBJ6YZECCLSSQQCGKCTHC9OPAFOK","","<img src=""img/set1/S3.jpg"" width=""540"" height = ""360"" style=""border:16px solid orange"">","null","","","","","","","","","",""
"null","","html-keyboard-response","381","463981","0.0-381.0","3F1567XTNXRHYEANF9HQX9HK8Q49QI","A3LVLZS8S41ZD7","3RSBJ6YZECCLSSQQCGKCTHC9OPAFOK","","","null","","","","","","","","","",""
"610","","image-keyboard-response","382","464593","0.0-382.0","3F1567XTNXRHYEANF9HQX9HK8Q49QI","A3LVLZS8S41ZD7","3RSBJ6YZECCLSSQQCGKCTHC9OPAFOK","","img/set1/S1.jpg","83","1","structured_load","83","structured_load,random,structured_incentive,structured_normal","4,2,2,3,1,2","4,1,3,2","true","","",""
"null","","html-keyboard-response","383","464961","0.0-383.0","3F1567XTNXRHYEANF9HQX9HK8Q49QI","A3LVLZS8S41ZD7","3RSBJ6YZECCLSSQQCGKCTHC9OPAFOK","","<img src=""img/set1/S1.jpg"" width=""540"" height = ""360"" style=""border:16px solid orange"">","null","","","","","","","","","",""
"null","","html-keyboard-response","384","465166","0.0-384.0","3F1567XTNXRHYEANF9HQX9HK8Q49QI","A3LVLZS8S41ZD7","3RSBJ6YZECCLSSQQCGKCTHC9OPAFOK","","","null","","","","","","","","","",""
"592","","image-keyboard-response","385","465760","0.0-385.0","3F1567XTNXRHYEANF9HQX9HK8Q49QI","A3LVLZS8S41ZD7","3RSBJ6YZECCLSSQQCGKCTHC9OPAFOK","","img/set1/S3.jpg","72","3","structured_load","72","structured_load,random,structured_incentive,structured_normal","4,2,2,3,1,2","4,1,3,2","true","","",""
"null","","html-keyboard-response","386","466121","0.0-386.0","3F1567XTNXRHYEANF9HQX9HK8Q49QI","A3LVLZS8S41ZD7","3RSBJ6YZECCLSSQQCGKCTHC9OPAFOK","","<img src=""img/set1/S3.jpg"" width=""540"" height = ""360"" style=""border:16px solid orange"">","null","","","","","","","","","",""
"null","","html-keyboard-response","387","466355","0.0-387.0","3F1567XTNXRHYEANF9HQX9HK8Q49QI","A3LVLZS8S41ZD7","3RSBJ6YZECCLSSQQCGKCTHC9OPAFOK","","","null","","","","","","","","","",""
