"rt","url","trial_type","trial_index","time_elapsed","internal_node_id","view_history","stimulus","key_press","state","test_part","correct_response","order_block","order_chunk","correct","responses","bonus"
"7892.5","consent.html","external-html","0","8061","0.0-0.0","","","","","","","","","","",""
"225106.09999999404","","instructions","1","233183","0.0-1.0","[{""page_index"":0,""viewing_time"":3906.7999999821186},{""page_index"":1,""viewing_time"":7086},{""page_index"":2,""viewing_time"":179059.30000001192},{""page_index"":3,""viewing_time"":9406.699999988079},{""page_index"":4,""viewing_time"":5728.4000000059605},{""page_index"":5,""viewing_time"":9599},{""page_index"":6,""viewing_time"":10318.800000011921}]","","","","","","","","","",""
"7478.800000011921","","instructions","2","240667","0.0-2.0","[{""page_index"":0,""viewing_time"":7478.200000017881}]","","","","","","","","","",""
"4853.5999999940395","","instructions","3","245522","0.0-3.0","[{""page_index"":0,""viewing_time"":4853}]","","","","","","","","","",""
"1396.699999988079","","image-keyboard-response","4","246923","0.0-4.0","","img/set1/S3.jpg","68","3","random","72","random,structured_incentive,structured_normal,structured_load","2,1,3,4,2,3","false","",""
"null","","html-keyboard-response","5","247280","0.0-5.0","","<img src=""img/set1/S3.jpg"" width=""540"" height = ""360"">","null","","","","","","","",""
"null","","html-keyboard-response","6","247481","0.0-6.0","","","null","","","","","","","",""
"832.1000000238419","","image-keyboard-response","7","248315","0.0-7.0","","img/set1/S2.jpg","83","2","random","68","random,structured_incentive,structured_normal,structured_load","2,1,3,4,2,3","false","",""
"null","","html-keyboard-response","8","248668","0.0-8.0","","<img src=""img/set1/S2.jpg"" width=""540"" height = ""360"">","null","","","","","","","",""
"null","","html-keyboard-response","9","248869","0.0-9.0","","","null","","","","","","","",""
"2108.300000011921","","image-keyboard-response","10","250979","0.0-10.0","","img/set1/S3.jpg","74","3","random","72","random,structured_incentive,structured_normal,structured_load","2,1,3,4,2,3","false","",""
"null","","html-keyboard-response","11","251332","0.0-11.0","","<img src=""img/set1/S3.jpg"" width=""540"" height = ""360"">","null","","","","","","","",""
"null","","html-keyboard-response","12","251534","0.0-12.0","","","null","","","","","","","",""
"null","","image-keyboard-response","13","254035","0.0-13.0","","img/set1/S3.jpg","null","3","random","72","random,structured_incentive,structured_normal,structured_load","2,1,3,4,2,3","false","",""
"null","","html-keyboard-response","14","254387","0.0-14.0","","<img src=""img/set1/S3.jpg"" width=""540"" height = ""360"">","null","","","","","","","",""
"null","","html-keyboard-response","15","254588","0.0-15.0","","","null","","","","","","","",""
"null","","image-keyboard-response","16","257090","0.0-16.0","","img/set1/S1.jpg","null","1","random","83","random,structured_incentive,structured_normal,structured_load","2,1,3,4,2,3","false","",""
"null","","html-keyboard-response","17","257442","0.0-17.0","","<img src=""img/set1/S1.jpg"" width=""540"" height = ""360"">","null","","","","","","","",""
"null","","html-keyboard-response","18","257644","0.0-18.0","","","null","","","","","","","",""
"668.1999999880791","","image-keyboard-response","19","258313","0.0-19.0","","img/set1/S1.jpg","68","1","random","83","random,structured_incentive,structured_normal,structured_load","2,1,3,4,2,3","false","",""
"null","","html-keyboard-response","20","258665","0.0-20.0","","<img src=""img/set1/S1.jpg"" width=""540"" height = ""360"">","null","","","","","","","",""
"null","","html-keyboard-response","21","258868","0.0-21.0","","","null","","","","","","","",""
"null","","image-keyboard-response","22","261370","0.0-22.0","","img/set1/S1.jpg","null","1","random","83","random,structured_incentive,structured_normal,structured_load","2,1,3,4,2,3","false","",""
"null","","html-keyboard-response","23","261722","0.0-23.0","","<img src=""img/set1/S1.jpg"" width=""540"" height = ""360"">","null","","","","","","","",""
"null","","html-keyboard-response","24","261925","0.0-24.0","","","null","","","","","","","",""
"null","","image-keyboard-response","25","264427","0.0-25.0","","img/set1/S1.jpg","null","1","random","83","random,structured_incentive,structured_normal,structured_load","2,1,3,4,2,3","false","",""
"null","","html-keyboard-response","26","264779","0.0-26.0","","<img src=""img/set1/S1.jpg"" width=""540"" height = ""360"">","null","","","","","","","",""
"null","","html-keyboard-response","27","264980","0.0-27.0","","","null","","","","","","","",""
"null","","image-keyboard-response","28","267483","0.0-28.0","","img/set1/S3.jpg","null","3","random","72","random,structured_incentive,structured_normal,structured_load","2,1,3,4,2,3","false","",""
"null","","html-keyboard-response","29","267836","0.0-29.0","","<img src=""img/set1/S3.jpg"" width=""540"" height = ""360"">","null","","","","","","","",""
"null","","html-keyboard-response","30","268039","0.0-30.0","","","null","","","","","","","",""
"1176.6000000238419","","image-keyboard-response","31","269217","0.0-31.0","","img/set1/S3.jpg","74","3","random","72","random,structured_incentive,structured_normal,structured_load","2,1,3,4,2,3","false","",""
"null","","html-keyboard-response","32","269569","0.0-32.0","","<img src=""img/set1/S3.jpg"" width=""540"" height = ""360"">","null","","","","","","","",""
"null","","html-keyboard-response","33","269771","0.0-33.0","","","null","","","","","","","",""
"null","","image-keyboard-response","34","272273","0.0-34.0","","img/set1/S3.jpg","null","3","random","72","random,structured_incentive,structured_normal,structured_load","2,1,3,4,2,3","false","",""
"null","","html-keyboard-response","35","272626","0.0-35.0","","<img src=""img/set1/S3.jpg"" width=""540"" height = ""360"">","null","","","","","","","",""
"null","","html-keyboard-response","36","272828","0.0-36.0","","","null","","","","","","","",""
"null","","image-keyboard-response","37","275330","0.0-37.0","","img/set1/S4.jpg","null","4","random","74","random,structured_incentive,structured_normal,structured_load","2,1,3,4,2,3","false","",""
"null","","html-keyboard-response","38","275683","0.0-38.0","","<img src=""img/set1/S4.jpg"" width=""540"" height = ""360"">","null","","","","","","","",""
"null","","html-keyboard-response","39","275886","0.0-39.0","","","null","","","","","","","",""
"null","","image-keyboard-response","40","278388","0.0-40.0","","img/set1/S2.jpg","null","2","random","68","random,structured_incentive,structured_normal,structured_load","2,1,3,4,2,3","false","",""
"null","","html-keyboard-response","41","278740","0.0-41.0","","<img src=""img/set1/S2.jpg"" width=""540"" height = ""360"">","null","","","","","","","",""
"null","","html-keyboard-response","42","278942","0.0-42.0","","","null","","","","","","","",""
"null","","image-keyboard-response","43","281445","0.0-43.0","","img/set1/S3.jpg","null","3","random","72","random,structured_incentive,structured_normal,structured_load","2,1,3,4,2,3","false","",""
"null","","html-keyboard-response","44","281797","0.0-44.0","","<img src=""img/set1/S3.jpg"" width=""540"" height = ""360"">","null","","","","","","","",""
"null","","html-keyboard-response","45","281999","0.0-45.0","","","null","","","","","","","",""
"null","","image-keyboard-response","46","284502","0.0-46.0","","img/set1/S2.jpg","null","2","random","68","random,structured_incentive,structured_normal,structured_load","2,1,3,4,2,3","false","",""
"null","","html-keyboard-response","47","284856","0.0-47.0","","<img src=""img/set1/S2.jpg"" width=""540"" height = ""360"">","null","","","","","","","",""
"null","","html-keyboard-response","48","285058","0.0-48.0","","","null","","","","","","","",""
"1924.7000000178814","","image-keyboard-response","49","286984","0.0-49.0","","img/set1/S2.jpg","68","2","random","68","random,structured_incentive,structured_normal,structured_load","2,1,3,4,2,3","true","",""
"null","","html-keyboard-response","50","287335","0.0-50.0","","<img src=""img/set1/S2.jpg"" width=""540"" height = ""360"" style=""border:16px solid orange"">","null","","","","","","","",""
"null","","html-keyboard-response","51","287536","0.0-51.0","","","null","","","","","","","",""
"2093.5999999940395","","image-keyboard-response","52","289632","0.0-52.0","","img/set1/S1.jpg","83","1","random","83","random,structured_incentive,structured_normal,structured_load","2,1,3,4,2,3","true","",""
"null","","html-keyboard-response","53","289984","0.0-53.0","","<img src=""img/set1/S1.jpg"" width=""540"" height = ""360"" style=""border:16px solid orange"">","null","","","","","","","",""
"null","","html-keyboard-response","54","290186","0.0-54.0","","","null","","","","","","","",""
"819.9000000059605","","image-keyboard-response","55","291007","0.0-55.0","","img/set1/S2.jpg","68","2","random","68","random,structured_incentive,structured_normal,structured_load","2,1,3,4,2,3","true","",""
"null","","html-keyboard-response","56","291359","0.0-56.0","","<img src=""img/set1/S2.jpg"" width=""540"" height = ""360"" style=""border:16px solid orange"">","null","","","","","","","",""
"null","","html-keyboard-response","57","291562","0.0-57.0","","","null","","","","","","","",""
"575.8000000119209","","image-keyboard-response","58","292139","0.0-58.0","","img/set1/S1.jpg","83","1","random","83","random,structured_incentive,structured_normal,structured_load","2,1,3,4,2,3","true","",""
"null","","html-keyboard-response","59","292491","0.0-59.0","","<img src=""img/set1/S1.jpg"" width=""540"" height = ""360"" style=""border:16px solid orange"">","null","","","","","","","",""
"null","","html-keyboard-response","60","292693","0.0-60.0","","","null","","","","","","","",""
"2240.5","","image-keyboard-response","61","294935","0.0-61.0","","img/set1/S4.jpg","74","4","random","74","random,structured_incentive,structured_normal,structured_load","2,1,3,4,2,3","true","",""
"null","","html-keyboard-response","62","295287","0.0-62.0","","<img src=""img/set1/S4.jpg"" width=""540"" height = ""360"" style=""border:16px solid orange"">","null","","","","","","","",""
"null","","html-keyboard-response","63","295489","0.0-63.0","","","null","","","","","","","",""
"663.3000000119209","","image-keyboard-response","64","296153","0.0-64.0","","img/set1/S4.jpg","74","4","random","74","random,structured_incentive,structured_normal,structured_load","2,1,3,4,2,3","true","",""
"null","","html-keyboard-response","65","296507","0.0-65.0","","<img src=""img/set1/S4.jpg"" width=""540"" height = ""360"" style=""border:16px solid orange"">","null","","","","","","","",""
"null","","html-keyboard-response","66","296710","0.0-66.0","","","null","","","","","","","",""
"1343.9000000059605","","image-keyboard-response","67","298059","0.0-67.0","","img/set1/S2.jpg","68","2","random","68","random,structured_incentive,structured_normal,structured_load","2,1,3,4,2,3","true","",""
"null","","html-keyboard-response","68","298412","0.0-68.0","","<img src=""img/set1/S2.jpg"" width=""540"" height = ""360"" style=""border:16px solid orange"">","null","","","","","","","",""
"null","","html-keyboard-response","69","298615","0.0-69.0","","","null","","","","","","","",""
"772.5","","image-keyboard-response","70","299390","0.0-70.0","","img/set1/S4.jpg","74","4","random","74","random,structured_incentive,structured_normal,structured_load","2,1,3,4,2,3","true","",""
"null","","html-keyboard-response","71","299742","0.0-71.0","","<img src=""img/set1/S4.jpg"" width=""540"" height = ""360"" style=""border:16px solid orange"">","null","","","","","","","",""
"null","","html-keyboard-response","72","299944","0.0-72.0","","","null","","","","","","","",""
"585.8000000119209","","image-keyboard-response","73","300531","0.0-73.0","","img/set1/S4.jpg","74","4","random","74","random,structured_incentive,structured_normal,structured_load","2,1,3,4,2,3","true","",""
"null","","html-keyboard-response","74","300883","0.0-74.0","","<img src=""img/set1/S4.jpg"" width=""540"" height = ""360"" style=""border:16px solid orange"">","null","","","","","","","",""
"null","","html-keyboard-response","75","301084","0.0-75.0","","","null","","","","","","","",""
"1101.5","","image-keyboard-response","76","302187","0.0-76.0","","img/set1/S3.jpg","83","3","random","72","random,structured_incentive,structured_normal,structured_load","2,1,3,4,2,3","false","",""
"null","","html-keyboard-response","77","302539","0.0-77.0","","<img src=""img/set1/S3.jpg"" width=""540"" height = ""360"">","null","","","","","","","",""
"null","","html-keyboard-response","78","302745","0.0-78.0","","","null","","","","","","","",""
"null","","image-keyboard-response","79","305249","0.0-79.0","","img/set1/S3.jpg","null","3","random","72","random,structured_incentive,structured_normal,structured_load","2,1,3,4,2,3","false","",""
"null","","html-keyboard-response","80","305602","0.0-80.0","","<img src=""img/set1/S3.jpg"" width=""540"" height = ""360"">","null","","","","","","","",""
"null","","html-keyboard-response","81","305803","0.0-81.0","","","null","","","","","","","",""
"54.19999998807907","","image-keyboard-response","82","305859","0.0-82.0","","img/set1/S4.jpg","83","4","random","74","random,structured_incentive,structured_normal,structured_load","2,1,3,4,2,3","false","",""
"null","","html-keyboard-response","83","306211","0.0-83.0","","<img src=""img/set1/S4.jpg"" width=""540"" height = ""360"">","null","","","","","","","",""
"null","","html-keyboard-response","84","306412","0.0-84.0","","","null","","","","","","","",""
"1958.2000000178814","","image-keyboard-response","85","308371","0.0-85.0","","img/set1/S4.jpg","72","4","random","74","random,structured_incentive,structured_normal,structured_load","2,1,3,4,2,3","false","",""
"null","","html-keyboard-response","86","308734","0.0-86.0","","<img src=""img/set1/S4.jpg"" width=""540"" height = ""360"">","null","","","","","","","",""
"null","","html-keyboard-response","87","308936","0.0-87.0","","","null","","","","","","","",""
"806.7999999821186","","image-keyboard-response","88","309744","0.0-88.0","","img/set1/S2.jpg","68","2","random","68","random,structured_incentive,structured_normal,structured_load","2,1,3,4,2,3","true","",""
"null","","html-keyboard-response","89","310097","0.0-89.0","","<img src=""img/set1/S2.jpg"" width=""540"" height = ""360"" style=""border:16px solid orange"">","null","","","","","","","",""
"null","","html-keyboard-response","90","310301","0.0-90.0","","","null","","","","","","","",""
"1739.9000000059605","","image-keyboard-response","91","312042","0.0-91.0","","img/set1/S4.jpg","74","4","random","74","random,structured_incentive,structured_normal,structured_load","2,1,3,4,2,3","true","",""
"null","","html-keyboard-response","92","312394","0.0-92.0","","<img src=""img/set1/S4.jpg"" width=""540"" height = ""360"" style=""border:16px solid orange"">","null","","","","","","","",""
"null","","html-keyboard-response","93","312595","0.0-93.0","","","null","","","","","","","",""
"853.5","","image-keyboard-response","94","313450","0.0-94.0","","img/set1/S2.jpg","68","2","random","68","random,structured_incentive,structured_normal,structured_load","2,1,3,4,2,3","true","",""
"null","","html-keyboard-response","95","313802","0.0-95.0","","<img src=""img/set1/S2.jpg"" width=""540"" height = ""360"" style=""border:16px solid orange"">","null","","","","","","","",""
"null","","html-keyboard-response","96","314003","0.0-96.0","","","null","","","","","","","",""
"821.8000000119209","","image-keyboard-response","97","314826","0.0-97.0","","img/set1/S4.jpg","74","4","random","74","random,structured_incentive,structured_normal,structured_load","2,1,3,4,2,3","true","",""
"null","","html-keyboard-response","98","315179","0.0-98.0","","<img src=""img/set1/S4.jpg"" width=""540"" height = ""360"" style=""border:16px solid orange"">","null","","","","","","","",""
"null","","html-keyboard-response","99","315380","0.0-99.0","","","null","","","","","","","",""
"892.4000000059605","","image-keyboard-response","100","316274","0.0-100.0","","img/set1/S2.jpg","68","2","random","68","random,structured_incentive,structured_normal,structured_load","2,1,3,4,2,3","true","",""
"null","","html-keyboard-response","101","316626","0.0-101.0","","<img src=""img/set1/S2.jpg"" width=""540"" height = ""360"" style=""border:16px solid orange"">","null","","","","","","","",""
"null","","html-keyboard-response","102","316828","0.0-102.0","","","null","","","","","","","",""
"565.0999999940395","","image-keyboard-response","103","317394","0.0-103.0","","img/set1/S2.jpg","68","2","random","68","random,structured_incentive,structured_normal,structured_load","2,1,3,4,2,3","true","",""
"null","","html-keyboard-response","104","317746","0.0-104.0","","<img src=""img/set1/S2.jpg"" width=""540"" height = ""360"" style=""border:16px solid orange"">","null","","","","","","","",""
"null","","html-keyboard-response","105","317948","0.0-105.0","","","null","","","","","","","",""
"565.5999999940395","","image-keyboard-response","106","318514","0.0-106.0","","img/set1/S2.jpg","68","2","random","68","random,structured_incentive,structured_normal,structured_load","2,1,3,4,2,3","true","",""
"null","","html-keyboard-response","107","318866","0.0-107.0","","<img src=""img/set1/S2.jpg"" width=""540"" height = ""360"" style=""border:16px solid orange"">","null","","","","","","","",""
"null","","html-keyboard-response","108","319067","0.0-108.0","","","null","","","","","","","",""
"1086.7000000178814","","image-keyboard-response","109","320155","0.0-109.0","","img/set1/S3.jpg","74","3","random","72","random,structured_incentive,structured_normal,structured_load","2,1,3,4,2,3","false","",""
"null","","html-keyboard-response","110","320507","0.0-110.0","","<img src=""img/set1/S3.jpg"" width=""540"" height = ""360"">","null","","","","","","","",""
"null","","html-keyboard-response","111","320710","0.0-111.0","","","null","","","","","","","",""
"1559.4000000059605","","image-keyboard-response","112","322270","0.0-112.0","","img/set1/S4.jpg","74","4","random","74","random,structured_incentive,structured_normal,structured_load","2,1,3,4,2,3","true","",""
"null","","html-keyboard-response","113","322623","0.0-113.0","","<img src=""img/set1/S4.jpg"" width=""540"" height = ""360"" style=""border:16px solid orange"">","null","","","","","","","",""
"null","","html-keyboard-response","114","322825","0.0-114.0","","","null","","","","","","","",""
"759.4000000059605","","image-keyboard-response","115","323585","0.0-115.0","","img/set1/S4.jpg","74","4","random","74","random,structured_incentive,structured_normal,structured_load","2,1,3,4,2,3","true","",""
"null","","html-keyboard-response","116","323937","0.0-116.0","","<img src=""img/set1/S4.jpg"" width=""540"" height = ""360"" style=""border:16px solid orange"">","null","","","","","","","",""
"null","","html-keyboard-response","117","324139","0.0-117.0","","","null","","","","","","","",""
"516.8000000119209","","image-keyboard-response","118","324657","0.0-118.0","","img/set1/S2.jpg","68","2","random","68","random,structured_incentive,structured_normal,structured_load","2,1,3,4,2,3","true","",""
"null","","html-keyboard-response","119","325009","0.0-119.0","","<img src=""img/set1/S2.jpg"" width=""540"" height = ""360"" style=""border:16px solid orange"">","null","","","","","","","",""
"null","","html-keyboard-response","120","325210","0.0-120.0","","","null","","","","","","","",""
"2037.4000000059605","","image-keyboard-response","121","327248","0.0-121.0","","img/set1/S3.jpg","83","3","random","72","random,structured_incentive,structured_normal,structured_load","2,1,3,4,2,3","false","",""
"null","","html-keyboard-response","122","327600","0.0-122.0","","<img src=""img/set1/S3.jpg"" width=""540"" height = ""360"">","null","","","","","","","",""
"null","","html-keyboard-response","123","327801","0.0-123.0","","","null","","","","","","","",""
"911","","image-keyboard-response","124","328713","0.0-124.0","","img/set1/S3.jpg","68","3","random","72","random,structured_incentive,structured_normal,structured_load","2,1,3,4,2,3","false","",""
"null","","html-keyboard-response","125","329065","0.0-125.0","","<img src=""img/set1/S3.jpg"" width=""540"" height = ""360"">","null","","","","","","","",""
"null","","html-keyboard-response","126","329266","0.0-126.0","","","null","","","","","","","",""
"1341.699999988079","","image-keyboard-response","127","330609","0.0-127.0","","img/set1/S1.jpg","83","1","random","83","random,structured_incentive,structured_normal,structured_load","2,1,3,4,2,3","true","",""
"null","","html-keyboard-response","128","330961","0.0-128.0","","<img src=""img/set1/S1.jpg"" width=""540"" height = ""360"" style=""border:16px solid orange"">","null","","","","","","","",""
"null","","html-keyboard-response","129","331162","0.0-129.0","","","null","","","","","","","",""
"2173.300000011921","","image-keyboard-response","130","333337","0.0-130.0","","img/set1/S2.jpg","74","2","random","68","random,structured_incentive,structured_normal,structured_load","2,1,3,4,2,3","false","",""
"null","","html-keyboard-response","131","333688","0.0-131.0","","<img src=""img/set1/S2.jpg"" width=""540"" height = ""360"">","null","","","","","","","",""
"null","","html-keyboard-response","132","333890","0.0-132.0","","","null","","","","","","","",""
"69.5","","image-keyboard-response","133","333961","0.0-133.0","","img/set1/S4.jpg","68","4","random","74","random,structured_incentive,structured_normal,structured_load","2,1,3,4,2,3","false","",""
"null","","html-keyboard-response","134","334313","0.0-134.0","","<img src=""img/set1/S4.jpg"" width=""540"" height = ""360"">","null","","","","","","","",""
"null","","html-keyboard-response","135","334515","0.0-135.0","","","null","","","","","","","",""
"229.40000000596046","","image-keyboard-response","136","334745","0.0-136.0","","img/set1/S1.jpg","74","1","random","83","random,structured_incentive,structured_normal,structured_load","2,1,3,4,2,3","false","",""
"null","","html-keyboard-response","137","335097","0.0-137.0","","<img src=""img/set1/S1.jpg"" width=""540"" height = ""360"">","null","","","","","","","",""
"null","","html-keyboard-response","138","335298","0.0-138.0","","","null","","","","","","","",""
"613.1000000238419","","image-keyboard-response","139","335912","0.0-139.0","","img/set1/S1.jpg","83","1","random","83","random,structured_incentive,structured_normal,structured_load","2,1,3,4,2,3","true","",""
"null","","html-keyboard-response","140","336264","0.0-140.0","","<img src=""img/set1/S1.jpg"" width=""540"" height = ""360"" style=""border:16px solid orange"">","null","","","","","","","",""
"null","","html-keyboard-response","141","336465","0.0-141.0","","","null","","","","","","","",""
"null","","image-keyboard-response","142","338967","0.0-142.0","","img/set1/S3.jpg","null","3","random","72","random,structured_incentive,structured_normal,structured_load","2,1,3,4,2,3","false","",""
"null","","html-keyboard-response","143","339320","0.0-143.0","","<img src=""img/set1/S3.jpg"" width=""540"" height = ""360"">","null","","","","","","","",""
"null","","html-keyboard-response","144","339521","0.0-144.0","","","null","","","","","","","",""
"973.6000000238419","","image-keyboard-response","145","340496","0.0-145.0","","img/set1/S2.jpg","68","2","random","68","random,structured_incentive,structured_normal,structured_load","2,1,3,4,2,3","true","",""
"null","","html-keyboard-response","146","340848","0.0-146.0","","<img src=""img/set1/S2.jpg"" width=""540"" height = ""360"" style=""border:16px solid orange"">","null","","","","","","","",""
"null","","html-keyboard-response","147","341049","0.0-147.0","","","null","","","","","","","",""
"1118.0999999940395","","image-keyboard-response","148","342168","0.0-148.0","","img/set1/S4.jpg","72","4","random","74","random,structured_incentive,structured_normal,structured_load","2,1,3,4,2,3","false","",""
"null","","html-keyboard-response","149","342520","0.0-149.0","","<img src=""img/set1/S4.jpg"" width=""540"" height = ""360"">","null","","","","","","","",""
"null","","html-keyboard-response","150","342721","0.0-150.0","","","null","","","","","","","",""
"78","","image-keyboard-response","151","342800","0.0-151.0","","img/set1/S1.jpg","74","1","random","83","random,structured_incentive,structured_normal,structured_load","2,1,3,4,2,3","false","",""
"null","","html-keyboard-response","152","343152","0.0-152.0","","<img src=""img/set1/S1.jpg"" width=""540"" height = ""360"">","null","","","","","","","",""
"null","","html-keyboard-response","153","343354","0.0-153.0","","","null","","","","","","","",""
"1116.9000000059605","","image-keyboard-response","154","344472","0.0-154.0","","img/set1/S1.jpg","83","1","random","83","random,structured_incentive,structured_normal,structured_load","2,1,3,4,2,3","true","",""
"null","","html-keyboard-response","155","344824","0.0-155.0","","<img src=""img/set1/S1.jpg"" width=""540"" height = ""360"" style=""border:16px solid orange"">","null","","","","","","","",""
"null","","html-keyboard-response","156","345026","0.0-156.0","","","null","","","","","","","",""
"2003.800000011921","","image-keyboard-response","157","347031","0.0-157.0","","img/set1/S3.jpg","72","3","random","72","random,structured_incentive,structured_normal,structured_load","2,1,3,4,2,3","true","",""
"null","","html-keyboard-response","158","347388","0.0-158.0","","<img src=""img/set1/S3.jpg"" width=""540"" height = ""360"" style=""border:16px solid orange"">","null","","","","","","","",""
"null","","html-keyboard-response","159","347590","0.0-159.0","","","null","","","","","","","",""
"727.7000000178814","","image-keyboard-response","160","348319","0.0-160.0","","img/set1/S3.jpg","72","3","random","72","random,structured_incentive,structured_normal,structured_load","2,1,3,4,2,3","true","",""
"null","","html-keyboard-response","161","348671","0.0-161.0","","<img src=""img/set1/S3.jpg"" width=""540"" height = ""360"" style=""border:16px solid orange"">","null","","","","","","","",""
"null","","html-keyboard-response","162","348872","0.0-162.0","","","null","","","","","","","",""
"736.9000000059605","","image-keyboard-response","163","349610","0.0-163.0","","img/set1/S1.jpg","74","1","random","83","random,structured_incentive,structured_normal,structured_load","2,1,3,4,2,3","false","",""
"null","","html-keyboard-response","164","349962","0.0-164.0","","<img src=""img/set1/S1.jpg"" width=""540"" height = ""360"">","null","","","","","","","",""
"null","","html-keyboard-response","165","350164","0.0-165.0","","","null","","","","","","","",""
"953.8999999761581","","image-keyboard-response","166","351119","0.0-166.0","","img/set1/S3.jpg","72","3","random","72","random,structured_incentive,structured_normal,structured_load","2,1,3,4,2,3","true","",""
"null","","html-keyboard-response","167","351471","0.0-167.0","","<img src=""img/set1/S3.jpg"" width=""540"" height = ""360"" style=""border:16px solid orange"">","null","","","","","","","",""
"null","","html-keyboard-response","168","351674","0.0-168.0","","","null","","","","","","","",""
"1163.5999999940395","","image-keyboard-response","169","352839","0.0-169.0","","img/set1/S4.jpg","74","4","random","74","random,structured_incentive,structured_normal,structured_load","2,1,3,4,2,3","true","",""
"null","","html-keyboard-response","170","353190","0.0-170.0","","<img src=""img/set1/S4.jpg"" width=""540"" height = ""360"" style=""border:16px solid orange"">","null","","","","","","","",""
"null","","html-keyboard-response","171","353391","0.0-171.0","","","null","","","","","","","",""
"974.5","","image-keyboard-response","172","354367","0.0-172.0","","img/set1/S3.jpg","72","3","random","72","random,structured_incentive,structured_normal,structured_load","2,1,3,4,2,3","true","",""
"null","","html-keyboard-response","173","354719","0.0-173.0","","<img src=""img/set1/S3.jpg"" width=""540"" height = ""360"" style=""border:16px solid orange"">","null","","","","","","","",""
"null","","html-keyboard-response","174","354920","0.0-174.0","","","null","","","","","","","",""
"1126.5","","image-keyboard-response","175","356047","0.0-175.0","","img/set1/S1.jpg","68","1","random","83","random,structured_incentive,structured_normal,structured_load","2,1,3,4,2,3","false","",""
"null","","html-keyboard-response","176","356399","0.0-176.0","","<img src=""img/set1/S1.jpg"" width=""540"" height = ""360"">","null","","","","","","","",""
"null","","html-keyboard-response","177","356600","0.0-177.0","","","null","","","","","","","",""
"10.700000017881393","","image-keyboard-response","178","356612","0.0-178.0","","img/set1/S1.jpg","83","1","random","83","random,structured_incentive,structured_normal,structured_load","2,1,3,4,2,3","true","",""
"null","","html-keyboard-response","179","356963","0.0-179.0","","<img src=""img/set1/S1.jpg"" width=""540"" height = ""360"" style=""border:16px solid orange"">","null","","","","","","","",""
"null","","html-keyboard-response","180","357164","0.0-180.0","","","null","","","","","","","",""
"857.5","","image-keyboard-response","181","358023","0.0-181.0","","img/set1/S2.jpg","68","2","random","68","random,structured_incentive,structured_normal,structured_load","2,1,3,4,2,3","true","",""
"null","","html-keyboard-response","182","358379","0.0-182.0","","<img src=""img/set1/S2.jpg"" width=""540"" height = ""360"" style=""border:16px solid orange"">","null","","","","","","","",""
"null","","html-keyboard-response","183","358580","0.0-183.0","","","null","","","","","","","",""
"725.5999999940395","","image-keyboard-response","184","359307","0.0-184.0","","img/set1/S1.jpg","83","1","random","83","random,structured_incentive,structured_normal,structured_load","2,1,3,4,2,3","true","",""
"null","","html-keyboard-response","185","359659","0.0-185.0","","<img src=""img/set1/S1.jpg"" width=""540"" height = ""360"" style=""border:16px solid orange"">","null","","","","","","","",""
"null","","html-keyboard-response","186","359863","0.0-186.0","","","null","","","","","","","",""
"780.5999999940395","","image-keyboard-response","187","360644","0.0-187.0","","img/set1/S2.jpg","68","2","random","68","random,structured_incentive,structured_normal,structured_load","2,1,3,4,2,3","true","",""
"null","","html-keyboard-response","188","360996","0.0-188.0","","<img src=""img/set1/S2.jpg"" width=""540"" height = ""360"" style=""border:16px solid orange"">","null","","","","","","","",""
"null","","html-keyboard-response","189","361197","0.0-189.0","","","null","","","","","","","",""
"1166.199999988079","","image-keyboard-response","190","362364","0.0-190.0","","img/set1/S4.jpg","74","4","random","74","random,structured_incentive,structured_normal,structured_load","2,1,3,4,2,3","true","",""
"null","","html-keyboard-response","191","362716","0.0-191.0","","<img src=""img/set1/S4.jpg"" width=""540"" height = ""360"" style=""border:16px solid orange"">","null","","","","","","","",""
"null","","html-keyboard-response","192","362918","0.0-192.0","","","null","","","","","","","",""
"581.7999999821186","","image-keyboard-response","193","363501","0.0-193.0","","img/set1/S3.jpg","72","3","random","72","random,structured_incentive,structured_normal,structured_load","2,1,3,4,2,3","true","",""
"null","","html-keyboard-response","194","363853","0.0-194.0","","<img src=""img/set1/S3.jpg"" width=""540"" height = ""360"" style=""border:16px solid orange"">","null","","","","","","","",""
"null","","html-keyboard-response","195","364055","0.0-195.0","","","null","","","","","","","",""
"1322.699999988079","","image-keyboard-response","196","365378","0.0-196.0","","img/set1/S1.jpg","83","1","random","83","random,structured_incentive,structured_normal,structured_load","2,1,3,4,2,3","true","",""
"null","","html-keyboard-response","197","365730","0.0-197.0","","<img src=""img/set1/S1.jpg"" width=""540"" height = ""360"" style=""border:16px solid orange"">","null","","","","","","","",""
"null","","html-keyboard-response","198","365931","0.0-198.0","","","null","","","","","","","",""
"1293.300000011921","","image-keyboard-response","199","367226","0.0-199.0","","img/set1/S2.jpg","68","2","random","68","random,structured_incentive,structured_normal,structured_load","2,1,3,4,2,3","true","",""
"null","","html-keyboard-response","200","367578","0.0-200.0","","<img src=""img/set1/S2.jpg"" width=""540"" height = ""360"" style=""border:16px solid orange"">","null","","","","","","","",""
"null","","html-keyboard-response","201","367780","0.0-201.0","","","null","","","","","","","",""
"1332.4000000059605","","image-keyboard-response","202","369114","0.0-202.0","","img/set1/S4.jpg","72","4","random","74","random,structured_incentive,structured_normal,structured_load","2,1,3,4,2,3","false","",""
"null","","html-keyboard-response","203","369466","0.0-203.0","","<img src=""img/set1/S4.jpg"" width=""540"" height = ""360"">","null","","","","","","","",""
"null","","html-keyboard-response","204","369669","0.0-204.0","","","null","","","","","","","",""
"779.5","","image-keyboard-response","205","370449","0.0-205.0","","img/set1/S2.jpg","68","2","random","68","random,structured_incentive,structured_normal,structured_load","2,1,3,4,2,3","true","",""
"null","","html-keyboard-response","206","370802","0.0-206.0","","<img src=""img/set1/S2.jpg"" width=""540"" height = ""360"" style=""border:16px solid orange"">","null","","","","","","","",""
"null","","html-keyboard-response","207","371005","0.0-207.0","","","null","","","","","","","",""
"1119.5999999940395","","image-keyboard-response","208","372126","0.0-208.0","","img/set1/S3.jpg","72","3","random","72","random,structured_incentive,structured_normal,structured_load","2,1,3,4,2,3","true","",""
"null","","html-keyboard-response","209","372483","0.0-209.0","","<img src=""img/set1/S3.jpg"" width=""540"" height = ""360"" style=""border:16px solid orange"">","null","","","","","","","",""
"null","","html-keyboard-response","210","372684","0.0-210.0","","","null","","","","","","","",""
"876.3000000119209","","image-keyboard-response","211","373562","0.0-211.0","","img/set1/S4.jpg","74","4","random","74","random,structured_incentive,structured_normal,structured_load","2,1,3,4,2,3","true","",""
"null","","html-keyboard-response","212","373926","0.0-212.0","","<img src=""img/set1/S4.jpg"" width=""540"" height = ""360"" style=""border:16px solid orange"">","null","","","","","","","",""
"null","","html-keyboard-response","213","374130","0.0-213.0","","","null","","","","","","","",""
"934.0999999940395","","image-keyboard-response","214","375065","0.0-214.0","","img/set1/S4.jpg","74","4","random","74","random,structured_incentive,structured_normal,structured_load","2,1,3,4,2,3","true","",""
"null","","html-keyboard-response","215","375418","0.0-215.0","","<img src=""img/set1/S4.jpg"" width=""540"" height = ""360"" style=""border:16px solid orange"">","null","","","","","","","",""
"null","","html-keyboard-response","216","375619","0.0-216.0","","","null","","","","","","","",""
"828.9000000059605","","image-keyboard-response","217","376449","0.0-217.0","","img/set1/S2.jpg","68","2","random","68","random,structured_incentive,structured_normal,structured_load","2,1,3,4,2,3","true","",""
"null","","html-keyboard-response","218","376802","0.0-218.0","","<img src=""img/set1/S2.jpg"" width=""540"" height = ""360"" style=""border:16px solid orange"">","null","","","","","","","",""
"null","","html-keyboard-response","219","377003","0.0-219.0","","","null","","","","","","","",""
"830.3000000119209","","image-keyboard-response","220","377835","0.0-220.0","","img/set1/S1.jpg","83","1","random","83","random,structured_incentive,structured_normal,structured_load","2,1,3,4,2,3","true","",""
"null","","html-keyboard-response","221","378188","0.0-221.0","","<img src=""img/set1/S1.jpg"" width=""540"" height = ""360"" style=""border:16px solid orange"">","null","","","","","","","",""
"null","","html-keyboard-response","222","378389","0.0-222.0","","","null","","","","","","","",""
"666.4000000059605","","image-keyboard-response","223","379056","0.0-223.0","","img/set1/S1.jpg","83","1","random","83","random,structured_incentive,structured_normal,structured_load","2,1,3,4,2,3","true","",""
"null","","html-keyboard-response","224","379409","0.0-224.0","","<img src=""img/set1/S1.jpg"" width=""540"" height = ""360"" style=""border:16px solid orange"">","null","","","","","","","",""
"null","","html-keyboard-response","225","379610","0.0-225.0","","","null","","","","","","","",""
"909.6999999880791","","image-keyboard-response","226","380521","0.0-226.0","","img/set1/S4.jpg","74","4","random","74","random,structured_incentive,structured_normal,structured_load","2,1,3,4,2,3","true","",""
"null","","html-keyboard-response","227","380872","0.0-227.0","","<img src=""img/set1/S4.jpg"" width=""540"" height = ""360"" style=""border:16px solid orange"">","null","","","","","","","",""
"null","","html-keyboard-response","228","381073","0.0-228.0","","","null","","","","","","","",""
"1904.199999988079","","image-keyboard-response","229","382979","0.0-229.0","","img/set1/S1.jpg","83","1","random","83","random,structured_incentive,structured_normal,structured_load","2,1,3,4,2,3","true","",""
"null","","html-keyboard-response","230","383332","0.0-230.0","","<img src=""img/set1/S1.jpg"" width=""540"" height = ""360"" style=""border:16px solid orange"">","null","","","","","","","",""
"null","","html-keyboard-response","231","383534","0.0-231.0","","","null","","","","","","","",""
"826.0999999940395","","image-keyboard-response","232","384361","0.0-232.0","","img/set1/S2.jpg","68","2","random","68","random,structured_incentive,structured_normal,structured_load","2,1,3,4,2,3","true","",""
"null","","html-keyboard-response","233","384713","0.0-233.0","","<img src=""img/set1/S2.jpg"" width=""540"" height = ""360"" style=""border:16px solid orange"">","null","","","","","","","",""
"null","","html-keyboard-response","234","384915","0.0-234.0","","","null","","","","","","","",""
"732.2999999821186","","image-keyboard-response","235","385648","0.0-235.0","","img/set1/S1.jpg","83","1","random","83","random,structured_incentive,structured_normal,structured_load","2,1,3,4,2,3","true","",""
"null","","html-keyboard-response","236","386000","0.0-236.0","","<img src=""img/set1/S1.jpg"" width=""540"" height = ""360"" style=""border:16px solid orange"">","null","","","","","","","",""
"null","","html-keyboard-response","237","386202","0.0-237.0","","","null","","","","","","","",""
"942","","image-keyboard-response","238","387145","0.0-238.0","","img/set1/S4.jpg","74","4","random","74","random,structured_incentive,structured_normal,structured_load","2,1,3,4,2,3","true","",""
"null","","html-keyboard-response","239","387496","0.0-239.0","","<img src=""img/set1/S4.jpg"" width=""540"" height = ""360"" style=""border:16px solid orange"">","null","","","","","","","",""
"null","","html-keyboard-response","240","387697","0.0-240.0","","","null","","","","","","","",""
"711.8000000119209","","image-keyboard-response","241","388410","0.0-241.0","","img/set1/S4.jpg","74","4","random","74","random,structured_incentive,structured_normal,structured_load","2,1,3,4,2,3","true","",""
"null","","html-keyboard-response","242","388763","0.0-242.0","","<img src=""img/set1/S4.jpg"" width=""540"" height = ""360"" style=""border:16px solid orange"">","null","","","","","","","",""
"null","","html-keyboard-response","243","388968","0.0-243.0","","","null","","","","","","","",""
"806.9000000059605","","image-keyboard-response","244","389776","0.0-244.0","","img/set1/S3.jpg","72","3","random","72","random,structured_incentive,structured_normal,structured_load","2,1,3,4,2,3","true","",""
"null","","html-keyboard-response","245","390128","0.0-245.0","","<img src=""img/set1/S3.jpg"" width=""540"" height = ""360"" style=""border:16px solid orange"">","null","","","","","","","",""
"null","","html-keyboard-response","246","390330","0.0-246.0","","","null","","","","","","","",""
"460.59999999403954","","image-keyboard-response","247","390792","0.0-247.0","","img/set1/S3.jpg","72","3","random","72","random,structured_incentive,structured_normal,structured_load","2,1,3,4,2,3","true","",""
"null","","html-keyboard-response","248","391144","0.0-248.0","","<img src=""img/set1/S3.jpg"" width=""540"" height = ""360"" style=""border:16px solid orange"">","null","","","","","","","",""
"null","","html-keyboard-response","249","391345","0.0-249.0","","","null","","","","","","","",""
"551.2999999821186","","image-keyboard-response","250","391898","0.0-250.0","","img/set1/S4.jpg","74","4","random","74","random,structured_incentive,structured_normal,structured_load","2,1,3,4,2,3","true","",""
"null","","html-keyboard-response","251","392250","0.0-251.0","","<img src=""img/set1/S4.jpg"" width=""540"" height = ""360"" style=""border:16px solid orange"">","null","","","","","","","",""
"null","","html-keyboard-response","252","392453","0.0-252.0","","","null","","","","","","","",""
"554.2999999821186","","image-keyboard-response","253","393009","0.0-253.0","","img/set1/S3.jpg","72","3","random","72","random,structured_incentive,structured_normal,structured_load","2,1,3,4,2,3","true","",""
"null","","html-keyboard-response","254","393362","0.0-254.0","","<img src=""img/set1/S3.jpg"" width=""540"" height = ""360"" style=""border:16px solid orange"">","null","","","","","","","",""
"null","","html-keyboard-response","255","393564","0.0-255.0","","","null","","","","","","","",""
"565.5","","image-keyboard-response","256","394130","0.0-256.0","","img/set1/S3.jpg","72","3","random","72","random,structured_incentive,structured_normal,structured_load","2,1,3,4,2,3","true","",""
"null","","html-keyboard-response","257","394482","0.0-257.0","","<img src=""img/set1/S3.jpg"" width=""540"" height = ""360"" style=""border:16px solid orange"">","null","","","","","","","",""
"null","","html-keyboard-response","258","394687","0.0-258.0","","","null","","","","","","","",""
"544.2999999821186","","image-keyboard-response","259","395232","0.0-259.0","","img/set1/S4.jpg","74","4","random","74","random,structured_incentive,structured_normal,structured_load","2,1,3,4,2,3","true","",""
"null","","html-keyboard-response","260","395584","0.0-260.0","","<img src=""img/set1/S4.jpg"" width=""540"" height = ""360"" style=""border:16px solid orange"">","null","","","","","","","",""
"null","","html-keyboard-response","261","395789","0.0-261.0","","","null","","","","","","","",""
"929.3000000119209","","image-keyboard-response","262","396720","0.0-262.0","","img/set1/S1.jpg","83","1","random","83","random,structured_incentive,structured_normal,structured_load","2,1,3,4,2,3","true","",""
"null","","html-keyboard-response","263","397073","0.0-263.0","","<img src=""img/set1/S1.jpg"" width=""540"" height = ""360"" style=""border:16px solid orange"">","null","","","","","","","",""
"null","","html-keyboard-response","264","397276","0.0-264.0","","","null","","","","","","","",""
"676.7000000178814","","image-keyboard-response","265","397954","0.0-265.0","","img/set1/S1.jpg","83","1","random","83","random,structured_incentive,structured_normal,structured_load","2,1,3,4,2,3","true","",""
"null","","html-keyboard-response","266","398305","0.0-266.0","","<img src=""img/set1/S1.jpg"" width=""540"" height = ""360"" style=""border:16px solid orange"">","null","","","","","","","",""
"null","","html-keyboard-response","267","398507","0.0-267.0","","","null","","","","","","","",""
"1260.300000011921","","image-keyboard-response","268","399769","0.0-268.0","","img/set1/S3.jpg","74","3","random","72","random,structured_incentive,structured_normal,structured_load","2,1,3,4,2,3","false","",""
"null","","html-keyboard-response","269","400126","0.0-269.0","","<img src=""img/set1/S3.jpg"" width=""540"" height = ""360"">","null","","","","","","","",""
"null","","html-keyboard-response","270","400327","0.0-270.0","","","null","","","","","","","",""
"16","","image-keyboard-response","271","400345","0.0-271.0","","img/set1/S4.jpg","72","4","random","74","random,structured_incentive,structured_normal,structured_load","2,1,3,4,2,3","false","",""
"null","","html-keyboard-response","272","400698","0.0-272.0","","<img src=""img/set1/S4.jpg"" width=""540"" height = ""360"">","null","","","","","","","",""
"null","","html-keyboard-response","273","400899","0.0-273.0","","","null","","","","","","","",""
"1010.6999999880791","","image-keyboard-response","274","401911","0.0-274.0","","img/set1/S3.jpg","72","3","random","72","random,structured_incentive,structured_normal,structured_load","2,1,3,4,2,3","true","",""
"null","","html-keyboard-response","275","402264","0.0-275.0","","<img src=""img/set1/S3.jpg"" width=""540"" height = ""360"" style=""border:16px solid orange"">","null","","","","","","","",""
"null","","html-keyboard-response","276","402465","0.0-276.0","","","null","","","","","","","",""
"868.7000000178814","","image-keyboard-response","277","403335","0.0-277.0","","img/set1/S1.jpg","83","1","random","83","random,structured_incentive,structured_normal,structured_load","2,1,3,4,2,3","true","",""
"null","","html-keyboard-response","278","403687","0.0-278.0","","<img src=""img/set1/S1.jpg"" width=""540"" height = ""360"" style=""border:16px solid orange"">","null","","","","","","","",""
"null","","html-keyboard-response","279","403889","0.0-279.0","","","null","","","","","","","",""
"749.4000000059605","","image-keyboard-response","280","404640","0.0-280.0","","img/set1/S2.jpg","68","2","random","68","random,structured_incentive,structured_normal,structured_load","2,1,3,4,2,3","true","",""
"null","","html-keyboard-response","281","404992","0.0-281.0","","<img src=""img/set1/S2.jpg"" width=""540"" height = ""360"" style=""border:16px solid orange"">","null","","","","","","","",""
"null","","html-keyboard-response","282","405194","0.0-282.0","","","null","","","","","","","",""
"923.6999999880791","","image-keyboard-response","283","406119","0.0-283.0","","img/set1/S3.jpg","74","3","random","72","random,structured_incentive,structured_normal,structured_load","2,1,3,4,2,3","false","",""
"null","","html-keyboard-response","284","406472","0.0-284.0","","<img src=""img/set1/S3.jpg"" width=""540"" height = ""360"">","null","","","","","","","",""
"null","","html-keyboard-response","285","406676","0.0-285.0","","","null","","","","","","","",""
"19.900000005960464","","image-keyboard-response","286","406697","0.0-286.0","","img/set1/S2.jpg","72","2","random","68","random,structured_incentive,structured_normal,structured_load","2,1,3,4,2,3","false","",""
"null","","html-keyboard-response","287","407049","0.0-287.0","","<img src=""img/set1/S2.jpg"" width=""540"" height = ""360"">","null","","","","","","","",""
"null","","html-keyboard-response","288","407250","0.0-288.0","","","null","","","","","","","",""
"804","","image-keyboard-response","289","408055","0.0-289.0","","img/set1/S3.jpg","72","3","random","72","random,structured_incentive,structured_normal,structured_load","2,1,3,4,2,3","true","",""
"null","","html-keyboard-response","290","408410","0.0-290.0","","<img src=""img/set1/S3.jpg"" width=""540"" height = ""360"" style=""border:16px solid orange"">","null","","","","","","","",""
"null","","html-keyboard-response","291","408613","0.0-291.0","","","null","","","","","","","",""
"696.9000000059605","","image-keyboard-response","292","409311","0.0-292.0","","img/set1/S4.jpg","74","4","random","74","random,structured_incentive,structured_normal,structured_load","2,1,3,4,2,3","true","",""
"null","","html-keyboard-response","293","409663","0.0-293.0","","<img src=""img/set1/S4.jpg"" width=""540"" height = ""360"" style=""border:16px solid orange"">","null","","","","","","","",""
"null","","html-keyboard-response","294","409864","0.0-294.0","","","null","","","","","","","",""
"613.3000000119209","","image-keyboard-response","295","410479","0.0-295.0","","img/set1/S3.jpg","72","3","random","72","random,structured_incentive,structured_normal,structured_load","2,1,3,4,2,3","true","",""
"null","","html-keyboard-response","296","410834","0.0-296.0","","<img src=""img/set1/S3.jpg"" width=""540"" height = ""360"" style=""border:16px solid orange"">","null","","","","","","","",""
"null","","html-keyboard-response","297","411040","0.0-297.0","","","null","","","","","","","",""
"773.8999999761581","","image-keyboard-response","298","411815","0.0-298.0","","img/set1/S1.jpg","83","1","random","83","random,structured_incentive,structured_normal,structured_load","2,1,3,4,2,3","true","",""
"null","","html-keyboard-response","299","412167","0.0-299.0","","<img src=""img/set1/S1.jpg"" width=""540"" height = ""360"" style=""border:16px solid orange"">","null","","","","","","","",""
"null","","html-keyboard-response","300","412368","0.0-300.0","","","null","","","","","","","",""
"549.1999999880791","","image-keyboard-response","301","412918","0.0-301.0","","img/set1/S2.jpg","68","2","random","68","random,structured_incentive,structured_normal,structured_load","2,1,3,4,2,3","true","",""
"null","","html-keyboard-response","302","413270","0.0-302.0","","<img src=""img/set1/S2.jpg"" width=""540"" height = ""360"" style=""border:16px solid orange"">","null","","","","","","","",""
"null","","html-keyboard-response","303","413471","0.0-303.0","","","null","","","","","","","",""
"824","","image-keyboard-response","304","414296","0.0-304.0","","img/set1/S4.jpg","74","4","random","74","random,structured_incentive,structured_normal,structured_load","2,1,3,4,2,3","true","",""
"null","","html-keyboard-response","305","414649","0.0-305.0","","<img src=""img/set1/S4.jpg"" width=""540"" height = ""360"" style=""border:16px solid orange"">","null","","","","","","","",""
"null","","html-keyboard-response","306","414850","0.0-306.0","","","null","","","","","","","",""
"994.9000000059605","","image-keyboard-response","307","415847","0.0-307.0","","img/set1/S2.jpg","68","2","random","68","random,structured_incentive,structured_normal,structured_load","2,1,3,4,2,3","true","",""
"null","","html-keyboard-response","308","416198","0.0-308.0","","<img src=""img/set1/S2.jpg"" width=""540"" height = ""360"" style=""border:16px solid orange"">","null","","","","","","","",""
"null","","html-keyboard-response","309","416400","0.0-309.0","","","null","","","","","","","",""
"790.9000000059605","","image-keyboard-response","310","417192","0.0-310.0","","img/set1/S1.jpg","83","1","random","83","random,structured_incentive,structured_normal,structured_load","2,1,3,4,2,3","true","",""
"null","","html-keyboard-response","311","417545","0.0-311.0","","<img src=""img/set1/S1.jpg"" width=""540"" height = ""360"" style=""border:16px solid orange"">","null","","","","","","","",""
"null","","html-keyboard-response","312","417746","0.0-312.0","","","null","","","","","","","",""
"987","","image-keyboard-response","313","418738","0.0-313.0","","img/set1/S4.jpg","74","4","random","74","random,structured_incentive,structured_normal,structured_load","2,1,3,4,2,3","true","",""
"null","","html-keyboard-response","314","419090","0.0-314.0","","<img src=""img/set1/S4.jpg"" width=""540"" height = ""360"" style=""border:16px solid orange"">","null","","","","","","","",""
"null","","html-keyboard-response","315","419293","0.0-315.0","","","null","","","","","","","",""
"1452.300000011921","","image-keyboard-response","316","420747","0.0-316.0","","img/set1/S4.jpg","74","4","random","74","random,structured_incentive,structured_normal,structured_load","2,1,3,4,2,3","true","",""
"null","","html-keyboard-response","317","421099","0.0-317.0","","<img src=""img/set1/S4.jpg"" width=""540"" height = ""360"" style=""border:16px solid orange"">","null","","","","","","","",""
"null","","html-keyboard-response","318","421302","0.0-318.0","","","null","","","","","","","",""
"731.5","","image-keyboard-response","319","422034","0.0-319.0","","img/set1/S2.jpg","83","2","random","68","random,structured_incentive,structured_normal,structured_load","2,1,3,4,2,3","false","",""
"null","","html-keyboard-response","320","422389","0.0-320.0","","<img src=""img/set1/S2.jpg"" width=""540"" height = ""360"">","null","","","","","","","",""
"null","","html-keyboard-response","321","422591","0.0-321.0","","","null","","","","","","","",""
"546.5","","image-keyboard-response","322","423139","0.0-322.0","","img/set1/S2.jpg","68","2","random","68","random,structured_incentive,structured_normal,structured_load","2,1,3,4,2,3","true","",""
"null","","html-keyboard-response","323","423491","0.0-323.0","","<img src=""img/set1/S2.jpg"" width=""540"" height = ""360"" style=""border:16px solid orange"">","null","","","","","","","",""
"null","","html-keyboard-response","324","423692","0.0-324.0","","","null","","","","","","","",""
"956.6999999880791","","image-keyboard-response","325","424650","0.0-325.0","","img/set1/S3.jpg","72","3","random","72","random,structured_incentive,structured_normal,structured_load","2,1,3,4,2,3","true","",""
"null","","html-keyboard-response","326","425003","0.0-326.0","","<img src=""img/set1/S3.jpg"" width=""540"" height = ""360"" style=""border:16px solid orange"">","null","","","","","","","",""
"null","","html-keyboard-response","327","425207","0.0-327.0","","","null","","","","","","","",""
"737.7000000178814","","image-keyboard-response","328","425946","0.0-328.0","","img/set1/S1.jpg","83","1","random","83","random,structured_incentive,structured_normal,structured_load","2,1,3,4,2,3","true","",""
"null","","html-keyboard-response","329","426299","0.0-329.0","","<img src=""img/set1/S1.jpg"" width=""540"" height = ""360"" style=""border:16px solid orange"">","null","","","","","","","",""
"null","","html-keyboard-response","330","426500","0.0-330.0","","","null","","","","","","","",""
"920.5999999940395","","image-keyboard-response","331","427426","0.0-331.0","","img/set1/S4.jpg","74","4","random","74","random,structured_incentive,structured_normal,structured_load","2,1,3,4,2,3","true","",""
"null","","html-keyboard-response","332","427778","0.0-332.0","","<img src=""img/set1/S4.jpg"" width=""540"" height = ""360"" style=""border:16px solid orange"">","null","","","","","","","",""
"null","","html-keyboard-response","333","427979","0.0-333.0","","","null","","","","","","","",""
"645.5","","image-keyboard-response","334","428625","0.0-334.0","","img/set1/S4.jpg","74","4","random","74","random,structured_incentive,structured_normal,structured_load","2,1,3,4,2,3","true","",""
"null","","html-keyboard-response","335","428978","0.0-335.0","","<img src=""img/set1/S4.jpg"" width=""540"" height = ""360"" style=""border:16px solid orange"">","null","","","","","","","",""
"null","","html-keyboard-response","336","429181","0.0-336.0","","","null","","","","","","","",""
"1747.6000000238419","","image-keyboard-response","337","430930","0.0-337.0","","img/set1/S2.jpg","68","2","random","68","random,structured_incentive,structured_normal,structured_load","2,1,3,4,2,3","true","",""
"null","","html-keyboard-response","338","431282","0.0-338.0","","<img src=""img/set1/S2.jpg"" width=""540"" height = ""360"" style=""border:16px solid orange"">","null","","","","","","","",""
"null","","html-keyboard-response","339","431484","0.0-339.0","","","null","","","","","","","",""
"948.3000000119209","","image-keyboard-response","340","432433","0.0-340.0","","img/set1/S3.jpg","72","3","random","72","random,structured_incentive,structured_normal,structured_load","2,1,3,4,2,3","true","",""
"null","","html-keyboard-response","341","432786","0.0-341.0","","<img src=""img/set1/S3.jpg"" width=""540"" height = ""360"" style=""border:16px solid orange"">","null","","","","","","","",""
"null","","html-keyboard-response","342","432988","0.0-342.0","","","null","","","","","","","",""
"875.9000000059605","","image-keyboard-response","343","433865","0.0-343.0","","img/set1/S1.jpg","83","1","random","83","random,structured_incentive,structured_normal,structured_load","2,1,3,4,2,3","true","",""
"null","","html-keyboard-response","344","434217","0.0-344.0","","<img src=""img/set1/S1.jpg"" width=""540"" height = ""360"" style=""border:16px solid orange"">","null","","","","","","","",""
"null","","html-keyboard-response","345","434418","0.0-345.0","","","null","","","","","","","",""
"510.7999999821186","","image-keyboard-response","346","434930","0.0-346.0","","img/set1/S1.jpg","83","1","random","83","random,structured_incentive,structured_normal,structured_load","2,1,3,4,2,3","true","",""
"null","","html-keyboard-response","347","435282","0.0-347.0","","<img src=""img/set1/S1.jpg"" width=""540"" height = ""360"" style=""border:16px solid orange"">","null","","","","","","","",""
"null","","html-keyboard-response","348","435484","0.0-348.0","","","null","","","","","","","",""
"525.5999999940395","","image-keyboard-response","349","436011","0.0-349.0","","img/set1/S1.jpg","83","1","random","83","random,structured_incentive,structured_normal,structured_load","2,1,3,4,2,3","true","",""
"null","","html-keyboard-response","350","436364","0.0-350.0","","<img src=""img/set1/S1.jpg"" width=""540"" height = ""360"" style=""border:16px solid orange"">","null","","","","","","","",""
"null","","html-keyboard-response","351","436566","0.0-351.0","","","null","","","","","","","",""
"610.2000000178814","","image-keyboard-response","352","437177","0.0-352.0","","img/set1/S2.jpg","68","2","random","68","random,structured_incentive,structured_normal,structured_load","2,1,3,4,2,3","true","",""
"null","","html-keyboard-response","353","437529","0.0-353.0","","<img src=""img/set1/S2.jpg"" width=""540"" height = ""360"" style=""border:16px solid orange"">","null","","","","","","","",""
"null","","html-keyboard-response","354","437736","0.0-354.0","","","null","","","","","","","",""
"1095.9000000059605","","image-keyboard-response","355","438833","0.0-355.0","","img/set1/S1.jpg","83","1","random","83","random,structured_incentive,structured_normal,structured_load","2,1,3,4,2,3","true","",""
"null","","html-keyboard-response","356","439186","0.0-356.0","","<img src=""img/set1/S1.jpg"" width=""540"" height = ""360"" style=""border:16px solid orange"">","null","","","","","","","",""
"null","","html-keyboard-response","357","439398","0.0-357.0","","","null","","","","","","","",""
"1266.300000011921","","image-keyboard-response","358","440665","0.0-358.0","","img/set1/S2.jpg","68","2","random","68","random,structured_incentive,structured_normal,structured_load","2,1,3,4,2,3","true","",""
"null","","html-keyboard-response","359","441019","0.0-359.0","","<img src=""img/set1/S2.jpg"" width=""540"" height = ""360"" style=""border:16px solid orange"">","null","","","","","","","",""
"null","","html-keyboard-response","360","441221","0.0-360.0","","","null","","","","","","","",""
"1002.5","","image-keyboard-response","361","442225","0.0-361.0","","img/set1/S2.jpg","68","2","random","68","random,structured_incentive,structured_normal,structured_load","2,1,3,4,2,3","true","",""
"null","","html-keyboard-response","362","442577","0.0-362.0","","<img src=""img/set1/S2.jpg"" width=""540"" height = ""360"" style=""border:16px solid orange"">","null","","","","","","","",""
"null","","html-keyboard-response","363","442782","0.0-363.0","","","null","","","","","","","",""
"25591.29999998212","","html-keyboard-response","364","468375","0.0-364.0","","<p class=""center-content"">You have completed a block! </p><p class=""center-content"">Press any key on the keyboard to continue, </p><p class=""center-content"">or wait for the automatic progression to the next block after one minute.</p>","32","","","","","","","",""
"3670.300000011921","","instructions","365","472046","0.0-365.0","[{""page_index"":0,""viewing_time"":3669.800000011921}]","","","","","","","","","",""
"19149.20000001788","","instructions","366","491200","0.0-366.0","[{""page_index"":0,""viewing_time"":11493.59999999404},{""page_index"":1,""viewing_time"":7655.100000023842}]","","","","","","","","","",""
"null","","image-keyboard-response","367","493702","0.0-367.0","","img/set2/S2.jpg","null","2","structured_incentive","68","random,structured_incentive,structured_normal,structured_load","2,1,3,4,2,3","false","",""
"null","","html-keyboard-response","368","494054","0.0-368.0","","<img src=""img/set2/S2.jpg"" width=""540"" height = ""360"">","null","","","","","","","",""
"null","","html-keyboard-response","369","494256","0.0-369.0","","","null","","","","","","","",""
"851.5","","image-keyboard-response","370","495109","0.0-370.0","","img/set2/S1.jpg","68","1","structured_incentive","83","random,structured_incentive,structured_normal,structured_load","2,1,3,4,2,3","false","",""
"null","","html-keyboard-response","371","495461","0.0-371.0","","<img src=""img/set2/S1.jpg"" width=""540"" height = ""360"">","null","","","","","","","",""
"null","","html-keyboard-response","372","495665","0.0-372.0","","","null","","","","","","","",""
"2133.699999988079","","image-keyboard-response","373","497800","0.0-373.0","","img/set2/S3.jpg","68","3","structured_incentive","72","random,structured_incentive,structured_normal,structured_load","2,1,3,4,2,3","false","",""
"null","","html-keyboard-response","374","498156","0.0-374.0","","<img src=""img/set2/S3.jpg"" width=""540"" height = ""360"">","null","","","","","","","",""
"null","","html-keyboard-response","375","498357","0.0-375.0","","","null","","","","","","","",""
"2018.300000011921","","image-keyboard-response","376","500377","0.0-376.0","","img/set2/S2.jpg","68","2","structured_incentive","68","random,structured_incentive,structured_normal,structured_load","2,1,3,4,2,3","true","",""
"null","","html-keyboard-response","377","500729","0.0-377.0","","<img src=""img/set2/S2.jpg"" width=""540"" height = ""360"" style=""border:16px solid orange"">","null","","","","","","","",""
"null","","html-keyboard-response","378","500931","0.0-378.0","","","null","","","","","","","",""
"1204.4000000059605","","image-keyboard-response","379","502137","0.0-379.0","","img/set2/S1.jpg","72","1","structured_incentive","83","random,structured_incentive,structured_normal,structured_load","2,1,3,4,2,3","false","",""
"null","","html-keyboard-response","380","502489","0.0-380.0","","<img src=""img/set2/S1.jpg"" width=""540"" height = ""360"">","null","","","","","","","",""
"null","","html-keyboard-response","381","502692","0.0-381.0","","","null","","","","","","","",""
"2176.5","","image-keyboard-response","382","504888","0.0-382.0","","img/set2/S2.jpg","68","2","structured_incentive","68","random,structured_incentive,structured_normal,structured_load","2,1,3,4,2,3","true","",""
"null","","html-keyboard-response","383","505241","0.0-383.0","","<img src=""img/set2/S2.jpg"" width=""540"" height = ""360"" style=""border:16px solid orange"">","null","","","","","","","",""
"null","","html-keyboard-response","384","505443","0.0-384.0","","","null","","","","","","","",""
"2066.800000011921","","image-keyboard-response","385","507511","0.0-385.0","","img/set2/S1.jpg","74","1","structured_incentive","83","random,structured_incentive,structured_normal,structured_load","2,1,3,4,2,3","false","",""
"null","","html-keyboard-response","386","507863","0.0-386.0","","<img src=""img/set2/S1.jpg"" width=""540"" height = ""360"">","null","","","","","","","",""
"null","","html-keyboard-response","387","508065","0.0-387.0","","","null","","","","","","","",""
"1844.9000000059605","","image-keyboard-response","388","509912","0.0-388.0","","img/set2/S4.jpg","72","4","structured_incentive","74","random,structured_incentive,structured_normal,structured_load","2,1,3,4,2,3","false","",""
"null","","html-keyboard-response","389","510266","0.0-389.0","","<img src=""img/set2/S4.jpg"" width=""540"" height = ""360"">","null","","","","","","","",""
"null","","html-keyboard-response","390","510469","0.0-390.0","","","null","","","","","","","",""
"545.5999999940395","","image-keyboard-response","391","511016","0.0-391.0","","img/set2/S4.jpg","72","4","structured_incentive","74","random,structured_incentive,structured_normal,structured_load","2,1,3,4,2,3","false","",""
"null","","html-keyboard-response","392","511369","0.0-392.0","","<img src=""img/set2/S4.jpg"" width=""540"" height = ""360"">","null","","","","","","","",""
"null","","html-keyboard-response","393","511571","0.0-393.0","","","null","","","","","","","",""
"587.2000000178814","","image-keyboard-response","394","512160","0.0-394.0","","img/set2/S4.jpg","74","4","structured_incentive","74","random,structured_incentive,structured_normal,structured_load","2,1,3,4,2,3","true","",""
"null","","html-keyboard-response","395","512513","0.0-395.0","","<img src=""img/set2/S4.jpg"" width=""540"" height = ""360"" style=""border:16px solid orange"">","null","","","","","","","",""
"null","","html-keyboard-response","396","512714","0.0-396.0","","","null","","","","","","","",""
"764.1000000238419","","image-keyboard-response","397","513479","0.0-397.0","","img/set2/S4.jpg","74","4","structured_incentive","74","random,structured_incentive,structured_normal,structured_load","2,1,3,4,2,3","true","",""
"null","","html-keyboard-response","398","513835","0.0-398.0","","<img src=""img/set2/S4.jpg"" width=""540"" height = ""360"" style=""border:16px solid orange"">","null","","","","","","","",""
"null","","html-keyboard-response","399","514038","0.0-399.0","","","null","","","","","","","",""
"1057.4000000059605","","image-keyboard-response","400","515096","0.0-400.0","","img/set2/S2.jpg","83","2","structured_incentive","68","random,structured_incentive,structured_normal,structured_load","2,1,3,4,2,3","false","",""
"null","","html-keyboard-response","401","515451","0.0-401.0","","<img src=""img/set2/S2.jpg"" width=""540"" height = ""360"">","null","","","","","","","",""
"null","","html-keyboard-response","402","515655","0.0-402.0","","","null","","","","","","","",""
"22.599999994039536","","image-keyboard-response","403","515679","0.0-403.0","","img/set2/S1.jpg","68","1","structured_incentive","83","random,structured_incentive,structured_normal,structured_load","2,1,3,4,2,3","false","",""
"null","","html-keyboard-response","404","516031","0.0-404.0","","<img src=""img/set2/S1.jpg"" width=""540"" height = ""360"">","null","","","","","","","",""
"null","","html-keyboard-response","405","516234","0.0-405.0","","","null","","","","","","","",""
"1028.1000000238419","","image-keyboard-response","406","517263","0.0-406.0","","img/set2/S3.jpg","83","3","structured_incentive","72","random,structured_incentive,structured_normal,structured_load","2,1,3,4,2,3","false","",""
"null","","html-keyboard-response","407","517616","0.0-407.0","","<img src=""img/set2/S3.jpg"" width=""540"" height = ""360"">","null","","","","","","","",""
"null","","html-keyboard-response","408","517818","0.0-408.0","","","null","","","","","","","",""
"491.2000000178814","","image-keyboard-response","409","518311","0.0-409.0","","img/set2/S4.jpg","68","4","structured_incentive","74","random,structured_incentive,structured_normal,structured_load","2,1,3,4,2,3","false","",""
"null","","html-keyboard-response","410","518709","0.0-410.0","","<img src=""img/set2/S4.jpg"" width=""540"" height = ""360"">","null","","","","","","","",""
"null","","html-keyboard-response","411","518910","0.0-411.0","","","null","","","","","","","",""
"1143.9000000059605","","image-keyboard-response","412","520055","0.0-412.0","","img/set2/S2.jpg","72","2","structured_incentive","68","random,structured_incentive,structured_normal,structured_load","2,1,3,4,2,3","false","",""
"null","","html-keyboard-response","413","520407","0.0-413.0","","<img src=""img/set2/S2.jpg"" width=""540"" height = ""360"">","null","","","","","","","",""
"null","","html-keyboard-response","414","520610","0.0-414.0","","","null","","","","","","","",""
"1010.4000000059605","","image-keyboard-response","415","521622","0.0-415.0","","img/set2/S1.jpg","83","1","structured_incentive","83","random,structured_incentive,structured_normal,structured_load","2,1,3,4,2,3","true","",""
"null","","html-keyboard-response","416","521975","0.0-416.0","","<img src=""img/set2/S1.jpg"" width=""540"" height = ""360"" style=""border:16px solid Violet"">","null","","","","","","","",""
"null","","html-keyboard-response","417","522179","0.0-417.0","","","null","","","","","","","",""
"1010.0999999940395","","image-keyboard-response","418","523190","0.0-418.0","","img/set2/S4.jpg","74","4","structured_incentive","74","random,structured_incentive,structured_normal,structured_load","2,1,3,4,2,3","true","",""
"null","","html-keyboard-response","419","523543","0.0-419.0","","<img src=""img/set2/S4.jpg"" width=""540"" height = ""360"" style=""border:16px solid orange"">","null","","","","","","","",""
"null","","html-keyboard-response","420","523748","0.0-420.0","","","null","","","","","","","",""
"936.5999999940395","","image-keyboard-response","421","524686","0.0-421.0","","img/set2/S2.jpg","68","2","structured_incentive","68","random,structured_incentive,structured_normal,structured_load","2,1,3,4,2,3","true","",""
"null","","html-keyboard-response","422","525040","0.0-422.0","","<img src=""img/set2/S2.jpg"" width=""540"" height = ""360"" style=""border:16px solid orange"">","null","","","","","","","",""
"null","","html-keyboard-response","423","525242","0.0-423.0","","","null","","","","","","","",""
"867.3000000119209","","image-keyboard-response","424","526111","0.0-424.0","","img/set2/S1.jpg","83","1","structured_incentive","83","random,structured_incentive,structured_normal,structured_load","2,1,3,4,2,3","true","",""
"null","","html-keyboard-response","425","526463","0.0-425.0","","<img src=""img/set2/S1.jpg"" width=""540"" height = ""360"" style=""border:16px solid Violet"">","null","","","","","","","",""
"null","","html-keyboard-response","426","526666","0.0-426.0","","","null","","","","","","","",""
"722.7000000178814","","image-keyboard-response","427","527390","0.0-427.0","","img/set2/S3.jpg","72","3","structured_incentive","72","random,structured_incentive,structured_normal,structured_load","2,1,3,4,2,3","true","",""
"null","","html-keyboard-response","428","527747","0.0-428.0","","<img src=""img/set2/S3.jpg"" width=""540"" height = ""360"" style=""border:16px solid orange"">","null","","","","","","","",""
"null","","html-keyboard-response","429","527949","0.0-429.0","","","null","","","","","","","",""
"839.1999999880791","","image-keyboard-response","430","528790","0.0-430.0","","img/set2/S4.jpg","74","4","structured_incentive","74","random,structured_incentive,structured_normal,structured_load","2,1,3,4,2,3","true","",""
"null","","html-keyboard-response","431","529142","0.0-431.0","","<img src=""img/set2/S4.jpg"" width=""540"" height = ""360"" style=""border:16px solid orange"">","null","","","","","","","",""
"null","","html-keyboard-response","432","529344","0.0-432.0","","","null","","","","","","","",""
"965.1999999880791","","image-keyboard-response","433","530310","0.0-433.0","","img/set2/S2.jpg","83","2","structured_incentive","68","random,structured_incentive,structured_normal,structured_load","2,1,3,4,2,3","false","",""
"null","","html-keyboard-response","434","530662","0.0-434.0","","<img src=""img/set2/S2.jpg"" width=""540"" height = ""360"">","null","","","","","","","",""
"null","","html-keyboard-response","435","530865","0.0-435.0","","","null","","","","","","","",""
"579.8999999761581","","image-keyboard-response","436","531447","0.0-436.0","","img/set2/S1.jpg","83","1","structured_incentive","83","random,structured_incentive,structured_normal,structured_load","2,1,3,4,2,3","true","",""
"null","","html-keyboard-response","437","531801","0.0-437.0","","<img src=""img/set2/S1.jpg"" width=""540"" height = ""360"" style=""border:16px solid Violet"">","null","","","","","","","",""
"null","","html-keyboard-response","438","532003","0.0-438.0","","","null","","","","","","","",""
"540.5999999940395","","image-keyboard-response","439","532545","0.0-439.0","","img/set2/S2.jpg","68","2","structured_incentive","68","random,structured_incentive,structured_normal,structured_load","2,1,3,4,2,3","true","",""
"null","","html-keyboard-response","440","532897","0.0-440.0","","<img src=""img/set2/S2.jpg"" width=""540"" height = ""360"" style=""border:16px solid orange"">","null","","","","","","","",""
"null","","html-keyboard-response","441","533099","0.0-441.0","","","null","","","","","","","",""
"501.69999998807907","","image-keyboard-response","442","533602","0.0-442.0","","img/set2/S1.jpg","83","1","structured_incentive","83","random,structured_incentive,structured_normal,structured_load","2,1,3,4,2,3","true","",""
"null","","html-keyboard-response","443","533955","0.0-443.0","","<img src=""img/set2/S1.jpg"" width=""540"" height = ""360"" style=""border:16px solid Violet"">","null","","","","","","","",""
"null","","html-keyboard-response","444","534157","0.0-444.0","","","null","","","","","","","",""
"927.1999999880791","","image-keyboard-response","445","535086","0.0-445.0","","img/set2/S3.jpg","72","3","structured_incentive","72","random,structured_incentive,structured_normal,structured_load","2,1,3,4,2,3","true","",""
"null","","html-keyboard-response","446","535438","0.0-446.0","","<img src=""img/set2/S3.jpg"" width=""540"" height = ""360"" style=""border:16px solid orange"">","null","","","","","","","",""
"null","","html-keyboard-response","447","535643","0.0-447.0","","","null","","","","","","","",""
"617.9000000059605","","image-keyboard-response","448","536262","0.0-448.0","","img/set2/S3.jpg","72","3","structured_incentive","72","random,structured_incentive,structured_normal,structured_load","2,1,3,4,2,3","true","",""
"null","","html-keyboard-response","449","536614","0.0-449.0","","<img src=""img/set2/S3.jpg"" width=""540"" height = ""360"" style=""border:16px solid orange"">","null","","","","","","","",""
"null","","html-keyboard-response","450","536817","0.0-450.0","","","null","","","","","","","",""
"631.5","","image-keyboard-response","451","537450","0.0-451.0","","img/set2/S3.jpg","72","3","structured_incentive","72","random,structured_incentive,structured_normal,structured_load","2,1,3,4,2,3","true","",""
"null","","html-keyboard-response","452","537806","0.0-452.0","","<img src=""img/set2/S3.jpg"" width=""540"" height = ""360"" style=""border:16px solid orange"">","null","","","","","","","",""
"null","","html-keyboard-response","453","538009","0.0-453.0","","","null","","","","","","","",""
"554.5","","image-keyboard-response","454","538565","0.0-454.0","","img/set2/S3.jpg","72","3","structured_incentive","72","random,structured_incentive,structured_normal,structured_load","2,1,3,4,2,3","true","",""
"null","","html-keyboard-response","455","538917","0.0-455.0","","<img src=""img/set2/S3.jpg"" width=""540"" height = ""360"" style=""border:16px solid orange"">","null","","","","","","","",""
"null","","html-keyboard-response","456","539119","0.0-456.0","","","null","","","","","","","",""
"1100.699999988079","","image-keyboard-response","457","540221","0.0-457.0","","img/set2/S2.jpg","74","2","structured_incentive","68","random,structured_incentive,structured_normal,structured_load","2,1,3,4,2,3","false","",""
"null","","html-keyboard-response","458","540574","0.0-458.0","","<img src=""img/set2/S2.jpg"" width=""540"" height = ""360"">","null","","","","","","","",""
"null","","html-keyboard-response","459","540776","0.0-459.0","","","null","","","","","","","",""
"755.4000000059605","","image-keyboard-response","460","541533","0.0-460.0","","img/set2/S1.jpg","83","1","structured_incentive","83","random,structured_incentive,structured_normal,structured_load","2,1,3,4,2,3","true","",""
"null","","html-keyboard-response","461","541886","0.0-461.0","","<img src=""img/set2/S1.jpg"" width=""540"" height = ""360"" style=""border:16px solid Violet"">","null","","","","","","","",""
"null","","html-keyboard-response","462","542088","0.0-462.0","","","null","","","","","","","",""
"763.5999999940395","","image-keyboard-response","463","542858","0.0-463.0","","img/set2/S4.jpg","74","4","structured_incentive","74","random,structured_incentive,structured_normal,structured_load","2,1,3,4,2,3","true","",""
"null","","html-keyboard-response","464","543210","0.0-464.0","","<img src=""img/set2/S4.jpg"" width=""540"" height = ""360"" style=""border:16px solid orange"">","null","","","","","","","",""
"null","","html-keyboard-response","465","543412","0.0-465.0","","","null","","","","","","","",""
"909.9000000059605","","image-keyboard-response","466","544323","0.0-466.0","","img/set2/S3.jpg","72","3","structured_incentive","72","random,structured_incentive,structured_normal,structured_load","2,1,3,4,2,3","true","",""
"null","","html-keyboard-response","467","544676","0.0-467.0","","<img src=""img/set2/S3.jpg"" width=""540"" height = ""360"" style=""border:16px solid orange"">","null","","","","","","","",""
"null","","html-keyboard-response","468","544877","0.0-468.0","","","null","","","","","","","",""
"635.5999999940395","","image-keyboard-response","469","545514","0.0-469.0","","img/set2/S4.jpg","74","4","structured_incentive","74","random,structured_incentive,structured_normal,structured_load","2,1,3,4,2,3","true","",""
"null","","html-keyboard-response","470","545868","0.0-470.0","","<img src=""img/set2/S4.jpg"" width=""540"" height = ""360"" style=""border:16px solid orange"">","null","","","","","","","",""
"null","","html-keyboard-response","471","546070","0.0-471.0","","","null","","","","","","","",""
"658.5","","image-keyboard-response","472","546730","0.0-472.0","","img/set2/S4.jpg","72","4","structured_incentive","74","random,structured_incentive,structured_normal,structured_load","2,1,3,4,2,3","false","",""
"null","","html-keyboard-response","473","547083","0.0-473.0","","<img src=""img/set2/S4.jpg"" width=""540"" height = ""360"">","null","","","","","","","",""
"null","","html-keyboard-response","474","547285","0.0-474.0","","","null","","","","","","","",""
"756.3000000119209","","image-keyboard-response","475","548043","0.0-475.0","","img/set2/S3.jpg","72","3","structured_incentive","72","random,structured_incentive,structured_normal,structured_load","2,1,3,4,2,3","true","",""
"null","","html-keyboard-response","476","548398","0.0-476.0","","<img src=""img/set2/S3.jpg"" width=""540"" height = ""360"" style=""border:16px solid orange"">","null","","","","","","","",""
"null","","html-keyboard-response","477","548600","0.0-477.0","","","null","","","","","","","",""
"512.4000000059605","","image-keyboard-response","478","549114","0.0-478.0","","img/set2/S4.jpg","74","4","structured_incentive","74","random,structured_incentive,structured_normal,structured_load","2,1,3,4,2,3","true","",""
"null","","html-keyboard-response","479","549465","0.0-479.0","","<img src=""img/set2/S4.jpg"" width=""540"" height = ""360"" style=""border:16px solid orange"">","null","","","","","","","",""
"null","","html-keyboard-response","480","549668","0.0-480.0","","","null","","","","","","","",""
"709","","image-keyboard-response","481","550379","0.0-481.0","","img/set2/S4.jpg","74","4","structured_incentive","74","random,structured_incentive,structured_normal,structured_load","2,1,3,4,2,3","true","",""
"null","","html-keyboard-response","482","550732","0.0-482.0","","<img src=""img/set2/S4.jpg"" width=""540"" height = ""360"" style=""border:16px solid orange"">","null","","","","","","","",""
"null","","html-keyboard-response","483","550934","0.0-483.0","","","null","","","","","","","",""
"906","","image-keyboard-response","484","551842","0.0-484.0","","img/set2/S2.jpg","68","2","structured_incentive","68","random,structured_incentive,structured_normal,structured_load","2,1,3,4,2,3","true","",""
"null","","html-keyboard-response","485","552193","0.0-485.0","","<img src=""img/set2/S2.jpg"" width=""540"" height = ""360"" style=""border:16px solid orange"">","null","","","","","","","",""
"null","","html-keyboard-response","486","552399","0.0-486.0","","","null","","","","","","","",""
"518","","image-keyboard-response","487","552918","0.0-487.0","","img/set2/S1.jpg","83","1","structured_incentive","83","random,structured_incentive,structured_normal,structured_load","2,1,3,4,2,3","true","",""
"null","","html-keyboard-response","488","553270","0.0-488.0","","<img src=""img/set2/S1.jpg"" width=""540"" height = ""360"" style=""border:16px solid Violet"">","null","","","","","","","",""
"null","","html-keyboard-response","489","553471","0.0-489.0","","","null","","","","","","","",""
"713.0999999940395","","image-keyboard-response","490","554186","0.0-490.0","","img/set2/S3.jpg","72","3","structured_incentive","72","random,structured_incentive,structured_normal,structured_load","2,1,3,4,2,3","true","",""
"null","","html-keyboard-response","491","554539","0.0-491.0","","<img src=""img/set2/S3.jpg"" width=""540"" height = ""360"" style=""border:16px solid orange"">","null","","","","","","","",""
"null","","html-keyboard-response","492","554740","0.0-492.0","","","null","","","","","","","",""
"621","","image-keyboard-response","493","555363","0.0-493.0","","img/set2/S3.jpg","72","3","structured_incentive","72","random,structured_incentive,structured_normal,structured_load","2,1,3,4,2,3","true","",""
"null","","html-keyboard-response","494","555715","0.0-494.0","","<img src=""img/set2/S3.jpg"" width=""540"" height = ""360"" style=""border:16px solid orange"">","null","","","","","","","",""
"null","","html-keyboard-response","495","555917","0.0-495.0","","","null","","","","","","","",""
"1236.9000000059605","","image-keyboard-response","496","557156","0.0-496.0","","img/set2/S2.jpg","68","2","structured_incentive","68","random,structured_incentive,structured_normal,structured_load","2,1,3,4,2,3","true","",""
"null","","html-keyboard-response","497","557508","0.0-497.0","","<img src=""img/set2/S2.jpg"" width=""540"" height = ""360"" style=""border:16px solid orange"">","null","","","","","","","",""
"null","","html-keyboard-response","498","557710","0.0-498.0","","","null","","","","","","","",""
"555.2000000178814","","image-keyboard-response","499","558267","0.0-499.0","","img/set2/S1.jpg","83","1","structured_incentive","83","random,structured_incentive,structured_normal,structured_load","2,1,3,4,2,3","true","",""
"null","","html-keyboard-response","500","558620","0.0-500.0","","<img src=""img/set2/S1.jpg"" width=""540"" height = ""360"" style=""border:16px solid Violet"">","null","","","","","","","",""
"null","","html-keyboard-response","501","558823","0.0-501.0","","","null","","","","","","","",""
"745.3000000119209","","image-keyboard-response","502","559569","0.0-502.0","","img/set2/S2.jpg","68","2","structured_incentive","68","random,structured_incentive,structured_normal,structured_load","2,1,3,4,2,3","true","",""
"null","","html-keyboard-response","503","559954","0.0-503.0","","<img src=""img/set2/S2.jpg"" width=""540"" height = ""360"" style=""border:16px solid orange"">","null","","","","","","","",""
"null","","html-keyboard-response","504","560157","0.0-504.0","","","null","","","","","","","",""
"587.3000000119209","","image-keyboard-response","505","560745","0.0-505.0","","img/set2/S1.jpg","83","1","structured_incentive","83","random,structured_incentive,structured_normal,structured_load","2,1,3,4,2,3","true","",""
"null","","html-keyboard-response","506","561098","0.0-506.0","","<img src=""img/set2/S1.jpg"" width=""540"" height = ""360"" style=""border:16px solid Violet"">","null","","","","","","","",""
"null","","html-keyboard-response","507","561300","0.0-507.0","","","null","","","","","","","",""
"916.1000000238419","","image-keyboard-response","508","562217","0.0-508.0","","img/set2/S4.jpg","74","4","structured_incentive","74","random,structured_incentive,structured_normal,structured_load","2,1,3,4,2,3","true","",""
"null","","html-keyboard-response","509","562569","0.0-509.0","","<img src=""img/set2/S4.jpg"" width=""540"" height = ""360"" style=""border:16px solid orange"">","null","","","","","","","",""
"null","","html-keyboard-response","510","562772","0.0-510.0","","","null","","","","","","","",""
"516.0999999940395","","image-keyboard-response","511","563289","0.0-511.0","","img/set2/S2.jpg","72","2","structured_incentive","68","random,structured_incentive,structured_normal,structured_load","2,1,3,4,2,3","false","",""
"null","","html-keyboard-response","512","563641","0.0-512.0","","<img src=""img/set2/S2.jpg"" width=""540"" height = ""360"">","null","","","","","","","",""
"null","","html-keyboard-response","513","563843","0.0-513.0","","","null","","","","","","","",""
"917.5","","image-keyboard-response","514","564761","0.0-514.0","","img/set2/S1.jpg","83","1","structured_incentive","83","random,structured_incentive,structured_normal,structured_load","2,1,3,4,2,3","true","",""
"null","","html-keyboard-response","515","565114","0.0-515.0","","<img src=""img/set2/S1.jpg"" width=""540"" height = ""360"" style=""border:16px solid Violet"">","null","","","","","","","",""
"null","","html-keyboard-response","516","565319","0.0-516.0","","","null","","","","","","","",""
"777","","image-keyboard-response","517","566097","0.0-517.0","","img/set2/S3.jpg","72","3","structured_incentive","72","random,structured_incentive,structured_normal,structured_load","2,1,3,4,2,3","true","",""
"null","","html-keyboard-response","518","566451","0.0-518.0","","<img src=""img/set2/S3.jpg"" width=""540"" height = ""360"" style=""border:16px solid orange"">","null","","","","","","","",""
"null","","html-keyboard-response","519","566654","0.0-519.0","","","null","","","","","","","",""
"1514","","image-keyboard-response","520","568169","0.0-520.0","","img/set2/S4.jpg","74","4","structured_incentive","74","random,structured_incentive,structured_normal,structured_load","2,1,3,4,2,3","true","",""
"null","","html-keyboard-response","521","568521","0.0-521.0","","<img src=""img/set2/S4.jpg"" width=""540"" height = ""360"" style=""border:16px solid orange"">","null","","","","","","","",""
"null","","html-keyboard-response","522","568722","0.0-522.0","","","null","","","","","","","",""
"689.4000000059605","","image-keyboard-response","523","569413","0.0-523.0","","img/set2/S3.jpg","72","3","structured_incentive","72","random,structured_incentive,structured_normal,structured_load","2,1,3,4,2,3","true","",""
"null","","html-keyboard-response","524","569765","0.0-524.0","","<img src=""img/set2/S3.jpg"" width=""540"" height = ""360"" style=""border:16px solid orange"">","null","","","","","","","",""
"null","","html-keyboard-response","525","569967","0.0-525.0","","","null","","","","","","","",""
"707.2999999821186","","image-keyboard-response","526","570676","0.0-526.0","","img/set2/S4.jpg","74","4","structured_incentive","74","random,structured_incentive,structured_normal,structured_load","2,1,3,4,2,3","true","",""
"null","","html-keyboard-response","527","571029","0.0-527.0","","<img src=""img/set2/S4.jpg"" width=""540"" height = ""360"" style=""border:16px solid orange"">","null","","","","","","","",""
"null","","html-keyboard-response","528","571231","0.0-528.0","","","null","","","","","","","",""
"664.8000000119209","","image-keyboard-response","529","571898","0.0-529.0","","img/set2/S3.jpg","72","3","structured_incentive","72","random,structured_incentive,structured_normal,structured_load","2,1,3,4,2,3","true","",""
"null","","html-keyboard-response","530","572250","0.0-530.0","","<img src=""img/set2/S3.jpg"" width=""540"" height = ""360"" style=""border:16px solid orange"">","null","","","","","","","",""
"null","","html-keyboard-response","531","572452","0.0-531.0","","","null","","","","","","","",""
"627.0999999940395","","image-keyboard-response","532","573080","0.0-532.0","","img/set2/S3.jpg","72","3","structured_incentive","72","random,structured_incentive,structured_normal,structured_load","2,1,3,4,2,3","true","",""
"null","","html-keyboard-response","533","573434","0.0-533.0","","<img src=""img/set2/S3.jpg"" width=""540"" height = ""360"" style=""border:16px solid orange"">","null","","","","","","","",""
"null","","html-keyboard-response","534","573636","0.0-534.0","","","null","","","","","","","",""
"916.1000000238419","","image-keyboard-response","535","574554","0.0-535.0","","img/set2/S2.jpg","68","2","structured_incentive","68","random,structured_incentive,structured_normal,structured_load","2,1,3,4,2,3","true","",""
"null","","html-keyboard-response","536","574907","0.0-536.0","","<img src=""img/set2/S2.jpg"" width=""540"" height = ""360"" style=""border:16px solid orange"">","null","","","","","","","",""
"null","","html-keyboard-response","537","575109","0.0-537.0","","","null","","","","","","","",""
"522.6999999880791","","image-keyboard-response","538","575633","0.0-538.0","","img/set2/S1.jpg","83","1","structured_incentive","83","random,structured_incentive,structured_normal,structured_load","2,1,3,4,2,3","true","",""
"null","","html-keyboard-response","539","575985","0.0-539.0","","<img src=""img/set2/S1.jpg"" width=""540"" height = ""360"" style=""border:16px solid Violet"">","null","","","","","","","",""
"null","","html-keyboard-response","540","576186","0.0-540.0","","","null","","","","","","","",""
"1357.5999999940395","","image-keyboard-response","541","577545","0.0-541.0","","img/set2/S4.jpg","74","4","structured_incentive","74","random,structured_incentive,structured_normal,structured_load","2,1,3,4,2,3","true","",""
"null","","html-keyboard-response","542","577897","0.0-542.0","","<img src=""img/set2/S4.jpg"" width=""540"" height = ""360"" style=""border:16px solid orange"">","null","","","","","","","",""
"null","","html-keyboard-response","543","578098","0.0-543.0","","","null","","","","","","","",""
"564.7999999821186","","image-keyboard-response","544","578664","0.0-544.0","","img/set2/S4.jpg","74","4","structured_incentive","74","random,structured_incentive,structured_normal,structured_load","2,1,3,4,2,3","true","",""
"null","","html-keyboard-response","545","579016","0.0-545.0","","<img src=""img/set2/S4.jpg"" width=""540"" height = ""360"" style=""border:16px solid orange"">","null","","","","","","","",""
"null","","html-keyboard-response","546","579219","0.0-546.0","","","null","","","","","","","",""
"803.8000000119209","","image-keyboard-response","547","580024","0.0-547.0","","img/set2/S3.jpg","72","3","structured_incentive","72","random,structured_incentive,structured_normal,structured_load","2,1,3,4,2,3","true","",""
"null","","html-keyboard-response","548","580376","0.0-548.0","","<img src=""img/set2/S3.jpg"" width=""540"" height = ""360"" style=""border:16px solid orange"">","null","","","","","","","",""
"null","","html-keyboard-response","549","580577","0.0-549.0","","","null","","","","","","","",""
"709","","image-keyboard-response","550","581287","0.0-550.0","","img/set2/S2.jpg","68","2","structured_incentive","68","random,structured_incentive,structured_normal,structured_load","2,1,3,4,2,3","true","",""
"null","","html-keyboard-response","551","581641","0.0-551.0","","<img src=""img/set2/S2.jpg"" width=""540"" height = ""360"" style=""border:16px solid orange"">","null","","","","","","","",""
"null","","html-keyboard-response","552","581842","0.0-552.0","","","null","","","","","","","",""
"664.8000000119209","","image-keyboard-response","553","582508","0.0-553.0","","img/set2/S1.jpg","83","1","structured_incentive","83","random,structured_incentive,structured_normal,structured_load","2,1,3,4,2,3","true","",""
"null","","html-keyboard-response","554","582860","0.0-554.0","","<img src=""img/set2/S1.jpg"" width=""540"" height = ""360"" style=""border:16px solid Violet"">","null","","","","","","","",""
"null","","html-keyboard-response","555","583062","0.0-555.0","","","null","","","","","","","",""
"711.4000000059605","","image-keyboard-response","556","583775","0.0-556.0","","img/set2/S3.jpg","72","3","structured_incentive","72","random,structured_incentive,structured_normal,structured_load","2,1,3,4,2,3","true","",""
"null","","html-keyboard-response","557","584127","0.0-557.0","","<img src=""img/set2/S3.jpg"" width=""540"" height = ""360"" style=""border:16px solid orange"">","null","","","","","","","",""
"null","","html-keyboard-response","558","584330","0.0-558.0","","","null","","","","","","","",""
"1137.5","","image-keyboard-response","559","585468","0.0-559.0","","img/set2/S2.jpg","68","2","structured_incentive","68","random,structured_incentive,structured_normal,structured_load","2,1,3,4,2,3","true","",""
"null","","html-keyboard-response","560","585821","0.0-560.0","","<img src=""img/set2/S2.jpg"" width=""540"" height = ""360"" style=""border:16px solid orange"">","null","","","","","","","",""
"null","","html-keyboard-response","561","586022","0.0-561.0","","","null","","","","","","","",""
"936.0999999940395","","image-keyboard-response","562","586959","0.0-562.0","","img/set2/S1.jpg","83","1","structured_incentive","83","random,structured_incentive,structured_normal,structured_load","2,1,3,4,2,3","true","",""
"null","","html-keyboard-response","563","587312","0.0-563.0","","<img src=""img/set2/S1.jpg"" width=""540"" height = ""360"" style=""border:16px solid Violet"">","null","","","","","","","",""
"null","","html-keyboard-response","564","587513","0.0-564.0","","","null","","","","","","","",""
"580.4000000059605","","image-keyboard-response","565","588095","0.0-565.0","","img/set2/S3.jpg","72","3","structured_incentive","72","random,structured_incentive,structured_normal,structured_load","2,1,3,4,2,3","true","",""
"null","","html-keyboard-response","566","588448","0.0-566.0","","<img src=""img/set2/S3.jpg"" width=""540"" height = ""360"" style=""border:16px solid orange"">","null","","","","","","","",""
"null","","html-keyboard-response","567","588652","0.0-567.0","","","null","","","","","","","",""
"785.2999999821186","","image-keyboard-response","568","589438","0.0-568.0","","img/set2/S4.jpg","74","4","structured_incentive","74","random,structured_incentive,structured_normal,structured_load","2,1,3,4,2,3","true","",""
"null","","html-keyboard-response","569","589790","0.0-569.0","","<img src=""img/set2/S4.jpg"" width=""540"" height = ""360"" style=""border:16px solid orange"">","null","","","","","","","",""
"null","","html-keyboard-response","570","589992","0.0-570.0","","","null","","","","","","","",""
"941.9000000059605","","image-keyboard-response","571","590935","0.0-571.0","","img/set2/S2.jpg","68","2","structured_incentive","68","random,structured_incentive,structured_normal,structured_load","2,1,3,4,2,3","true","",""
"null","","html-keyboard-response","572","591288","0.0-572.0","","<img src=""img/set2/S2.jpg"" width=""540"" height = ""360"" style=""border:16px solid orange"">","null","","","","","","","",""
"null","","html-keyboard-response","573","591489","0.0-573.0","","","null","","","","","","","",""
"721.1999999880791","","image-keyboard-response","574","592211","0.0-574.0","","img/set2/S1.jpg","83","1","structured_incentive","83","random,structured_incentive,structured_normal,structured_load","2,1,3,4,2,3","true","",""
"null","","html-keyboard-response","575","592564","0.0-575.0","","<img src=""img/set2/S1.jpg"" width=""540"" height = ""360"" style=""border:16px solid Violet"">","null","","","","","","","",""
"null","","html-keyboard-response","576","592765","0.0-576.0","","","null","","","","","","","",""
"1056.4000000059605","","image-keyboard-response","577","593823","0.0-577.0","","img/set2/S3.jpg","72","3","structured_incentive","72","random,structured_incentive,structured_normal,structured_load","2,1,3,4,2,3","true","",""
"null","","html-keyboard-response","578","594175","0.0-578.0","","<img src=""img/set2/S3.jpg"" width=""540"" height = ""360"" style=""border:16px solid orange"">","null","","","","","","","",""
"null","","html-keyboard-response","579","594376","0.0-579.0","","","null","","","","","","","",""
"1055.2999999821186","","image-keyboard-response","580","595433","0.0-580.0","","img/set2/S4.jpg","74","4","structured_incentive","74","random,structured_incentive,structured_normal,structured_load","2,1,3,4,2,3","true","",""
"null","","html-keyboard-response","581","595785","0.0-581.0","","<img src=""img/set2/S4.jpg"" width=""540"" height = ""360"" style=""border:16px solid orange"">","null","","","","","","","",""
"null","","html-keyboard-response","582","595986","0.0-582.0","","","null","","","","","","","",""
"971.1999999880791","","image-keyboard-response","583","596958","0.0-583.0","","img/set2/S2.jpg","68","2","structured_incentive","68","random,structured_incentive,structured_normal,structured_load","2,1,3,4,2,3","true","",""
"null","","html-keyboard-response","584","597316","0.0-584.0","","<img src=""img/set2/S2.jpg"" width=""540"" height = ""360"" style=""border:16px solid orange"">","null","","","","","","","",""
"null","","html-keyboard-response","585","597518","0.0-585.0","","","null","","","","","","","",""
"695.0999999940395","","image-keyboard-response","586","598214","0.0-586.0","","img/set2/S1.jpg","83","1","structured_incentive","83","random,structured_incentive,structured_normal,structured_load","2,1,3,4,2,3","true","",""
"null","","html-keyboard-response","587","598567","0.0-587.0","","<img src=""img/set2/S1.jpg"" width=""540"" height = ""360"" style=""border:16px solid Violet"">","null","","","","","","","",""
"null","","html-keyboard-response","588","598769","0.0-588.0","","","null","","","","","","","",""
"924.1999999880791","","image-keyboard-response","589","599694","0.0-589.0","","img/set2/S2.jpg","68","2","structured_incentive","68","random,structured_incentive,structured_normal,structured_load","2,1,3,4,2,3","true","",""
"null","","html-keyboard-response","590","600047","0.0-590.0","","<img src=""img/set2/S2.jpg"" width=""540"" height = ""360"" style=""border:16px solid orange"">","null","","","","","","","",""
"null","","html-keyboard-response","591","600248","0.0-591.0","","","null","","","","","","","",""
"1316.5999999940395","","image-keyboard-response","592","601566","0.0-592.0","","img/set2/S1.jpg","83","1","structured_incentive","83","random,structured_incentive,structured_normal,structured_load","2,1,3,4,2,3","true","",""
"null","","html-keyboard-response","593","601918","0.0-593.0","","<img src=""img/set2/S1.jpg"" width=""540"" height = ""360"" style=""border:16px solid Violet"">","null","","","","","","","",""
"null","","html-keyboard-response","594","602120","0.0-594.0","","","null","","","","","","","",""
"876.5999999940395","","image-keyboard-response","595","603002","0.0-595.0","","img/set2/S4.jpg","74","4","structured_incentive","74","random,structured_incentive,structured_normal,structured_load","2,1,3,4,2,3","true","",""
