"rt","url","trial_type","trial_index","time_elapsed","internal_node_id","assignmentID","mturkID","hitID","view_history","stimulus","key_press","state","test_part","correct_response","order_block","order_chunk","order_freq","correct","responses","question_order","bonus"
"16940.600000023842","consent.html","external-html","0","17039","0.0-0.0","3AQF3RZ5594XP6IG3M3K10M4CYO6FY","A3UPZ88FI1EJC","3ZXV7Q5FJBAKJ3TNMBBLYHIS0EBCFB","","","","","","","","","","","","",""
"97480.80000001192","","instructions","1","114522","0.0-1.0","3AQF3RZ5594XP6IG3M3K10M4CYO6FY","A3UPZ88FI1EJC","3ZXV7Q5FJBAKJ3TNMBBLYHIS0EBCFB","[{""page_index"":0,""viewing_time"":8130.200000047684},{""page_index"":1,""viewing_time"":8515.399999976158},{""page_index"":2,""viewing_time"":12322.199999988079},{""page_index"":3,""viewing_time"":20156.400000035763},{""page_index"":4,""viewing_time"":12475.899999976158},{""page_index"":5,""viewing_time"":21360.19999998808},{""page_index"":6,""viewing_time"":14519.600000023842}]","","","","","","","","","","","",""
"13812.799999952316","","instructions","2","128335","0.0-2.0","3AQF3RZ5594XP6IG3M3K10M4CYO6FY","A3UPZ88FI1EJC","3ZXV7Q5FJBAKJ3TNMBBLYHIS0EBCFB","[{""page_index"":0,""viewing_time"":13812.399999976158}]","","","","","","","","","","","",""
"17928.19999998808","","instructions","3","146265","0.0-3.0","3AQF3RZ5594XP6IG3M3K10M4CYO6FY","A3UPZ88FI1EJC","3ZXV7Q5FJBAKJ3TNMBBLYHIS0EBCFB","[{""page_index"":0,""viewing_time"":11229.299999952316},{""page_index"":1,""viewing_time"":6698.600000023842}]","","","","","","","","","","","",""
"null","","image-keyboard-response","4","148769","0.0-4.0","3AQF3RZ5594XP6IG3M3K10M4CYO6FY","A3UPZ88FI1EJC","3ZXV7Q5FJBAKJ3TNMBBLYHIS0EBCFB","","img/set1/S1.jpg","null","1","structured_incentive","83","structured_incentive,random,structured_normal,structured_load","2,3,4,2,1,2","1,4,3,2","false","","",""
"null","","html-keyboard-response","5","149125","0.0-5.0","3AQF3RZ5594XP6IG3M3K10M4CYO6FY","A3UPZ88FI1EJC","3ZXV7Q5FJBAKJ3TNMBBLYHIS0EBCFB","","<img src=""img/set1/S1.jpg"" width=""540"" height = ""360"">","null","","","","","","","","","",""
"null","","html-keyboard-response","6","149328","0.0-6.0","3AQF3RZ5594XP6IG3M3K10M4CYO6FY","A3UPZ88FI1EJC","3ZXV7Q5FJBAKJ3TNMBBLYHIS0EBCFB","","","null","","","","","","","","","",""
"null","","image-keyboard-response","7","151834","0.0-7.0","3AQF3RZ5594XP6IG3M3K10M4CYO6FY","A3UPZ88FI1EJC","3ZXV7Q5FJBAKJ3TNMBBLYHIS0EBCFB","","img/set1/S2.jpg","null","2","structured_incentive","68","structured_incentive,random,structured_normal,structured_load","2,3,4,2,1,2","1,4,3,2","false","","",""
"null","","html-keyboard-response","8","152187","0.0-8.0","3AQF3RZ5594XP6IG3M3K10M4CYO6FY","A3UPZ88FI1EJC","3ZXV7Q5FJBAKJ3TNMBBLYHIS0EBCFB","","<img src=""img/set1/S2.jpg"" width=""540"" height = ""360"">","null","","","","","","","","","",""
"null","","html-keyboard-response","9","152390","0.0-9.0","3AQF3RZ5594XP6IG3M3K10M4CYO6FY","A3UPZ88FI1EJC","3ZXV7Q5FJBAKJ3TNMBBLYHIS0EBCFB","","","null","","","","","","","","","",""
"null","","image-keyboard-response","10","154894","0.0-10.0","3AQF3RZ5594XP6IG3M3K10M4CYO6FY","A3UPZ88FI1EJC","3ZXV7Q5FJBAKJ3TNMBBLYHIS0EBCFB","","img/set1/S3.jpg","null","3","structured_incentive","72","structured_incentive,random,structured_normal,structured_load","2,3,4,2,1,2","1,4,3,2","false","","",""
"null","","html-keyboard-response","11","155247","0.0-11.0","3AQF3RZ5594XP6IG3M3K10M4CYO6FY","A3UPZ88FI1EJC","3ZXV7Q5FJBAKJ3TNMBBLYHIS0EBCFB","","<img src=""img/set1/S3.jpg"" width=""540"" height = ""360"">","null","","","","","","","","","",""
"null","","html-keyboard-response","12","155450","0.0-12.0","3AQF3RZ5594XP6IG3M3K10M4CYO6FY","A3UPZ88FI1EJC","3ZXV7Q5FJBAKJ3TNMBBLYHIS0EBCFB","","","null","","","","","","","","","",""
"null","","image-keyboard-response","13","157953","0.0-13.0","3AQF3RZ5594XP6IG3M3K10M4CYO6FY","A3UPZ88FI1EJC","3ZXV7Q5FJBAKJ3TNMBBLYHIS0EBCFB","","img/set1/S1.jpg","null","1","structured_incentive","83","structured_incentive,random,structured_normal,structured_load","2,3,4,2,1,2","1,4,3,2","false","","",""
"null","","html-keyboard-response","14","158307","0.0-14.0","3AQF3RZ5594XP6IG3M3K10M4CYO6FY","A3UPZ88FI1EJC","3ZXV7Q5FJBAKJ3TNMBBLYHIS0EBCFB","","<img src=""img/set1/S1.jpg"" width=""540"" height = ""360"">","null","","","","","","","","","",""
"null","","html-keyboard-response","15","158509","0.0-15.0","3AQF3RZ5594XP6IG3M3K10M4CYO6FY","A3UPZ88FI1EJC","3ZXV7Q5FJBAKJ3TNMBBLYHIS0EBCFB","","","null","","","","","","","","","",""
"null","","image-keyboard-response","16","161012","0.0-16.0","3AQF3RZ5594XP6IG3M3K10M4CYO6FY","A3UPZ88FI1EJC","3ZXV7Q5FJBAKJ3TNMBBLYHIS0EBCFB","","img/set1/S1.jpg","null","1","structured_incentive","83","structured_incentive,random,structured_normal,structured_load","2,3,4,2,1,2","1,4,3,2","false","","",""
"null","","html-keyboard-response","17","161366","0.0-17.0","3AQF3RZ5594XP6IG3M3K10M4CYO6FY","A3UPZ88FI1EJC","3ZXV7Q5FJBAKJ3TNMBBLYHIS0EBCFB","","<img src=""img/set1/S1.jpg"" width=""540"" height = ""360"">","null","","","","","","","","","",""
"null","","html-keyboard-response","18","161569","0.0-18.0","3AQF3RZ5594XP6IG3M3K10M4CYO6FY","A3UPZ88FI1EJC","3ZXV7Q5FJBAKJ3TNMBBLYHIS0EBCFB","","","null","","","","","","","","","",""
"null","","image-keyboard-response","19","164073","0.0-19.0","3AQF3RZ5594XP6IG3M3K10M4CYO6FY","A3UPZ88FI1EJC","3ZXV7Q5FJBAKJ3TNMBBLYHIS0EBCFB","","img/set1/S2.jpg","null","2","structured_incentive","68","structured_incentive,random,structured_normal,structured_load","2,3,4,2,1,2","1,4,3,2","false","","",""
"null","","html-keyboard-response","20","164428","0.0-20.0","3AQF3RZ5594XP6IG3M3K10M4CYO6FY","A3UPZ88FI1EJC","3ZXV7Q5FJBAKJ3TNMBBLYHIS0EBCFB","","<img src=""img/set1/S2.jpg"" width=""540"" height = ""360"">","null","","","","","","","","","",""
"null","","html-keyboard-response","21","164630","0.0-21.0","3AQF3RZ5594XP6IG3M3K10M4CYO6FY","A3UPZ88FI1EJC","3ZXV7Q5FJBAKJ3TNMBBLYHIS0EBCFB","","","null","","","","","","","","","",""
"1185.4000000357628","","image-keyboard-response","22","165818","0.0-22.0","3AQF3RZ5594XP6IG3M3K10M4CYO6FY","A3UPZ88FI1EJC","3ZXV7Q5FJBAKJ3TNMBBLYHIS0EBCFB","","img/set1/S4.jpg","68","4","structured_incentive","74","structured_incentive,random,structured_normal,structured_load","2,3,4,2,1,2","1,4,3,2","false","","",""
"null","","html-keyboard-response","23","166173","0.0-23.0","3AQF3RZ5594XP6IG3M3K10M4CYO6FY","A3UPZ88FI1EJC","3ZXV7Q5FJBAKJ3TNMBBLYHIS0EBCFB","","<img src=""img/set1/S4.jpg"" width=""540"" height = ""360"">","null","","","","","","","","","",""
"null","","html-keyboard-response","24","166389","0.0-24.0","3AQF3RZ5594XP6IG3M3K10M4CYO6FY","A3UPZ88FI1EJC","3ZXV7Q5FJBAKJ3TNMBBLYHIS0EBCFB","","","null","","","","","","","","","",""
"554.8999999761581","","image-keyboard-response","25","166946","0.0-25.0","3AQF3RZ5594XP6IG3M3K10M4CYO6FY","A3UPZ88FI1EJC","3ZXV7Q5FJBAKJ3TNMBBLYHIS0EBCFB","","img/set1/S4.jpg","68","4","structured_incentive","74","structured_incentive,random,structured_normal,structured_load","2,3,4,2,1,2","1,4,3,2","false","","",""
"null","","html-keyboard-response","26","167299","0.0-26.0","3AQF3RZ5594XP6IG3M3K10M4CYO6FY","A3UPZ88FI1EJC","3ZXV7Q5FJBAKJ3TNMBBLYHIS0EBCFB","","<img src=""img/set1/S4.jpg"" width=""540"" height = ""360"">","null","","","","","","","","","",""
"null","","html-keyboard-response","27","167501","0.0-27.0","3AQF3RZ5594XP6IG3M3K10M4CYO6FY","A3UPZ88FI1EJC","3ZXV7Q5FJBAKJ3TNMBBLYHIS0EBCFB","","","null","","","","","","","","","",""
"null","","image-keyboard-response","28","170004","0.0-28.0","3AQF3RZ5594XP6IG3M3K10M4CYO6FY","A3UPZ88FI1EJC","3ZXV7Q5FJBAKJ3TNMBBLYHIS0EBCFB","","img/set1/S3.jpg","null","3","structured_incentive","72","structured_incentive,random,structured_normal,structured_load","2,3,4,2,1,2","1,4,3,2","false","","",""
"null","","html-keyboard-response","29","170358","0.0-29.0","3AQF3RZ5594XP6IG3M3K10M4CYO6FY","A3UPZ88FI1EJC","3ZXV7Q5FJBAKJ3TNMBBLYHIS0EBCFB","","<img src=""img/set1/S3.jpg"" width=""540"" height = ""360"">","null","","","","","","","","","",""
"null","","html-keyboard-response","30","170560","0.0-30.0","3AQF3RZ5594XP6IG3M3K10M4CYO6FY","A3UPZ88FI1EJC","3ZXV7Q5FJBAKJ3TNMBBLYHIS0EBCFB","","","null","","","","","","","","","",""
"null","","image-keyboard-response","31","173064","0.0-31.0","3AQF3RZ5594XP6IG3M3K10M4CYO6FY","A3UPZ88FI1EJC","3ZXV7Q5FJBAKJ3TNMBBLYHIS0EBCFB","","img/set1/S1.jpg","null","1","structured_incentive","83","structured_incentive,random,structured_normal,structured_load","2,3,4,2,1,2","1,4,3,2","false","","",""
"null","","html-keyboard-response","32","173418","0.0-32.0","3AQF3RZ5594XP6IG3M3K10M4CYO6FY","A3UPZ88FI1EJC","3ZXV7Q5FJBAKJ3TNMBBLYHIS0EBCFB","","<img src=""img/set1/S1.jpg"" width=""540"" height = ""360"">","null","","","","","","","","","",""
"null","","html-keyboard-response","33","173620","0.0-33.0","3AQF3RZ5594XP6IG3M3K10M4CYO6FY","A3UPZ88FI1EJC","3ZXV7Q5FJBAKJ3TNMBBLYHIS0EBCFB","","","null","","","","","","","","","",""
"null","","image-keyboard-response","34","176123","0.0-34.0","3AQF3RZ5594XP6IG3M3K10M4CYO6FY","A3UPZ88FI1EJC","3ZXV7Q5FJBAKJ3TNMBBLYHIS0EBCFB","","img/set1/S1.jpg","null","1","structured_incentive","83","structured_incentive,random,structured_normal,structured_load","2,3,4,2,1,2","1,4,3,2","false","","",""
"null","","html-keyboard-response","35","176476","0.0-35.0","3AQF3RZ5594XP6IG3M3K10M4CYO6FY","A3UPZ88FI1EJC","3ZXV7Q5FJBAKJ3TNMBBLYHIS0EBCFB","","<img src=""img/set1/S1.jpg"" width=""540"" height = ""360"">","null","","","","","","","","","",""
"null","","html-keyboard-response","36","176678","0.0-36.0","3AQF3RZ5594XP6IG3M3K10M4CYO6FY","A3UPZ88FI1EJC","3ZXV7Q5FJBAKJ3TNMBBLYHIS0EBCFB","","","null","","","","","","","","","",""
"912.8000000119209","","image-keyboard-response","37","177594","0.0-37.0","3AQF3RZ5594XP6IG3M3K10M4CYO6FY","A3UPZ88FI1EJC","3ZXV7Q5FJBAKJ3TNMBBLYHIS0EBCFB","","img/set1/S4.jpg","72","4","structured_incentive","74","structured_incentive,random,structured_normal,structured_load","2,3,4,2,1,2","1,4,3,2","false","","",""
"null","","html-keyboard-response","38","177947","0.0-38.0","3AQF3RZ5594XP6IG3M3K10M4CYO6FY","A3UPZ88FI1EJC","3ZXV7Q5FJBAKJ3TNMBBLYHIS0EBCFB","","<img src=""img/set1/S4.jpg"" width=""540"" height = ""360"">","null","","","","","","","","","",""
"null","","html-keyboard-response","39","178150","0.0-39.0","3AQF3RZ5594XP6IG3M3K10M4CYO6FY","A3UPZ88FI1EJC","3ZXV7Q5FJBAKJ3TNMBBLYHIS0EBCFB","","","null","","","","","","","","","",""
"null","","image-keyboard-response","40","180653","0.0-40.0","3AQF3RZ5594XP6IG3M3K10M4CYO6FY","A3UPZ88FI1EJC","3ZXV7Q5FJBAKJ3TNMBBLYHIS0EBCFB","","img/set1/S1.jpg","null","1","structured_incentive","83","structured_incentive,random,structured_normal,structured_load","2,3,4,2,1,2","1,4,3,2","false","","",""
"null","","html-keyboard-response","41","181006","0.0-41.0","3AQF3RZ5594XP6IG3M3K10M4CYO6FY","A3UPZ88FI1EJC","3ZXV7Q5FJBAKJ3TNMBBLYHIS0EBCFB","","<img src=""img/set1/S1.jpg"" width=""540"" height = ""360"">","null","","","","","","","","","",""
"null","","html-keyboard-response","42","181209","0.0-42.0","3AQF3RZ5594XP6IG3M3K10M4CYO6FY","A3UPZ88FI1EJC","3ZXV7Q5FJBAKJ3TNMBBLYHIS0EBCFB","","","null","","","","","","","","","",""
"339.69999998807907","","image-keyboard-response","43","181551","0.0-43.0","3AQF3RZ5594XP6IG3M3K10M4CYO6FY","A3UPZ88FI1EJC","3ZXV7Q5FJBAKJ3TNMBBLYHIS0EBCFB","","img/set1/S4.jpg","72","4","structured_incentive","74","structured_incentive,random,structured_normal,structured_load","2,3,4,2,1,2","1,4,3,2","false","","",""
"null","","html-keyboard-response","44","181904","0.0-44.0","3AQF3RZ5594XP6IG3M3K10M4CYO6FY","A3UPZ88FI1EJC","3ZXV7Q5FJBAKJ3TNMBBLYHIS0EBCFB","","<img src=""img/set1/S4.jpg"" width=""540"" height = ""360"">","null","","","","","","","","","",""
"null","","html-keyboard-response","45","182106","0.0-45.0","3AQF3RZ5594XP6IG3M3K10M4CYO6FY","A3UPZ88FI1EJC","3ZXV7Q5FJBAKJ3TNMBBLYHIS0EBCFB","","","null","","","","","","","","","",""
"null","","image-keyboard-response","46","184609","0.0-46.0","3AQF3RZ5594XP6IG3M3K10M4CYO6FY","A3UPZ88FI1EJC","3ZXV7Q5FJBAKJ3TNMBBLYHIS0EBCFB","","img/set1/S1.jpg","null","1","structured_incentive","83","structured_incentive,random,structured_normal,structured_load","2,3,4,2,1,2","1,4,3,2","false","","",""
"null","","html-keyboard-response","47","184963","0.0-47.0","3AQF3RZ5594XP6IG3M3K10M4CYO6FY","A3UPZ88FI1EJC","3ZXV7Q5FJBAKJ3TNMBBLYHIS0EBCFB","","<img src=""img/set1/S1.jpg"" width=""540"" height = ""360"">","null","","","","","","","","","",""
"null","","html-keyboard-response","48","185166","0.0-48.0","3AQF3RZ5594XP6IG3M3K10M4CYO6FY","A3UPZ88FI1EJC","3ZXV7Q5FJBAKJ3TNMBBLYHIS0EBCFB","","","null","","","","","","","","","",""
"319.19999998807907","","image-keyboard-response","49","185488","0.0-49.0","3AQF3RZ5594XP6IG3M3K10M4CYO6FY","A3UPZ88FI1EJC","3ZXV7Q5FJBAKJ3TNMBBLYHIS0EBCFB","","img/set1/S3.jpg","83","3","structured_incentive","72","structured_incentive,random,structured_normal,structured_load","2,3,4,2,1,2","1,4,3,2","false","","",""
"null","","html-keyboard-response","50","185841","0.0-50.0","3AQF3RZ5594XP6IG3M3K10M4CYO6FY","A3UPZ88FI1EJC","3ZXV7Q5FJBAKJ3TNMBBLYHIS0EBCFB","","<img src=""img/set1/S3.jpg"" width=""540"" height = ""360"">","null","","","","","","","","","",""
"null","","html-keyboard-response","51","186043","0.0-51.0","3AQF3RZ5594XP6IG3M3K10M4CYO6FY","A3UPZ88FI1EJC","3ZXV7Q5FJBAKJ3TNMBBLYHIS0EBCFB","","","null","","","","","","","","","",""
"null","","image-keyboard-response","52","188547","0.0-52.0","3AQF3RZ5594XP6IG3M3K10M4CYO6FY","A3UPZ88FI1EJC","3ZXV7Q5FJBAKJ3TNMBBLYHIS0EBCFB","","img/set1/S3.jpg","null","3","structured_incentive","72","structured_incentive,random,structured_normal,structured_load","2,3,4,2,1,2","1,4,3,2","false","","",""
"null","","html-keyboard-response","53","188902","0.0-53.0","3AQF3RZ5594XP6IG3M3K10M4CYO6FY","A3UPZ88FI1EJC","3ZXV7Q5FJBAKJ3TNMBBLYHIS0EBCFB","","<img src=""img/set1/S3.jpg"" width=""540"" height = ""360"">","null","","","","","","","","","",""
"null","","html-keyboard-response","54","189104","0.0-54.0","3AQF3RZ5594XP6IG3M3K10M4CYO6FY","A3UPZ88FI1EJC","3ZXV7Q5FJBAKJ3TNMBBLYHIS0EBCFB","","","null","","","","","","","","","",""
"651.3000000119209","","image-keyboard-response","55","189757","0.0-55.0","3AQF3RZ5594XP6IG3M3K10M4CYO6FY","A3UPZ88FI1EJC","3ZXV7Q5FJBAKJ3TNMBBLYHIS0EBCFB","","img/set1/S4.jpg","74","4","structured_incentive","74","structured_incentive,random,structured_normal,structured_load","2,3,4,2,1,2","1,4,3,2","true","","",""
"null","","html-keyboard-response","56","190112","0.0-56.0","3AQF3RZ5594XP6IG3M3K10M4CYO6FY","A3UPZ88FI1EJC","3ZXV7Q5FJBAKJ3TNMBBLYHIS0EBCFB","","<img src=""img/set1/S4.jpg"" width=""540"" height = ""360"" style=""border:16px solid Violet"">","null","","","","","","","","","",""
"null","","html-keyboard-response","57","190314","0.0-57.0","3AQF3RZ5594XP6IG3M3K10M4CYO6FY","A3UPZ88FI1EJC","3ZXV7Q5FJBAKJ3TNMBBLYHIS0EBCFB","","","null","","","","","","","","","",""
"null","","image-keyboard-response","58","192816","0.0-58.0","3AQF3RZ5594XP6IG3M3K10M4CYO6FY","A3UPZ88FI1EJC","3ZXV7Q5FJBAKJ3TNMBBLYHIS0EBCFB","","img/set1/S2.jpg","null","2","structured_incentive","68","structured_incentive,random,structured_normal,structured_load","2,3,4,2,1,2","1,4,3,2","false","","",""
"null","","html-keyboard-response","59","193169","0.0-59.0","3AQF3RZ5594XP6IG3M3K10M4CYO6FY","A3UPZ88FI1EJC","3ZXV7Q5FJBAKJ3TNMBBLYHIS0EBCFB","","<img src=""img/set1/S2.jpg"" width=""540"" height = ""360"">","null","","","","","","","","","",""
"null","","html-keyboard-response","60","193372","0.0-60.0","3AQF3RZ5594XP6IG3M3K10M4CYO6FY","A3UPZ88FI1EJC","3ZXV7Q5FJBAKJ3TNMBBLYHIS0EBCFB","","","null","","","","","","","","","",""
"418.5","","image-keyboard-response","61","193792","0.0-61.0","3AQF3RZ5594XP6IG3M3K10M4CYO6FY","A3UPZ88FI1EJC","3ZXV7Q5FJBAKJ3TNMBBLYHIS0EBCFB","","img/set1/S4.jpg","74","4","structured_incentive","74","structured_incentive,random,structured_normal,structured_load","2,3,4,2,1,2","1,4,3,2","true","","",""
"null","","html-keyboard-response","62","194145","0.0-62.0","3AQF3RZ5594XP6IG3M3K10M4CYO6FY","A3UPZ88FI1EJC","3ZXV7Q5FJBAKJ3TNMBBLYHIS0EBCFB","","<img src=""img/set1/S4.jpg"" width=""540"" height = ""360"" style=""border:16px solid Violet"">","null","","","","","","","","","",""
"null","","html-keyboard-response","63","194348","0.0-63.0","3AQF3RZ5594XP6IG3M3K10M4CYO6FY","A3UPZ88FI1EJC","3ZXV7Q5FJBAKJ3TNMBBLYHIS0EBCFB","","","null","","","","","","","","","",""
"null","","image-keyboard-response","64","196851","0.0-64.0","3AQF3RZ5594XP6IG3M3K10M4CYO6FY","A3UPZ88FI1EJC","3ZXV7Q5FJBAKJ3TNMBBLYHIS0EBCFB","","img/set1/S1.jpg","null","1","structured_incentive","83","structured_incentive,random,structured_normal,structured_load","2,3,4,2,1,2","1,4,3,2","false","","",""
"null","","html-keyboard-response","65","197206","0.0-65.0","3AQF3RZ5594XP6IG3M3K10M4CYO6FY","A3UPZ88FI1EJC","3ZXV7Q5FJBAKJ3TNMBBLYHIS0EBCFB","","<img src=""img/set1/S1.jpg"" width=""540"" height = ""360"">","null","","","","","","","","","",""
"null","","html-keyboard-response","66","197408","0.0-66.0","3AQF3RZ5594XP6IG3M3K10M4CYO6FY","A3UPZ88FI1EJC","3ZXV7Q5FJBAKJ3TNMBBLYHIS0EBCFB","","","null","","","","","","","","","",""
"null","","image-keyboard-response","67","199910","0.0-67.0","3AQF3RZ5594XP6IG3M3K10M4CYO6FY","A3UPZ88FI1EJC","3ZXV7Q5FJBAKJ3TNMBBLYHIS0EBCFB","","img/set1/S1.jpg","null","1","structured_incentive","83","structured_incentive,random,structured_normal,structured_load","2,3,4,2,1,2","1,4,3,2","false","","",""
"null","","html-keyboard-response","68","200264","0.0-68.0","3AQF3RZ5594XP6IG3M3K10M4CYO6FY","A3UPZ88FI1EJC","3ZXV7Q5FJBAKJ3TNMBBLYHIS0EBCFB","","<img src=""img/set1/S1.jpg"" width=""540"" height = ""360"">","null","","","","","","","","","",""
"null","","html-keyboard-response","69","200465","0.0-69.0","3AQF3RZ5594XP6IG3M3K10M4CYO6FY","A3UPZ88FI1EJC","3ZXV7Q5FJBAKJ3TNMBBLYHIS0EBCFB","","","null","","","","","","","","","",""
"404.0999999642372","","image-keyboard-response","70","200876","0.0-70.0","3AQF3RZ5594XP6IG3M3K10M4CYO6FY","A3UPZ88FI1EJC","3ZXV7Q5FJBAKJ3TNMBBLYHIS0EBCFB","","img/set1/S4.jpg","74","4","structured_incentive","74","structured_incentive,random,structured_normal,structured_load","2,3,4,2,1,2","1,4,3,2","true","","",""
"null","","html-keyboard-response","71","201230","0.0-71.0","3AQF3RZ5594XP6IG3M3K10M4CYO6FY","A3UPZ88FI1EJC","3ZXV7Q5FJBAKJ3TNMBBLYHIS0EBCFB","","<img src=""img/set1/S4.jpg"" width=""540"" height = ""360"" style=""border:16px solid Violet"">","null","","","","","","","","","",""
"null","","html-keyboard-response","72","201431","0.0-72.0","3AQF3RZ5594XP6IG3M3K10M4CYO6FY","A3UPZ88FI1EJC","3ZXV7Q5FJBAKJ3TNMBBLYHIS0EBCFB","","","null","","","","","","","","","",""
"null","","image-keyboard-response","73","203935","0.0-73.0","3AQF3RZ5594XP6IG3M3K10M4CYO6FY","A3UPZ88FI1EJC","3ZXV7Q5FJBAKJ3TNMBBLYHIS0EBCFB","","img/set1/S1.jpg","null","1","structured_incentive","83","structured_incentive,random,structured_normal,structured_load","2,3,4,2,1,2","1,4,3,2","false","","",""
"null","","html-keyboard-response","74","204289","0.0-74.0","3AQF3RZ5594XP6IG3M3K10M4CYO6FY","A3UPZ88FI1EJC","3ZXV7Q5FJBAKJ3TNMBBLYHIS0EBCFB","","<img src=""img/set1/S1.jpg"" width=""540"" height = ""360"">","null","","","","","","","","","",""
"null","","html-keyboard-response","75","204491","0.0-75.0","3AQF3RZ5594XP6IG3M3K10M4CYO6FY","A3UPZ88FI1EJC","3ZXV7Q5FJBAKJ3TNMBBLYHIS0EBCFB","","","null","","","","","","","","","",""
"null","","image-keyboard-response","76","206995","0.0-76.0","3AQF3RZ5594XP6IG3M3K10M4CYO6FY","A3UPZ88FI1EJC","3ZXV7Q5FJBAKJ3TNMBBLYHIS0EBCFB","","img/set1/S2.jpg","null","2","structured_incentive","68","structured_incentive,random,structured_normal,structured_load","2,3,4,2,1,2","1,4,3,2","false","","",""
"null","","html-keyboard-response","77","207348","0.0-77.0","3AQF3RZ5594XP6IG3M3K10M4CYO6FY","A3UPZ88FI1EJC","3ZXV7Q5FJBAKJ3TNMBBLYHIS0EBCFB","","<img src=""img/set1/S2.jpg"" width=""540"" height = ""360"">","null","","","","","","","","","",""
"null","","html-keyboard-response","78","207550","0.0-78.0","3AQF3RZ5594XP6IG3M3K10M4CYO6FY","A3UPZ88FI1EJC","3ZXV7Q5FJBAKJ3TNMBBLYHIS0EBCFB","","","null","","","","","","","","","",""
"null","","image-keyboard-response","79","210053","0.0-79.0","3AQF3RZ5594XP6IG3M3K10M4CYO6FY","A3UPZ88FI1EJC","3ZXV7Q5FJBAKJ3TNMBBLYHIS0EBCFB","","img/set1/S3.jpg","null","3","structured_incentive","72","structured_incentive,random,structured_normal,structured_load","2,3,4,2,1,2","1,4,3,2","false","","",""
"null","","html-keyboard-response","80","210406","0.0-80.0","3AQF3RZ5594XP6IG3M3K10M4CYO6FY","A3UPZ88FI1EJC","3ZXV7Q5FJBAKJ3TNMBBLYHIS0EBCFB","","<img src=""img/set1/S3.jpg"" width=""540"" height = ""360"">","null","","","","","","","","","",""
"null","","html-keyboard-response","81","210608","0.0-81.0","3AQF3RZ5594XP6IG3M3K10M4CYO6FY","A3UPZ88FI1EJC","3ZXV7Q5FJBAKJ3TNMBBLYHIS0EBCFB","","","null","","","","","","","","","",""
"null","","image-keyboard-response","82","213111","0.0-82.0","3AQF3RZ5594XP6IG3M3K10M4CYO6FY","A3UPZ88FI1EJC","3ZXV7Q5FJBAKJ3TNMBBLYHIS0EBCFB","","img/set1/S2.jpg","null","2","structured_incentive","68","structured_incentive,random,structured_normal,structured_load","2,3,4,2,1,2","1,4,3,2","false","","",""
"null","","html-keyboard-response","83","213465","0.0-83.0","3AQF3RZ5594XP6IG3M3K10M4CYO6FY","A3UPZ88FI1EJC","3ZXV7Q5FJBAKJ3TNMBBLYHIS0EBCFB","","<img src=""img/set1/S2.jpg"" width=""540"" height = ""360"">","null","","","","","","","","","",""
"null","","html-keyboard-response","84","213668","0.0-84.0","3AQF3RZ5594XP6IG3M3K10M4CYO6FY","A3UPZ88FI1EJC","3ZXV7Q5FJBAKJ3TNMBBLYHIS0EBCFB","","","null","","","","","","","","","",""
"null","","image-keyboard-response","85","216170","0.0-85.0","3AQF3RZ5594XP6IG3M3K10M4CYO6FY","A3UPZ88FI1EJC","3ZXV7Q5FJBAKJ3TNMBBLYHIS0EBCFB","","img/set1/S3.jpg","null","3","structured_incentive","72","structured_incentive,random,structured_normal,structured_load","2,3,4,2,1,2","1,4,3,2","false","","",""
"null","","html-keyboard-response","86","216524","0.0-86.0","3AQF3RZ5594XP6IG3M3K10M4CYO6FY","A3UPZ88FI1EJC","3ZXV7Q5FJBAKJ3TNMBBLYHIS0EBCFB","","<img src=""img/set1/S3.jpg"" width=""540"" height = ""360"">","null","","","","","","","","","",""
"null","","html-keyboard-response","87","216727","0.0-87.0","3AQF3RZ5594XP6IG3M3K10M4CYO6FY","A3UPZ88FI1EJC","3ZXV7Q5FJBAKJ3TNMBBLYHIS0EBCFB","","","null","","","","","","","","","",""
"419.5","","image-keyboard-response","88","217148","0.0-88.0","3AQF3RZ5594XP6IG3M3K10M4CYO6FY","A3UPZ88FI1EJC","3ZXV7Q5FJBAKJ3TNMBBLYHIS0EBCFB","","img/set1/S4.jpg","74","4","structured_incentive","74","structured_incentive,random,structured_normal,structured_load","2,3,4,2,1,2","1,4,3,2","true","","",""
"null","","html-keyboard-response","89","217503","0.0-89.0","3AQF3RZ5594XP6IG3M3K10M4CYO6FY","A3UPZ88FI1EJC","3ZXV7Q5FJBAKJ3TNMBBLYHIS0EBCFB","","<img src=""img/set1/S4.jpg"" width=""540"" height = ""360"" style=""border:16px solid Violet"">","null","","","","","","","","","",""
"null","","html-keyboard-response","90","217705","0.0-90.0","3AQF3RZ5594XP6IG3M3K10M4CYO6FY","A3UPZ88FI1EJC","3ZXV7Q5FJBAKJ3TNMBBLYHIS0EBCFB","","","null","","","","","","","","","",""
"null","","image-keyboard-response","91","220208","0.0-91.0","3AQF3RZ5594XP6IG3M3K10M4CYO6FY","A3UPZ88FI1EJC","3ZXV7Q5FJBAKJ3TNMBBLYHIS0EBCFB","","img/set1/S1.jpg","null","1","structured_incentive","83","structured_incentive,random,structured_normal,structured_load","2,3,4,2,1,2","1,4,3,2","false","","",""
"null","","html-keyboard-response","92","220561","0.0-92.0","3AQF3RZ5594XP6IG3M3K10M4CYO6FY","A3UPZ88FI1EJC","3ZXV7Q5FJBAKJ3TNMBBLYHIS0EBCFB","","<img src=""img/set1/S1.jpg"" width=""540"" height = ""360"">","null","","","","","","","","","",""
"null","","html-keyboard-response","93","220762","0.0-93.0","3AQF3RZ5594XP6IG3M3K10M4CYO6FY","A3UPZ88FI1EJC","3ZXV7Q5FJBAKJ3TNMBBLYHIS0EBCFB","","","null","","","","","","","","","",""
"null","","image-keyboard-response","94","223264","0.0-94.0","3AQF3RZ5594XP6IG3M3K10M4CYO6FY","A3UPZ88FI1EJC","3ZXV7Q5FJBAKJ3TNMBBLYHIS0EBCFB","","img/set1/S2.jpg","null","2","structured_incentive","68","structured_incentive,random,structured_normal,structured_load","2,3,4,2,1,2","1,4,3,2","false","","",""
"null","","html-keyboard-response","95","223617","0.0-95.0","3AQF3RZ5594XP6IG3M3K10M4CYO6FY","A3UPZ88FI1EJC","3ZXV7Q5FJBAKJ3TNMBBLYHIS0EBCFB","","<img src=""img/set1/S2.jpg"" width=""540"" height = ""360"">","null","","","","","","","","","",""
"null","","html-keyboard-response","96","223819","0.0-96.0","3AQF3RZ5594XP6IG3M3K10M4CYO6FY","A3UPZ88FI1EJC","3ZXV7Q5FJBAKJ3TNMBBLYHIS0EBCFB","","","null","","","","","","","","","",""
"null","","image-keyboard-response","97","226322","0.0-97.0","3AQF3RZ5594XP6IG3M3K10M4CYO6FY","A3UPZ88FI1EJC","3ZXV7Q5FJBAKJ3TNMBBLYHIS0EBCFB","","img/set1/S3.jpg","null","3","structured_incentive","72","structured_incentive,random,structured_normal,structured_load","2,3,4,2,1,2","1,4,3,2","false","","",""
"null","","html-keyboard-response","98","226675","0.0-98.0","3AQF3RZ5594XP6IG3M3K10M4CYO6FY","A3UPZ88FI1EJC","3ZXV7Q5FJBAKJ3TNMBBLYHIS0EBCFB","","<img src=""img/set1/S3.jpg"" width=""540"" height = ""360"">","null","","","","","","","","","",""
"null","","html-keyboard-response","99","226877","0.0-99.0","3AQF3RZ5594XP6IG3M3K10M4CYO6FY","A3UPZ88FI1EJC","3ZXV7Q5FJBAKJ3TNMBBLYHIS0EBCFB","","","null","","","","","","","","","",""
"null","","image-keyboard-response","100","229380","0.0-100.0","3AQF3RZ5594XP6IG3M3K10M4CYO6FY","A3UPZ88FI1EJC","3ZXV7Q5FJBAKJ3TNMBBLYHIS0EBCFB","","img/set1/S2.jpg","null","2","structured_incentive","68","structured_incentive,random,structured_normal,structured_load","2,3,4,2,1,2","1,4,3,2","false","","",""
"null","","html-keyboard-response","101","229734","0.0-101.0","3AQF3RZ5594XP6IG3M3K10M4CYO6FY","A3UPZ88FI1EJC","3ZXV7Q5FJBAKJ3TNMBBLYHIS0EBCFB","","<img src=""img/set1/S2.jpg"" width=""540"" height = ""360"">","null","","","","","","","","","",""
"null","","html-keyboard-response","102","229937","0.0-102.0","3AQF3RZ5594XP6IG3M3K10M4CYO6FY","A3UPZ88FI1EJC","3ZXV7Q5FJBAKJ3TNMBBLYHIS0EBCFB","","","null","","","","","","","","","",""
"null","","image-keyboard-response","103","232441","0.0-103.0","3AQF3RZ5594XP6IG3M3K10M4CYO6FY","A3UPZ88FI1EJC","3ZXV7Q5FJBAKJ3TNMBBLYHIS0EBCFB","","img/set1/S3.jpg","null","3","structured_incentive","72","structured_incentive,random,structured_normal,structured_load","2,3,4,2,1,2","1,4,3,2","false","","",""
"null","","html-keyboard-response","104","232795","0.0-104.0","3AQF3RZ5594XP6IG3M3K10M4CYO6FY","A3UPZ88FI1EJC","3ZXV7Q5FJBAKJ3TNMBBLYHIS0EBCFB","","<img src=""img/set1/S3.jpg"" width=""540"" height = ""360"">","null","","","","","","","","","",""
"null","","html-keyboard-response","105","232998","0.0-105.0","3AQF3RZ5594XP6IG3M3K10M4CYO6FY","A3UPZ88FI1EJC","3ZXV7Q5FJBAKJ3TNMBBLYHIS0EBCFB","","","null","","","","","","","","","",""
"418","","image-keyboard-response","106","233418","0.0-106.0","3AQF3RZ5594XP6IG3M3K10M4CYO6FY","A3UPZ88FI1EJC","3ZXV7Q5FJBAKJ3TNMBBLYHIS0EBCFB","","img/set1/S4.jpg","74","4","structured_incentive","74","structured_incentive,random,structured_normal,structured_load","2,3,4,2,1,2","1,4,3,2","true","","",""
"null","","html-keyboard-response","107","233772","0.0-107.0","3AQF3RZ5594XP6IG3M3K10M4CYO6FY","A3UPZ88FI1EJC","3ZXV7Q5FJBAKJ3TNMBBLYHIS0EBCFB","","<img src=""img/set1/S4.jpg"" width=""540"" height = ""360"" style=""border:16px solid Violet"">","null","","","","","","","","","",""
"null","","html-keyboard-response","108","233974","0.0-108.0","3AQF3RZ5594XP6IG3M3K10M4CYO6FY","A3UPZ88FI1EJC","3ZXV7Q5FJBAKJ3TNMBBLYHIS0EBCFB","","","null","","","","","","","","","",""
"null","","image-keyboard-response","109","236477","0.0-109.0","3AQF3RZ5594XP6IG3M3K10M4CYO6FY","A3UPZ88FI1EJC","3ZXV7Q5FJBAKJ3TNMBBLYHIS0EBCFB","","img/set1/S1.jpg","null","1","structured_incentive","83","structured_incentive,random,structured_normal,structured_load","2,3,4,2,1,2","1,4,3,2","false","","",""
"null","","html-keyboard-response","110","236831","0.0-110.0","3AQF3RZ5594XP6IG3M3K10M4CYO6FY","A3UPZ88FI1EJC","3ZXV7Q5FJBAKJ3TNMBBLYHIS0EBCFB","","<img src=""img/set1/S1.jpg"" width=""540"" height = ""360"">","null","","","","","","","","","",""
"null","","html-keyboard-response","111","237034","0.0-111.0","3AQF3RZ5594XP6IG3M3K10M4CYO6FY","A3UPZ88FI1EJC","3ZXV7Q5FJBAKJ3TNMBBLYHIS0EBCFB","","","null","","","","","","","","","",""
"null","","image-keyboard-response","112","239537","0.0-112.0","3AQF3RZ5594XP6IG3M3K10M4CYO6FY","A3UPZ88FI1EJC","3ZXV7Q5FJBAKJ3TNMBBLYHIS0EBCFB","","img/set1/S2.jpg","null","2","structured_incentive","68","structured_incentive,random,structured_normal,structured_load","2,3,4,2,1,2","1,4,3,2","false","","",""
"null","","html-keyboard-response","113","239890","0.0-113.0","3AQF3RZ5594XP6IG3M3K10M4CYO6FY","A3UPZ88FI1EJC","3ZXV7Q5FJBAKJ3TNMBBLYHIS0EBCFB","","<img src=""img/set1/S2.jpg"" width=""540"" height = ""360"">","null","","","","","","","","","",""
"null","","html-keyboard-response","114","240093","0.0-114.0","3AQF3RZ5594XP6IG3M3K10M4CYO6FY","A3UPZ88FI1EJC","3ZXV7Q5FJBAKJ3TNMBBLYHIS0EBCFB","","","null","","","","","","","","","",""
"null","","image-keyboard-response","115","242596","0.0-115.0","3AQF3RZ5594XP6IG3M3K10M4CYO6FY","A3UPZ88FI1EJC","3ZXV7Q5FJBAKJ3TNMBBLYHIS0EBCFB","","img/set1/S3.jpg","null","3","structured_incentive","72","structured_incentive,random,structured_normal,structured_load","2,3,4,2,1,2","1,4,3,2","false","","",""
"null","","html-keyboard-response","116","242951","0.0-116.0","3AQF3RZ5594XP6IG3M3K10M4CYO6FY","A3UPZ88FI1EJC","3ZXV7Q5FJBAKJ3TNMBBLYHIS0EBCFB","","<img src=""img/set1/S3.jpg"" width=""540"" height = ""360"">","null","","","","","","","","","",""
"null","","html-keyboard-response","117","243153","0.0-117.0","3AQF3RZ5594XP6IG3M3K10M4CYO6FY","A3UPZ88FI1EJC","3ZXV7Q5FJBAKJ3TNMBBLYHIS0EBCFB","","","null","","","","","","","","","",""
"null","","image-keyboard-response","118","245656","0.0-118.0","3AQF3RZ5594XP6IG3M3K10M4CYO6FY","A3UPZ88FI1EJC","3ZXV7Q5FJBAKJ3TNMBBLYHIS0EBCFB","","img/set1/S3.jpg","null","3","structured_incentive","72","structured_incentive,random,structured_normal,structured_load","2,3,4,2,1,2","1,4,3,2","false","","",""
"null","","html-keyboard-response","119","246010","0.0-119.0","3AQF3RZ5594XP6IG3M3K10M4CYO6FY","A3UPZ88FI1EJC","3ZXV7Q5FJBAKJ3TNMBBLYHIS0EBCFB","","<img src=""img/set1/S3.jpg"" width=""540"" height = ""360"">","null","","","","","","","","","",""
"null","","html-keyboard-response","120","246212","0.0-120.0","3AQF3RZ5594XP6IG3M3K10M4CYO6FY","A3UPZ88FI1EJC","3ZXV7Q5FJBAKJ3TNMBBLYHIS0EBCFB","","","null","","","","","","","","","",""
"392.19999998807907","","image-keyboard-response","121","246606","0.0-121.0","3AQF3RZ5594XP6IG3M3K10M4CYO6FY","A3UPZ88FI1EJC","3ZXV7Q5FJBAKJ3TNMBBLYHIS0EBCFB","","img/set1/S4.jpg","83","4","structured_incentive","74","structured_incentive,random,structured_normal,structured_load","2,3,4,2,1,2","1,4,3,2","false","","",""
"null","","html-keyboard-response","122","246959","0.0-122.0","3AQF3RZ5594XP6IG3M3K10M4CYO6FY","A3UPZ88FI1EJC","3ZXV7Q5FJBAKJ3TNMBBLYHIS0EBCFB","","<img src=""img/set1/S4.jpg"" width=""540"" height = ""360"">","null","","","","","","","","","",""
"null","","html-keyboard-response","123","247163","0.0-123.0","3AQF3RZ5594XP6IG3M3K10M4CYO6FY","A3UPZ88FI1EJC","3ZXV7Q5FJBAKJ3TNMBBLYHIS0EBCFB","","","null","","","","","","","","","",""
"null","","image-keyboard-response","124","249666","0.0-124.0","3AQF3RZ5594XP6IG3M3K10M4CYO6FY","A3UPZ88FI1EJC","3ZXV7Q5FJBAKJ3TNMBBLYHIS0EBCFB","","img/set1/S1.jpg","null","1","structured_incentive","83","structured_incentive,random,structured_normal,structured_load","2,3,4,2,1,2","1,4,3,2","false","","",""
"null","","html-keyboard-response","125","250021","0.0-125.0","3AQF3RZ5594XP6IG3M3K10M4CYO6FY","A3UPZ88FI1EJC","3ZXV7Q5FJBAKJ3TNMBBLYHIS0EBCFB","","<img src=""img/set1/S1.jpg"" width=""540"" height = ""360"">","null","","","","","","","","","",""
"null","","html-keyboard-response","126","250223","0.0-126.0","3AQF3RZ5594XP6IG3M3K10M4CYO6FY","A3UPZ88FI1EJC","3ZXV7Q5FJBAKJ3TNMBBLYHIS0EBCFB","","","null","","","","","","","","","",""
"null","","image-keyboard-response","127","252726","0.0-127.0","3AQF3RZ5594XP6IG3M3K10M4CYO6FY","A3UPZ88FI1EJC","3ZXV7Q5FJBAKJ3TNMBBLYHIS0EBCFB","","img/set1/S2.jpg","null","2","structured_incentive","68","structured_incentive,random,structured_normal,structured_load","2,3,4,2,1,2","1,4,3,2","false","","",""
"null","","html-keyboard-response","128","253080","0.0-128.0","3AQF3RZ5594XP6IG3M3K10M4CYO6FY","A3UPZ88FI1EJC","3ZXV7Q5FJBAKJ3TNMBBLYHIS0EBCFB","","<img src=""img/set1/S2.jpg"" width=""540"" height = ""360"">","null","","","","","","","","","",""
"null","","html-keyboard-response","129","253284","0.0-129.0","3AQF3RZ5594XP6IG3M3K10M4CYO6FY","A3UPZ88FI1EJC","3ZXV7Q5FJBAKJ3TNMBBLYHIS0EBCFB","","","null","","","","","","","","","",""
"391.5","","image-keyboard-response","130","253678","0.0-130.0","3AQF3RZ5594XP6IG3M3K10M4CYO6FY","A3UPZ88FI1EJC","3ZXV7Q5FJBAKJ3TNMBBLYHIS0EBCFB","","img/set1/S4.jpg","74","4","structured_incentive","74","structured_incentive,random,structured_normal,structured_load","2,3,4,2,1,2","1,4,3,2","true","","",""
"null","","html-keyboard-response","131","254033","0.0-131.0","3AQF3RZ5594XP6IG3M3K10M4CYO6FY","A3UPZ88FI1EJC","3ZXV7Q5FJBAKJ3TNMBBLYHIS0EBCFB","","<img src=""img/set1/S4.jpg"" width=""540"" height = ""360"" style=""border:16px solid Violet"">","null","","","","","","","","","",""
"null","","html-keyboard-response","132","254235","0.0-132.0","3AQF3RZ5594XP6IG3M3K10M4CYO6FY","A3UPZ88FI1EJC","3ZXV7Q5FJBAKJ3TNMBBLYHIS0EBCFB","","","null","","","","","","","","","",""
"null","","image-keyboard-response","133","256738","0.0-133.0","3AQF3RZ5594XP6IG3M3K10M4CYO6FY","A3UPZ88FI1EJC","3ZXV7Q5FJBAKJ3TNMBBLYHIS0EBCFB","","img/set1/S1.jpg","null","1","structured_incentive","83","structured_incentive,random,structured_normal,structured_load","2,3,4,2,1,2","1,4,3,2","false","","",""
"null","","html-keyboard-response","134","257104","0.0-134.0","3AQF3RZ5594XP6IG3M3K10M4CYO6FY","A3UPZ88FI1EJC","3ZXV7Q5FJBAKJ3TNMBBLYHIS0EBCFB","","<img src=""img/set1/S1.jpg"" width=""540"" height = ""360"">","null","","","","","","","","","",""
"null","","html-keyboard-response","135","257307","0.0-135.0","3AQF3RZ5594XP6IG3M3K10M4CYO6FY","A3UPZ88FI1EJC","3ZXV7Q5FJBAKJ3TNMBBLYHIS0EBCFB","","","null","","","","","","","","","",""
"331.9000000357628","","image-keyboard-response","136","257641","0.0-136.0","3AQF3RZ5594XP6IG3M3K10M4CYO6FY","A3UPZ88FI1EJC","3ZXV7Q5FJBAKJ3TNMBBLYHIS0EBCFB","","img/set1/S4.jpg","68","4","structured_incentive","74","structured_incentive,random,structured_normal,structured_load","2,3,4,2,1,2","1,4,3,2","false","","",""
"null","","html-keyboard-response","137","257994","0.0-137.0","3AQF3RZ5594XP6IG3M3K10M4CYO6FY","A3UPZ88FI1EJC","3ZXV7Q5FJBAKJ3TNMBBLYHIS0EBCFB","","<img src=""img/set1/S4.jpg"" width=""540"" height = ""360"">","null","","","","","","","","","",""
"null","","html-keyboard-response","138","258197","0.0-138.0","3AQF3RZ5594XP6IG3M3K10M4CYO6FY","A3UPZ88FI1EJC","3ZXV7Q5FJBAKJ3TNMBBLYHIS0EBCFB","","","null","","","","","","","","","",""
"null","","image-keyboard-response","139","260701","0.0-139.0","3AQF3RZ5594XP6IG3M3K10M4CYO6FY","A3UPZ88FI1EJC","3ZXV7Q5FJBAKJ3TNMBBLYHIS0EBCFB","","img/set1/S1.jpg","null","1","structured_incentive","83","structured_incentive,random,structured_normal,structured_load","2,3,4,2,1,2","1,4,3,2","false","","",""
"null","","html-keyboard-response","140","261056","0.0-140.0","3AQF3RZ5594XP6IG3M3K10M4CYO6FY","A3UPZ88FI1EJC","3ZXV7Q5FJBAKJ3TNMBBLYHIS0EBCFB","","<img src=""img/set1/S1.jpg"" width=""540"" height = ""360"">","null","","","","","","","","","",""
"null","","html-keyboard-response","141","261259","0.0-141.0","3AQF3RZ5594XP6IG3M3K10M4CYO6FY","A3UPZ88FI1EJC","3ZXV7Q5FJBAKJ3TNMBBLYHIS0EBCFB","","","null","","","","","","","","","",""
"null","","image-keyboard-response","142","263763","0.0-142.0","3AQF3RZ5594XP6IG3M3K10M4CYO6FY","A3UPZ88FI1EJC","3ZXV7Q5FJBAKJ3TNMBBLYHIS0EBCFB","","img/set1/S1.jpg","null","1","structured_incentive","83","structured_incentive,random,structured_normal,structured_load","2,3,4,2,1,2","1,4,3,2","false","","",""
"null","","html-keyboard-response","143","264116","0.0-143.0","3AQF3RZ5594XP6IG3M3K10M4CYO6FY","A3UPZ88FI1EJC","3ZXV7Q5FJBAKJ3TNMBBLYHIS0EBCFB","","<img src=""img/set1/S1.jpg"" width=""540"" height = ""360"">","null","","","","","","","","","",""
"null","","html-keyboard-response","144","264318","0.0-144.0","3AQF3RZ5594XP6IG3M3K10M4CYO6FY","A3UPZ88FI1EJC","3ZXV7Q5FJBAKJ3TNMBBLYHIS0EBCFB","","","null","","","","","","","","","",""
"null","","image-keyboard-response","145","266820","0.0-145.0","3AQF3RZ5594XP6IG3M3K10M4CYO6FY","A3UPZ88FI1EJC","3ZXV7Q5FJBAKJ3TNMBBLYHIS0EBCFB","","img/set1/S1.jpg","null","1","structured_incentive","83","structured_incentive,random,structured_normal,structured_load","2,3,4,2,1,2","1,4,3,2","false","","",""
"null","","html-keyboard-response","146","267174","0.0-146.0","3AQF3RZ5594XP6IG3M3K10M4CYO6FY","A3UPZ88FI1EJC","3ZXV7Q5FJBAKJ3TNMBBLYHIS0EBCFB","","<img src=""img/set1/S1.jpg"" width=""540"" height = ""360"">","null","","","","","","","","","",""
"null","","html-keyboard-response","147","267376","0.0-147.0","3AQF3RZ5594XP6IG3M3K10M4CYO6FY","A3UPZ88FI1EJC","3ZXV7Q5FJBAKJ3TNMBBLYHIS0EBCFB","","","null","","","","","","","","","",""
"null","","image-keyboard-response","148","269879","0.0-148.0","3AQF3RZ5594XP6IG3M3K10M4CYO6FY","A3UPZ88FI1EJC","3ZXV7Q5FJBAKJ3TNMBBLYHIS0EBCFB","","img/set1/S2.jpg","null","2","structured_incentive","68","structured_incentive,random,structured_normal,structured_load","2,3,4,2,1,2","1,4,3,2","false","","",""
"null","","html-keyboard-response","149","270233","0.0-149.0","3AQF3RZ5594XP6IG3M3K10M4CYO6FY","A3UPZ88FI1EJC","3ZXV7Q5FJBAKJ3TNMBBLYHIS0EBCFB","","<img src=""img/set1/S2.jpg"" width=""540"" height = ""360"">","null","","","","","","","","","",""
"null","","html-keyboard-response","150","270436","0.0-150.0","3AQF3RZ5594XP6IG3M3K10M4CYO6FY","A3UPZ88FI1EJC","3ZXV7Q5FJBAKJ3TNMBBLYHIS0EBCFB","","","null","","","","","","","","","",""
"null","","image-keyboard-response","151","272940","0.0-151.0","3AQF3RZ5594XP6IG3M3K10M4CYO6FY","A3UPZ88FI1EJC","3ZXV7Q5FJBAKJ3TNMBBLYHIS0EBCFB","","img/set1/S3.jpg","null","3","structured_incentive","72","structured_incentive,random,structured_normal,structured_load","2,3,4,2,1,2","1,4,3,2","false","","",""
"null","","html-keyboard-response","152","273293","0.0-152.0","3AQF3RZ5594XP6IG3M3K10M4CYO6FY","A3UPZ88FI1EJC","3ZXV7Q5FJBAKJ3TNMBBLYHIS0EBCFB","","<img src=""img/set1/S3.jpg"" width=""540"" height = ""360"">","null","","","","","","","","","",""
"null","","html-keyboard-response","153","273497","0.0-153.0","3AQF3RZ5594XP6IG3M3K10M4CYO6FY","A3UPZ88FI1EJC","3ZXV7Q5FJBAKJ3TNMBBLYHIS0EBCFB","","","null","","","","","","","","","",""
"null","","image-keyboard-response","154","276001","0.0-154.0","3AQF3RZ5594XP6IG3M3K10M4CYO6FY","A3UPZ88FI1EJC","3ZXV7Q5FJBAKJ3TNMBBLYHIS0EBCFB","","img/set1/S2.jpg","null","2","structured_incentive","68","structured_incentive,random,structured_normal,structured_load","2,3,4,2,1,2","1,4,3,2","false","","",""
"null","","html-keyboard-response","155","276356","0.0-155.0","3AQF3RZ5594XP6IG3M3K10M4CYO6FY","A3UPZ88FI1EJC","3ZXV7Q5FJBAKJ3TNMBBLYHIS0EBCFB","","<img src=""img/set1/S2.jpg"" width=""540"" height = ""360"">","null","","","","","","","","","",""
"null","","html-keyboard-response","156","276559","0.0-156.0","3AQF3RZ5594XP6IG3M3K10M4CYO6FY","A3UPZ88FI1EJC","3ZXV7Q5FJBAKJ3TNMBBLYHIS0EBCFB","","","null","","","","","","","","","",""
"null","","image-keyboard-response","157","279062","0.0-157.0","3AQF3RZ5594XP6IG3M3K10M4CYO6FY","A3UPZ88FI1EJC","3ZXV7Q5FJBAKJ3TNMBBLYHIS0EBCFB","","img/set1/S3.jpg","null","3","structured_incentive","72","structured_incentive,random,structured_normal,structured_load","2,3,4,2,1,2","1,4,3,2","false","","",""
"null","","html-keyboard-response","158","279416","0.0-158.0","3AQF3RZ5594XP6IG3M3K10M4CYO6FY","A3UPZ88FI1EJC","3ZXV7Q5FJBAKJ3TNMBBLYHIS0EBCFB","","<img src=""img/set1/S3.jpg"" width=""540"" height = ""360"">","null","","","","","","","","","",""
"null","","html-keyboard-response","159","279618","0.0-159.0","3AQF3RZ5594XP6IG3M3K10M4CYO6FY","A3UPZ88FI1EJC","3ZXV7Q5FJBAKJ3TNMBBLYHIS0EBCFB","","","null","","","","","","","","","",""
"null","","image-keyboard-response","160","282132","0.0-160.0","3AQF3RZ5594XP6IG3M3K10M4CYO6FY","A3UPZ88FI1EJC","3ZXV7Q5FJBAKJ3TNMBBLYHIS0EBCFB","","img/set1/S3.jpg","null","3","structured_incentive","72","structured_incentive,random,structured_normal,structured_load","2,3,4,2,1,2","1,4,3,2","false","","",""
"null","","html-keyboard-response","161","282487","0.0-161.0","3AQF3RZ5594XP6IG3M3K10M4CYO6FY","A3UPZ88FI1EJC","3ZXV7Q5FJBAKJ3TNMBBLYHIS0EBCFB","","<img src=""img/set1/S3.jpg"" width=""540"" height = ""360"">","null","","","","","","","","","",""
"null","","html-keyboard-response","162","282690","0.0-162.0","3AQF3RZ5594XP6IG3M3K10M4CYO6FY","A3UPZ88FI1EJC","3ZXV7Q5FJBAKJ3TNMBBLYHIS0EBCFB","","","null","","","","","","","","","",""
"null","","image-keyboard-response","163","285193","0.0-163.0","3AQF3RZ5594XP6IG3M3K10M4CYO6FY","A3UPZ88FI1EJC","3ZXV7Q5FJBAKJ3TNMBBLYHIS0EBCFB","","img/set1/S1.jpg","null","1","structured_incentive","83","structured_incentive,random,structured_normal,structured_load","2,3,4,2,1,2","1,4,3,2","false","","",""
"null","","html-keyboard-response","164","285547","0.0-164.0","3AQF3RZ5594XP6IG3M3K10M4CYO6FY","A3UPZ88FI1EJC","3ZXV7Q5FJBAKJ3TNMBBLYHIS0EBCFB","","<img src=""img/set1/S1.jpg"" width=""540"" height = ""360"">","null","","","","","","","","","",""
"null","","html-keyboard-response","165","285749","0.0-165.0","3AQF3RZ5594XP6IG3M3K10M4CYO6FY","A3UPZ88FI1EJC","3ZXV7Q5FJBAKJ3TNMBBLYHIS0EBCFB","","","null","","","","","","","","","",""
"446.2999999523163","","image-keyboard-response","166","286198","0.0-166.0","3AQF3RZ5594XP6IG3M3K10M4CYO6FY","A3UPZ88FI1EJC","3ZXV7Q5FJBAKJ3TNMBBLYHIS0EBCFB","","img/set1/S4.jpg","74","4","structured_incentive","74","structured_incentive,random,structured_normal,structured_load","2,3,4,2,1,2","1,4,3,2","true","","",""
"null","","html-keyboard-response","167","286552","0.0-167.0","3AQF3RZ5594XP6IG3M3K10M4CYO6FY","A3UPZ88FI1EJC","3ZXV7Q5FJBAKJ3TNMBBLYHIS0EBCFB","","<img src=""img/set1/S4.jpg"" width=""540"" height = ""360"" style=""border:16px solid Violet"">","null","","","","","","","","","",""
"null","","html-keyboard-response","168","286754","0.0-168.0","3AQF3RZ5594XP6IG3M3K10M4CYO6FY","A3UPZ88FI1EJC","3ZXV7Q5FJBAKJ3TNMBBLYHIS0EBCFB","","","null","","","","","","","","","",""
"null","","image-keyboard-response","169","289258","0.0-169.0","3AQF3RZ5594XP6IG3M3K10M4CYO6FY","A3UPZ88FI1EJC","3ZXV7Q5FJBAKJ3TNMBBLYHIS0EBCFB","","img/set1/S2.jpg","null","2","structured_incentive","68","structured_incentive,random,structured_normal,structured_load","2,3,4,2,1,2","1,4,3,2","false","","",""
"null","","html-keyboard-response","170","289611","0.0-170.0","3AQF3RZ5594XP6IG3M3K10M4CYO6FY","A3UPZ88FI1EJC","3ZXV7Q5FJBAKJ3TNMBBLYHIS0EBCFB","","<img src=""img/set1/S2.jpg"" width=""540"" height = ""360"">","null","","","","","","","","","",""
"null","","html-keyboard-response","171","289813","0.0-171.0","3AQF3RZ5594XP6IG3M3K10M4CYO6FY","A3UPZ88FI1EJC","3ZXV7Q5FJBAKJ3TNMBBLYHIS0EBCFB","","","null","","","","","","","","","",""
"408.39999997615814","","image-keyboard-response","172","290224","0.0-172.0","3AQF3RZ5594XP6IG3M3K10M4CYO6FY","A3UPZ88FI1EJC","3ZXV7Q5FJBAKJ3TNMBBLYHIS0EBCFB","","img/set1/S4.jpg","72","4","structured_incentive","74","structured_incentive,random,structured_normal,structured_load","2,3,4,2,1,2","1,4,3,2","false","","",""
"null","","html-keyboard-response","173","290577","0.0-173.0","3AQF3RZ5594XP6IG3M3K10M4CYO6FY","A3UPZ88FI1EJC","3ZXV7Q5FJBAKJ3TNMBBLYHIS0EBCFB","","<img src=""img/set1/S4.jpg"" width=""540"" height = ""360"">","null","","","","","","","","","",""
"null","","html-keyboard-response","174","290780","0.0-174.0","3AQF3RZ5594XP6IG3M3K10M4CYO6FY","A3UPZ88FI1EJC","3ZXV7Q5FJBAKJ3TNMBBLYHIS0EBCFB","","","null","","","","","","","","","",""
"null","","image-keyboard-response","175","293283","0.0-175.0","3AQF3RZ5594XP6IG3M3K10M4CYO6FY","A3UPZ88FI1EJC","3ZXV7Q5FJBAKJ3TNMBBLYHIS0EBCFB","","img/set1/S2.jpg","null","2","structured_incentive","68","structured_incentive,random,structured_normal,structured_load","2,3,4,2,1,2","1,4,3,2","false","","",""
"null","","html-keyboard-response","176","293637","0.0-176.0","3AQF3RZ5594XP6IG3M3K10M4CYO6FY","A3UPZ88FI1EJC","3ZXV7Q5FJBAKJ3TNMBBLYHIS0EBCFB","","<img src=""img/set1/S2.jpg"" width=""540"" height = ""360"">","null","","","","","","","","","",""
"null","","html-keyboard-response","177","293839","0.0-177.0","3AQF3RZ5594XP6IG3M3K10M4CYO6FY","A3UPZ88FI1EJC","3ZXV7Q5FJBAKJ3TNMBBLYHIS0EBCFB","","","null","","","","","","","","","",""
"null","","image-keyboard-response","178","296356","0.0-178.0","3AQF3RZ5594XP6IG3M3K10M4CYO6FY","A3UPZ88FI1EJC","3ZXV7Q5FJBAKJ3TNMBBLYHIS0EBCFB","","img/set1/S3.jpg","null","3","structured_incentive","72","structured_incentive,random,structured_normal,structured_load","2,3,4,2,1,2","1,4,3,2","false","","",""
"null","","html-keyboard-response","179","296711","0.0-179.0","3AQF3RZ5594XP6IG3M3K10M4CYO6FY","A3UPZ88FI1EJC","3ZXV7Q5FJBAKJ3TNMBBLYHIS0EBCFB","","<img src=""img/set1/S3.jpg"" width=""540"" height = ""360"">","null","","","","","","","","","",""
"null","","html-keyboard-response","180","296913","0.0-180.0","3AQF3RZ5594XP6IG3M3K10M4CYO6FY","A3UPZ88FI1EJC","3ZXV7Q5FJBAKJ3TNMBBLYHIS0EBCFB","","","null","","","","","","","","","",""
"null","","image-keyboard-response","181","299416","0.0-181.0","3AQF3RZ5594XP6IG3M3K10M4CYO6FY","A3UPZ88FI1EJC","3ZXV7Q5FJBAKJ3TNMBBLYHIS0EBCFB","","img/set1/S1.jpg","null","1","structured_incentive","83","structured_incentive,random,structured_normal,structured_load","2,3,4,2,1,2","1,4,3,2","false","","",""
"null","","html-keyboard-response","182","299770","0.0-182.0","3AQF3RZ5594XP6IG3M3K10M4CYO6FY","A3UPZ88FI1EJC","3ZXV7Q5FJBAKJ3TNMBBLYHIS0EBCFB","","<img src=""img/set1/S1.jpg"" width=""540"" height = ""360"">","null","","","","","","","","","",""
"null","","html-keyboard-response","183","299973","0.0-183.0","3AQF3RZ5594XP6IG3M3K10M4CYO6FY","A3UPZ88FI1EJC","3ZXV7Q5FJBAKJ3TNMBBLYHIS0EBCFB","","","null","","","","","","","","","",""
"null","","image-keyboard-response","184","302476","0.0-184.0","3AQF3RZ5594XP6IG3M3K10M4CYO6FY","A3UPZ88FI1EJC","3ZXV7Q5FJBAKJ3TNMBBLYHIS0EBCFB","","img/set1/S2.jpg","null","2","structured_incentive","68","structured_incentive,random,structured_normal,structured_load","2,3,4,2,1,2","1,4,3,2","false","","",""
"null","","html-keyboard-response","185","302830","0.0-185.0","3AQF3RZ5594XP6IG3M3K10M4CYO6FY","A3UPZ88FI1EJC","3ZXV7Q5FJBAKJ3TNMBBLYHIS0EBCFB","","<img src=""img/set1/S2.jpg"" width=""540"" height = ""360"">","null","","","","","","","","","",""
"null","","html-keyboard-response","186","303032","0.0-186.0","3AQF3RZ5594XP6IG3M3K10M4CYO6FY","A3UPZ88FI1EJC","3ZXV7Q5FJBAKJ3TNMBBLYHIS0EBCFB","","","null","","","","","","","","","",""
"null","","image-keyboard-response","187","305535","0.0-187.0","3AQF3RZ5594XP6IG3M3K10M4CYO6FY","A3UPZ88FI1EJC","3ZXV7Q5FJBAKJ3TNMBBLYHIS0EBCFB","","img/set1/S3.jpg","null","3","structured_incentive","72","structured_incentive,random,structured_normal,structured_load","2,3,4,2,1,2","1,4,3,2","false","","",""
"null","","html-keyboard-response","188","305887","0.0-188.0","3AQF3RZ5594XP6IG3M3K10M4CYO6FY","A3UPZ88FI1EJC","3ZXV7Q5FJBAKJ3TNMBBLYHIS0EBCFB","","<img src=""img/set1/S3.jpg"" width=""540"" height = ""360"">","null","","","","","","","","","",""
"null","","html-keyboard-response","189","306091","0.0-189.0","3AQF3RZ5594XP6IG3M3K10M4CYO6FY","A3UPZ88FI1EJC","3ZXV7Q5FJBAKJ3TNMBBLYHIS0EBCFB","","","null","","","","","","","","","",""
"404.7999999523163","","image-keyboard-response","190","306498","0.0-190.0","3AQF3RZ5594XP6IG3M3K10M4CYO6FY","A3UPZ88FI1EJC","3ZXV7Q5FJBAKJ3TNMBBLYHIS0EBCFB","","img/set1/S4.jpg","74","4","structured_incentive","74","structured_incentive,random,structured_normal,structured_load","2,3,4,2,1,2","1,4,3,2","true","","",""
"null","","html-keyboard-response","191","306852","0.0-191.0","3AQF3RZ5594XP6IG3M3K10M4CYO6FY","A3UPZ88FI1EJC","3ZXV7Q5FJBAKJ3TNMBBLYHIS0EBCFB","","<img src=""img/set1/S4.jpg"" width=""540"" height = ""360"" style=""border:16px solid Violet"">","null","","","","","","","","","",""
"null","","html-keyboard-response","192","307054","0.0-192.0","3AQF3RZ5594XP6IG3M3K10M4CYO6FY","A3UPZ88FI1EJC","3ZXV7Q5FJBAKJ3TNMBBLYHIS0EBCFB","","","null","","","","","","","","","",""
"null","","image-keyboard-response","193","309557","0.0-193.0","3AQF3RZ5594XP6IG3M3K10M4CYO6FY","A3UPZ88FI1EJC","3ZXV7Q5FJBAKJ3TNMBBLYHIS0EBCFB","","img/set1/S1.jpg","null","1","structured_incentive","83","structured_incentive,random,structured_normal,structured_load","2,3,4,2,1,2","1,4,3,2","false","","",""
"null","","html-keyboard-response","194","309911","0.0-194.0","3AQF3RZ5594XP6IG3M3K10M4CYO6FY","A3UPZ88FI1EJC","3ZXV7Q5FJBAKJ3TNMBBLYHIS0EBCFB","","<img src=""img/set1/S1.jpg"" width=""540"" height = ""360"">","null","","","","","","","","","",""
"null","","html-keyboard-response","195","310113","0.0-195.0","3AQF3RZ5594XP6IG3M3K10M4CYO6FY","A3UPZ88FI1EJC","3ZXV7Q5FJBAKJ3TNMBBLYHIS0EBCFB","","","null","","","","","","","","","",""
"null","","image-keyboard-response","196","312617","0.0-196.0","3AQF3RZ5594XP6IG3M3K10M4CYO6FY","A3UPZ88FI1EJC","3ZXV7Q5FJBAKJ3TNMBBLYHIS0EBCFB","","img/set1/S2.jpg","null","2","structured_incentive","68","structured_incentive,random,structured_normal,structured_load","2,3,4,2,1,2","1,4,3,2","false","","",""
"null","","html-keyboard-response","197","312971","0.0-197.0","3AQF3RZ5594XP6IG3M3K10M4CYO6FY","A3UPZ88FI1EJC","3ZXV7Q5FJBAKJ3TNMBBLYHIS0EBCFB","","<img src=""img/set1/S2.jpg"" width=""540"" height = ""360"">","null","","","","","","","","","",""
"null","","html-keyboard-response","198","313173","0.0-198.0","3AQF3RZ5594XP6IG3M3K10M4CYO6FY","A3UPZ88FI1EJC","3ZXV7Q5FJBAKJ3TNMBBLYHIS0EBCFB","","","null","","","","","","","","","",""
"396.39999997615814","","image-keyboard-response","199","313571","0.0-199.0","3AQF3RZ5594XP6IG3M3K10M4CYO6FY","A3UPZ88FI1EJC","3ZXV7Q5FJBAKJ3TNMBBLYHIS0EBCFB","","img/set1/S4.jpg","74","4","structured_incentive","74","structured_incentive,random,structured_normal,structured_load","2,3,4,2,1,2","1,4,3,2","true","","",""
"null","","html-keyboard-response","200","313925","0.0-200.0","3AQF3RZ5594XP6IG3M3K10M4CYO6FY","A3UPZ88FI1EJC","3ZXV7Q5FJBAKJ3TNMBBLYHIS0EBCFB","","<img src=""img/set1/S4.jpg"" width=""540"" height = ""360"" style=""border:16px solid Violet"">","null","","","","","","","","","",""
"null","","html-keyboard-response","201","314128","0.0-201.0","3AQF3RZ5594XP6IG3M3K10M4CYO6FY","A3UPZ88FI1EJC","3ZXV7Q5FJBAKJ3TNMBBLYHIS0EBCFB","","","null","","","","","","","","","",""
"1677.199999988079","","image-keyboard-response","202","315807","0.0-202.0","3AQF3RZ5594XP6IG3M3K10M4CYO6FY","A3UPZ88FI1EJC","3ZXV7Q5FJBAKJ3TNMBBLYHIS0EBCFB","","img/set1/S4.jpg","74","4","structured_incentive","74","structured_incentive,random,structured_normal,structured_load","2,3,4,2,1,2","1,4,3,2","true","","",""
"null","","html-keyboard-response","203","316160","0.0-203.0","3AQF3RZ5594XP6IG3M3K10M4CYO6FY","A3UPZ88FI1EJC","3ZXV7Q5FJBAKJ3TNMBBLYHIS0EBCFB","","<img src=""img/set1/S4.jpg"" width=""540"" height = ""360"" style=""border:16px solid Violet"">","null","","","","","","","","","",""
"null","","html-keyboard-response","204","316367","0.0-204.0","3AQF3RZ5594XP6IG3M3K10M4CYO6FY","A3UPZ88FI1EJC","3ZXV7Q5FJBAKJ3TNMBBLYHIS0EBCFB","","","null","","","","","","","","","",""
"458.39999997615814","","image-keyboard-response","205","316827","0.0-205.0","3AQF3RZ5594XP6IG3M3K10M4CYO6FY","A3UPZ88FI1EJC","3ZXV7Q5FJBAKJ3TNMBBLYHIS0EBCFB","","img/set1/S4.jpg","74","4","structured_incentive","74","structured_incentive,random,structured_normal,structured_load","2,3,4,2,1,2","1,4,3,2","true","","",""
"null","","html-keyboard-response","206","317182","0.0-206.0","3AQF3RZ5594XP6IG3M3K10M4CYO6FY","A3UPZ88FI1EJC","3ZXV7Q5FJBAKJ3TNMBBLYHIS0EBCFB","","<img src=""img/set1/S4.jpg"" width=""540"" height = ""360"" style=""border:16px solid Violet"">","null","","","","","","","","","",""
"null","","html-keyboard-response","207","317384","0.0-207.0","3AQF3RZ5594XP6IG3M3K10M4CYO6FY","A3UPZ88FI1EJC","3ZXV7Q5FJBAKJ3TNMBBLYHIS0EBCFB","","","null","","","","","","","","","",""
"null","","image-keyboard-response","208","319889","0.0-208.0","3AQF3RZ5594XP6IG3M3K10M4CYO6FY","A3UPZ88FI1EJC","3ZXV7Q5FJBAKJ3TNMBBLYHIS0EBCFB","","img/set1/S1.jpg","null","1","structured_incentive","83","structured_incentive,random,structured_normal,structured_load","2,3,4,2,1,2","1,4,3,2","false","","",""
"null","","html-keyboard-response","209","320242","0.0-209.0","3AQF3RZ5594XP6IG3M3K10M4CYO6FY","A3UPZ88FI1EJC","3ZXV7Q5FJBAKJ3TNMBBLYHIS0EBCFB","","<img src=""img/set1/S1.jpg"" width=""540"" height = ""360"">","null","","","","","","","","","",""
"null","","html-keyboard-response","210","320445","0.0-210.0","3AQF3RZ5594XP6IG3M3K10M4CYO6FY","A3UPZ88FI1EJC","3ZXV7Q5FJBAKJ3TNMBBLYHIS0EBCFB","","","null","","","","","","","","","",""
"null","","image-keyboard-response","211","322948","0.0-211.0","3AQF3RZ5594XP6IG3M3K10M4CYO6FY","A3UPZ88FI1EJC","3ZXV7Q5FJBAKJ3TNMBBLYHIS0EBCFB","","img/set1/S2.jpg","null","2","structured_incentive","68","structured_incentive,random,structured_normal,structured_load","2,3,4,2,1,2","1,4,3,2","false","","",""
"null","","html-keyboard-response","212","323302","0.0-212.0","3AQF3RZ5594XP6IG3M3K10M4CYO6FY","A3UPZ88FI1EJC","3ZXV7Q5FJBAKJ3TNMBBLYHIS0EBCFB","","<img src=""img/set1/S2.jpg"" width=""540"" height = ""360"">","null","","","","","","","","","",""
"null","","html-keyboard-response","213","323504","0.0-213.0","3AQF3RZ5594XP6IG3M3K10M4CYO6FY","A3UPZ88FI1EJC","3ZXV7Q5FJBAKJ3TNMBBLYHIS0EBCFB","","","null","","","","","","","","","",""
"null","","image-keyboard-response","214","326007","0.0-214.0","3AQF3RZ5594XP6IG3M3K10M4CYO6FY","A3UPZ88FI1EJC","3ZXV7Q5FJBAKJ3TNMBBLYHIS0EBCFB","","img/set1/S3.jpg","null","3","structured_incentive","72","structured_incentive,random,structured_normal,structured_load","2,3,4,2,1,2","1,4,3,2","false","","",""
"null","","html-keyboard-response","215","326361","0.0-215.0","3AQF3RZ5594XP6IG3M3K10M4CYO6FY","A3UPZ88FI1EJC","3ZXV7Q5FJBAKJ3TNMBBLYHIS0EBCFB","","<img src=""img/set1/S3.jpg"" width=""540"" height = ""360"">","null","","","","","","","","","",""
"null","","html-keyboard-response","216","326564","0.0-216.0","3AQF3RZ5594XP6IG3M3K10M4CYO6FY","A3UPZ88FI1EJC","3ZXV7Q5FJBAKJ3TNMBBLYHIS0EBCFB","","","null","","","","","","","","","",""
"null","","image-keyboard-response","217","329067","0.0-217.0","3AQF3RZ5594XP6IG3M3K10M4CYO6FY","A3UPZ88FI1EJC","3ZXV7Q5FJBAKJ3TNMBBLYHIS0EBCFB","","img/set1/S2.jpg","null","2","structured_incentive","68","structured_incentive,random,structured_normal,structured_load","2,3,4,2,1,2","1,4,3,2","false","","",""
"null","","html-keyboard-response","218","329421","0.0-218.0","3AQF3RZ5594XP6IG3M3K10M4CYO6FY","A3UPZ88FI1EJC","3ZXV7Q5FJBAKJ3TNMBBLYHIS0EBCFB","","<img src=""img/set1/S2.jpg"" width=""540"" height = ""360"">","null","","","","","","","","","",""
"null","","html-keyboard-response","219","329623","0.0-219.0","3AQF3RZ5594XP6IG3M3K10M4CYO6FY","A3UPZ88FI1EJC","3ZXV7Q5FJBAKJ3TNMBBLYHIS0EBCFB","","","null","","","","","","","","","",""
"null","","image-keyboard-response","220","332126","0.0-220.0","3AQF3RZ5594XP6IG3M3K10M4CYO6FY","A3UPZ88FI1EJC","3ZXV7Q5FJBAKJ3TNMBBLYHIS0EBCFB","","img/set1/S3.jpg","null","3","structured_incentive","72","structured_incentive,random,structured_normal,structured_load","2,3,4,2,1,2","1,4,3,2","false","","",""
"null","","html-keyboard-response","221","332479","0.0-221.0","3AQF3RZ5594XP6IG3M3K10M4CYO6FY","A3UPZ88FI1EJC","3ZXV7Q5FJBAKJ3TNMBBLYHIS0EBCFB","","<img src=""img/set1/S3.jpg"" width=""540"" height = ""360"">","null","","","","","","","","","",""
"null","","html-keyboard-response","222","332682","0.0-222.0","3AQF3RZ5594XP6IG3M3K10M4CYO6FY","A3UPZ88FI1EJC","3ZXV7Q5FJBAKJ3TNMBBLYHIS0EBCFB","","","null","","","","","","","","","",""
"null","","image-keyboard-response","223","335184","0.0-223.0","3AQF3RZ5594XP6IG3M3K10M4CYO6FY","A3UPZ88FI1EJC","3ZXV7Q5FJBAKJ3TNMBBLYHIS0EBCFB","","img/set1/S2.jpg","null","2","structured_incentive","68","structured_incentive,random,structured_normal,structured_load","2,3,4,2,1,2","1,4,3,2","false","","",""
"null","","html-keyboard-response","224","335540","0.0-224.0","3AQF3RZ5594XP6IG3M3K10M4CYO6FY","A3UPZ88FI1EJC","3ZXV7Q5FJBAKJ3TNMBBLYHIS0EBCFB","","<img src=""img/set1/S2.jpg"" width=""540"" height = ""360"">","null","","","","","","","","","",""
"null","","html-keyboard-response","225","335742","0.0-225.0","3AQF3RZ5594XP6IG3M3K10M4CYO6FY","A3UPZ88FI1EJC","3ZXV7Q5FJBAKJ3TNMBBLYHIS0EBCFB","","","null","","","","","","","","","",""
"null","","image-keyboard-response","226","338246","0.0-226.0","3AQF3RZ5594XP6IG3M3K10M4CYO6FY","A3UPZ88FI1EJC","3ZXV7Q5FJBAKJ3TNMBBLYHIS0EBCFB","","img/set1/S3.jpg","null","3","structured_incentive","72","structured_incentive,random,structured_normal,structured_load","2,3,4,2,1,2","1,4,3,2","false","","",""
"null","","html-keyboard-response","227","338600","0.0-227.0","3AQF3RZ5594XP6IG3M3K10M4CYO6FY","A3UPZ88FI1EJC","3ZXV7Q5FJBAKJ3TNMBBLYHIS0EBCFB","","<img src=""img/set1/S3.jpg"" width=""540"" height = ""360"">","null","","","","","","","","","",""
"null","","html-keyboard-response","228","338803","0.0-228.0","3AQF3RZ5594XP6IG3M3K10M4CYO6FY","A3UPZ88FI1EJC","3ZXV7Q5FJBAKJ3TNMBBLYHIS0EBCFB","","","null","","","","","","","","","",""
"null","","image-keyboard-response","229","341306","0.0-229.0","3AQF3RZ5594XP6IG3M3K10M4CYO6FY","A3UPZ88FI1EJC","3ZXV7Q5FJBAKJ3TNMBBLYHIS0EBCFB","","img/set1/S2.jpg","null","2","structured_incentive","68","structured_incentive,random,structured_normal,structured_load","2,3,4,2,1,2","1,4,3,2","false","","",""
"null","","html-keyboard-response","230","341660","0.0-230.0","3AQF3RZ5594XP6IG3M3K10M4CYO6FY","A3UPZ88FI1EJC","3ZXV7Q5FJBAKJ3TNMBBLYHIS0EBCFB","","<img src=""img/set1/S2.jpg"" width=""540"" height = ""360"">","null","","","","","","","","","",""
"null","","html-keyboard-response","231","341862","0.0-231.0","3AQF3RZ5594XP6IG3M3K10M4CYO6FY","A3UPZ88FI1EJC","3ZXV7Q5FJBAKJ3TNMBBLYHIS0EBCFB","","","null","","","","","","","","","",""
"407.0999999642372","","image-keyboard-response","232","342272","0.0-232.0","3AQF3RZ5594XP6IG3M3K10M4CYO6FY","A3UPZ88FI1EJC","3ZXV7Q5FJBAKJ3TNMBBLYHIS0EBCFB","","img/set1/S4.jpg","74","4","structured_incentive","74","structured_incentive,random,structured_normal,structured_load","2,3,4,2,1,2","1,4,3,2","true","","",""
"null","","html-keyboard-response","233","342627","0.0-233.0","3AQF3RZ5594XP6IG3M3K10M4CYO6FY","A3UPZ88FI1EJC","3ZXV7Q5FJBAKJ3TNMBBLYHIS0EBCFB","","<img src=""img/set1/S4.jpg"" width=""540"" height = ""360"" style=""border:16px solid Violet"">","null","","","","","","","","","",""
"null","","html-keyboard-response","234","342830","0.0-234.0","3AQF3RZ5594XP6IG3M3K10M4CYO6FY","A3UPZ88FI1EJC","3ZXV7Q5FJBAKJ3TNMBBLYHIS0EBCFB","","","null","","","","","","","","","",""
"null","","image-keyboard-response","235","345333","0.0-235.0","3AQF3RZ5594XP6IG3M3K10M4CYO6FY","A3UPZ88FI1EJC","3ZXV7Q5FJBAKJ3TNMBBLYHIS0EBCFB","","img/set1/S3.jpg","null","3","structured_incentive","72","structured_incentive,random,structured_normal,structured_load","2,3,4,2,1,2","1,4,3,2","false","","",""
"null","","html-keyboard-response","236","345687","0.0-236.0","3AQF3RZ5594XP6IG3M3K10M4CYO6FY","A3UPZ88FI1EJC","3ZXV7Q5FJBAKJ3TNMBBLYHIS0EBCFB","","<img src=""img/set1/S3.jpg"" width=""540"" height = ""360"">","null","","","","","","","","","",""
"null","","html-keyboard-response","237","345889","0.0-237.0","3AQF3RZ5594XP6IG3M3K10M4CYO6FY","A3UPZ88FI1EJC","3ZXV7Q5FJBAKJ3TNMBBLYHIS0EBCFB","","","null","","","","","","","","","",""
"null","","image-keyboard-response","238","348392","0.0-238.0","3AQF3RZ5594XP6IG3M3K10M4CYO6FY","A3UPZ88FI1EJC","3ZXV7Q5FJBAKJ3TNMBBLYHIS0EBCFB","","img/set1/S1.jpg","null","1","structured_incentive","83","structured_incentive,random,structured_normal,structured_load","2,3,4,2,1,2","1,4,3,2","false","","",""
"null","","html-keyboard-response","239","348746","0.0-239.0","3AQF3RZ5594XP6IG3M3K10M4CYO6FY","A3UPZ88FI1EJC","3ZXV7Q5FJBAKJ3TNMBBLYHIS0EBCFB","","<img src=""img/set1/S1.jpg"" width=""540"" height = ""360"">","null","","","","","","","","","",""
"null","","html-keyboard-response","240","348949","0.0-240.0","3AQF3RZ5594XP6IG3M3K10M4CYO6FY","A3UPZ88FI1EJC","3ZXV7Q5FJBAKJ3TNMBBLYHIS0EBCFB","","","null","","","","","","","","","",""
"null","","image-keyboard-response","241","351451","0.0-241.0","3AQF3RZ5594XP6IG3M3K10M4CYO6FY","A3UPZ88FI1EJC","3ZXV7Q5FJBAKJ3TNMBBLYHIS0EBCFB","","img/set1/S3.jpg","null","3","structured_incentive","72","structured_incentive,random,structured_normal,structured_load","2,3,4,2,1,2","1,4,3,2","false","","",""
"null","","html-keyboard-response","242","351804","0.0-242.0","3AQF3RZ5594XP6IG3M3K10M4CYO6FY","A3UPZ88FI1EJC","3ZXV7Q5FJBAKJ3TNMBBLYHIS0EBCFB","","<img src=""img/set1/S3.jpg"" width=""540"" height = ""360"">","null","","","","","","","","","",""
"null","","html-keyboard-response","243","352007","0.0-243.0","3AQF3RZ5594XP6IG3M3K10M4CYO6FY","A3UPZ88FI1EJC","3ZXV7Q5FJBAKJ3TNMBBLYHIS0EBCFB","","","null","","","","","","","","","",""
"null","","image-keyboard-response","244","354510","0.0-244.0","3AQF3RZ5594XP6IG3M3K10M4CYO6FY","A3UPZ88FI1EJC","3ZXV7Q5FJBAKJ3TNMBBLYHIS0EBCFB","","img/set1/S2.jpg","null","2","structured_incentive","68","structured_incentive,random,structured_normal,structured_load","2,3,4,2,1,2","1,4,3,2","false","","",""
"null","","html-keyboard-response","245","354864","0.0-245.0","3AQF3RZ5594XP6IG3M3K10M4CYO6FY","A3UPZ88FI1EJC","3ZXV7Q5FJBAKJ3TNMBBLYHIS0EBCFB","","<img src=""img/set1/S2.jpg"" width=""540"" height = ""360"">","null","","","","","","","","","",""
"null","","html-keyboard-response","246","355066","0.0-246.0","3AQF3RZ5594XP6IG3M3K10M4CYO6FY","A3UPZ88FI1EJC","3ZXV7Q5FJBAKJ3TNMBBLYHIS0EBCFB","","","null","","","","","","","","","",""
"410.80000001192093","","image-keyboard-response","247","355480","0.0-247.0","3AQF3RZ5594XP6IG3M3K10M4CYO6FY","A3UPZ88FI1EJC","3ZXV7Q5FJBAKJ3TNMBBLYHIS0EBCFB","","img/set1/S4.jpg","74","4","structured_incentive","74","structured_incentive,random,structured_normal,structured_load","2,3,4,2,1,2","1,4,3,2","true","","",""
"null","","html-keyboard-response","248","355833","0.0-248.0","3AQF3RZ5594XP6IG3M3K10M4CYO6FY","A3UPZ88FI1EJC","3ZXV7Q5FJBAKJ3TNMBBLYHIS0EBCFB","","<img src=""img/set1/S4.jpg"" width=""540"" height = ""360"" style=""border:16px solid Violet"">","null","","","","","","","","","",""
"null","","html-keyboard-response","249","356037","0.0-249.0","3AQF3RZ5594XP6IG3M3K10M4CYO6FY","A3UPZ88FI1EJC","3ZXV7Q5FJBAKJ3TNMBBLYHIS0EBCFB","","","null","","","","","","","","","",""
"413.0999999642372","","image-keyboard-response","250","356452","0.0-250.0","3AQF3RZ5594XP6IG3M3K10M4CYO6FY","A3UPZ88FI1EJC","3ZXV7Q5FJBAKJ3TNMBBLYHIS0EBCFB","","img/set1/S4.jpg","74","4","structured_incentive","74","structured_incentive,random,structured_normal,structured_load","2,3,4,2,1,2","1,4,3,2","true","","",""
"null","","html-keyboard-response","251","356805","0.0-251.0","3AQF3RZ5594XP6IG3M3K10M4CYO6FY","A3UPZ88FI1EJC","3ZXV7Q5FJBAKJ3TNMBBLYHIS0EBCFB","","<img src=""img/set1/S4.jpg"" width=""540"" height = ""360"" style=""border:16px solid Violet"">","null","","","","","","","","","",""
"null","","html-keyboard-response","252","357008","0.0-252.0","3AQF3RZ5594XP6IG3M3K10M4CYO6FY","A3UPZ88FI1EJC","3ZXV7Q5FJBAKJ3TNMBBLYHIS0EBCFB","","","null","","","","","","","","","",""
"null","","image-keyboard-response","253","359511","0.0-253.0","3AQF3RZ5594XP6IG3M3K10M4CYO6FY","A3UPZ88FI1EJC","3ZXV7Q5FJBAKJ3TNMBBLYHIS0EBCFB","","img/set1/S2.jpg","null","2","structured_incentive","68","structured_incentive,random,structured_normal,structured_load","2,3,4,2,1,2","1,4,3,2","false","","",""
"null","","html-keyboard-response","254","359864","0.0-254.0","3AQF3RZ5594XP6IG3M3K10M4CYO6FY","A3UPZ88FI1EJC","3ZXV7Q5FJBAKJ3TNMBBLYHIS0EBCFB","","<img src=""img/set1/S2.jpg"" width=""540"" height = ""360"">","null","","","","","","","","","",""
"null","","html-keyboard-response","255","360067","0.0-255.0","3AQF3RZ5594XP6IG3M3K10M4CYO6FY","A3UPZ88FI1EJC","3ZXV7Q5FJBAKJ3TNMBBLYHIS0EBCFB","","","null","","","","","","","","","",""
"344.5999999642372","","image-keyboard-response","256","360414","0.0-256.0","3AQF3RZ5594XP6IG3M3K10M4CYO6FY","A3UPZ88FI1EJC","3ZXV7Q5FJBAKJ3TNMBBLYHIS0EBCFB","","img/set1/S3.jpg","74","3","structured_incentive","72","structured_incentive,random,structured_normal,structured_load","2,3,4,2,1,2","1,4,3,2","false","","",""
"null","","html-keyboard-response","257","360771","0.0-257.0","3AQF3RZ5594XP6IG3M3K10M4CYO6FY","A3UPZ88FI1EJC","3ZXV7Q5FJBAKJ3TNMBBLYHIS0EBCFB","","<img src=""img/set1/S3.jpg"" width=""540"" height = ""360"">","null","","","","","","","","","",""
"null","","html-keyboard-response","258","360973","0.0-258.0","3AQF3RZ5594XP6IG3M3K10M4CYO6FY","A3UPZ88FI1EJC","3ZXV7Q5FJBAKJ3TNMBBLYHIS0EBCFB","","","null","","","","","","","","","",""
"null","","image-keyboard-response","259","363477","0.0-259.0","3AQF3RZ5594XP6IG3M3K10M4CYO6FY","A3UPZ88FI1EJC","3ZXV7Q5FJBAKJ3TNMBBLYHIS0EBCFB","","img/set1/S2.jpg","null","2","structured_incentive","68","structured_incentive,random,structured_normal,structured_load","2,3,4,2,1,2","1,4,3,2","false","","",""
"null","","html-keyboard-response","260","363830","0.0-260.0","3AQF3RZ5594XP6IG3M3K10M4CYO6FY","A3UPZ88FI1EJC","3ZXV7Q5FJBAKJ3TNMBBLYHIS0EBCFB","","<img src=""img/set1/S2.jpg"" width=""540"" height = ""360"">","null","","","","","","","","","",""
"null","","html-keyboard-response","261","364033","0.0-261.0","3AQF3RZ5594XP6IG3M3K10M4CYO6FY","A3UPZ88FI1EJC","3ZXV7Q5FJBAKJ3TNMBBLYHIS0EBCFB","","","null","","","","","","","","","",""
"null","","image-keyboard-response","262","366536","0.0-262.0","3AQF3RZ5594XP6IG3M3K10M4CYO6FY","A3UPZ88FI1EJC","3ZXV7Q5FJBAKJ3TNMBBLYHIS0EBCFB","","img/set1/S3.jpg","null","3","structured_incentive","72","structured_incentive,random,structured_normal,structured_load","2,3,4,2,1,2","1,4,3,2","false","","",""
"null","","html-keyboard-response","263","366890","0.0-263.0","3AQF3RZ5594XP6IG3M3K10M4CYO6FY","A3UPZ88FI1EJC","3ZXV7Q5FJBAKJ3TNMBBLYHIS0EBCFB","","<img src=""img/set1/S3.jpg"" width=""540"" height = ""360"">","null","","","","","","","","","",""
"null","","html-keyboard-response","264","367093","0.0-264.0","3AQF3RZ5594XP6IG3M3K10M4CYO6FY","A3UPZ88FI1EJC","3ZXV7Q5FJBAKJ3TNMBBLYHIS0EBCFB","","","null","","","","","","","","","",""
"null","","image-keyboard-response","265","369596","0.0-265.0","3AQF3RZ5594XP6IG3M3K10M4CYO6FY","A3UPZ88FI1EJC","3ZXV7Q5FJBAKJ3TNMBBLYHIS0EBCFB","","img/set1/S3.jpg","null","3","structured_incentive","72","structured_incentive,random,structured_normal,structured_load","2,3,4,2,1,2","1,4,3,2","false","","",""
"null","","html-keyboard-response","266","369949","0.0-266.0","3AQF3RZ5594XP6IG3M3K10M4CYO6FY","A3UPZ88FI1EJC","3ZXV7Q5FJBAKJ3TNMBBLYHIS0EBCFB","","<img src=""img/set1/S3.jpg"" width=""540"" height = ""360"">","null","","","","","","","","","",""
"null","","html-keyboard-response","267","370152","0.0-267.0","3AQF3RZ5594XP6IG3M3K10M4CYO6FY","A3UPZ88FI1EJC","3ZXV7Q5FJBAKJ3TNMBBLYHIS0EBCFB","","","null","","","","","","","","","",""
"null","","image-keyboard-response","268","372656","0.0-268.0","3AQF3RZ5594XP6IG3M3K10M4CYO6FY","A3UPZ88FI1EJC","3ZXV7Q5FJBAKJ3TNMBBLYHIS0EBCFB","","img/set1/S3.jpg","null","3","structured_incentive","72","structured_incentive,random,structured_normal,structured_load","2,3,4,2,1,2","1,4,3,2","false","","",""
"null","","html-keyboard-response","269","373009","0.0-269.0","3AQF3RZ5594XP6IG3M3K10M4CYO6FY","A3UPZ88FI1EJC","3ZXV7Q5FJBAKJ3TNMBBLYHIS0EBCFB","","<img src=""img/set1/S3.jpg"" width=""540"" height = ""360"">","null","","","","","","","","","",""
"null","","html-keyboard-response","270","373211","0.0-270.0","3AQF3RZ5594XP6IG3M3K10M4CYO6FY","A3UPZ88FI1EJC","3ZXV7Q5FJBAKJ3TNMBBLYHIS0EBCFB","","","null","","","","","","","","","",""
"null","","image-keyboard-response","271","375715","0.0-271.0","3AQF3RZ5594XP6IG3M3K10M4CYO6FY","A3UPZ88FI1EJC","3ZXV7Q5FJBAKJ3TNMBBLYHIS0EBCFB","","img/set1/S1.jpg","null","1","structured_incentive","83","structured_incentive,random,structured_normal,structured_load","2,3,4,2,1,2","1,4,3,2","false","","",""
"null","","html-keyboard-response","272","376068","0.0-272.0","3AQF3RZ5594XP6IG3M3K10M4CYO6FY","A3UPZ88FI1EJC","3ZXV7Q5FJBAKJ3TNMBBLYHIS0EBCFB","","<img src=""img/set1/S1.jpg"" width=""540"" height = ""360"">","null","","","","","","","","","",""
"null","","html-keyboard-response","273","376270","0.0-273.0","3AQF3RZ5594XP6IG3M3K10M4CYO6FY","A3UPZ88FI1EJC","3ZXV7Q5FJBAKJ3TNMBBLYHIS0EBCFB","","","null","","","","","","","","","",""
"430.80000001192093","","image-keyboard-response","274","376704","0.0-274.0","3AQF3RZ5594XP6IG3M3K10M4CYO6FY","A3UPZ88FI1EJC","3ZXV7Q5FJBAKJ3TNMBBLYHIS0EBCFB","","img/set1/S4.jpg","74","4","structured_incentive","74","structured_incentive,random,structured_normal,structured_load","2,3,4,2,1,2","1,4,3,2","true","","",""
"null","","html-keyboard-response","275","377057","0.0-275.0","3AQF3RZ5594XP6IG3M3K10M4CYO6FY","A3UPZ88FI1EJC","3ZXV7Q5FJBAKJ3TNMBBLYHIS0EBCFB","","<img src=""img/set1/S4.jpg"" width=""540"" height = ""360"" style=""border:16px solid Violet"">","null","","","","","","","","","",""
"null","","html-keyboard-response","276","377259","0.0-276.0","3AQF3RZ5594XP6IG3M3K10M4CYO6FY","A3UPZ88FI1EJC","3ZXV7Q5FJBAKJ3TNMBBLYHIS0EBCFB","","","null","","","","","","","","","",""
"null","","image-keyboard-response","277","379763","0.0-277.0","3AQF3RZ5594XP6IG3M3K10M4CYO6FY","A3UPZ88FI1EJC","3ZXV7Q5FJBAKJ3TNMBBLYHIS0EBCFB","","img/set1/S3.jpg","null","3","structured_incentive","72","structured_incentive,random,structured_normal,structured_load","2,3,4,2,1,2","1,4,3,2","false","","",""
"null","","html-keyboard-response","278","380117","0.0-278.0","3AQF3RZ5594XP6IG3M3K10M4CYO6FY","A3UPZ88FI1EJC","3ZXV7Q5FJBAKJ3TNMBBLYHIS0EBCFB","","<img src=""img/set1/S3.jpg"" width=""540"" height = ""360"">","null","","","","","","","","","",""
"null","","html-keyboard-response","279","380327","0.0-279.0","3AQF3RZ5594XP6IG3M3K10M4CYO6FY","A3UPZ88FI1EJC","3ZXV7Q5FJBAKJ3TNMBBLYHIS0EBCFB","","","null","","","","","","","","","",""
"null","","image-keyboard-response","280","382829","0.0-280.0","3AQF3RZ5594XP6IG3M3K10M4CYO6FY","A3UPZ88FI1EJC","3ZXV7Q5FJBAKJ3TNMBBLYHIS0EBCFB","","img/set1/S2.jpg","null","2","structured_incentive","68","structured_incentive,random,structured_normal,structured_load","2,3,4,2,1,2","1,4,3,2","false","","",""
"null","","html-keyboard-response","281","383184","0.0-281.0","3AQF3RZ5594XP6IG3M3K10M4CYO6FY","A3UPZ88FI1EJC","3ZXV7Q5FJBAKJ3TNMBBLYHIS0EBCFB","","<img src=""img/set1/S2.jpg"" width=""540"" height = ""360"">","null","","","","","","","","","",""
"null","","html-keyboard-response","282","383387","0.0-282.0","3AQF3RZ5594XP6IG3M3K10M4CYO6FY","A3UPZ88FI1EJC","3ZXV7Q5FJBAKJ3TNMBBLYHIS0EBCFB","","","null","","","","","","","","","",""
"null","","image-keyboard-response","283","385890","0.0-283.0","3AQF3RZ5594XP6IG3M3K10M4CYO6FY","A3UPZ88FI1EJC","3ZXV7Q5FJBAKJ3TNMBBLYHIS0EBCFB","","img/set1/S3.jpg","null","3","structured_incentive","72","structured_incentive,random,structured_normal,structured_load","2,3,4,2,1,2","1,4,3,2","false","","",""
"null","","html-keyboard-response","284","386244","0.0-284.0","3AQF3RZ5594XP6IG3M3K10M4CYO6FY","A3UPZ88FI1EJC","3ZXV7Q5FJBAKJ3TNMBBLYHIS0EBCFB","","<img src=""img/set1/S3.jpg"" width=""540"" height = ""360"">","null","","","","","","","","","",""
"null","","html-keyboard-response","285","386446","0.0-285.0","3AQF3RZ5594XP6IG3M3K10M4CYO6FY","A3UPZ88FI1EJC","3ZXV7Q5FJBAKJ3TNMBBLYHIS0EBCFB","","","null","","","","","","","","","",""
"null","","image-keyboard-response","286","388949","0.0-286.0","3AQF3RZ5594XP6IG3M3K10M4CYO6FY","A3UPZ88FI1EJC","3ZXV7Q5FJBAKJ3TNMBBLYHIS0EBCFB","","img/set1/S1.jpg","null","1","structured_incentive","83","structured_incentive,random,structured_normal,structured_load","2,3,4,2,1,2","1,4,3,2","false","","",""
"null","","html-keyboard-response","287","389304","0.0-287.0","3AQF3RZ5594XP6IG3M3K10M4CYO6FY","A3UPZ88FI1EJC","3ZXV7Q5FJBAKJ3TNMBBLYHIS0EBCFB","","<img src=""img/set1/S1.jpg"" width=""540"" height = ""360"">","null","","","","","","","","","",""
"null","","html-keyboard-response","288","389506","0.0-288.0","3AQF3RZ5594XP6IG3M3K10M4CYO6FY","A3UPZ88FI1EJC","3ZXV7Q5FJBAKJ3TNMBBLYHIS0EBCFB","","","null","","","","","","","","","",""
"405.80000001192093","","image-keyboard-response","289","389914","0.0-289.0","3AQF3RZ5594XP6IG3M3K10M4CYO6FY","A3UPZ88FI1EJC","3ZXV7Q5FJBAKJ3TNMBBLYHIS0EBCFB","","img/set1/S4.jpg","74","4","structured_incentive","74","structured_incentive,random,structured_normal,structured_load","2,3,4,2,1,2","1,4,3,2","true","","",""
"null","","html-keyboard-response","290","390277","0.0-290.0","3AQF3RZ5594XP6IG3M3K10M4CYO6FY","A3UPZ88FI1EJC","3ZXV7Q5FJBAKJ3TNMBBLYHIS0EBCFB","","<img src=""img/set1/S4.jpg"" width=""540"" height = ""360"" style=""border:16px solid Violet"">","null","","","","","","","","","",""
"null","","html-keyboard-response","291","390493","0.0-291.0","3AQF3RZ5594XP6IG3M3K10M4CYO6FY","A3UPZ88FI1EJC","3ZXV7Q5FJBAKJ3TNMBBLYHIS0EBCFB","","","null","","","","","","","","","",""
"null","","image-keyboard-response","292","392996","0.0-292.0","3AQF3RZ5594XP6IG3M3K10M4CYO6FY","A3UPZ88FI1EJC","3ZXV7Q5FJBAKJ3TNMBBLYHIS0EBCFB","","img/set1/S2.jpg","null","2","structured_incentive","68","structured_incentive,random,structured_normal,structured_load","2,3,4,2,1,2","1,4,3,2","false","","",""
"null","","html-keyboard-response","293","393356","0.0-293.0","3AQF3RZ5594XP6IG3M3K10M4CYO6FY","A3UPZ88FI1EJC","3ZXV7Q5FJBAKJ3TNMBBLYHIS0EBCFB","","<img src=""img/set1/S2.jpg"" width=""540"" height = ""360"">","null","","","","","","","","","",""
"null","","html-keyboard-response","294","393557","0.0-294.0","3AQF3RZ5594XP6IG3M3K10M4CYO6FY","A3UPZ88FI1EJC","3ZXV7Q5FJBAKJ3TNMBBLYHIS0EBCFB","","","null","","","","","","","","","",""
"null","","image-keyboard-response","295","396061","0.0-295.0","3AQF3RZ5594XP6IG3M3K10M4CYO6FY","A3UPZ88FI1EJC","3ZXV7Q5FJBAKJ3TNMBBLYHIS0EBCFB","","img/set1/S3.jpg","null","3","structured_incentive","72","structured_incentive,random,structured_normal,structured_load","2,3,4,2,1,2","1,4,3,2","false","","",""
"null","","html-keyboard-response","296","396415","0.0-296.0","3AQF3RZ5594XP6IG3M3K10M4CYO6FY","A3UPZ88FI1EJC","3ZXV7Q5FJBAKJ3TNMBBLYHIS0EBCFB","","<img src=""img/set1/S3.jpg"" width=""540"" height = ""360"">","null","","","","","","","","","",""
"null","","html-keyboard-response","297","396617","0.0-297.0","3AQF3RZ5594XP6IG3M3K10M4CYO6FY","A3UPZ88FI1EJC","3ZXV7Q5FJBAKJ3TNMBBLYHIS0EBCFB","","","null","","","","","","","","","",""
"null","","image-keyboard-response","298","399121","0.0-298.0","3AQF3RZ5594XP6IG3M3K10M4CYO6FY","A3UPZ88FI1EJC","3ZXV7Q5FJBAKJ3TNMBBLYHIS0EBCFB","","img/set1/S1.jpg","null","1","structured_incentive","83","structured_incentive,random,structured_normal,structured_load","2,3,4,2,1,2","1,4,3,2","false","","",""
"null","","html-keyboard-response","299","399475","0.0-299.0","3AQF3RZ5594XP6IG3M3K10M4CYO6FY","A3UPZ88FI1EJC","3ZXV7Q5FJBAKJ3TNMBBLYHIS0EBCFB","","<img src=""img/set1/S1.jpg"" width=""540"" height = ""360"">","null","","","","","","","","","",""
"null","","html-keyboard-response","300","399678","0.0-300.0","3AQF3RZ5594XP6IG3M3K10M4CYO6FY","A3UPZ88FI1EJC","3ZXV7Q5FJBAKJ3TNMBBLYHIS0EBCFB","","","null","","","","","","","","","",""
"null","","image-keyboard-response","301","402180","0.0-301.0","3AQF3RZ5594XP6IG3M3K10M4CYO6FY","A3UPZ88FI1EJC","3ZXV7Q5FJBAKJ3TNMBBLYHIS0EBCFB","","img/set1/S1.jpg","null","1","structured_incentive","83","structured_incentive,random,structured_normal,structured_load","2,3,4,2,1,2","1,4,3,2","false","","",""
"null","","html-keyboard-response","302","402534","0.0-302.0","3AQF3RZ5594XP6IG3M3K10M4CYO6FY","A3UPZ88FI1EJC","3ZXV7Q5FJBAKJ3TNMBBLYHIS0EBCFB","","<img src=""img/set1/S1.jpg"" width=""540"" height = ""360"">","null","","","","","","","","","",""
"null","","html-keyboard-response","303","402736","0.0-303.0","3AQF3RZ5594XP6IG3M3K10M4CYO6FY","A3UPZ88FI1EJC","3ZXV7Q5FJBAKJ3TNMBBLYHIS0EBCFB","","","null","","","","","","","","","",""
"410.30000001192093","","image-keyboard-response","304","403149","0.0-304.0","3AQF3RZ5594XP6IG3M3K10M4CYO6FY","A3UPZ88FI1EJC","3ZXV7Q5FJBAKJ3TNMBBLYHIS0EBCFB","","img/set1/S4.jpg","74","4","structured_incentive","74","structured_incentive,random,structured_normal,structured_load","2,3,4,2,1,2","1,4,3,2","true","","",""
"null","","html-keyboard-response","305","403502","0.0-305.0","3AQF3RZ5594XP6IG3M3K10M4CYO6FY","A3UPZ88FI1EJC","3ZXV7Q5FJBAKJ3TNMBBLYHIS0EBCFB","","<img src=""img/set1/S4.jpg"" width=""540"" height = ""360"" style=""border:16px solid Violet"">","null","","","","","","","","","",""
"null","","html-keyboard-response","306","403704","0.0-306.0","3AQF3RZ5594XP6IG3M3K10M4CYO6FY","A3UPZ88FI1EJC","3ZXV7Q5FJBAKJ3TNMBBLYHIS0EBCFB","","","null","","","","","","","","","",""
"400.5","","image-keyboard-response","307","404107","0.0-307.0","3AQF3RZ5594XP6IG3M3K10M4CYO6FY","A3UPZ88FI1EJC","3ZXV7Q5FJBAKJ3TNMBBLYHIS0EBCFB","","img/set1/S4.jpg","74","4","structured_incentive","74","structured_incentive,random,structured_normal,structured_load","2,3,4,2,1,2","1,4,3,2","true","","",""
"null","","html-keyboard-response","308","404460","0.0-308.0","3AQF3RZ5594XP6IG3M3K10M4CYO6FY","A3UPZ88FI1EJC","3ZXV7Q5FJBAKJ3TNMBBLYHIS0EBCFB","","<img src=""img/set1/S4.jpg"" width=""540"" height = ""360"" style=""border:16px solid Violet"">","null","","","","","","","","","",""
"null","","html-keyboard-response","309","404662","0.0-309.0","3AQF3RZ5594XP6IG3M3K10M4CYO6FY","A3UPZ88FI1EJC","3ZXV7Q5FJBAKJ3TNMBBLYHIS0EBCFB","","","null","","","","","","","","","",""
"296.10000002384186","","image-keyboard-response","310","404961","0.0-310.0","3AQF3RZ5594XP6IG3M3K10M4CYO6FY","A3UPZ88FI1EJC","3ZXV7Q5FJBAKJ3TNMBBLYHIS0EBCFB","","img/set1/S3.jpg","74","3","structured_incentive","72","structured_incentive,random,structured_normal,structured_load","2,3,4,2,1,2","1,4,3,2","false","","",""
"null","","html-keyboard-response","311","405315","0.0-311.0","3AQF3RZ5594XP6IG3M3K10M4CYO6FY","A3UPZ88FI1EJC","3ZXV7Q5FJBAKJ3TNMBBLYHIS0EBCFB","","<img src=""img/set1/S3.jpg"" width=""540"" height = ""360"">","null","","","","","","","","","",""
"null","","html-keyboard-response","312","405518","0.0-312.0","3AQF3RZ5594XP6IG3M3K10M4CYO6FY","A3UPZ88FI1EJC","3ZXV7Q5FJBAKJ3TNMBBLYHIS0EBCFB","","","null","","","","","","","","","",""
"null","","image-keyboard-response","313","408021","0.0-313.0","3AQF3RZ5594XP6IG3M3K10M4CYO6FY","A3UPZ88FI1EJC","3ZXV7Q5FJBAKJ3TNMBBLYHIS0EBCFB","","img/set1/S2.jpg","null","2","structured_incentive","68","structured_incentive,random,structured_normal,structured_load","2,3,4,2,1,2","1,4,3,2","false","","",""
"null","","html-keyboard-response","314","408374","0.0-314.0","3AQF3RZ5594XP6IG3M3K10M4CYO6FY","A3UPZ88FI1EJC","3ZXV7Q5FJBAKJ3TNMBBLYHIS0EBCFB","","<img src=""img/set1/S2.jpg"" width=""540"" height = ""360"">","null","","","","","","","","","",""
"null","","html-keyboard-response","315","408578","0.0-315.0","3AQF3RZ5594XP6IG3M3K10M4CYO6FY","A3UPZ88FI1EJC","3ZXV7Q5FJBAKJ3TNMBBLYHIS0EBCFB","","","null","","","","","","","","","",""
"null","","image-keyboard-response","316","411081","0.0-316.0","3AQF3RZ5594XP6IG3M3K10M4CYO6FY","A3UPZ88FI1EJC","3ZXV7Q5FJBAKJ3TNMBBLYHIS0EBCFB","","img/set1/S3.jpg","null","3","structured_incentive","72","structured_incentive,random,structured_normal,structured_load","2,3,4,2,1,2","1,4,3,2","false","","",""
"null","","html-keyboard-response","317","411434","0.0-317.0","3AQF3RZ5594XP6IG3M3K10M4CYO6FY","A3UPZ88FI1EJC","3ZXV7Q5FJBAKJ3TNMBBLYHIS0EBCFB","","<img src=""img/set1/S3.jpg"" width=""540"" height = ""360"">","null","","","","","","","","","",""
"null","","html-keyboard-response","318","411637","0.0-318.0","3AQF3RZ5594XP6IG3M3K10M4CYO6FY","A3UPZ88FI1EJC","3ZXV7Q5FJBAKJ3TNMBBLYHIS0EBCFB","","","null","","","","","","","","","",""
"null","","image-keyboard-response","319","414141","0.0-319.0","3AQF3RZ5594XP6IG3M3K10M4CYO6FY","A3UPZ88FI1EJC","3ZXV7Q5FJBAKJ3TNMBBLYHIS0EBCFB","","img/set1/S1.jpg","null","1","structured_incentive","83","structured_incentive,random,structured_normal,structured_load","2,3,4,2,1,2","1,4,3,2","false","","",""
"null","","html-keyboard-response","320","414495","0.0-320.0","3AQF3RZ5594XP6IG3M3K10M4CYO6FY","A3UPZ88FI1EJC","3ZXV7Q5FJBAKJ3TNMBBLYHIS0EBCFB","","<img src=""img/set1/S1.jpg"" width=""540"" height = ""360"">","null","","","","","","","","","",""
"null","","html-keyboard-response","321","414697","0.0-321.0","3AQF3RZ5594XP6IG3M3K10M4CYO6FY","A3UPZ88FI1EJC","3ZXV7Q5FJBAKJ3TNMBBLYHIS0EBCFB","","","null","","","","","","","","","",""
"null","","image-keyboard-response","322","417200","0.0-322.0","3AQF3RZ5594XP6IG3M3K10M4CYO6FY","A3UPZ88FI1EJC","3ZXV7Q5FJBAKJ3TNMBBLYHIS0EBCFB","","img/set1/S1.jpg","null","1","structured_incentive","83","structured_incentive,random,structured_normal,structured_load","2,3,4,2,1,2","1,4,3,2","false","","",""
"null","","html-keyboard-response","323","417553","0.0-323.0","3AQF3RZ5594XP6IG3M3K10M4CYO6FY","A3UPZ88FI1EJC","3ZXV7Q5FJBAKJ3TNMBBLYHIS0EBCFB","","<img src=""img/set1/S1.jpg"" width=""540"" height = ""360"">","null","","","","","","","","","",""
"null","","html-keyboard-response","324","417756","0.0-324.0","3AQF3RZ5594XP6IG3M3K10M4CYO6FY","A3UPZ88FI1EJC","3ZXV7Q5FJBAKJ3TNMBBLYHIS0EBCFB","","","null","","","","","","","","","",""
"null","","image-keyboard-response","325","420259","0.0-325.0","3AQF3RZ5594XP6IG3M3K10M4CYO6FY","A3UPZ88FI1EJC","3ZXV7Q5FJBAKJ3TNMBBLYHIS0EBCFB","","img/set1/S1.jpg","null","1","structured_incentive","83","structured_incentive,random,structured_normal,structured_load","2,3,4,2,1,2","1,4,3,2","false","","",""
"null","","html-keyboard-response","326","420612","0.0-326.0","3AQF3RZ5594XP6IG3M3K10M4CYO6FY","A3UPZ88FI1EJC","3ZXV7Q5FJBAKJ3TNMBBLYHIS0EBCFB","","<img src=""img/set1/S1.jpg"" width=""540"" height = ""360"">","null","","","","","","","","","",""
"null","","html-keyboard-response","327","420814","0.0-327.0","3AQF3RZ5594XP6IG3M3K10M4CYO6FY","A3UPZ88FI1EJC","3ZXV7Q5FJBAKJ3TNMBBLYHIS0EBCFB","","","null","","","","","","","","","",""
"null","","image-keyboard-response","328","423317","0.0-328.0","3AQF3RZ5594XP6IG3M3K10M4CYO6FY","A3UPZ88FI1EJC","3ZXV7Q5FJBAKJ3TNMBBLYHIS0EBCFB","","img/set1/S3.jpg","null","3","structured_incentive","72","structured_incentive,random,structured_normal,structured_load","2,3,4,2,1,2","1,4,3,2","false","","",""
"null","","html-keyboard-response","329","423670","0.0-329.0","3AQF3RZ5594XP6IG3M3K10M4CYO6FY","A3UPZ88FI1EJC","3ZXV7Q5FJBAKJ3TNMBBLYHIS0EBCFB","","<img src=""img/set1/S3.jpg"" width=""540"" height = ""360"">","null","","","","","","","","","",""
"null","","html-keyboard-response","330","423872","0.0-330.0","3AQF3RZ5594XP6IG3M3K10M4CYO6FY","A3UPZ88FI1EJC","3ZXV7Q5FJBAKJ3TNMBBLYHIS0EBCFB","","","null","","","","","","","","","",""
"null","","image-keyboard-response","331","426375","0.0-331.0","3AQF3RZ5594XP6IG3M3K10M4CYO6FY","A3UPZ88FI1EJC","3ZXV7Q5FJBAKJ3TNMBBLYHIS0EBCFB","","img/set1/S2.jpg","null","2","structured_incentive","68","structured_incentive,random,structured_normal,structured_load","2,3,4,2,1,2","1,4,3,2","false","","",""
"null","","html-keyboard-response","332","426728","0.0-332.0","3AQF3RZ5594XP6IG3M3K10M4CYO6FY","A3UPZ88FI1EJC","3ZXV7Q5FJBAKJ3TNMBBLYHIS0EBCFB","","<img src=""img/set1/S2.jpg"" width=""540"" height = ""360"">","null","","","","","","","","","",""
"null","","html-keyboard-response","333","426931","0.0-333.0","3AQF3RZ5594XP6IG3M3K10M4CYO6FY","A3UPZ88FI1EJC","3ZXV7Q5FJBAKJ3TNMBBLYHIS0EBCFB","","","null","","","","","","","","","",""
"351.5","","image-keyboard-response","334","427285","0.0-334.0","3AQF3RZ5594XP6IG3M3K10M4CYO6FY","A3UPZ88FI1EJC","3ZXV7Q5FJBAKJ3TNMBBLYHIS0EBCFB","","img/set1/S4.jpg","74","4","structured_incentive","74","structured_incentive,random,structured_normal,structured_load","2,3,4,2,1,2","1,4,3,2","true","","",""
"null","","html-keyboard-response","335","427639","0.0-335.0","3AQF3RZ5594XP6IG3M3K10M4CYO6FY","A3UPZ88FI1EJC","3ZXV7Q5FJBAKJ3TNMBBLYHIS0EBCFB","","<img src=""img/set1/S4.jpg"" width=""540"" height = ""360"" style=""border:16px solid Violet"">","null","","","","","","","","","",""
"null","","html-keyboard-response","336","427842","0.0-336.0","3AQF3RZ5594XP6IG3M3K10M4CYO6FY","A3UPZ88FI1EJC","3ZXV7Q5FJBAKJ3TNMBBLYHIS0EBCFB","","","null","","","","","","","","","",""
"null","","image-keyboard-response","337","430346","0.0-337.0","3AQF3RZ5594XP6IG3M3K10M4CYO6FY","A3UPZ88FI1EJC","3ZXV7Q5FJBAKJ3TNMBBLYHIS0EBCFB","","img/set1/S2.jpg","null","2","structured_incentive","68","structured_incentive,random,structured_normal,structured_load","2,3,4,2,1,2","1,4,3,2","false","","",""
"null","","html-keyboard-response","338","430700","0.0-338.0","3AQF3RZ5594XP6IG3M3K10M4CYO6FY","A3UPZ88FI1EJC","3ZXV7Q5FJBAKJ3TNMBBLYHIS0EBCFB","","<img src=""img/set1/S2.jpg"" width=""540"" height = ""360"">","null","","","","","","","","","",""
"null","","html-keyboard-response","339","430902","0.0-339.0","3AQF3RZ5594XP6IG3M3K10M4CYO6FY","A3UPZ88FI1EJC","3ZXV7Q5FJBAKJ3TNMBBLYHIS0EBCFB","","","null","","","","","","","","","",""
"null","","image-keyboard-response","340","433406","0.0-340.0","3AQF3RZ5594XP6IG3M3K10M4CYO6FY","A3UPZ88FI1EJC","3ZXV7Q5FJBAKJ3TNMBBLYHIS0EBCFB","","img/set1/S3.jpg","null","3","structured_incentive","72","structured_incentive,random,structured_normal,structured_load","2,3,4,2,1,2","1,4,3,2","false","","",""
"null","","html-keyboard-response","341","433759","0.0-341.0","3AQF3RZ5594XP6IG3M3K10M4CYO6FY","A3UPZ88FI1EJC","3ZXV7Q5FJBAKJ3TNMBBLYHIS0EBCFB","","<img src=""img/set1/S3.jpg"" width=""540"" height = ""360"">","null","","","","","","","","","",""
"null","","html-keyboard-response","342","433963","0.0-342.0","3AQF3RZ5594XP6IG3M3K10M4CYO6FY","A3UPZ88FI1EJC","3ZXV7Q5FJBAKJ3TNMBBLYHIS0EBCFB","","","null","","","","","","","","","",""
"null","","image-keyboard-response","343","436467","0.0-343.0","3AQF3RZ5594XP6IG3M3K10M4CYO6FY","A3UPZ88FI1EJC","3ZXV7Q5FJBAKJ3TNMBBLYHIS0EBCFB","","img/set1/S1.jpg","null","1","structured_incentive","83","structured_incentive,random,structured_normal,structured_load","2,3,4,2,1,2","1,4,3,2","false","","",""
"null","","html-keyboard-response","344","436821","0.0-344.0","3AQF3RZ5594XP6IG3M3K10M4CYO6FY","A3UPZ88FI1EJC","3ZXV7Q5FJBAKJ3TNMBBLYHIS0EBCFB","","<img src=""img/set1/S1.jpg"" width=""540"" height = ""360"">","null","","","","","","","","","",""
"null","","html-keyboard-response","345","437024","0.0-345.0","3AQF3RZ5594XP6IG3M3K10M4CYO6FY","A3UPZ88FI1EJC","3ZXV7Q5FJBAKJ3TNMBBLYHIS0EBCFB","","","null","","","","","","","","","",""
"null","","image-keyboard-response","346","439528","0.0-346.0","3AQF3RZ5594XP6IG3M3K10M4CYO6FY","A3UPZ88FI1EJC","3ZXV7Q5FJBAKJ3TNMBBLYHIS0EBCFB","","img/set1/S2.jpg","null","2","structured_incentive","68","structured_incentive,random,structured_normal,structured_load","2,3,4,2,1,2","1,4,3,2","false","","",""
"null","","html-keyboard-response","347","439883","0.0-347.0","3AQF3RZ5594XP6IG3M3K10M4CYO6FY","A3UPZ88FI1EJC","3ZXV7Q5FJBAKJ3TNMBBLYHIS0EBCFB","","<img src=""img/set1/S2.jpg"" width=""540"" height = ""360"">","null","","","","","","","","","",""
"null","","html-keyboard-response","348","440086","0.0-348.0","3AQF3RZ5594XP6IG3M3K10M4CYO6FY","A3UPZ88FI1EJC","3ZXV7Q5FJBAKJ3TNMBBLYHIS0EBCFB","","","null","","","","","","","","","",""
"395.60000002384186","","image-keyboard-response","349","440484","0.0-349.0","3AQF3RZ5594XP6IG3M3K10M4CYO6FY","A3UPZ88FI1EJC","3ZXV7Q5FJBAKJ3TNMBBLYHIS0EBCFB","","img/set1/S4.jpg","74","4","structured_incentive","74","structured_incentive,random,structured_normal,structured_load","2,3,4,2,1,2","1,4,3,2","true","","",""
"null","","html-keyboard-response","350","440838","0.0-350.0","3AQF3RZ5594XP6IG3M3K10M4CYO6FY","A3UPZ88FI1EJC","3ZXV7Q5FJBAKJ3TNMBBLYHIS0EBCFB","","<img src=""img/set1/S4.jpg"" width=""540"" height = ""360"" style=""border:16px solid Violet"">","null","","","","","","","","","",""
"null","","html-keyboard-response","351","441040","0.0-351.0","3AQF3RZ5594XP6IG3M3K10M4CYO6FY","A3UPZ88FI1EJC","3ZXV7Q5FJBAKJ3TNMBBLYHIS0EBCFB","","","null","","","","","","","","","",""
"null","","image-keyboard-response","352","443543","0.0-352.0","3AQF3RZ5594XP6IG3M3K10M4CYO6FY","A3UPZ88FI1EJC","3ZXV7Q5FJBAKJ3TNMBBLYHIS0EBCFB","","img/set1/S2.jpg","null","2","structured_incentive","68","structured_incentive,random,structured_normal,structured_load","2,3,4,2,1,2","1,4,3,2","false","","",""
"null","","html-keyboard-response","353","443897","0.0-353.0","3AQF3RZ5594XP6IG3M3K10M4CYO6FY","A3UPZ88FI1EJC","3ZXV7Q5FJBAKJ3TNMBBLYHIS0EBCFB","","<img src=""img/set1/S2.jpg"" width=""540"" height = ""360"">","null","","","","","","","","","",""
"null","","html-keyboard-response","354","444100","0.0-354.0","3AQF3RZ5594XP6IG3M3K10M4CYO6FY","A3UPZ88FI1EJC","3ZXV7Q5FJBAKJ3TNMBBLYHIS0EBCFB","","","null","","","","","","","","","",""
"367.69999998807907","","image-keyboard-response","355","444470","0.0-355.0","3AQF3RZ5594XP6IG3M3K10M4CYO6FY","A3UPZ88FI1EJC","3ZXV7Q5FJBAKJ3TNMBBLYHIS0EBCFB","","img/set1/S4.jpg","74","4","structured_incentive","74","structured_incentive,random,structured_normal,structured_load","2,3,4,2,1,2","1,4,3,2","true","","",""
"null","","html-keyboard-response","356","444825","0.0-356.0","3AQF3RZ5594XP6IG3M3K10M4CYO6FY","A3UPZ88FI1EJC","3ZXV7Q5FJBAKJ3TNMBBLYHIS0EBCFB","","<img src=""img/set1/S4.jpg"" width=""540"" height = ""360"" style=""border:16px solid Violet"">","null","","","","","","","","","",""
"null","","html-keyboard-response","357","445027","0.0-357.0","3AQF3RZ5594XP6IG3M3K10M4CYO6FY","A3UPZ88FI1EJC","3ZXV7Q5FJBAKJ3TNMBBLYHIS0EBCFB","","","null","","","","","","","","","",""
"682.8000000119209","","image-keyboard-response","358","445712","0.0-358.0","3AQF3RZ5594XP6IG3M3K10M4CYO6FY","A3UPZ88FI1EJC","3ZXV7Q5FJBAKJ3TNMBBLYHIS0EBCFB","","img/set1/S4.jpg","74","4","structured_incentive","74","structured_incentive,random,structured_normal,structured_load","2,3,4,2,1,2","1,4,3,2","true","","",""
"null","","html-keyboard-response","359","446066","0.0-359.0","3AQF3RZ5594XP6IG3M3K10M4CYO6FY","A3UPZ88FI1EJC","3ZXV7Q5FJBAKJ3TNMBBLYHIS0EBCFB","","<img src=""img/set1/S4.jpg"" width=""540"" height = ""360"" style=""border:16px solid Violet"">","null","","","","","","","","","",""
"null","","html-keyboard-response","360","446269","0.0-360.0","3AQF3RZ5594XP6IG3M3K10M4CYO6FY","A3UPZ88FI1EJC","3ZXV7Q5FJBAKJ3TNMBBLYHIS0EBCFB","","","null","","","","","","","","","",""
"329.4000000357628","","image-keyboard-response","361","446601","0.0-361.0","3AQF3RZ5594XP6IG3M3K10M4CYO6FY","A3UPZ88FI1EJC","3ZXV7Q5FJBAKJ3TNMBBLYHIS0EBCFB","","img/set1/S4.jpg","74","4","structured_incentive","74","structured_incentive,random,structured_normal,structured_load","2,3,4,2,1,2","1,4,3,2","true","","",""
"null","","html-keyboard-response","362","446955","0.0-362.0","3AQF3RZ5594XP6IG3M3K10M4CYO6FY","A3UPZ88FI1EJC","3ZXV7Q5FJBAKJ3TNMBBLYHIS0EBCFB","","<img src=""img/set1/S4.jpg"" width=""540"" height = ""360"" style=""border:16px solid Violet"">","null","","","","","","","","","",""
"null","","html-keyboard-response","363","447158","0.0-363.0","3AQF3RZ5594XP6IG3M3K10M4CYO6FY","A3UPZ88FI1EJC","3ZXV7Q5FJBAKJ3TNMBBLYHIS0EBCFB","","","null","","","","","","","","","",""
"null","","image-keyboard-response","364","449662","0.0-364.0","3AQF3RZ5594XP6IG3M3K10M4CYO6FY","A3UPZ88FI1EJC","3ZXV7Q5FJBAKJ3TNMBBLYHIS0EBCFB","","img/set1/S1.jpg","null","1","structured_incentive","83","structured_incentive,random,structured_normal,structured_load","2,3,4,2,1,2","1,4,3,2","false","","",""
"null","","html-keyboard-response","365","450022","0.0-365.0","3AQF3RZ5594XP6IG3M3K10M4CYO6FY","A3UPZ88FI1EJC","3ZXV7Q5FJBAKJ3TNMBBLYHIS0EBCFB","","<img src=""img/set1/S1.jpg"" width=""540"" height = ""360"">","null","","","","","","","","","",""
"null","","html-keyboard-response","366","450224","0.0-366.0","3AQF3RZ5594XP6IG3M3K10M4CYO6FY","A3UPZ88FI1EJC","3ZXV7Q5FJBAKJ3TNMBBLYHIS0EBCFB","","","null","","","","","","","","","",""
"null","","image-keyboard-response","367","452726","0.0-367.0","3AQF3RZ5594XP6IG3M3K10M4CYO6FY","A3UPZ88FI1EJC","3ZXV7Q5FJBAKJ3TNMBBLYHIS0EBCFB","","img/set1/S1.jpg","null","1","structured_incentive","83","structured_incentive,random,structured_normal,structured_load","2,3,4,2,1,2","1,4,3,2","false","","",""
"null","","html-keyboard-response","368","453081","0.0-368.0","3AQF3RZ5594XP6IG3M3K10M4CYO6FY","A3UPZ88FI1EJC","3ZXV7Q5FJBAKJ3TNMBBLYHIS0EBCFB","","<img src=""img/set1/S1.jpg"" width=""540"" height = ""360"">","null","","","","","","","","","",""
"null","","html-keyboard-response","369","453283","0.0-369.0","3AQF3RZ5594XP6IG3M3K10M4CYO6FY","A3UPZ88FI1EJC","3ZXV7Q5FJBAKJ3TNMBBLYHIS0EBCFB","","","null","","","","","","","","","",""
"366.69999998807907","","image-keyboard-response","370","453653","0.0-370.0","3AQF3RZ5594XP6IG3M3K10M4CYO6FY","A3UPZ88FI1EJC","3ZXV7Q5FJBAKJ3TNMBBLYHIS0EBCFB","","img/set1/S4.jpg","74","4","structured_incentive","74","structured_incentive,random,structured_normal,structured_load","2,3,4,2,1,2","1,4,3,2","true","","",""
"null","","html-keyboard-response","371","454007","0.0-371.0","3AQF3RZ5594XP6IG3M3K10M4CYO6FY","A3UPZ88FI1EJC","3ZXV7Q5FJBAKJ3TNMBBLYHIS0EBCFB","","<img src=""img/set1/S4.jpg"" width=""540"" height = ""360"" style=""border:16px solid Violet"">","null","","","","","","","","","",""
"null","","html-keyboard-response","372","454209","0.0-372.0","3AQF3RZ5594XP6IG3M3K10M4CYO6FY","A3UPZ88FI1EJC","3ZXV7Q5FJBAKJ3TNMBBLYHIS0EBCFB","","","null","","","","","","","","","",""
"null","","image-keyboard-response","373","456712","0.0-373.0","3AQF3RZ5594XP6IG3M3K10M4CYO6FY","A3UPZ88FI1EJC","3ZXV7Q5FJBAKJ3TNMBBLYHIS0EBCFB","","img/set1/S1.jpg","null","1","structured_incentive","83","structured_incentive,random,structured_normal,structured_load","2,3,4,2,1,2","1,4,3,2","false","","",""
"null","","html-keyboard-response","374","457067","0.0-374.0","3AQF3RZ5594XP6IG3M3K10M4CYO6FY","A3UPZ88FI1EJC","3ZXV7Q5FJBAKJ3TNMBBLYHIS0EBCFB","","<img src=""img/set1/S1.jpg"" width=""540"" height = ""360"">","null","","","","","","","","","",""
"null","","html-keyboard-response","375","457270","0.0-375.0","3AQF3RZ5594XP6IG3M3K10M4CYO6FY","A3UPZ88FI1EJC","3ZXV7Q5FJBAKJ3TNMBBLYHIS0EBCFB","","","null","","","","","","","","","",""
"null","","image-keyboard-response","376","459773","0.0-376.0","3AQF3RZ5594XP6IG3M3K10M4CYO6FY","A3UPZ88FI1EJC","3ZXV7Q5FJBAKJ3TNMBBLYHIS0EBCFB","","img/set1/S1.jpg","null","1","structured_incentive","83","structured_incentive,random,structured_normal,structured_load","2,3,4,2,1,2","1,4,3,2","false","","",""
"null","","html-keyboard-response","377","460127","0.0-377.0","3AQF3RZ5594XP6IG3M3K10M4CYO6FY","A3UPZ88FI1EJC","3ZXV7Q5FJBAKJ3TNMBBLYHIS0EBCFB","","<img src=""img/set1/S1.jpg"" width=""540"" height = ""360"">","null","","","","","","","","","",""
"null","","html-keyboard-response","378","460329","0.0-378.0","3AQF3RZ5594XP6IG3M3K10M4CYO6FY","A3UPZ88FI1EJC","3ZXV7Q5FJBAKJ3TNMBBLYHIS0EBCFB","","","null","","","","","","","","","",""
"null","","image-keyboard-response","379","462833","0.0-379.0","3AQF3RZ5594XP6IG3M3K10M4CYO6FY","A3UPZ88FI1EJC","3ZXV7Q5FJBAKJ3TNMBBLYHIS0EBCFB","","img/set1/S2.jpg","null","2","structured_incentive","68","structured_incentive,random,structured_normal,structured_load","2,3,4,2,1,2","1,4,3,2","false","","",""
"null","","html-keyboard-response","380","463188","0.0-380.0","3AQF3RZ5594XP6IG3M3K10M4CYO6FY","A3UPZ88FI1EJC","3ZXV7Q5FJBAKJ3TNMBBLYHIS0EBCFB","","<img src=""img/set1/S2.jpg"" width=""540"" height = ""360"">","null","","","","","","","","","",""
"null","","html-keyboard-response","381","463390","0.0-381.0","3AQF3RZ5594XP6IG3M3K10M4CYO6FY","A3UPZ88FI1EJC","3ZXV7Q5FJBAKJ3TNMBBLYHIS0EBCFB","","","null","","","","","","","","","",""
"null","","image-keyboard-response","382","465893","0.0-382.0","3AQF3RZ5594XP6IG3M3K10M4CYO6FY","A3UPZ88FI1EJC","3ZXV7Q5FJBAKJ3TNMBBLYHIS0EBCFB","","img/set1/S3.jpg","null","3","structured_incentive","72","structured_incentive,random,structured_normal,structured_load","2,3,4,2,1,2","1,4,3,2","false","","",""
"null","","html-keyboard-response","383","466246","0.0-383.0","3AQF3RZ5594XP6IG3M3K10M4CYO6FY","A3UPZ88FI1EJC","3ZXV7Q5FJBAKJ3TNMBBLYHIS0EBCFB","","<img src=""img/set1/S3.jpg"" width=""540"" height = ""360"">","null","","","","","","","","","",""
"null","","html-keyboard-response","384","466449","0.0-384.0","3AQF3RZ5594XP6IG3M3K10M4CYO6FY","A3UPZ88FI1EJC","3ZXV7Q5FJBAKJ3TNMBBLYHIS0EBCFB","","","null","","","","","","","","","",""
"null","","image-keyboard-response","385","468953","0.0-385.0","3AQF3RZ5594XP6IG3M3K10M4CYO6FY","A3UPZ88FI1EJC","3ZXV7Q5FJBAKJ3TNMBBLYHIS0EBCFB","","img/set1/S2.jpg","null","2","structured_incentive","68","structured_incentive,random,structured_normal,structured_load","2,3,4,2,1,2","1,4,3,2","false","","",""
"null","","html-keyboard-response","386","469306","0.0-386.0","3AQF3RZ5594XP6IG3M3K10M4CYO6FY","A3UPZ88FI1EJC","3ZXV7Q5FJBAKJ3TNMBBLYHIS0EBCFB","","<img src=""img/set1/S2.jpg"" width=""540"" height = ""360"">","null","","","","","","","","","",""
"null","","html-keyboard-response","387","469509","0.0-387.0","3AQF3RZ5594XP6IG3M3K10M4CYO6FY","A3UPZ88FI1EJC","3ZXV7Q5FJBAKJ3TNMBBLYHIS0EBCFB","","","null","","","","","","","","","",""
"437.10000002384186","","image-keyboard-response","388","469949","0.0-388.0","3AQF3RZ5594XP6IG3M3K10M4CYO6FY","A3UPZ88FI1EJC","3ZXV7Q5FJBAKJ3TNMBBLYHIS0EBCFB","","img/set1/S4.jpg","74","4","structured_incentive","74","structured_incentive,random,structured_normal,structured_load","2,3,4,2,1,2","1,4,3,2","true","","",""
"null","","html-keyboard-response","389","470302","0.0-389.0","3AQF3RZ5594XP6IG3M3K10M4CYO6FY","A3UPZ88FI1EJC","3ZXV7Q5FJBAKJ3TNMBBLYHIS0EBCFB","","<img src=""img/set1/S4.jpg"" width=""540"" height = ""360"" style=""border:16px solid Violet"">","null","","","","","","","","","",""
"null","","html-keyboard-response","390","470506","0.0-390.0","3AQF3RZ5594XP6IG3M3K10M4CYO6FY","A3UPZ88FI1EJC","3ZXV7Q5FJBAKJ3TNMBBLYHIS0EBCFB","","","null","","","","","","","","","",""
"null","","image-keyboard-response","391","473009","0.0-391.0","3AQF3RZ5594XP6IG3M3K10M4CYO6FY","A3UPZ88FI1EJC","3ZXV7Q5FJBAKJ3TNMBBLYHIS0EBCFB","","img/set1/S2.jpg","null","2","structured_incentive","68","structured_incentive,random,structured_normal,structured_load","2,3,4,2,1,2","1,4,3,2","false","","",""
"null","","html-keyboard-response","392","473363","0.0-392.0","3AQF3RZ5594XP6IG3M3K10M4CYO6FY","A3UPZ88FI1EJC","3ZXV7Q5FJBAKJ3TNMBBLYHIS0EBCFB","","<img src=""img/set1/S2.jpg"" width=""540"" height = ""360"">","null","","","","","","","","","",""
"null","","html-keyboard-response","393","473566","0.0-393.0","3AQF3RZ5594XP6IG3M3K10M4CYO6FY","A3UPZ88FI1EJC","3ZXV7Q5FJBAKJ3TNMBBLYHIS0EBCFB","","","null","","","","","","","","","",""
"330.5","","image-keyboard-response","394","473899","0.0-394.0","3AQF3RZ5594XP6IG3M3K10M4CYO6FY","A3UPZ88FI1EJC","3ZXV7Q5FJBAKJ3TNMBBLYHIS0EBCFB","","img/set1/S4.jpg","74","4","structured_incentive","74","structured_incentive,random,structured_normal,structured_load","2,3,4,2,1,2","1,4,3,2","true","","",""
