"rt","url","trial_type","trial_index","time_elapsed","internal_node_id","view_history","stimulus","key_press","state","test_part","correct_response","order_block","order_chunk","correct","responses","bonus"
"10364.299999952316","consent.html","external-html","0","10455","0.0-0.0","","","","","","","","","","",""
"154486.30000001192","","instructions","1","164942","0.0-1.0","[{""page_index"":0,""viewing_time"":6094.599999964237},{""page_index"":1,""viewing_time"":19474.100000023842},{""page_index"":2,""viewing_time"":69572.69999998808},{""page_index"":3,""viewing_time"":22454.400000035763},{""page_index"":4,""viewing_time"":9067.799999952316},{""page_index"":5,""viewing_time"":16841.80000001192},{""page_index"":6,""viewing_time"":10980.199999988079}]","","","","","","","","","",""
"18966.900000035763","","instructions","2","183909","0.0-2.0","[{""page_index"":0,""viewing_time"":18966.5}]","","","","","","","","","",""
"8369.699999988079","","instructions","3","192279","0.0-3.0","[{""page_index"":0,""viewing_time"":8369.199999988079}]","","","","","","","","","",""
"1089.3999999761581","","image-keyboard-response","4","193370","0.0-4.0","","img/set1/S3.jpg","83","3","random","72","random,structured_normal,structured_incentive,structured_load","2,3,2,1,3,4","false","",""
"null","","html-keyboard-response","5","193728","0.0-5.0","","<img src=""img/set1/S3.jpg"" width=""540"" height = ""360"">","null","","","","","","","",""
"null","","html-keyboard-response","6","193934","0.0-6.0","","","null","","","","","","","",""
"1526.699999988079","","image-keyboard-response","7","195461","0.0-7.0","","img/set1/S1.jpg","68","1","random","83","random,structured_normal,structured_incentive,structured_load","2,3,2,1,3,4","false","",""
"null","","html-keyboard-response","8","195818","0.0-8.0","","<img src=""img/set1/S1.jpg"" width=""540"" height = ""360"">","null","","","","","","","",""
"null","","html-keyboard-response","9","196019","0.0-9.0","","","null","","","","","","","",""
"724.3000000119209","","image-keyboard-response","10","196745","0.0-10.0","","img/set1/S2.jpg","72","2","random","68","random,structured_normal,structured_incentive,structured_load","2,3,2,1,3,4","false","",""
"null","","html-keyboard-response","11","197101","0.0-11.0","","<img src=""img/set1/S2.jpg"" width=""540"" height = ""360"">","null","","","","","","","",""
"null","","html-keyboard-response","12","197303","0.0-12.0","","","null","","","","","","","",""
"542.6000000238419","","image-keyboard-response","13","197846","0.0-13.0","","img/set1/S4.jpg","74","4","random","74","random,structured_normal,structured_incentive,structured_load","2,3,2,1,3,4","true","",""
"null","","html-keyboard-response","14","198203","0.0-14.0","","<img src=""img/set1/S4.jpg"" width=""540"" height = ""360"" style=""border:16px solid orange"">","null","","","","","","","",""
"null","","html-keyboard-response","15","198408","0.0-15.0","","","null","","","","","","","",""
"2452.399999976158","","image-keyboard-response","16","200862","0.0-16.0","","img/set1/S1.jpg","68","1","random","83","random,structured_normal,structured_incentive,structured_load","2,3,2,1,3,4","false","",""
"null","","html-keyboard-response","17","201218","0.0-17.0","","<img src=""img/set1/S1.jpg"" width=""540"" height = ""360"">","null","","","","","","","",""
"null","","html-keyboard-response","18","201420","0.0-18.0","","","null","","","","","","","",""
"891.5999999642372","","image-keyboard-response","19","202313","0.0-19.0","","img/set1/S3.jpg","83","3","random","72","random,structured_normal,structured_incentive,structured_load","2,3,2,1,3,4","false","",""
"null","","html-keyboard-response","20","202668","0.0-20.0","","<img src=""img/set1/S3.jpg"" width=""540"" height = ""360"">","null","","","","","","","",""
"null","","html-keyboard-response","21","202872","0.0-21.0","","","null","","","","","","","",""
"553.6999999880791","","image-keyboard-response","22","203427","0.0-22.0","","img/set1/S3.jpg","74","3","random","72","random,structured_normal,structured_incentive,structured_load","2,3,2,1,3,4","false","",""
"null","","html-keyboard-response","23","203781","0.0-23.0","","<img src=""img/set1/S3.jpg"" width=""540"" height = ""360"">","null","","","","","","","",""
"null","","html-keyboard-response","24","203984","0.0-24.0","","","null","","","","","","","",""
"567.6000000238419","","image-keyboard-response","25","204552","0.0-25.0","","img/set1/S2.jpg","72","2","random","68","random,structured_normal,structured_incentive,structured_load","2,3,2,1,3,4","false","",""
"null","","html-keyboard-response","26","204905","0.0-26.0","","<img src=""img/set1/S2.jpg"" width=""540"" height = ""360"">","null","","","","","","","",""
"null","","html-keyboard-response","27","205110","0.0-27.0","","","null","","","","","","","",""
"757.0999999642372","","image-keyboard-response","28","205868","0.0-28.0","","img/set1/S2.jpg","68","2","random","68","random,structured_normal,structured_incentive,structured_load","2,3,2,1,3,4","true","",""
"null","","html-keyboard-response","29","206224","0.0-29.0","","<img src=""img/set1/S2.jpg"" width=""540"" height = ""360"" style=""border:16px solid orange"">","null","","","","","","","",""
"null","","html-keyboard-response","30","206425","0.0-30.0","","","null","","","","","","","",""
"null","","image-keyboard-response","31","208926","0.0-31.0","","img/set1/S3.jpg","null","3","random","72","random,structured_normal,structured_incentive,structured_load","2,3,2,1,3,4","false","",""
"null","","html-keyboard-response","32","209283","0.0-32.0","","<img src=""img/set1/S3.jpg"" width=""540"" height = ""360"">","null","","","","","","","",""
"null","","html-keyboard-response","33","209489","0.0-33.0","","","null","","","","","","","",""
"1047.300000011921","","image-keyboard-response","34","210537","0.0-34.0","","img/set1/S2.jpg","68","2","random","68","random,structured_normal,structured_incentive,structured_load","2,3,2,1,3,4","true","",""
"null","","html-keyboard-response","35","210889","0.0-35.0","","<img src=""img/set1/S2.jpg"" width=""540"" height = ""360"" style=""border:16px solid orange"">","null","","","","","","","",""
"null","","html-keyboard-response","36","211095","0.0-36.0","","","null","","","","","","","",""
"577","","image-keyboard-response","37","211673","0.0-37.0","","img/set1/S2.jpg","68","2","random","68","random,structured_normal,structured_incentive,structured_load","2,3,2,1,3,4","true","",""
"null","","html-keyboard-response","38","212029","0.0-38.0","","<img src=""img/set1/S2.jpg"" width=""540"" height = ""360"" style=""border:16px solid orange"">","null","","","","","","","",""
"null","","html-keyboard-response","39","212231","0.0-39.0","","","null","","","","","","","",""
"554.5","","image-keyboard-response","40","212787","0.0-40.0","","img/set1/S3.jpg","72","3","random","72","random,structured_normal,structured_incentive,structured_load","2,3,2,1,3,4","true","",""
"null","","html-keyboard-response","41","213140","0.0-41.0","","<img src=""img/set1/S3.jpg"" width=""540"" height = ""360"" style=""border:16px solid orange"">","null","","","","","","","",""
"null","","html-keyboard-response","42","213344","0.0-42.0","","","null","","","","","","","",""
"1005.7999999523163","","image-keyboard-response","43","214351","0.0-43.0","","img/set1/S2.jpg","68","2","random","68","random,structured_normal,structured_incentive,structured_load","2,3,2,1,3,4","true","",""
"null","","html-keyboard-response","44","214703","0.0-44.0","","<img src=""img/set1/S2.jpg"" width=""540"" height = ""360"" style=""border:16px solid orange"">","null","","","","","","","",""
"null","","html-keyboard-response","45","214907","0.0-45.0","","","null","","","","","","","",""
"714.4000000357628","","image-keyboard-response","46","215622","0.0-46.0","","img/set1/S1.jpg","83","1","random","83","random,structured_normal,structured_incentive,structured_load","2,3,2,1,3,4","true","",""
"null","","html-keyboard-response","47","215974","0.0-47.0","","<img src=""img/set1/S1.jpg"" width=""540"" height = ""360"" style=""border:16px solid orange"">","null","","","","","","","",""
"null","","html-keyboard-response","48","216180","0.0-48.0","","","null","","","","","","","",""
"836.1999999880791","","image-keyboard-response","49","217017","0.0-49.0","","img/set1/S3.jpg","72","3","random","72","random,structured_normal,structured_incentive,structured_load","2,3,2,1,3,4","true","",""
"null","","html-keyboard-response","50","217370","0.0-50.0","","<img src=""img/set1/S3.jpg"" width=""540"" height = ""360"" style=""border:16px solid orange"">","null","","","","","","","",""
"null","","html-keyboard-response","51","217574","0.0-51.0","","","null","","","","","","","",""
"668.1000000238419","","image-keyboard-response","52","218243","0.0-52.0","","img/set1/S4.jpg","74","4","random","74","random,structured_normal,structured_incentive,structured_load","2,3,2,1,3,4","true","",""
"null","","html-keyboard-response","53","218595","0.0-53.0","","<img src=""img/set1/S4.jpg"" width=""540"" height = ""360"" style=""border:16px solid orange"">","null","","","","","","","",""
"null","","html-keyboard-response","54","218800","0.0-54.0","","","null","","","","","","","",""
"488","","image-keyboard-response","55","219290","0.0-55.0","","img/set1/S4.jpg","74","4","random","74","random,structured_normal,structured_incentive,structured_load","2,3,2,1,3,4","true","",""
"null","","html-keyboard-response","56","219641","0.0-56.0","","<img src=""img/set1/S4.jpg"" width=""540"" height = ""360"" style=""border:16px solid orange"">","null","","","","","","","",""
"null","","html-keyboard-response","57","219844","0.0-57.0","","","null","","","","","","","",""
"670.6000000238419","","image-keyboard-response","58","220516","0.0-58.0","","img/set1/S2.jpg","68","2","random","68","random,structured_normal,structured_incentive,structured_load","2,3,2,1,3,4","true","",""
"null","","html-keyboard-response","59","220872","0.0-59.0","","<img src=""img/set1/S2.jpg"" width=""540"" height = ""360"" style=""border:16px solid orange"">","null","","","","","","","",""
"null","","html-keyboard-response","60","221075","0.0-60.0","","","null","","","","","","","",""
"688.9000000357628","","image-keyboard-response","61","221765","0.0-61.0","","img/set1/S1.jpg","83","1","random","83","random,structured_normal,structured_incentive,structured_load","2,3,2,1,3,4","true","",""
"null","","html-keyboard-response","62","222121","0.0-62.0","","<img src=""img/set1/S1.jpg"" width=""540"" height = ""360"" style=""border:16px solid orange"">","null","","","","","","","",""
"null","","html-keyboard-response","63","222325","0.0-63.0","","","null","","","","","","","",""
"518.1999999880791","","image-keyboard-response","64","222845","0.0-64.0","","img/set1/S1.jpg","83","1","random","83","random,structured_normal,structured_incentive,structured_load","2,3,2,1,3,4","true","",""
"null","","html-keyboard-response","65","223199","0.0-65.0","","<img src=""img/set1/S1.jpg"" width=""540"" height = ""360"" style=""border:16px solid orange"">","null","","","","","","","",""
"null","","html-keyboard-response","66","223404","0.0-66.0","","","null","","","","","","","",""
"485.60000002384186","","image-keyboard-response","67","223891","0.0-67.0","","img/set1/S1.jpg","83","1","random","83","random,structured_normal,structured_incentive,structured_load","2,3,2,1,3,4","true","",""
"null","","html-keyboard-response","68","224247","0.0-68.0","","<img src=""img/set1/S1.jpg"" width=""540"" height = ""360"" style=""border:16px solid orange"">","null","","","","","","","",""
"null","","html-keyboard-response","69","224451","0.0-69.0","","","null","","","","","","","",""
"754.7000000476837","","image-keyboard-response","70","225207","0.0-70.0","","img/set1/S3.jpg","72","3","random","72","random,structured_normal,structured_incentive,structured_load","2,3,2,1,3,4","true","",""
"null","","html-keyboard-response","71","225560","0.0-71.0","","<img src=""img/set1/S3.jpg"" width=""540"" height = ""360"" style=""border:16px solid orange"">","null","","","","","","","",""
"null","","html-keyboard-response","72","225765","0.0-72.0","","","null","","","","","","","",""
"577.1999999880791","","image-keyboard-response","73","226344","0.0-73.0","","img/set1/S1.jpg","83","1","random","83","random,structured_normal,structured_incentive,structured_load","2,3,2,1,3,4","true","",""
"null","","html-keyboard-response","74","226700","0.0-74.0","","<img src=""img/set1/S1.jpg"" width=""540"" height = ""360"" style=""border:16px solid orange"">","null","","","","","","","",""
"null","","html-keyboard-response","75","226901","0.0-75.0","","","null","","","","","","","",""
"735.3000000119209","","image-keyboard-response","76","227637","0.0-76.0","","img/set1/S4.jpg","74","4","random","74","random,structured_normal,structured_incentive,structured_load","2,3,2,1,3,4","true","",""
"null","","html-keyboard-response","77","227990","0.0-77.0","","<img src=""img/set1/S4.jpg"" width=""540"" height = ""360"" style=""border:16px solid orange"">","null","","","","","","","",""
"null","","html-keyboard-response","78","228194","0.0-78.0","","","null","","","","","","","",""
"511.5","","image-keyboard-response","79","228706","0.0-79.0","","img/set1/S4.jpg","74","4","random","74","random,structured_normal,structured_incentive,structured_load","2,3,2,1,3,4","true","",""
"null","","html-keyboard-response","80","229060","0.0-80.0","","<img src=""img/set1/S4.jpg"" width=""540"" height = ""360"" style=""border:16px solid orange"">","null","","","","","","","",""
"null","","html-keyboard-response","81","229266","0.0-81.0","","","null","","","","","","","",""
"687.3000000119209","","image-keyboard-response","82","229955","0.0-82.0","","img/set1/S1.jpg","83","1","random","83","random,structured_normal,structured_incentive,structured_load","2,3,2,1,3,4","true","",""
"null","","html-keyboard-response","83","230311","0.0-83.0","","<img src=""img/set1/S1.jpg"" width=""540"" height = ""360"" style=""border:16px solid orange"">","null","","","","","","","",""
"null","","html-keyboard-response","84","230517","0.0-84.0","","","null","","","","","","","",""
"450.19999998807907","","image-keyboard-response","85","230968","0.0-85.0","","img/set1/S1.jpg","83","1","random","83","random,structured_normal,structured_incentive,structured_load","2,3,2,1,3,4","true","",""
"null","","html-keyboard-response","86","231324","0.0-86.0","","<img src=""img/set1/S1.jpg"" width=""540"" height = ""360"" style=""border:16px solid orange"">","null","","","","","","","",""
"null","","html-keyboard-response","87","231528","0.0-87.0","","","null","","","","","","","",""
"1733.800000011921","","image-keyboard-response","88","233262","0.0-88.0","","img/set1/S3.jpg","72","3","random","72","random,structured_normal,structured_incentive,structured_load","2,3,2,1,3,4","true","",""
"null","","html-keyboard-response","89","233619","0.0-89.0","","<img src=""img/set1/S3.jpg"" width=""540"" height = ""360"" style=""border:16px solid orange"">","null","","","","","","","",""
"null","","html-keyboard-response","90","233824","0.0-90.0","","","null","","","","","","","",""
"809.3000000119209","","image-keyboard-response","91","234635","0.0-91.0","","img/set1/S2.jpg","68","2","random","68","random,structured_normal,structured_incentive,structured_load","2,3,2,1,3,4","true","",""
"null","","html-keyboard-response","92","234989","0.0-92.0","","<img src=""img/set1/S2.jpg"" width=""540"" height = ""360"" style=""border:16px solid orange"">","null","","","","","","","",""
"null","","html-keyboard-response","93","235195","0.0-93.0","","","null","","","","","","","",""
"665.8000000119209","","image-keyboard-response","94","235861","0.0-94.0","","img/set1/S3.jpg","72","3","random","72","random,structured_normal,structured_incentive,structured_load","2,3,2,1,3,4","true","",""
"null","","html-keyboard-response","95","236218","0.0-95.0","","<img src=""img/set1/S3.jpg"" width=""540"" height = ""360"" style=""border:16px solid orange"">","null","","","","","","","",""
"null","","html-keyboard-response","96","236423","0.0-96.0","","","null","","","","","","","",""
"775.4000000357628","","image-keyboard-response","97","237200","0.0-97.0","","img/set1/S4.jpg","74","4","random","74","random,structured_normal,structured_incentive,structured_load","2,3,2,1,3,4","true","",""
"null","","html-keyboard-response","98","237556","0.0-98.0","","<img src=""img/set1/S4.jpg"" width=""540"" height = ""360"" style=""border:16px solid orange"">","null","","","","","","","",""
"null","","html-keyboard-response","99","237762","0.0-99.0","","","null","","","","","","","",""
"449.5","","image-keyboard-response","100","238213","0.0-100.0","","img/set1/S4.jpg","74","4","random","74","random,structured_normal,structured_incentive,structured_load","2,3,2,1,3,4","true","",""
"null","","html-keyboard-response","101","238569","0.0-101.0","","<img src=""img/set1/S4.jpg"" width=""540"" height = ""360"" style=""border:16px solid orange"">","null","","","","","","","",""
"null","","html-keyboard-response","102","238772","0.0-102.0","","","null","","","","","","","",""
"384.7999999523163","","image-keyboard-response","103","239157","0.0-103.0","","img/set1/S4.jpg","74","4","random","74","random,structured_normal,structured_incentive,structured_load","2,3,2,1,3,4","true","",""
"null","","html-keyboard-response","104","239513","0.0-104.0","","<img src=""img/set1/S4.jpg"" width=""540"" height = ""360"" style=""border:16px solid orange"">","null","","","","","","","",""
"null","","html-keyboard-response","105","239714","0.0-105.0","","","null","","","","","","","",""
"713.9000000357628","","image-keyboard-response","106","240429","0.0-106.0","","img/set1/S1.jpg","83","1","random","83","random,structured_normal,structured_incentive,structured_load","2,3,2,1,3,4","true","",""
"null","","html-keyboard-response","107","240781","0.0-107.0","","<img src=""img/set1/S1.jpg"" width=""540"" height = ""360"" style=""border:16px solid orange"">","null","","","","","","","",""
"null","","html-keyboard-response","108","240982","0.0-108.0","","","null","","","","","","","",""
"638.5","","image-keyboard-response","109","241621","0.0-109.0","","img/set1/S4.jpg","74","4","random","74","random,structured_normal,structured_incentive,structured_load","2,3,2,1,3,4","true","",""
"null","","html-keyboard-response","110","241973","0.0-110.0","","<img src=""img/set1/S4.jpg"" width=""540"" height = ""360"" style=""border:16px solid orange"">","null","","","","","","","",""
"null","","html-keyboard-response","111","242177","0.0-111.0","","","null","","","","","","","",""
"995.3000000119209","","image-keyboard-response","112","243174","0.0-112.0","","img/set1/S3.jpg","72","3","random","72","random,structured_normal,structured_incentive,structured_load","2,3,2,1,3,4","true","",""
"null","","html-keyboard-response","113","243525","0.0-113.0","","<img src=""img/set1/S3.jpg"" width=""540"" height = ""360"" style=""border:16px solid orange"">","null","","","","","","","",""
"null","","html-keyboard-response","114","243726","0.0-114.0","","","null","","","","","","","",""
"661.4000000357628","","image-keyboard-response","115","244389","0.0-115.0","","img/set1/S4.jpg","74","4","random","74","random,structured_normal,structured_incentive,structured_load","2,3,2,1,3,4","true","",""
"null","","html-keyboard-response","116","244741","0.0-116.0","","<img src=""img/set1/S4.jpg"" width=""540"" height = ""360"" style=""border:16px solid orange"">","null","","","","","","","",""
"null","","html-keyboard-response","117","244946","0.0-117.0","","","null","","","","","","","",""
"938.0999999642372","","image-keyboard-response","118","245885","0.0-118.0","","img/set1/S2.jpg","68","2","random","68","random,structured_normal,structured_incentive,structured_load","2,3,2,1,3,4","true","",""
"null","","html-keyboard-response","119","246242","0.0-119.0","","<img src=""img/set1/S2.jpg"" width=""540"" height = ""360"" style=""border:16px solid orange"">","null","","","","","","","",""
"null","","html-keyboard-response","120","246447","0.0-120.0","","","null","","","","","","","",""
"437.89999997615814","","image-keyboard-response","121","246886","0.0-121.0","","img/set1/S2.jpg","68","2","random","68","random,structured_normal,structured_incentive,structured_load","2,3,2,1,3,4","true","",""
"null","","html-keyboard-response","122","247239","0.0-122.0","","<img src=""img/set1/S2.jpg"" width=""540"" height = ""360"" style=""border:16px solid orange"">","null","","","","","","","",""
"null","","html-keyboard-response","123","247441","0.0-123.0","","","null","","","","","","","",""
"670.5","","image-keyboard-response","124","248112","0.0-124.0","","img/set1/S4.jpg","74","4","random","74","random,structured_normal,structured_incentive,structured_load","2,3,2,1,3,4","true","",""
"null","","html-keyboard-response","125","248465","0.0-125.0","","<img src=""img/set1/S4.jpg"" width=""540"" height = ""360"" style=""border:16px solid orange"">","null","","","","","","","",""
"null","","html-keyboard-response","126","248671","0.0-126.0","","","null","","","","","","","",""
"622.3000000119209","","image-keyboard-response","127","249294","0.0-127.0","","img/set1/S2.jpg","68","2","random","68","random,structured_normal,structured_incentive,structured_load","2,3,2,1,3,4","true","",""
"null","","html-keyboard-response","128","249649","0.0-128.0","","<img src=""img/set1/S2.jpg"" width=""540"" height = ""360"" style=""border:16px solid orange"">","null","","","","","","","",""
"null","","html-keyboard-response","129","249851","0.0-129.0","","","null","","","","","","","",""
"657.3000000119209","","image-keyboard-response","130","250510","0.0-130.0","","img/set1/S1.jpg","83","1","random","83","random,structured_normal,structured_incentive,structured_load","2,3,2,1,3,4","true","",""
"null","","html-keyboard-response","131","250865","0.0-131.0","","<img src=""img/set1/S1.jpg"" width=""540"" height = ""360"" style=""border:16px solid orange"">","null","","","","","","","",""
"null","","html-keyboard-response","132","251068","0.0-132.0","","","null","","","","","","","",""
"722.3999999761581","","image-keyboard-response","133","251791","0.0-133.0","","img/set1/S3.jpg","72","3","random","72","random,structured_normal,structured_incentive,structured_load","2,3,2,1,3,4","true","",""
"null","","html-keyboard-response","134","252146","0.0-134.0","","<img src=""img/set1/S3.jpg"" width=""540"" height = ""360"" style=""border:16px solid orange"">","null","","","","","","","",""
"null","","html-keyboard-response","135","252349","0.0-135.0","","","null","","","","","","","",""
"825.1000000238419","","image-keyboard-response","136","253175","0.0-136.0","","img/set1/S2.jpg","68","2","random","68","random,structured_normal,structured_incentive,structured_load","2,3,2,1,3,4","true","",""
"null","","html-keyboard-response","137","253527","0.0-137.0","","<img src=""img/set1/S2.jpg"" width=""540"" height = ""360"" style=""border:16px solid orange"">","null","","","","","","","",""
"null","","html-keyboard-response","138","253732","0.0-138.0","","","null","","","","","","","",""
"702","","image-keyboard-response","139","254435","0.0-139.0","","img/set1/S3.jpg","72","3","random","72","random,structured_normal,structured_incentive,structured_load","2,3,2,1,3,4","true","",""
"null","","html-keyboard-response","140","254787","0.0-140.0","","<img src=""img/set1/S3.jpg"" width=""540"" height = ""360"" style=""border:16px solid orange"">","null","","","","","","","",""
"null","","html-keyboard-response","141","254989","0.0-141.0","","","null","","","","","","","",""
"660.7999999523163","","image-keyboard-response","142","255650","0.0-142.0","","img/set1/S2.jpg","68","2","random","68","random,structured_normal,structured_incentive,structured_load","2,3,2,1,3,4","true","",""
"null","","html-keyboard-response","143","256006","0.0-143.0","","<img src=""img/set1/S2.jpg"" width=""540"" height = ""360"" style=""border:16px solid orange"">","null","","","","","","","",""
"null","","html-keyboard-response","144","256208","0.0-144.0","","","null","","","","","","","",""
"521.8999999761581","","image-keyboard-response","145","256731","0.0-145.0","","img/set1/S3.jpg","72","3","random","72","random,structured_normal,structured_incentive,structured_load","2,3,2,1,3,4","true","",""
"null","","html-keyboard-response","146","257085","0.0-146.0","","<img src=""img/set1/S3.jpg"" width=""540"" height = ""360"" style=""border:16px solid orange"">","null","","","","","","","",""
"null","","html-keyboard-response","147","257287","0.0-147.0","","","null","","","","","","","",""
"657.4000000357628","","image-keyboard-response","148","257945","0.0-148.0","","img/set1/S1.jpg","83","1","random","83","random,structured_normal,structured_incentive,structured_load","2,3,2,1,3,4","true","",""
"null","","html-keyboard-response","149","258302","0.0-149.0","","<img src=""img/set1/S1.jpg"" width=""540"" height = ""360"" style=""border:16px solid orange"">","null","","","","","","","",""
"null","","html-keyboard-response","150","258507","0.0-150.0","","","null","","","","","","","",""
"528.1000000238419","","image-keyboard-response","151","259037","0.0-151.0","","img/set1/S4.jpg","74","4","random","74","random,structured_normal,structured_incentive,structured_load","2,3,2,1,3,4","true","",""
"null","","html-keyboard-response","152","259390","0.0-152.0","","<img src=""img/set1/S4.jpg"" width=""540"" height = ""360"" style=""border:16px solid orange"">","null","","","","","","","",""
"null","","html-keyboard-response","153","259591","0.0-153.0","","","null","","","","","","","",""
"446.5","","image-keyboard-response","154","260038","0.0-154.0","","img/set1/S4.jpg","74","4","random","74","random,structured_normal,structured_incentive,structured_load","2,3,2,1,3,4","true","",""
"null","","html-keyboard-response","155","260395","0.0-155.0","","<img src=""img/set1/S4.jpg"" width=""540"" height = ""360"" style=""border:16px solid orange"">","null","","","","","","","",""
"null","","html-keyboard-response","156","260597","0.0-156.0","","","null","","","","","","","",""
"1049.199999988079","","image-keyboard-response","157","261647","0.0-157.0","","img/set1/S2.jpg","68","2","random","68","random,structured_normal,structured_incentive,structured_load","2,3,2,1,3,4","true","",""
"null","","html-keyboard-response","158","262002","0.0-158.0","","<img src=""img/set1/S2.jpg"" width=""540"" height = ""360"" style=""border:16px solid orange"">","null","","","","","","","",""
"null","","html-keyboard-response","159","262208","0.0-159.0","","","null","","","","","","","",""
"653","","image-keyboard-response","160","262862","0.0-160.0","","img/set1/S1.jpg","83","1","random","83","random,structured_normal,structured_incentive,structured_load","2,3,2,1,3,4","true","",""
"null","","html-keyboard-response","161","263218","0.0-161.0","","<img src=""img/set1/S1.jpg"" width=""540"" height = ""360"" style=""border:16px solid orange"">","null","","","","","","","",""
"null","","html-keyboard-response","162","263421","0.0-162.0","","","null","","","","","","","",""
"812.3999999761581","","image-keyboard-response","163","264234","0.0-163.0","","img/set1/S3.jpg","74","3","random","72","random,structured_normal,structured_incentive,structured_load","2,3,2,1,3,4","false","",""
"null","","html-keyboard-response","164","264586","0.0-164.0","","<img src=""img/set1/S3.jpg"" width=""540"" height = ""360"">","null","","","","","","","",""
"null","","html-keyboard-response","165","264788","0.0-165.0","","","null","","","","","","","",""
"1425","","image-keyboard-response","166","266214","0.0-166.0","","img/set1/S2.jpg","68","2","random","68","random,structured_normal,structured_incentive,structured_load","2,3,2,1,3,4","true","",""
"null","","html-keyboard-response","167","266569","0.0-167.0","","<img src=""img/set1/S2.jpg"" width=""540"" height = ""360"" style=""border:16px solid orange"">","null","","","","","","","",""
"null","","html-keyboard-response","168","266775","0.0-168.0","","","null","","","","","","","",""
"608.1000000238419","","image-keyboard-response","169","267384","0.0-169.0","","img/set1/S4.jpg","74","4","random","74","random,structured_normal,structured_incentive,structured_load","2,3,2,1,3,4","true","",""
"null","","html-keyboard-response","170","267736","0.0-170.0","","<img src=""img/set1/S4.jpg"" width=""540"" height = ""360"" style=""border:16px solid orange"">","null","","","","","","","",""
"null","","html-keyboard-response","171","267942","0.0-171.0","","","null","","","","","","","",""
"543.2000000476837","","image-keyboard-response","172","268487","0.0-172.0","","img/set1/S1.jpg","83","1","random","83","random,structured_normal,structured_incentive,structured_load","2,3,2,1,3,4","true","",""
"null","","html-keyboard-response","173","268843","0.0-173.0","","<img src=""img/set1/S1.jpg"" width=""540"" height = ""360"" style=""border:16px solid orange"">","null","","","","","","","",""
"null","","html-keyboard-response","174","269047","0.0-174.0","","","null","","","","","","","",""
"912.5","","image-keyboard-response","175","269960","0.0-175.0","","img/set1/S2.jpg","68","2","random","68","random,structured_normal,structured_incentive,structured_load","2,3,2,1,3,4","true","",""
"null","","html-keyboard-response","176","270317","0.0-176.0","","<img src=""img/set1/S2.jpg"" width=""540"" height = ""360"" style=""border:16px solid orange"">","null","","","","","","","",""
"null","","html-keyboard-response","177","270523","0.0-177.0","","","null","","","","","","","",""
"584.5","","image-keyboard-response","178","271108","0.0-178.0","","img/set1/S2.jpg","68","2","random","68","random,structured_normal,structured_incentive,structured_load","2,3,2,1,3,4","true","",""
"null","","html-keyboard-response","179","271460","0.0-179.0","","<img src=""img/set1/S2.jpg"" width=""540"" height = ""360"" style=""border:16px solid orange"">","null","","","","","","","",""
"null","","html-keyboard-response","180","271666","0.0-180.0","","","null","","","","","","","",""
"633.8000000119209","","image-keyboard-response","181","272301","0.0-181.0","","img/set1/S4.jpg","74","4","random","74","random,structured_normal,structured_incentive,structured_load","2,3,2,1,3,4","true","",""
"null","","html-keyboard-response","182","272657","0.0-182.0","","<img src=""img/set1/S4.jpg"" width=""540"" height = ""360"" style=""border:16px solid orange"">","null","","","","","","","",""
"null","","html-keyboard-response","183","272863","0.0-183.0","","","null","","","","","","","",""
"617.8000000119209","","image-keyboard-response","184","273482","0.0-184.0","","img/set1/S2.jpg","68","2","random","68","random,structured_normal,structured_incentive,structured_load","2,3,2,1,3,4","true","",""
"null","","html-keyboard-response","185","273834","0.0-185.0","","<img src=""img/set1/S2.jpg"" width=""540"" height = ""360"" style=""border:16px solid orange"">","null","","","","","","","",""
"null","","html-keyboard-response","186","274035","0.0-186.0","","","null","","","","","","","",""
"480.5","","image-keyboard-response","187","274517","0.0-187.0","","img/set1/S2.jpg","68","2","random","68","random,structured_normal,structured_incentive,structured_load","2,3,2,1,3,4","true","",""
"null","","html-keyboard-response","188","274873","0.0-188.0","","<img src=""img/set1/S2.jpg"" width=""540"" height = ""360"" style=""border:16px solid orange"">","null","","","","","","","",""
"null","","html-keyboard-response","189","275076","0.0-189.0","","","null","","","","","","","",""
"565.0999999642372","","image-keyboard-response","190","275642","0.0-190.0","","img/set1/S4.jpg","74","4","random","74","random,structured_normal,structured_incentive,structured_load","2,3,2,1,3,4","true","",""
"null","","html-keyboard-response","191","275995","0.0-191.0","","<img src=""img/set1/S4.jpg"" width=""540"" height = ""360"" style=""border:16px solid orange"">","null","","","","","","","",""
"null","","html-keyboard-response","192","276199","0.0-192.0","","","null","","","","","","","",""
"499.2000000476837","","image-keyboard-response","193","276700","0.0-193.0","","img/set1/S2.jpg","68","2","random","68","random,structured_normal,structured_incentive,structured_load","2,3,2,1,3,4","true","",""
"null","","html-keyboard-response","194","277053","0.0-194.0","","<img src=""img/set1/S2.jpg"" width=""540"" height = ""360"" style=""border:16px solid orange"">","null","","","","","","","",""
"null","","html-keyboard-response","195","277259","0.0-195.0","","","null","","","","","","","",""
"654.8000000119209","","image-keyboard-response","196","277915","0.0-196.0","","img/set1/S1.jpg","83","1","random","83","random,structured_normal,structured_incentive,structured_load","2,3,2,1,3,4","true","",""
"null","","html-keyboard-response","197","278271","0.0-197.0","","<img src=""img/set1/S1.jpg"" width=""540"" height = ""360"" style=""border:16px solid orange"">","null","","","","","","","",""
"null","","html-keyboard-response","198","278472","0.0-198.0","","","null","","","","","","","",""
"668","","image-keyboard-response","199","279141","0.0-199.0","","img/set1/S2.jpg","68","2","random","68","random,structured_normal,structured_incentive,structured_load","2,3,2,1,3,4","true","",""
"null","","html-keyboard-response","200","279498","0.0-200.0","","<img src=""img/set1/S2.jpg"" width=""540"" height = ""360"" style=""border:16px solid orange"">","null","","","","","","","",""
"null","","html-keyboard-response","201","279703","0.0-201.0","","","null","","","","","","","",""
"640.3000000119209","","image-keyboard-response","202","280345","0.0-202.0","","img/set1/S1.jpg","83","1","random","83","random,structured_normal,structured_incentive,structured_load","2,3,2,1,3,4","true","",""
"null","","html-keyboard-response","203","280701","0.0-203.0","","<img src=""img/set1/S1.jpg"" width=""540"" height = ""360"" style=""border:16px solid orange"">","null","","","","","","","",""
"null","","html-keyboard-response","204","280903","0.0-204.0","","","null","","","","","","","",""
"475.69999998807907","","image-keyboard-response","205","281380","0.0-205.0","","img/set1/S1.jpg","83","1","random","83","random,structured_normal,structured_incentive,structured_load","2,3,2,1,3,4","true","",""
"null","","html-keyboard-response","206","281735","0.0-206.0","","<img src=""img/set1/S1.jpg"" width=""540"" height = ""360"" style=""border:16px solid orange"">","null","","","","","","","",""
"null","","html-keyboard-response","207","281936","0.0-207.0","","","null","","","","","","","",""
"567","","image-keyboard-response","208","282504","0.0-208.0","","img/set1/S1.jpg","83","1","random","83","random,structured_normal,structured_incentive,structured_load","2,3,2,1,3,4","true","",""
"null","","html-keyboard-response","209","282857","0.0-209.0","","<img src=""img/set1/S1.jpg"" width=""540"" height = ""360"" style=""border:16px solid orange"">","null","","","","","","","",""
"null","","html-keyboard-response","210","283058","0.0-210.0","","","null","","","","","","","",""
"582","","image-keyboard-response","211","283641","0.0-211.0","","img/set1/S4.jpg","74","4","random","74","random,structured_normal,structured_incentive,structured_load","2,3,2,1,3,4","true","",""
"null","","html-keyboard-response","212","283997","0.0-212.0","","<img src=""img/set1/S4.jpg"" width=""540"" height = ""360"" style=""border:16px solid orange"">","null","","","","","","","",""
"null","","html-keyboard-response","213","284199","0.0-213.0","","","null","","","","","","","",""
"419.5","","image-keyboard-response","214","284619","0.0-214.0","","img/set1/S4.jpg","74","4","random","74","random,structured_normal,structured_incentive,structured_load","2,3,2,1,3,4","true","",""
"null","","html-keyboard-response","215","284974","0.0-215.0","","<img src=""img/set1/S4.jpg"" width=""540"" height = ""360"" style=""border:16px solid orange"">","null","","","","","","","",""
"null","","html-keyboard-response","216","285180","0.0-216.0","","","null","","","","","","","",""
"732.6999999880791","","image-keyboard-response","217","285913","0.0-217.0","","img/set1/S3.jpg","72","3","random","72","random,structured_normal,structured_incentive,structured_load","2,3,2,1,3,4","true","",""
"null","","html-keyboard-response","218","286270","0.0-218.0","","<img src=""img/set1/S3.jpg"" width=""540"" height = ""360"" style=""border:16px solid orange"">","null","","","","","","","",""
"null","","html-keyboard-response","219","286474","0.0-219.0","","","null","","","","","","","",""
"371.9000000357628","","image-keyboard-response","220","286847","0.0-220.0","","img/set1/S3.jpg","72","3","random","72","random,structured_normal,structured_incentive,structured_load","2,3,2,1,3,4","true","",""
"null","","html-keyboard-response","221","287203","0.0-221.0","","<img src=""img/set1/S3.jpg"" width=""540"" height = ""360"" style=""border:16px solid orange"">","null","","","","","","","",""
"null","","html-keyboard-response","222","287408","0.0-222.0","","","null","","","","","","","",""
"338.5","","image-keyboard-response","223","287747","0.0-223.0","","img/set1/S3.jpg","72","3","random","72","random,structured_normal,structured_incentive,structured_load","2,3,2,1,3,4","true","",""
"null","","html-keyboard-response","224","288104","0.0-224.0","","<img src=""img/set1/S3.jpg"" width=""540"" height = ""360"" style=""border:16px solid orange"">","null","","","","","","","",""
"null","","html-keyboard-response","225","288307","0.0-225.0","","","null","","","","","","","",""
"597.6999999880791","","image-keyboard-response","226","288906","0.0-226.0","","img/set1/S4.jpg","74","4","random","74","random,structured_normal,structured_incentive,structured_load","2,3,2,1,3,4","true","",""
"null","","html-keyboard-response","227","289258","0.0-227.0","","<img src=""img/set1/S4.jpg"" width=""540"" height = ""360"" style=""border:16px solid orange"">","null","","","","","","","",""
"null","","html-keyboard-response","228","289464","0.0-228.0","","","null","","","","","","","",""
"667","","image-keyboard-response","229","290132","0.0-229.0","","img/set1/S2.jpg","68","2","random","68","random,structured_normal,structured_incentive,structured_load","2,3,2,1,3,4","true","",""
"null","","html-keyboard-response","230","290489","0.0-230.0","","<img src=""img/set1/S2.jpg"" width=""540"" height = ""360"" style=""border:16px solid orange"">","null","","","","","","","",""
"null","","html-keyboard-response","231","290692","0.0-231.0","","","null","","","","","","","",""
"1002.8000000119209","","image-keyboard-response","232","291696","0.0-232.0","","img/set1/S4.jpg","74","4","random","74","random,structured_normal,structured_incentive,structured_load","2,3,2,1,3,4","true","",""
"null","","html-keyboard-response","233","292051","0.0-233.0","","<img src=""img/set1/S4.jpg"" width=""540"" height = ""360"" style=""border:16px solid orange"">","null","","","","","","","",""
"null","","html-keyboard-response","234","292255","0.0-234.0","","","null","","","","","","","",""
"531.0999999642372","","image-keyboard-response","235","292788","0.0-235.0","","img/set1/S4.jpg","74","4","random","74","random,structured_normal,structured_incentive,structured_load","2,3,2,1,3,4","true","",""
"null","","html-keyboard-response","236","293143","0.0-236.0","","<img src=""img/set1/S4.jpg"" width=""540"" height = ""360"" style=""border:16px solid orange"">","null","","","","","","","",""
"null","","html-keyboard-response","237","293349","0.0-237.0","","","null","","","","","","","",""
"427.5","","image-keyboard-response","238","293777","0.0-238.0","","img/set1/S4.jpg","74","4","random","74","random,structured_normal,structured_incentive,structured_load","2,3,2,1,3,4","true","",""
"null","","html-keyboard-response","239","294133","0.0-239.0","","<img src=""img/set1/S4.jpg"" width=""540"" height = ""360"" style=""border:16px solid orange"">","null","","","","","","","",""
"null","","html-keyboard-response","240","294339","0.0-240.0","","","null","","","","","","","",""
"663.4000000357628","","image-keyboard-response","241","295003","0.0-241.0","","img/set1/S1.jpg","83","1","random","83","random,structured_normal,structured_incentive,structured_load","2,3,2,1,3,4","true","",""
"null","","html-keyboard-response","242","295355","0.0-242.0","","<img src=""img/set1/S1.jpg"" width=""540"" height = ""360"" style=""border:16px solid orange"">","null","","","","","","","",""
"null","","html-keyboard-response","243","295557","0.0-243.0","","","null","","","","","","","",""
"975.3000000119209","","image-keyboard-response","244","296533","0.0-244.0","","img/set1/S3.jpg","72","3","random","72","random,structured_normal,structured_incentive,structured_load","2,3,2,1,3,4","true","",""
"null","","html-keyboard-response","245","296890","0.0-245.0","","<img src=""img/set1/S3.jpg"" width=""540"" height = ""360"" style=""border:16px solid orange"">","null","","","","","","","",""
"null","","html-keyboard-response","246","297093","0.0-246.0","","","null","","","","","","","",""
"710.1999999880791","","image-keyboard-response","247","297805","0.0-247.0","","img/set1/S2.jpg","68","2","random","68","random,structured_normal,structured_incentive,structured_load","2,3,2,1,3,4","true","",""
"null","","html-keyboard-response","248","298159","0.0-248.0","","<img src=""img/set1/S2.jpg"" width=""540"" height = ""360"" style=""border:16px solid orange"">","null","","","","","","","",""
"null","","html-keyboard-response","249","298360","0.0-249.0","","","null","","","","","","","",""
"602.4000000357628","","image-keyboard-response","250","298964","0.0-250.0","","img/set1/S1.jpg","83","1","random","83","random,structured_normal,structured_incentive,structured_load","2,3,2,1,3,4","true","",""
"null","","html-keyboard-response","251","299318","0.0-251.0","","<img src=""img/set1/S1.jpg"" width=""540"" height = ""360"" style=""border:16px solid orange"">","null","","","","","","","",""
"null","","html-keyboard-response","252","299524","0.0-252.0","","","null","","","","","","","",""
"1350.5","","image-keyboard-response","253","300876","0.0-253.0","","img/set1/S2.jpg","68","2","random","68","random,structured_normal,structured_incentive,structured_load","2,3,2,1,3,4","true","",""
"null","","html-keyboard-response","254","301232","0.0-254.0","","<img src=""img/set1/S2.jpg"" width=""540"" height = ""360"" style=""border:16px solid orange"">","null","","","","","","","",""
"null","","html-keyboard-response","255","301436","0.0-255.0","","","null","","","","","","","",""
"654.3000000119209","","image-keyboard-response","256","302091","0.0-256.0","","img/set1/S1.jpg","83","1","random","83","random,structured_normal,structured_incentive,structured_load","2,3,2,1,3,4","true","",""
"null","","html-keyboard-response","257","302445","0.0-257.0","","<img src=""img/set1/S1.jpg"" width=""540"" height = ""360"" style=""border:16px solid orange"">","null","","","","","","","",""
"null","","html-keyboard-response","258","302650","0.0-258.0","","","null","","","","","","","",""
"643.5999999642372","","image-keyboard-response","259","303295","0.0-259.0","","img/set1/S4.jpg","74","4","random","74","random,structured_normal,structured_incentive,structured_load","2,3,2,1,3,4","true","",""
"null","","html-keyboard-response","260","303650","0.0-260.0","","<img src=""img/set1/S4.jpg"" width=""540"" height = ""360"" style=""border:16px solid orange"">","null","","","","","","","",""
"null","","html-keyboard-response","261","303854","0.0-261.0","","","null","","","","","","","",""
"643.5999999642372","","image-keyboard-response","262","304498","0.0-262.0","","img/set1/S2.jpg","68","2","random","68","random,structured_normal,structured_incentive,structured_load","2,3,2,1,3,4","true","",""
"null","","html-keyboard-response","263","304850","0.0-263.0","","<img src=""img/set1/S2.jpg"" width=""540"" height = ""360"" style=""border:16px solid orange"">","null","","","","","","","",""
"null","","html-keyboard-response","264","305055","0.0-264.0","","","null","","","","","","","",""
"567.5999999642372","","image-keyboard-response","265","305624","0.0-265.0","","img/set1/S4.jpg","74","4","random","74","random,structured_normal,structured_incentive,structured_load","2,3,2,1,3,4","true","",""
"null","","html-keyboard-response","266","305979","0.0-266.0","","<img src=""img/set1/S4.jpg"" width=""540"" height = ""360"" style=""border:16px solid orange"">","null","","","","","","","",""
"null","","html-keyboard-response","267","306182","0.0-267.0","","","null","","","","","","","",""
"487.5","","image-keyboard-response","268","306670","0.0-268.0","","img/set1/S4.jpg","74","4","random","74","random,structured_normal,structured_incentive,structured_load","2,3,2,1,3,4","true","",""
"null","","html-keyboard-response","269","307026","0.0-269.0","","<img src=""img/set1/S4.jpg"" width=""540"" height = ""360"" style=""border:16px solid orange"">","null","","","","","","","",""
"null","","html-keyboard-response","270","307229","0.0-270.0","","","null","","","","","","","",""
"497.39999997615814","","image-keyboard-response","271","307727","0.0-271.0","","img/set1/S1.jpg","83","1","random","83","random,structured_normal,structured_incentive,structured_load","2,3,2,1,3,4","true","",""
"null","","html-keyboard-response","272","308082","0.0-272.0","","<img src=""img/set1/S1.jpg"" width=""540"" height = ""360"" style=""border:16px solid orange"">","null","","","","","","","",""
"null","","html-keyboard-response","273","308288","0.0-273.0","","","null","","","","","","","",""
"451.19999998807907","","image-keyboard-response","274","308740","0.0-274.0","","img/set1/S1.jpg","83","1","random","83","random,structured_normal,structured_incentive,structured_load","2,3,2,1,3,4","true","",""
"null","","html-keyboard-response","275","309096","0.0-275.0","","<img src=""img/set1/S1.jpg"" width=""540"" height = ""360"" style=""border:16px solid orange"">","null","","","","","","","",""
"null","","html-keyboard-response","276","309301","0.0-276.0","","","null","","","","","","","",""
"709.1999999880791","","image-keyboard-response","277","310011","0.0-277.0","","img/set1/S3.jpg","72","3","random","72","random,structured_normal,structured_incentive,structured_load","2,3,2,1,3,4","true","",""
"null","","html-keyboard-response","278","310363","0.0-278.0","","<img src=""img/set1/S3.jpg"" width=""540"" height = ""360"" style=""border:16px solid orange"">","null","","","","","","","",""
"null","","html-keyboard-response","279","310569","0.0-279.0","","","null","","","","","","","",""
"600.1000000238419","","image-keyboard-response","280","311170","0.0-280.0","","img/set1/S1.jpg","83","1","random","83","random,structured_normal,structured_incentive,structured_load","2,3,2,1,3,4","true","",""
"null","","html-keyboard-response","281","311522","0.0-281.0","","<img src=""img/set1/S1.jpg"" width=""540"" height = ""360"" style=""border:16px solid orange"">","null","","","","","","","",""
"null","","html-keyboard-response","282","311723","0.0-282.0","","","null","","","","","","","",""
"739.7999999523163","","image-keyboard-response","283","312463","0.0-283.0","","img/set1/S3.jpg","72","3","random","72","random,structured_normal,structured_incentive,structured_load","2,3,2,1,3,4","true","",""
"null","","html-keyboard-response","284","312819","0.0-284.0","","<img src=""img/set1/S3.jpg"" width=""540"" height = ""360"" style=""border:16px solid orange"">","null","","","","","","","",""
"null","","html-keyboard-response","285","313021","0.0-285.0","","","null","","","","","","","",""
"701.9000000357628","","image-keyboard-response","286","313724","0.0-286.0","","img/set1/S2.jpg","68","2","random","68","random,structured_normal,structured_incentive,structured_load","2,3,2,1,3,4","true","",""
"null","","html-keyboard-response","287","314077","0.0-287.0","","<img src=""img/set1/S2.jpg"" width=""540"" height = ""360"" style=""border:16px solid orange"">","null","","","","","","","",""
"null","","html-keyboard-response","288","314281","0.0-288.0","","","null","","","","","","","",""
"668.3000000119209","","image-keyboard-response","289","314950","0.0-289.0","","img/set1/S3.jpg","72","3","random","72","random,structured_normal,structured_incentive,structured_load","2,3,2,1,3,4","true","",""
"null","","html-keyboard-response","290","315306","0.0-290.0","","<img src=""img/set1/S3.jpg"" width=""540"" height = ""360"" style=""border:16px solid orange"">","null","","","","","","","",""
"null","","html-keyboard-response","291","315508","0.0-291.0","","","null","","","","","","","",""
"588.6999999880791","","image-keyboard-response","292","316097","0.0-292.0","","img/set1/S1.jpg","83","1","random","83","random,structured_normal,structured_incentive,structured_load","2,3,2,1,3,4","true","",""
"null","","html-keyboard-response","293","316453","0.0-293.0","","<img src=""img/set1/S1.jpg"" width=""540"" height = ""360"" style=""border:16px solid orange"">","null","","","","","","","",""
"null","","html-keyboard-response","294","316659","0.0-294.0","","","null","","","","","","","",""
"461.39999997615814","","image-keyboard-response","295","317121","0.0-295.0","","img/set1/S1.jpg","83","1","random","83","random,structured_normal,structured_incentive,structured_load","2,3,2,1,3,4","true","",""
"null","","html-keyboard-response","296","317476","0.0-296.0","","<img src=""img/set1/S1.jpg"" width=""540"" height = ""360"" style=""border:16px solid orange"">","null","","","","","","","",""
"null","","html-keyboard-response","297","317677","0.0-297.0","","","null","","","","","","","",""
"534.8999999761581","","image-keyboard-response","298","318212","0.0-298.0","","img/set1/S4.jpg","74","4","random","74","random,structured_normal,structured_incentive,structured_load","2,3,2,1,3,4","true","",""
"null","","html-keyboard-response","299","318565","0.0-299.0","","<img src=""img/set1/S4.jpg"" width=""540"" height = ""360"" style=""border:16px solid orange"">","null","","","","","","","",""
"null","","html-keyboard-response","300","318770","0.0-300.0","","","null","","","","","","","",""
"768.8999999761581","","image-keyboard-response","301","319540","0.0-301.0","","img/set1/S1.jpg","83","1","random","83","random,structured_normal,structured_incentive,structured_load","2,3,2,1,3,4","true","",""
"null","","html-keyboard-response","302","319895","0.0-302.0","","<img src=""img/set1/S1.jpg"" width=""540"" height = ""360"" style=""border:16px solid orange"">","null","","","","","","","",""
"null","","html-keyboard-response","303","320099","0.0-303.0","","","null","","","","","","","",""
"666.8999999761581","","image-keyboard-response","304","320766","0.0-304.0","","img/set1/S3.jpg","72","3","random","72","random,structured_normal,structured_incentive,structured_load","2,3,2,1,3,4","true","",""
"null","","html-keyboard-response","305","321122","0.0-305.0","","<img src=""img/set1/S3.jpg"" width=""540"" height = ""360"" style=""border:16px solid orange"">","null","","","","","","","",""
"null","","html-keyboard-response","306","321328","0.0-306.0","","","null","","","","","","","",""
"674.8000000119209","","image-keyboard-response","307","322004","0.0-307.0","","img/set1/S2.jpg","68","2","random","68","random,structured_normal,structured_incentive,structured_load","2,3,2,1,3,4","true","",""
"null","","html-keyboard-response","308","322360","0.0-308.0","","<img src=""img/set1/S2.jpg"" width=""540"" height = ""360"" style=""border:16px solid orange"">","null","","","","","","","",""
"null","","html-keyboard-response","309","322565","0.0-309.0","","","null","","","","","","","",""
"945.1999999880791","","image-keyboard-response","310","323511","0.0-310.0","","img/set1/S3.jpg","72","3","random","72","random,structured_normal,structured_incentive,structured_load","2,3,2,1,3,4","true","",""
"null","","html-keyboard-response","311","323864","0.0-311.0","","<img src=""img/set1/S3.jpg"" width=""540"" height = ""360"" style=""border:16px solid orange"">","null","","","","","","","",""
"null","","html-keyboard-response","312","324067","0.0-312.0","","","null","","","","","","","",""
"635.6999999880791","","image-keyboard-response","313","324704","0.0-313.0","","img/set1/S4.jpg","74","4","random","74","random,structured_normal,structured_incentive,structured_load","2,3,2,1,3,4","true","",""
"null","","html-keyboard-response","314","325056","0.0-314.0","","<img src=""img/set1/S4.jpg"" width=""540"" height = ""360"" style=""border:16px solid orange"">","null","","","","","","","",""
"null","","html-keyboard-response","315","325261","0.0-315.0","","","null","","","","","","","",""
"971.6999999880791","","image-keyboard-response","316","326234","0.0-316.0","","img/set1/S3.jpg","72","3","random","72","random,structured_normal,structured_incentive,structured_load","2,3,2,1,3,4","true","",""
"null","","html-keyboard-response","317","326587","0.0-317.0","","<img src=""img/set1/S3.jpg"" width=""540"" height = ""360"" style=""border:16px solid orange"">","null","","","","","","","",""
"null","","html-keyboard-response","318","326788","0.0-318.0","","","null","","","","","","","",""
"423.5999999642372","","image-keyboard-response","319","327213","0.0-319.0","","img/set1/S3.jpg","72","3","random","72","random,structured_normal,structured_incentive,structured_load","2,3,2,1,3,4","true","",""
"null","","html-keyboard-response","320","327565","0.0-320.0","","<img src=""img/set1/S3.jpg"" width=""540"" height = ""360"" style=""border:16px solid orange"">","null","","","","","","","",""
"null","","html-keyboard-response","321","327767","0.0-321.0","","","null","","","","","","","",""
"547.3000000119209","","image-keyboard-response","322","328315","0.0-322.0","","img/set1/S2.jpg","83","2","random","68","random,structured_normal,structured_incentive,structured_load","2,3,2,1,3,4","false","",""
"null","","html-keyboard-response","323","328670","0.0-323.0","","<img src=""img/set1/S2.jpg"" width=""540"" height = ""360"">","null","","","","","","","",""
"null","","html-keyboard-response","324","328876","0.0-324.0","","","null","","","","","","","",""
"709.8999999761581","","image-keyboard-response","325","329586","0.0-325.0","","img/set1/S4.jpg","74","4","random","74","random,structured_normal,structured_incentive,structured_load","2,3,2,1,3,4","true","",""
"null","","html-keyboard-response","326","329939","0.0-326.0","","<img src=""img/set1/S4.jpg"" width=""540"" height = ""360"" style=""border:16px solid orange"">","null","","","","","","","",""
"null","","html-keyboard-response","327","330140","0.0-327.0","","","null","","","","","","","",""
"773.1000000238419","","image-keyboard-response","328","330914","0.0-328.0","","img/set1/S3.jpg","72","3","random","72","random,structured_normal,structured_incentive,structured_load","2,3,2,1,3,4","true","",""
"null","","html-keyboard-response","329","331270","0.0-329.0","","<img src=""img/set1/S3.jpg"" width=""540"" height = ""360"" style=""border:16px solid orange"">","null","","","","","","","",""
"null","","html-keyboard-response","330","331472","0.0-330.0","","","null","","","","","","","",""
"599.3999999761581","","image-keyboard-response","331","332073","0.0-331.0","","img/set1/S3.jpg","72","3","random","72","random,structured_normal,structured_incentive,structured_load","2,3,2,1,3,4","true","",""
"null","","html-keyboard-response","332","332424","0.0-332.0","","<img src=""img/set1/S3.jpg"" width=""540"" height = ""360"" style=""border:16px solid orange"">","null","","","","","","","",""
"null","","html-keyboard-response","333","332630","0.0-333.0","","","null","","","","","","","",""
"634.8999999761581","","image-keyboard-response","334","333265","0.0-334.0","","img/set1/S1.jpg","83","1","random","83","random,structured_normal,structured_incentive,structured_load","2,3,2,1,3,4","true","",""
"null","","html-keyboard-response","335","333621","0.0-335.0","","<img src=""img/set1/S1.jpg"" width=""540"" height = ""360"" style=""border:16px solid orange"">","null","","","","","","","",""
"null","","html-keyboard-response","336","333826","0.0-336.0","","","null","","","","","","","",""
"529.3999999761581","","image-keyboard-response","337","334356","0.0-337.0","","img/set1/S3.jpg","72","3","random","72","random,structured_normal,structured_incentive,structured_load","2,3,2,1,3,4","true","",""
"null","","html-keyboard-response","338","334711","0.0-338.0","","<img src=""img/set1/S3.jpg"" width=""540"" height = ""360"" style=""border:16px solid orange"">","null","","","","","","","",""
"null","","html-keyboard-response","339","334916","0.0-339.0","","","null","","","","","","","",""
"564.3999999761581","","image-keyboard-response","340","335482","0.0-340.0","","img/set1/S4.jpg","74","4","random","74","random,structured_normal,structured_incentive,structured_load","2,3,2,1,3,4","true","",""
"null","","html-keyboard-response","341","335836","0.0-341.0","","<img src=""img/set1/S4.jpg"" width=""540"" height = ""360"" style=""border:16px solid orange"">","null","","","","","","","",""
"null","","html-keyboard-response","342","336040","0.0-342.0","","","null","","","","","","","",""
"678.6000000238419","","image-keyboard-response","343","336719","0.0-343.0","","img/set1/S1.jpg","68","1","random","83","random,structured_normal,structured_incentive,structured_load","2,3,2,1,3,4","false","",""
"null","","html-keyboard-response","344","337075","0.0-344.0","","<img src=""img/set1/S1.jpg"" width=""540"" height = ""360"">","null","","","","","","","",""
"null","","html-keyboard-response","345","337280","0.0-345.0","","","null","","","","","","","",""
"709.1999999880791","","image-keyboard-response","346","337990","0.0-346.0","","img/set1/S2.jpg","68","2","random","68","random,structured_normal,structured_incentive,structured_load","2,3,2,1,3,4","true","",""
"null","","html-keyboard-response","347","338346","0.0-347.0","","<img src=""img/set1/S2.jpg"" width=""540"" height = ""360"" style=""border:16px solid orange"">","null","","","","","","","",""
"null","","html-keyboard-response","348","338550","0.0-348.0","","","null","","","","","","","",""
"564.5999999642372","","image-keyboard-response","349","339115","0.0-349.0","","img/set1/S4.jpg","74","4","random","74","random,structured_normal,structured_incentive,structured_load","2,3,2,1,3,4","true","",""
"null","","html-keyboard-response","350","339470","0.0-350.0","","<img src=""img/set1/S4.jpg"" width=""540"" height = ""360"" style=""border:16px solid orange"">","null","","","","","","","",""
"null","","html-keyboard-response","351","339676","0.0-351.0","","","null","","","","","","","",""
"822.5","","image-keyboard-response","352","340499","0.0-352.0","","img/set1/S3.jpg","72","3","random","72","random,structured_normal,structured_incentive,structured_load","2,3,2,1,3,4","true","",""
"null","","html-keyboard-response","353","340851","0.0-353.0","","<img src=""img/set1/S3.jpg"" width=""540"" height = ""360"" style=""border:16px solid orange"">","null","","","","","","","",""
"null","","html-keyboard-response","354","341054","0.0-354.0","","","null","","","","","","","",""
"445.80000001192093","","image-keyboard-response","355","341500","0.0-355.0","","img/set1/S3.jpg","72","3","random","72","random,structured_normal,structured_incentive,structured_load","2,3,2,1,3,4","true","",""
"null","","html-keyboard-response","356","341853","0.0-356.0","","<img src=""img/set1/S3.jpg"" width=""540"" height = ""360"" style=""border:16px solid orange"">","null","","","","","","","",""
"null","","html-keyboard-response","357","342054","0.0-357.0","","","null","","","","","","","",""
"1020.5999999642372","","image-keyboard-response","358","343075","0.0-358.0","","img/set1/S2.jpg","68","2","random","68","random,structured_normal,structured_incentive,structured_load","2,3,2,1,3,4","true","",""
"null","","html-keyboard-response","359","343427","0.0-359.0","","<img src=""img/set1/S2.jpg"" width=""540"" height = ""360"" style=""border:16px solid orange"">","null","","","","","","","",""
"null","","html-keyboard-response","360","343632","0.0-360.0","","","null","","","","","","","",""
"679.8999999761581","","image-keyboard-response","361","344313","0.0-361.0","","img/set1/S1.jpg","83","1","random","83","random,structured_normal,structured_incentive,structured_load","2,3,2,1,3,4","true","",""
"null","","html-keyboard-response","362","344667","0.0-362.0","","<img src=""img/set1/S1.jpg"" width=""540"" height = ""360"" style=""border:16px solid orange"">","null","","","","","","","",""
"null","","html-keyboard-response","363","344871","0.0-363.0","","","null","","","","","","","",""
"3175.699999988079","","html-keyboard-response","364","348048","0.0-364.0","","<p class=""center-content"">You have completed a block! </p><p class=""center-content"">Press any key on the keyboard to continue, </p><p class=""center-content"">or wait for the automatic progression to the next block after one minute.</p>","32","","","","","","","",""
"36789.5","","instructions","365","384838","0.0-365.0","[{""page_index"":0,""viewing_time"":36789.30000001192}]","","","","","","","","","",""
"1788.2999999523163","","instructions","366","386626","0.0-366.0","[{""page_index"":0,""viewing_time"":1788}]","","","","","","","","","",""
"1708","","image-keyboard-response","367","388335","0.0-367.0","","img/set2/S1.jpg","83","1","structured_normal","83","random,structured_normal,structured_incentive,structured_load","2,3,2,1,3,4","true","",""
"null","","html-keyboard-response","368","388690","0.0-368.0","","<img src=""img/set2/S1.jpg"" width=""540"" height = ""360"" style=""border:16px solid orange"">","null","","","","","","","",""
"null","","html-keyboard-response","369","388895","0.0-369.0","","","null","","","","","","","",""
"631.5","","image-keyboard-response","370","389528","0.0-370.0","","img/set2/S1.jpg","83","1","structured_normal","83","random,structured_normal,structured_incentive,structured_load","2,3,2,1,3,4","true","",""
"null","","html-keyboard-response","371","389882","0.0-371.0","","<img src=""img/set2/S1.jpg"" width=""540"" height = ""360"" style=""border:16px solid orange"">","null","","","","","","","",""
"null","","html-keyboard-response","372","390088","0.0-372.0","","","null","","","","","","","",""
"676.1000000238419","","image-keyboard-response","373","390765","0.0-373.0","","img/set2/S4.jpg","68","4","structured_normal","74","random,structured_normal,structured_incentive,structured_load","2,3,2,1,3,4","false","",""
"null","","html-keyboard-response","374","391116","0.0-374.0","","<img src=""img/set2/S4.jpg"" width=""540"" height = ""360"">","null","","","","","","","",""
"null","","html-keyboard-response","375","391322","0.0-375.0","","","null","","","","","","","",""
"1838.800000011921","","image-keyboard-response","376","393161","0.0-376.0","","img/set2/S4.jpg","72","4","structured_normal","74","random,structured_normal,structured_incentive,structured_load","2,3,2,1,3,4","false","",""
"null","","html-keyboard-response","377","393517","0.0-377.0","","<img src=""img/set2/S4.jpg"" width=""540"" height = ""360"">","null","","","","","","","",""
"null","","html-keyboard-response","378","393718","0.0-378.0","","","null","","","","","","","",""
"1131.1000000238419","","image-keyboard-response","379","394850","0.0-379.0","","img/set2/S2.jpg","68","2","structured_normal","68","random,structured_normal,structured_incentive,structured_load","2,3,2,1,3,4","true","",""
"null","","html-keyboard-response","380","395206","0.0-380.0","","<img src=""img/set2/S2.jpg"" width=""540"" height = ""360"" style=""border:16px solid orange"">","null","","","","","","","",""
"null","","html-keyboard-response","381","395408","0.0-381.0","","","null","","","","","","","",""
"835.0999999642372","","image-keyboard-response","382","396244","0.0-382.0","","img/set2/S3.jpg","72","3","structured_normal","72","random,structured_normal,structured_incentive,structured_load","2,3,2,1,3,4","true","",""
"null","","html-keyboard-response","383","396595","0.0-383.0","","<img src=""img/set2/S3.jpg"" width=""540"" height = ""360"" style=""border:16px solid orange"">","null","","","","","","","",""
"null","","html-keyboard-response","384","396800","0.0-384.0","","","null","","","","","","","",""
"905.6999999880791","","image-keyboard-response","385","397706","0.0-385.0","","img/set2/S2.jpg","68","2","structured_normal","68","random,structured_normal,structured_incentive,structured_load","2,3,2,1,3,4","true","",""
"null","","html-keyboard-response","386","398063","0.0-386.0","","<img src=""img/set2/S2.jpg"" width=""540"" height = ""360"" style=""border:16px solid orange"">","null","","","","","","","",""
"null","","html-keyboard-response","387","398268","0.0-387.0","","","null","","","","","","","",""
"619.2000000476837","","image-keyboard-response","388","398888","0.0-388.0","","img/set2/S3.jpg","72","3","structured_normal","72","random,structured_normal,structured_incentive,structured_load","2,3,2,1,3,4","true","",""
"null","","html-keyboard-response","389","399243","0.0-389.0","","<img src=""img/set2/S3.jpg"" width=""540"" height = ""360"" style=""border:16px solid orange"">","null","","","","","","","",""
"null","","html-keyboard-response","390","399449","0.0-390.0","","","null","","","","","","","",""
"822","","image-keyboard-response","391","400271","0.0-391.0","","img/set2/S4.jpg","74","4","structured_normal","74","random,structured_normal,structured_incentive,structured_load","2,3,2,1,3,4","true","",""
"null","","html-keyboard-response","392","400628","0.0-392.0","","<img src=""img/set2/S4.jpg"" width=""540"" height = ""360"" style=""border:16px solid orange"">","null","","","","","","","",""
"null","","html-keyboard-response","393","400833","0.0-393.0","","","null","","","","","","","",""
"360.10000002384186","","image-keyboard-response","394","401194","0.0-394.0","","img/set2/S4.jpg","74","4","structured_normal","74","random,structured_normal,structured_incentive,structured_load","2,3,2,1,3,4","true","",""
"null","","html-keyboard-response","395","401550","0.0-395.0","","<img src=""img/set2/S4.jpg"" width=""540"" height = ""360"" style=""border:16px solid orange"">","null","","","","","","","",""
"null","","html-keyboard-response","396","401750","0.0-396.0","","","null","","","","","","","",""
"1186.6000000238419","","image-keyboard-response","397","402938","0.0-397.0","","img/set2/S2.jpg","83","2","structured_normal","68","random,structured_normal,structured_incentive,structured_load","2,3,2,1,3,4","false","",""
"null","","html-keyboard-response","398","403294","0.0-398.0","","<img src=""img/set2/S2.jpg"" width=""540"" height = ""360"">","null","","","","","","","",""
"null","","html-keyboard-response","399","403499","0.0-399.0","","","null","","","","","","","",""
"1249","","image-keyboard-response","400","404749","0.0-400.0","","img/set2/S3.jpg","68","3","structured_normal","72","random,structured_normal,structured_incentive,structured_load","2,3,2,1,3,4","false","",""
"null","","html-keyboard-response","401","405102","0.0-401.0","","<img src=""img/set2/S3.jpg"" width=""540"" height = ""360"">","null","","","","","","","",""
"null","","html-keyboard-response","402","405305","0.0-402.0","","","null","","","","","","","",""
"1175.3999999761581","","image-keyboard-response","403","406481","0.0-403.0","","img/set2/S2.jpg","72","2","structured_normal","68","random,structured_normal,structured_incentive,structured_load","2,3,2,1,3,4","false","",""
"null","","html-keyboard-response","404","406835","0.0-404.0","","<img src=""img/set2/S2.jpg"" width=""540"" height = ""360"">","null","","","","","","","",""
"null","","html-keyboard-response","405","407041","0.0-405.0","","","null","","","","","","","",""
"1667.300000011921","","image-keyboard-response","406","408709","0.0-406.0","","img/set2/S3.jpg","83","3","structured_normal","72","random,structured_normal,structured_incentive,structured_load","2,3,2,1,3,4","false","",""
"null","","html-keyboard-response","407","409065","0.0-407.0","","<img src=""img/set2/S3.jpg"" width=""540"" height = ""360"">","null","","","","","","","",""
"null","","html-keyboard-response","408","409270","0.0-408.0","","","null","","","","","","","",""
"956.8999999761581","","image-keyboard-response","409","410228","0.0-409.0","","img/set2/S1.jpg","74","1","structured_normal","83","random,structured_normal,structured_incentive,structured_load","2,3,2,1,3,4","false","",""
"null","","html-keyboard-response","410","410584","0.0-410.0","","<img src=""img/set2/S1.jpg"" width=""540"" height = ""360"">","null","","","","","","","",""
"null","","html-keyboard-response","411","410787","0.0-411.0","","","null","","","","","","","",""
"913.9000000357628","","image-keyboard-response","412","411702","0.0-412.0","","img/set2/S4.jpg","74","4","structured_normal","74","random,structured_normal,structured_incentive,structured_load","2,3,2,1,3,4","true","",""
"null","","html-keyboard-response","413","412054","0.0-413.0","","<img src=""img/set2/S4.jpg"" width=""540"" height = ""360"" style=""border:16px solid orange"">","null","","","","","","","",""
"null","","html-keyboard-response","414","412260","0.0-414.0","","","null","","","","","","","",""
"509.69999998807907","","image-keyboard-response","415","412770","0.0-415.0","","img/set2/S4.jpg","74","4","structured_normal","74","random,structured_normal,structured_incentive,structured_load","2,3,2,1,3,4","true","",""
"null","","html-keyboard-response","416","413127","0.0-416.0","","<img src=""img/set2/S4.jpg"" width=""540"" height = ""360"" style=""border:16px solid orange"">","null","","","","","","","",""
"null","","html-keyboard-response","417","413328","0.0-417.0","","","null","","","","","","","",""
"566.4000000357628","","image-keyboard-response","418","413895","0.0-418.0","","img/set2/S1.jpg","72","1","structured_normal","83","random,structured_normal,structured_incentive,structured_load","2,3,2,1,3,4","false","",""
"null","","html-keyboard-response","419","414249","0.0-419.0","","<img src=""img/set2/S1.jpg"" width=""540"" height = ""360"">","null","","","","","","","",""
"null","","html-keyboard-response","420","414455","0.0-420.0","","","null","","","","","","","",""
"519.9000000357628","","image-keyboard-response","421","414976","0.0-421.0","","img/set2/S1.jpg","68","1","structured_normal","83","random,structured_normal,structured_incentive,structured_load","2,3,2,1,3,4","false","",""
"null","","html-keyboard-response","422","415332","0.0-422.0","","<img src=""img/set2/S1.jpg"" width=""540"" height = ""360"">","null","","","","","","","",""
"null","","html-keyboard-response","423","415537","0.0-423.0","","","null","","","","","","","",""
"1034.9000000357628","","image-keyboard-response","424","416573","0.0-424.0","","img/set2/S2.jpg","68","2","structured_normal","68","random,structured_normal,structured_incentive,structured_load","2,3,2,1,3,4","true","",""
"null","","html-keyboard-response","425","416929","0.0-425.0","","<img src=""img/set2/S2.jpg"" width=""540"" height = ""360"" style=""border:16px solid orange"">","null","","","","","","","",""
"null","","html-keyboard-response","426","417135","0.0-426.0","","","null","","","","","","","",""
"1406.199999988079","","image-keyboard-response","427","418542","0.0-427.0","","img/set2/S3.jpg","72","3","structured_normal","72","random,structured_normal,structured_incentive,structured_load","2,3,2,1,3,4","true","",""
"null","","html-keyboard-response","428","418894","0.0-428.0","","<img src=""img/set2/S3.jpg"" width=""540"" height = ""360"" style=""border:16px solid orange"">","null","","","","","","","",""
"null","","html-keyboard-response","429","419100","0.0-429.0","","","null","","","","","","","",""
"745.8999999761581","","image-keyboard-response","430","419847","0.0-430.0","","img/set2/S2.jpg","68","2","structured_normal","68","random,structured_normal,structured_incentive,structured_load","2,3,2,1,3,4","true","",""
"null","","html-keyboard-response","431","420199","0.0-431.0","","<img src=""img/set2/S2.jpg"" width=""540"" height = ""360"" style=""border:16px solid orange"">","null","","","","","","","",""
"null","","html-keyboard-response","432","420403","0.0-432.0","","","null","","","","","","","",""
"647.1999999880791","","image-keyboard-response","433","421051","0.0-433.0","","img/set2/S3.jpg","72","3","structured_normal","72","random,structured_normal,structured_incentive,structured_load","2,3,2,1,3,4","true","",""
"null","","html-keyboard-response","434","421407","0.0-434.0","","<img src=""img/set2/S3.jpg"" width=""540"" height = ""360"" style=""border:16px solid orange"">","null","","","","","","","",""
"null","","html-keyboard-response","435","421612","0.0-435.0","","","null","","","","","","","",""
"664.5","","image-keyboard-response","436","422277","0.0-436.0","","img/set2/S4.jpg","74","4","structured_normal","74","random,structured_normal,structured_incentive,structured_load","2,3,2,1,3,4","true","",""
"null","","html-keyboard-response","437","422629","0.0-437.0","","<img src=""img/set2/S4.jpg"" width=""540"" height = ""360"" style=""border:16px solid orange"">","null","","","","","","","",""
"null","","html-keyboard-response","438","422835","0.0-438.0","","","null","","","","","","","",""
"554.7000000476837","","image-keyboard-response","439","423391","0.0-439.0","","img/set2/S1.jpg","83","1","structured_normal","83","random,structured_normal,structured_incentive,structured_load","2,3,2,1,3,4","true","",""
"null","","html-keyboard-response","440","423747","0.0-440.0","","<img src=""img/set2/S1.jpg"" width=""540"" height = ""360"" style=""border:16px solid orange"">","null","","","","","","","",""
"null","","html-keyboard-response","441","423949","0.0-441.0","","","null","","","","","","","",""
"430.5","","image-keyboard-response","442","424381","0.0-442.0","","img/set2/S1.jpg","83","1","structured_normal","83","random,structured_normal,structured_incentive,structured_load","2,3,2,1,3,4","true","",""
"null","","html-keyboard-response","443","424734","0.0-443.0","","<img src=""img/set2/S1.jpg"" width=""540"" height = ""360"" style=""border:16px solid orange"">","null","","","","","","","",""
"null","","html-keyboard-response","444","424940","0.0-444.0","","","null","","","","","","","",""
"531.3000000119209","","image-keyboard-response","445","425472","0.0-445.0","","img/set2/S1.jpg","83","1","structured_normal","83","random,structured_normal,structured_incentive,structured_load","2,3,2,1,3,4","true","",""
"null","","html-keyboard-response","446","425824","0.0-446.0","","<img src=""img/set2/S1.jpg"" width=""540"" height = ""360"" style=""border:16px solid orange"">","null","","","","","","","",""
"null","","html-keyboard-response","447","426030","0.0-447.0","","","null","","","","","","","",""
"645.2000000476837","","image-keyboard-response","448","426676","0.0-448.0","","img/set2/S4.jpg","68","4","structured_normal","74","random,structured_normal,structured_incentive,structured_load","2,3,2,1,3,4","false","",""
"null","","html-keyboard-response","449","427032","0.0-449.0","","<img src=""img/set2/S4.jpg"" width=""540"" height = ""360"">","null","","","","","","","",""
"null","","html-keyboard-response","450","427237","0.0-450.0","","","null","","","","","","","",""
"1508.1000000238419","","image-keyboard-response","451","428746","0.0-451.0","","img/set2/S2.jpg","68","2","structured_normal","68","random,structured_normal,structured_incentive,structured_load","2,3,2,1,3,4","true","",""
"null","","html-keyboard-response","452","429100","0.0-452.0","","<img src=""img/set2/S2.jpg"" width=""540"" height = ""360"" style=""border:16px solid orange"">","null","","","","","","","",""
"null","","html-keyboard-response","453","429301","0.0-453.0","","","null","","","","","","","",""
"1502.300000011921","","image-keyboard-response","454","430804","0.0-454.0","","img/set2/S3.jpg","72","3","structured_normal","72","random,structured_normal,structured_incentive,structured_load","2,3,2,1,3,4","true","",""
"null","","html-keyboard-response","455","431155","0.0-455.0","","<img src=""img/set2/S3.jpg"" width=""540"" height = ""360"" style=""border:16px solid orange"">","null","","","","","","","",""
"null","","html-keyboard-response","456","431357","0.0-456.0","","","null","","","","","","","",""
"886.5","","image-keyboard-response","457","432244","0.0-457.0","","img/set2/S1.jpg","83","1","structured_normal","83","random,structured_normal,structured_incentive,structured_load","2,3,2,1,3,4","true","",""
"null","","html-keyboard-response","458","432598","0.0-458.0","","<img src=""img/set2/S1.jpg"" width=""540"" height = ""360"" style=""border:16px solid orange"">","null","","","","","","","",""
"null","","html-keyboard-response","459","432803","0.0-459.0","","","null","","","","","","","",""
"644.3000000119209","","image-keyboard-response","460","433448","0.0-460.0","","img/set2/S4.jpg","74","4","structured_normal","74","random,structured_normal,structured_incentive,structured_load","2,3,2,1,3,4","true","",""
"null","","html-keyboard-response","461","433804","0.0-461.0","","<img src=""img/set2/S4.jpg"" width=""540"" height = ""360"" style=""border:16px solid orange"">","null","","","","","","","",""
"null","","html-keyboard-response","462","434008","0.0-462.0","","","null","","","","","","","",""
"575.6999999880791","","image-keyboard-response","463","434585","0.0-463.0","","img/set2/S4.jpg","74","4","structured_normal","74","random,structured_normal,structured_incentive,structured_load","2,3,2,1,3,4","true","",""
"null","","html-keyboard-response","464","434941","0.0-464.0","","<img src=""img/set2/S4.jpg"" width=""540"" height = ""360"" style=""border:16px solid orange"">","null","","","","","","","",""
"null","","html-keyboard-response","465","435143","0.0-465.0","","","null","","","","","","","",""
"801.6000000238419","","image-keyboard-response","466","435946","0.0-466.0","","img/set2/S1.jpg","83","1","structured_normal","83","random,structured_normal,structured_incentive,structured_load","2,3,2,1,3,4","true","",""
"null","","html-keyboard-response","467","436301","0.0-467.0","","<img src=""img/set2/S1.jpg"" width=""540"" height = ""360"" style=""border:16px solid orange"">","null","","","","","","","",""
"null","","html-keyboard-response","468","436505","0.0-468.0","","","null","","","","","","","",""
"643.6999999880791","","image-keyboard-response","469","437150","0.0-469.0","","img/set2/S4.jpg","72","4","structured_normal","74","random,structured_normal,structured_incentive,structured_load","2,3,2,1,3,4","false","",""
"null","","html-keyboard-response","470","437501","0.0-470.0","","<img src=""img/set2/S4.jpg"" width=""540"" height = ""360"">","null","","","","","","","",""
"null","","html-keyboard-response","471","437707","0.0-471.0","","","null","","","","","","","",""
"1545.5","","image-keyboard-response","472","439253","0.0-472.0","","img/set2/S2.jpg","68","2","structured_normal","68","random,structured_normal,structured_incentive,structured_load","2,3,2,1,3,4","true","",""
"null","","html-keyboard-response","473","439607","0.0-473.0","","<img src=""img/set2/S2.jpg"" width=""540"" height = ""360"" style=""border:16px solid orange"">","null","","","","","","","",""
"null","","html-keyboard-response","474","439809","0.0-474.0","","","null","","","","","","","",""
"591.6000000238419","","image-keyboard-response","475","440401","0.0-475.0","","img/set2/S3.jpg","72","3","structured_normal","72","random,structured_normal,structured_incentive,structured_load","2,3,2,1,3,4","true","",""
"null","","html-keyboard-response","476","440755","0.0-476.0","","<img src=""img/set2/S3.jpg"" width=""540"" height = ""360"" style=""border:16px solid orange"">","null","","","","","","","",""
"null","","html-keyboard-response","477","440960","0.0-477.0","","","null","","","","","","","",""
"1611.1000000238419","","image-keyboard-response","478","442572","0.0-478.0","","img/set2/S4.jpg","74","4","structured_normal","74","random,structured_normal,structured_incentive,structured_load","2,3,2,1,3,4","true","",""
"null","","html-keyboard-response","479","442926","0.0-479.0","","<img src=""img/set2/S4.jpg"" width=""540"" height = ""360"" style=""border:16px solid orange"">","null","","","","","","","",""
"null","","html-keyboard-response","480","443129","0.0-480.0","","","null","","","","","","","",""
"365.5","","image-keyboard-response","481","443495","0.0-481.0","","img/set2/S4.jpg","74","4","structured_normal","74","random,structured_normal,structured_incentive,structured_load","2,3,2,1,3,4","true","",""
"null","","html-keyboard-response","482","443848","0.0-482.0","","<img src=""img/set2/S4.jpg"" width=""540"" height = ""360"" style=""border:16px solid orange"">","null","","","","","","","",""
"null","","html-keyboard-response","483","444049","0.0-483.0","","","null","","","","","","","",""
"974.8000000119209","","image-keyboard-response","484","445025","0.0-484.0","","img/set2/S2.jpg","68","2","structured_normal","68","random,structured_normal,structured_incentive,structured_load","2,3,2,1,3,4","true","",""
"null","","html-keyboard-response","485","445376","0.0-485.0","","<img src=""img/set2/S2.jpg"" width=""540"" height = ""360"" style=""border:16px solid orange"">","null","","","","","","","",""
"null","","html-keyboard-response","486","445579","0.0-486.0","","","null","","","","","","","",""
"547.3999999761581","","image-keyboard-response","487","446127","0.0-487.0","","img/set2/S3.jpg","72","3","structured_normal","72","random,structured_normal,structured_incentive,structured_load","2,3,2,1,3,4","true","",""
"null","","html-keyboard-response","488","446479","0.0-488.0","","<img src=""img/set2/S3.jpg"" width=""540"" height = ""360"" style=""border:16px solid orange"">","null","","","","","","","",""
"null","","html-keyboard-response","489","446685","0.0-489.0","","","null","","","","","","","",""
"1916.7000000476837","","image-keyboard-response","490","448602","0.0-490.0","","img/set2/S4.jpg","74","4","structured_normal","74","random,structured_normal,structured_incentive,structured_load","2,3,2,1,3,4","true","",""
"null","","html-keyboard-response","491","448955","0.0-491.0","","<img src=""img/set2/S4.jpg"" width=""540"" height = ""360"" style=""border:16px solid orange"">","null","","","","","","","",""
"null","","html-keyboard-response","492","449159","0.0-492.0","","","null","","","","","","","",""
"1580","","image-keyboard-response","493","450740","0.0-493.0","","img/set2/S2.jpg","68","2","structured_normal","68","random,structured_normal,structured_incentive,structured_load","2,3,2,1,3,4","true","",""
"null","","html-keyboard-response","494","451096","0.0-494.0","","<img src=""img/set2/S2.jpg"" width=""540"" height = ""360"" style=""border:16px solid orange"">","null","","","","","","","",""
"null","","html-keyboard-response","495","451297","0.0-495.0","","","null","","","","","","","",""
"634.7999999523163","","image-keyboard-response","496","451933","0.0-496.0","","img/set2/S3.jpg","72","3","structured_normal","72","random,structured_normal,structured_incentive,structured_load","2,3,2,1,3,4","true","",""
"null","","html-keyboard-response","497","452287","0.0-497.0","","<img src=""img/set2/S3.jpg"" width=""540"" height = ""360"" style=""border:16px solid orange"">","null","","","","","","","",""
"null","","html-keyboard-response","498","452493","0.0-498.0","","","null","","","","","","","",""
"518.5","","image-keyboard-response","499","453012","0.0-499.0","","img/set2/S2.jpg","68","2","structured_normal","68","random,structured_normal,structured_incentive,structured_load","2,3,2,1,3,4","true","",""
"null","","html-keyboard-response","500","453364","0.0-500.0","","<img src=""img/set2/S2.jpg"" width=""540"" height = ""360"" style=""border:16px solid orange"">","null","","","","","","","",""
"null","","html-keyboard-response","501","453570","0.0-501.0","","","null","","","","","","","",""
"386.5","","image-keyboard-response","502","453957","0.0-502.0","","img/set2/S3.jpg","72","3","structured_normal","72","random,structured_normal,structured_incentive,structured_load","2,3,2,1,3,4","true","",""
"null","","html-keyboard-response","503","454314","0.0-503.0","","<img src=""img/set2/S3.jpg"" width=""540"" height = ""360"" style=""border:16px solid orange"">","null","","","","","","","",""
"null","","html-keyboard-response","504","454515","0.0-504.0","","","null","","","","","","","",""
"589.5","","image-keyboard-response","505","455105","0.0-505.0","","img/set2/S1.jpg","83","1","structured_normal","83","random,structured_normal,structured_incentive,structured_load","2,3,2,1,3,4","true","",""
"null","","html-keyboard-response","506","455460","0.0-506.0","","<img src=""img/set2/S1.jpg"" width=""540"" height = ""360"" style=""border:16px solid orange"">","null","","","","","","","",""
"null","","html-keyboard-response","507","455666","0.0-507.0","","","null","","","","","","","",""
"372.10000002384186","","image-keyboard-response","508","456039","0.0-508.0","","img/set2/S1.jpg","83","1","structured_normal","83","random,structured_normal,structured_incentive,structured_load","2,3,2,1,3,4","true","",""
"null","","html-keyboard-response","509","456395","0.0-509.0","","<img src=""img/set2/S1.jpg"" width=""540"" height = ""360"" style=""border:16px solid orange"">","null","","","","","","","",""
"null","","html-keyboard-response","510","456596","0.0-510.0","","","null","","","","","","","",""
"1725.6000000238419","","image-keyboard-response","511","458322","0.0-511.0","","img/set2/S2.jpg","68","2","structured_normal","68","random,structured_normal,structured_incentive,structured_load","2,3,2,1,3,4","true","",""
"null","","html-keyboard-response","512","458676","0.0-512.0","","<img src=""img/set2/S2.jpg"" width=""540"" height = ""360"" style=""border:16px solid orange"">","null","","","","","","","",""
"null","","html-keyboard-response","513","458877","0.0-513.0","","","null","","","","","","","",""
"614.7000000476837","","image-keyboard-response","514","459493","0.0-514.0","","img/set2/S3.jpg","72","3","structured_normal","72","random,structured_normal,structured_incentive,structured_load","2,3,2,1,3,4","true","",""
"null","","html-keyboard-response","515","459849","0.0-515.0","","<img src=""img/set2/S3.jpg"" width=""540"" height = ""360"" style=""border:16px solid orange"">","null","","","","","","","",""
"null","","html-keyboard-response","516","460055","0.0-516.0","","","null","","","","","","","",""
"460.69999998807907","","image-keyboard-response","517","460516","0.0-517.0","","img/set2/S2.jpg","68","2","structured_normal","68","random,structured_normal,structured_incentive,structured_load","2,3,2,1,3,4","true","",""
"null","","html-keyboard-response","518","460869","0.0-518.0","","<img src=""img/set2/S2.jpg"" width=""540"" height = ""360"" style=""border:16px solid orange"">","null","","","","","","","",""
"null","","html-keyboard-response","519","461071","0.0-519.0","","","null","","","","","","","",""
"355.7999999523163","","image-keyboard-response","520","461428","0.0-520.0","","img/set2/S3.jpg","72","3","structured_normal","72","random,structured_normal,structured_incentive,structured_load","2,3,2,1,3,4","true","",""
"null","","html-keyboard-response","521","461784","0.0-521.0","","<img src=""img/set2/S3.jpg"" width=""540"" height = ""360"" style=""border:16px solid orange"">","null","","","","","","","",""
"null","","html-keyboard-response","522","461990","0.0-522.0","","","null","","","","","","","",""
"731","","image-keyboard-response","523","462721","0.0-523.0","","img/set2/S1.jpg","83","1","structured_normal","83","random,structured_normal,structured_incentive,structured_load","2,3,2,1,3,4","true","",""
"null","","html-keyboard-response","524","463078","0.0-524.0","","<img src=""img/set2/S1.jpg"" width=""540"" height = ""360"" style=""border:16px solid orange"">","null","","","","","","","",""
"null","","html-keyboard-response","525","463283","0.0-525.0","","","null","","","","","","","",""
"416.19999998807907","","image-keyboard-response","526","463700","0.0-526.0","","img/set2/S1.jpg","83","1","structured_normal","83","random,structured_normal,structured_incentive,structured_load","2,3,2,1,3,4","true","",""
"null","","html-keyboard-response","527","464056","0.0-527.0","","<img src=""img/set2/S1.jpg"" width=""540"" height = ""360"" style=""border:16px solid orange"">","null","","","","","","","",""
"null","","html-keyboard-response","528","464262","0.0-528.0","","","null","","","","","","","",""
"978.5","","image-keyboard-response","529","465241","0.0-529.0","","img/set2/S2.jpg","68","2","structured_normal","68","random,structured_normal,structured_incentive,structured_load","2,3,2,1,3,4","true","",""
"null","","html-keyboard-response","530","465592","0.0-530.0","","<img src=""img/set2/S2.jpg"" width=""540"" height = ""360"" style=""border:16px solid orange"">","null","","","","","","","",""
"null","","html-keyboard-response","531","465798","0.0-531.0","","","null","","","","","","","",""
"781.3000000119209","","image-keyboard-response","532","466580","0.0-532.0","","img/set2/S3.jpg","72","3","structured_normal","72","random,structured_normal,structured_incentive,structured_load","2,3,2,1,3,4","true","",""
"null","","html-keyboard-response","533","466933","0.0-533.0","","<img src=""img/set2/S3.jpg"" width=""540"" height = ""360"" style=""border:16px solid orange"">","null","","","","","","","",""
"null","","html-keyboard-response","534","467134","0.0-534.0","","","null","","","","","","","",""
"750.1000000238419","","image-keyboard-response","535","467885","0.0-535.0","","img/set2/S1.jpg","83","1","structured_normal","83","random,structured_normal,structured_incentive,structured_load","2,3,2,1,3,4","true","",""
"null","","html-keyboard-response","536","468241","0.0-536.0","","<img src=""img/set2/S1.jpg"" width=""540"" height = ""360"" style=""border:16px solid orange"">","null","","","","","","","",""
"null","","html-keyboard-response","537","468447","0.0-537.0","","","null","","","","","","","",""
"618.6000000238419","","image-keyboard-response","538","469066","0.0-538.0","","img/set2/S4.jpg","74","4","structured_normal","74","random,structured_normal,structured_incentive,structured_load","2,3,2,1,3,4","true","",""
"null","","html-keyboard-response","539","469418","0.0-539.0","","<img src=""img/set2/S4.jpg"" width=""540"" height = ""360"" style=""border:16px solid orange"">","null","","","","","","","",""
"null","","html-keyboard-response","540","469624","0.0-540.0","","","null","","","","","","","",""
"375.69999998807907","","image-keyboard-response","541","470000","0.0-541.0","","img/set2/S4.jpg","74","4","structured_normal","74","random,structured_normal,structured_incentive,structured_load","2,3,2,1,3,4","true","",""
"null","","html-keyboard-response","542","470353","0.0-542.0","","<img src=""img/set2/S4.jpg"" width=""540"" height = ""360"" style=""border:16px solid orange"">","null","","","","","","","",""
"null","","html-keyboard-response","543","470559","0.0-543.0","","","null","","","","","","","",""
"385.7000000476837","","image-keyboard-response","544","470945","0.0-544.0","","img/set2/S4.jpg","74","4","structured_normal","74","random,structured_normal,structured_incentive,structured_load","2,3,2,1,3,4","true","",""
"null","","html-keyboard-response","545","471301","0.0-545.0","","<img src=""img/set2/S4.jpg"" width=""540"" height = ""360"" style=""border:16px solid orange"">","null","","","","","","","",""
"null","","html-keyboard-response","546","471502","0.0-546.0","","","null","","","","","","","",""
"1096.4000000357628","","image-keyboard-response","547","472599","0.0-547.0","","img/set2/S2.jpg","68","2","structured_normal","68","random,structured_normal,structured_incentive,structured_load","2,3,2,1,3,4","true","",""
"null","","html-keyboard-response","548","472952","0.0-548.0","","<img src=""img/set2/S2.jpg"" width=""540"" height = ""360"" style=""border:16px solid orange"">","null","","","","","","","",""
"null","","html-keyboard-response","549","473157","0.0-549.0","","","null","","","","","","","",""
"689.8999999761581","","image-keyboard-response","550","473848","0.0-550.0","","img/set2/S3.jpg","72","3","structured_normal","72","random,structured_normal,structured_incentive,structured_load","2,3,2,1,3,4","true","",""
"null","","html-keyboard-response","551","474203","0.0-551.0","","<img src=""img/set2/S3.jpg"" width=""540"" height = ""360"" style=""border:16px solid orange"">","null","","","","","","","",""
"null","","html-keyboard-response","552","474408","0.0-552.0","","","null","","","","","","","",""
"394.89999997615814","","image-keyboard-response","553","474804","0.0-553.0","","img/set2/S2.jpg","68","2","structured_normal","68","random,structured_normal,structured_incentive,structured_load","2,3,2,1,3,4","true","",""
"null","","html-keyboard-response","554","475156","0.0-554.0","","<img src=""img/set2/S2.jpg"" width=""540"" height = ""360"" style=""border:16px solid orange"">","null","","","","","","","",""
"null","","html-keyboard-response","555","475362","0.0-555.0","","","null","","","","","","","",""
"465.10000002384186","","image-keyboard-response","556","475828","0.0-556.0","","img/set2/S3.jpg","72","3","structured_normal","72","random,structured_normal,structured_incentive,structured_load","2,3,2,1,3,4","true","",""
"null","","html-keyboard-response","557","476181","0.0-557.0","","<img src=""img/set2/S3.jpg"" width=""540"" height = ""360"" style=""border:16px solid orange"">","null","","","","","","","",""
"null","","html-keyboard-response","558","476386","0.0-558.0","","","null","","","","","","","",""
"1173.199999988079","","image-keyboard-response","559","477560","0.0-559.0","","img/set2/S2.jpg","68","2","structured_normal","68","random,structured_normal,structured_incentive,structured_load","2,3,2,1,3,4","true","",""
"null","","html-keyboard-response","560","477916","0.0-560.0","","<img src=""img/set2/S2.jpg"" width=""540"" height = ""360"" style=""border:16px solid orange"">","null","","","","","","","",""
"null","","html-keyboard-response","561","478120","0.0-561.0","","","null","","","","","","","",""
"553.1000000238419","","image-keyboard-response","562","478674","0.0-562.0","","img/set2/S3.jpg","72","3","structured_normal","72","random,structured_normal,structured_incentive,structured_load","2,3,2,1,3,4","true","",""
"null","","html-keyboard-response","563","479030","0.0-563.0","","<img src=""img/set2/S3.jpg"" width=""540"" height = ""360"" style=""border:16px solid orange"">","null","","","","","","","",""
"null","","html-keyboard-response","564","479236","0.0-564.0","","","null","","","","","","","",""
"517.6000000238419","","image-keyboard-response","565","479755","0.0-565.0","","img/set2/S2.jpg","68","2","structured_normal","68","random,structured_normal,structured_incentive,structured_load","2,3,2,1,3,4","true","",""
"null","","html-keyboard-response","566","480111","0.0-566.0","","<img src=""img/set2/S2.jpg"" width=""540"" height = ""360"" style=""border:16px solid orange"">","null","","","","","","","",""
"null","","html-keyboard-response","567","480317","0.0-567.0","","","null","","","","","","","",""
"528.1999999880791","","image-keyboard-response","568","480846","0.0-568.0","","img/set2/S3.jpg","72","3","structured_normal","72","random,structured_normal,structured_incentive,structured_load","2,3,2,1,3,4","true","",""
"null","","html-keyboard-response","569","481202","0.0-569.0","","<img src=""img/set2/S3.jpg"" width=""540"" height = ""360"" style=""border:16px solid orange"">","null","","","","","","","",""
"null","","html-keyboard-response","570","481404","0.0-570.0","","","null","","","","","","","",""
"1139","","image-keyboard-response","571","482544","0.0-571.0","","img/set2/S4.jpg","74","4","structured_normal","74","random,structured_normal,structured_incentive,structured_load","2,3,2,1,3,4","true","",""
"null","","html-keyboard-response","572","482899","0.0-572.0","","<img src=""img/set2/S4.jpg"" width=""540"" height = ""360"" style=""border:16px solid orange"">","null","","","","","","","",""
"null","","html-keyboard-response","573","483104","0.0-573.0","","","null","","","","","","","",""
"396.0999999642372","","image-keyboard-response","574","483500","0.0-574.0","","img/set2/S4.jpg","74","4","structured_normal","74","random,structured_normal,structured_incentive,structured_load","2,3,2,1,3,4","true","",""
"null","","html-keyboard-response","575","483855","0.0-575.0","","<img src=""img/set2/S4.jpg"" width=""540"" height = ""360"" style=""border:16px solid orange"">","null","","","","","","","",""
"null","","html-keyboard-response","576","484061","0.0-576.0","","","null","","","","","","","",""
"519.1000000238419","","image-keyboard-response","577","484581","0.0-577.0","","img/set2/S1.jpg","83","1","structured_normal","83","random,structured_normal,structured_incentive,structured_load","2,3,2,1,3,4","true","",""
"null","","html-keyboard-response","578","484937","0.0-578.0","","<img src=""img/set2/S1.jpg"" width=""540"" height = ""360"" style=""border:16px solid orange"">","null","","","","","","","",""
"null","","html-keyboard-response","579","485139","0.0-579.0","","","null","","","","","","","",""
"419.9000000357628","","image-keyboard-response","580","485559","0.0-580.0","","img/set2/S1.jpg","83","1","structured_normal","83","random,structured_normal,structured_incentive,structured_load","2,3,2,1,3,4","true","",""
"null","","html-keyboard-response","581","485916","0.0-581.0","","<img src=""img/set2/S1.jpg"" width=""540"" height = ""360"" style=""border:16px solid orange"">","null","","","","","","","",""
"null","","html-keyboard-response","582","486122","0.0-582.0","","","null","","","","","","","",""
"1146.8999999761581","","image-keyboard-response","583","487269","0.0-583.0","","img/set2/S4.jpg","74","4","structured_normal","74","random,structured_normal,structured_incentive,structured_load","2,3,2,1,3,4","true","",""
"null","","html-keyboard-response","584","487623","0.0-584.0","","<img src=""img/set2/S4.jpg"" width=""540"" height = ""360"" style=""border:16px solid orange"">","null","","","","","","","",""
"null","","html-keyboard-response","585","487828","0.0-585.0","","","null","","","","","","","",""
"441.7000000476837","","image-keyboard-response","586","488271","0.0-586.0","","img/set2/S4.jpg","74","4","structured_normal","74","random,structured_normal,structured_incentive,structured_load","2,3,2,1,3,4","true","",""
"null","","html-keyboard-response","587","488625","0.0-587.0","","<img src=""img/set2/S4.jpg"" width=""540"" height = ""360"" style=""border:16px solid orange"">","null","","","","","","","",""
"null","","html-keyboard-response","588","488830","0.0-588.0","","","null","","","","","","","",""
"586.8000000119209","","image-keyboard-response","589","489418","0.0-589.0","","img/set2/S1.jpg","83","1","structured_normal","83","random,structured_normal,structured_incentive,structured_load","2,3,2,1,3,4","true","",""
"null","","html-keyboard-response","590","489773","0.0-590.0","","<img src=""img/set2/S1.jpg"" width=""540"" height = ""360"" style=""border:16px solid orange"">","null","","","","","","","",""
"null","","html-keyboard-response","591","489974","0.0-591.0","","","null","","","","","","","",""
