"rt","url","trial_type","trial_index","time_elapsed","internal_node_id","view_history","stimulus","key_press","state","test_part","correct_response","order_block","order_chunk","correct","responses","question_order","bonus"
"64724.5","consent.html","external-html","0","64807","0.0-0.0","","","","","","","","","","","",""
"235856.29999999702","","instructions","1","300665","0.0-1.0","[{""page_index"":0,""viewing_time"":24292.19999998808},{""page_index"":1,""viewing_time"":7972},{""page_index"":2,""viewing_time"":123444.90000000596},{""page_index"":3,""viewing_time"":50347.09999999404},{""page_index"":4,""viewing_time"":6733.300000011921},{""page_index"":5,""viewing_time"":10966.79999999702},{""page_index"":6,""viewing_time"":12099.5}]","","","","","","","","","","",""
"8371.39999999106","","instructions","2","309038","0.0-2.0","[{""page_index"":0,""viewing_time"":8371.20000000298}]","","","","","","","","","","",""
"8118.399999991059","","instructions","3","317158","0.0-3.0","[{""page_index"":0,""viewing_time"":8118.20000000298}]","","","","","","","","","","",""
"706.5","","image-keyboard-response","4","317866","0.0-4.0","","img/set1/S4.jpg","83","4","structured_normal","74","structured_normal,random,structured_incentive,structured_load","2,1,3,4,2,3","false","","",""
"null","","html-keyboard-response","5","318219","0.0-5.0","","<img src=""img/set1/S4.jpg"" width=""540"" height = ""360"">","null","","","","","","","","",""
"null","","html-keyboard-response","6","318420","0.0-6.0","","","null","","","","","","","","",""
"620.3000000119209","","image-keyboard-response","7","319041","0.0-7.0","","img/set1/S4.jpg","68","4","structured_normal","74","structured_normal,random,structured_incentive,structured_load","2,1,3,4,2,3","false","","",""
"null","","html-keyboard-response","8","319394","0.0-8.0","","<img src=""img/set1/S4.jpg"" width=""540"" height = ""360"">","null","","","","","","","","",""
"null","","html-keyboard-response","9","319595","0.0-9.0","","","null","","","","","","","","",""
"814","","image-keyboard-response","10","320410","0.0-10.0","","img/set1/S3.jpg","68","3","structured_normal","72","structured_normal,random,structured_incentive,structured_load","2,1,3,4,2,3","false","","",""
"null","","html-keyboard-response","11","320762","0.0-11.0","","<img src=""img/set1/S3.jpg"" width=""540"" height = ""360"">","null","","","","","","","","",""
"null","","html-keyboard-response","12","320964","0.0-12.0","","","null","","","","","","","","",""
"604.2999999970198","","image-keyboard-response","13","321569","0.0-13.0","","img/set1/S4.jpg","68","4","structured_normal","74","structured_normal,random,structured_incentive,structured_load","2,1,3,4,2,3","false","","",""
"null","","html-keyboard-response","14","321921","0.0-14.0","","<img src=""img/set1/S4.jpg"" width=""540"" height = ""360"">","null","","","","","","","","",""
"null","","html-keyboard-response","15","322122","0.0-15.0","","","null","","","","","","","","",""
"438.5","","image-keyboard-response","16","322561","0.0-16.0","","img/set1/S3.jpg","72","3","structured_normal","72","structured_normal,random,structured_incentive,structured_load","2,1,3,4,2,3","true","","",""
"null","","html-keyboard-response","17","322913","0.0-17.0","","<img src=""img/set1/S3.jpg"" width=""540"" height = ""360"" style=""border:16px solid orange"">","null","","","","","","","","",""
"null","","html-keyboard-response","18","323114","0.0-18.0","","","null","","","","","","","","",""
"429.90000000596046","","image-keyboard-response","19","323545","0.0-19.0","","img/set1/S3.jpg","72","3","structured_normal","72","structured_normal,random,structured_incentive,structured_load","2,1,3,4,2,3","true","","",""
"null","","html-keyboard-response","20","323897","0.0-20.0","","<img src=""img/set1/S3.jpg"" width=""540"" height = ""360"" style=""border:16px solid orange"">","null","","","","","","","","",""
"null","","html-keyboard-response","21","324099","0.0-21.0","","","null","","","","","","","","",""
"349.79999999701977","","image-keyboard-response","22","324450","0.0-22.0","","img/set1/S4.jpg","72","4","structured_normal","74","structured_normal,random,structured_incentive,structured_load","2,1,3,4,2,3","false","","",""
"null","","html-keyboard-response","23","324802","0.0-23.0","","<img src=""img/set1/S4.jpg"" width=""540"" height = ""360"">","null","","","","","","","","",""
"null","","html-keyboard-response","24","325003","0.0-24.0","","","null","","","","","","","","",""
"391.90000000596046","","image-keyboard-response","25","325395","0.0-25.0","","img/set1/S2.jpg","72","2","structured_normal","68","structured_normal,random,structured_incentive,structured_load","2,1,3,4,2,3","false","","",""
"null","","html-keyboard-response","26","325746","0.0-26.0","","<img src=""img/set1/S2.jpg"" width=""540"" height = ""360"">","null","","","","","","","","",""
"null","","html-keyboard-response","27","325948","0.0-27.0","","","null","","","","","","","","",""
"284.29999999701977","","image-keyboard-response","28","326233","0.0-28.0","","img/set1/S1.jpg","72","1","structured_normal","83","structured_normal,random,structured_incentive,structured_load","2,1,3,4,2,3","false","","",""
"null","","html-keyboard-response","29","326586","0.0-29.0","","<img src=""img/set1/S1.jpg"" width=""540"" height = ""360"">","null","","","","","","","","",""
"null","","html-keyboard-response","30","326787","0.0-30.0","","","null","","","","","","","","",""
"351.59999999403954","","image-keyboard-response","31","327139","0.0-31.0","","img/set1/S3.jpg","72","3","structured_normal","72","structured_normal,random,structured_incentive,structured_load","2,1,3,4,2,3","true","","",""
"null","","html-keyboard-response","32","327491","0.0-32.0","","<img src=""img/set1/S3.jpg"" width=""540"" height = ""360"" style=""border:16px solid orange"">","null","","","","","","","","",""
"null","","html-keyboard-response","33","327693","0.0-33.0","","","null","","","","","","","","",""
"211.70000000298023","","image-keyboard-response","34","327905","0.0-34.0","","img/set1/S2.jpg","74","2","structured_normal","68","structured_normal,random,structured_incentive,structured_load","2,1,3,4,2,3","false","","",""
"null","","html-keyboard-response","35","328258","0.0-35.0","","<img src=""img/set1/S2.jpg"" width=""540"" height = ""360"">","null","","","","","","","","",""
"null","","html-keyboard-response","36","328461","0.0-36.0","","","null","","","","","","","","",""
"252","","image-keyboard-response","37","328713","0.0-37.0","","img/set1/S1.jpg","74","1","structured_normal","83","structured_normal,random,structured_incentive,structured_load","2,1,3,4,2,3","false","","",""
"null","","html-keyboard-response","38","329065","0.0-38.0","","<img src=""img/set1/S1.jpg"" width=""540"" height = ""360"">","null","","","","","","","","",""
"null","","html-keyboard-response","39","329266","0.0-39.0","","","null","","","","","","","","",""
"61.80000001192093","","image-keyboard-response","40","329329","0.0-40.0","","img/set1/S3.jpg","83","3","structured_normal","72","structured_normal,random,structured_incentive,structured_load","2,1,3,4,2,3","false","","",""
"null","","html-keyboard-response","41","329680","0.0-41.0","","<img src=""img/set1/S3.jpg"" width=""540"" height = ""360"">","null","","","","","","","","",""
"null","","html-keyboard-response","42","329882","0.0-42.0","","","null","","","","","","","","",""
"213.90000000596046","","image-keyboard-response","43","330097","0.0-43.0","","img/set1/S4.jpg","68","4","structured_normal","74","structured_normal,random,structured_incentive,structured_load","2,1,3,4,2,3","false","","",""
"null","","html-keyboard-response","44","330449","0.0-44.0","","<img src=""img/set1/S4.jpg"" width=""540"" height = ""360"">","null","","","","","","","","",""
"null","","html-keyboard-response","45","330650","0.0-45.0","","","null","","","","","","","","",""
"325.90000000596046","","image-keyboard-response","46","330977","0.0-46.0","","img/set1/S3.jpg","72","3","structured_normal","72","structured_normal,random,structured_incentive,structured_load","2,1,3,4,2,3","true","","",""
"null","","html-keyboard-response","47","331328","0.0-47.0","","<img src=""img/set1/S3.jpg"" width=""540"" height = ""360"" style=""border:16px solid orange"">","null","","","","","","","","",""
"null","","html-keyboard-response","48","331530","0.0-48.0","","","null","","","","","","","","",""
"310.40000000596046","","image-keyboard-response","49","331841","0.0-49.0","","img/set1/S4.jpg","83","4","structured_normal","74","structured_normal,random,structured_incentive,structured_load","2,1,3,4,2,3","false","","",""
"null","","html-keyboard-response","50","332193","0.0-50.0","","<img src=""img/set1/S4.jpg"" width=""540"" height = ""360"">","null","","","","","","","","",""
"null","","html-keyboard-response","51","332393","0.0-51.0","","","null","","","","","","","","",""
"528","","image-keyboard-response","52","332922","0.0-52.0","","img/set1/S2.jpg","68","2","structured_normal","68","structured_normal,random,structured_incentive,structured_load","2,1,3,4,2,3","true","","",""
"null","","html-keyboard-response","53","333274","0.0-53.0","","<img src=""img/set1/S2.jpg"" width=""540"" height = ""360"" style=""border:16px solid orange"">","null","","","","","","","","",""
"null","","html-keyboard-response","54","333475","0.0-54.0","","","null","","","","","","","","",""
"494.5","","image-keyboard-response","55","333970","0.0-55.0","","img/set1/S1.jpg","74","1","structured_normal","83","structured_normal,random,structured_incentive,structured_load","2,1,3,4,2,3","false","","",""
"null","","html-keyboard-response","56","334322","0.0-56.0","","<img src=""img/set1/S1.jpg"" width=""540"" height = ""360"">","null","","","","","","","","",""
"null","","html-keyboard-response","57","334525","0.0-57.0","","","null","","","","","","","","",""
"547.5","","image-keyboard-response","58","335073","0.0-58.0","","img/set1/S2.jpg","83","2","structured_normal","68","structured_normal,random,structured_incentive,structured_load","2,1,3,4,2,3","false","","",""
"null","","html-keyboard-response","59","335424","0.0-59.0","","<img src=""img/set1/S2.jpg"" width=""540"" height = ""360"">","null","","","","","","","","",""
"null","","html-keyboard-response","60","335625","0.0-60.0","","","null","","","","","","","","",""
"639","","image-keyboard-response","61","336265","0.0-61.0","","img/set1/S1.jpg","83","1","structured_normal","83","structured_normal,random,structured_incentive,structured_load","2,1,3,4,2,3","true","","",""
"null","","html-keyboard-response","62","336617","0.0-62.0","","<img src=""img/set1/S1.jpg"" width=""540"" height = ""360"" style=""border:16px solid orange"">","null","","","","","","","","",""
"null","","html-keyboard-response","63","336818","0.0-63.0","","","null","","","","","","","","",""
"567.2000000029802","","image-keyboard-response","64","337386","0.0-64.0","","img/set1/S3.jpg","68","3","structured_normal","72","structured_normal,random,structured_incentive,structured_load","2,1,3,4,2,3","false","","",""
"null","","html-keyboard-response","65","337738","0.0-65.0","","<img src=""img/set1/S3.jpg"" width=""540"" height = ""360"">","null","","","","","","","","",""
"null","","html-keyboard-response","66","337940","0.0-66.0","","","null","","","","","","","","",""
"388.70000000298023","","image-keyboard-response","67","338329","0.0-67.0","","img/set1/S3.jpg","72","3","structured_normal","72","structured_normal,random,structured_incentive,structured_load","2,1,3,4,2,3","true","","",""
"null","","html-keyboard-response","68","338681","0.0-68.0","","<img src=""img/set1/S3.jpg"" width=""540"" height = ""360"" style=""border:16px solid orange"">","null","","","","","","","","",""
"null","","html-keyboard-response","69","338884","0.0-69.0","","","null","","","","","","","","",""
"579.6999999880791","","image-keyboard-response","70","339464","0.0-70.0","","img/set1/S4.jpg","68","4","structured_normal","74","structured_normal,random,structured_incentive,structured_load","2,1,3,4,2,3","false","","",""
"null","","html-keyboard-response","71","339816","0.0-71.0","","<img src=""img/set1/S4.jpg"" width=""540"" height = ""360"">","null","","","","","","","","",""
"null","","html-keyboard-response","72","340017","0.0-72.0","","","null","","","","","","","","",""
"671.2999999970198","","image-keyboard-response","73","340689","0.0-73.0","","img/set1/S2.jpg","83","2","structured_normal","68","structured_normal,random,structured_incentive,structured_load","2,1,3,4,2,3","false","","",""
"null","","html-keyboard-response","74","341041","0.0-74.0","","<img src=""img/set1/S2.jpg"" width=""540"" height = ""360"">","null","","","","","","","","",""
"null","","html-keyboard-response","75","341243","0.0-75.0","","","null","","","","","","","","",""
"621.5","","image-keyboard-response","76","341865","0.0-76.0","","img/set1/S1.jpg","74","1","structured_normal","83","structured_normal,random,structured_incentive,structured_load","2,1,3,4,2,3","false","","",""
"null","","html-keyboard-response","77","342218","0.0-77.0","","<img src=""img/set1/S1.jpg"" width=""540"" height = ""360"">","null","","","","","","","","",""
"null","","html-keyboard-response","78","342419","0.0-78.0","","","null","","","","","","","","",""
"557","","image-keyboard-response","79","342977","0.0-79.0","","img/set1/S4.jpg","83","4","structured_normal","74","structured_normal,random,structured_incentive,structured_load","2,1,3,4,2,3","false","","",""
"null","","html-keyboard-response","80","343329","0.0-80.0","","<img src=""img/set1/S4.jpg"" width=""540"" height = ""360"">","null","","","","","","","","",""
"null","","html-keyboard-response","81","343530","0.0-81.0","","","null","","","","","","","","",""
"478.59999999403954","","image-keyboard-response","82","344009","0.0-82.0","","img/set1/S4.jpg","74","4","structured_normal","74","structured_normal,random,structured_incentive,structured_load","2,1,3,4,2,3","true","","",""
"null","","html-keyboard-response","83","344362","0.0-83.0","","<img src=""img/set1/S4.jpg"" width=""540"" height = ""360"" style=""border:16px solid orange"">","null","","","","","","","","",""
"null","","html-keyboard-response","84","344563","0.0-84.0","","","null","","","","","","","","",""
"596.8000000119209","","image-keyboard-response","85","345161","0.0-85.0","","img/set1/S2.jpg","68","2","structured_normal","68","structured_normal,random,structured_incentive,structured_load","2,1,3,4,2,3","true","","",""
"null","","html-keyboard-response","86","345512","0.0-86.0","","<img src=""img/set1/S2.jpg"" width=""540"" height = ""360"" style=""border:16px solid orange"">","null","","","","","","","","",""
"null","","html-keyboard-response","87","345713","0.0-87.0","","","null","","","","","","","","",""
"606.7000000029802","","image-keyboard-response","88","346320","0.0-88.0","","img/set1/S1.jpg","74","1","structured_normal","83","structured_normal,random,structured_incentive,structured_load","2,1,3,4,2,3","false","","",""
"null","","html-keyboard-response","89","346672","0.0-89.0","","<img src=""img/set1/S1.jpg"" width=""540"" height = ""360"">","null","","","","","","","","",""
"null","","html-keyboard-response","90","346874","0.0-90.0","","","null","","","","","","","","",""
"751.1999999880791","","image-keyboard-response","91","347626","0.0-91.0","","img/set1/S2.jpg","68","2","structured_normal","68","structured_normal,random,structured_incentive,structured_load","2,1,3,4,2,3","true","","",""
"null","","html-keyboard-response","92","347978","0.0-92.0","","<img src=""img/set1/S2.jpg"" width=""540"" height = ""360"" style=""border:16px solid orange"">","null","","","","","","","","",""
"null","","html-keyboard-response","93","348180","0.0-93.0","","","null","","","","","","","","",""
"611.9000000059605","","image-keyboard-response","94","348793","0.0-94.0","","img/set1/S1.jpg","83","1","structured_normal","83","structured_normal,random,structured_incentive,structured_load","2,1,3,4,2,3","true","","",""
"null","","html-keyboard-response","95","349156","0.0-95.0","","<img src=""img/set1/S1.jpg"" width=""540"" height = ""360"" style=""border:16px solid orange"">","null","","","","","","","","",""
"null","","html-keyboard-response","96","349358","0.0-96.0","","","null","","","","","","","","",""
"506.40000000596046","","image-keyboard-response","97","349865","0.0-97.0","","img/set1/S4.jpg","72","4","structured_normal","74","structured_normal,random,structured_incentive,structured_load","2,1,3,4,2,3","false","","",""
"null","","html-keyboard-response","98","350216","0.0-98.0","","<img src=""img/set1/S4.jpg"" width=""540"" height = ""360"">","null","","","","","","","","",""
"null","","html-keyboard-response","99","350419","0.0-99.0","","","null","","","","","","","","",""
"789.2999999970198","","image-keyboard-response","100","351209","0.0-100.0","","img/set1/S3.jpg","72","3","structured_normal","72","structured_normal,random,structured_incentive,structured_load","2,1,3,4,2,3","true","","",""
"null","","html-keyboard-response","101","351561","0.0-101.0","","<img src=""img/set1/S3.jpg"" width=""540"" height = ""360"" style=""border:16px solid orange"">","null","","","","","","","","",""
"null","","html-keyboard-response","102","351762","0.0-102.0","","","null","","","","","","","","",""
"550","","image-keyboard-response","103","352313","0.0-103.0","","img/set1/S2.jpg","83","2","structured_normal","68","structured_normal,random,structured_incentive,structured_load","2,1,3,4,2,3","false","","",""
"null","","html-keyboard-response","104","352665","0.0-104.0","","<img src=""img/set1/S2.jpg"" width=""540"" height = ""360"">","null","","","","","","","","",""
"null","","html-keyboard-response","105","352867","0.0-105.0","","","null","","","","","","","","",""
"725.7000000029802","","image-keyboard-response","106","353593","0.0-106.0","","img/set1/S1.jpg","74","1","structured_normal","83","structured_normal,random,structured_incentive,structured_load","2,1,3,4,2,3","false","","",""
"null","","html-keyboard-response","107","353945","0.0-107.0","","<img src=""img/set1/S1.jpg"" width=""540"" height = ""360"">","null","","","","","","","","",""
"null","","html-keyboard-response","108","354147","0.0-108.0","","","null","","","","","","","","",""
"548.7999999970198","","image-keyboard-response","109","354696","0.0-109.0","","img/set1/S4.jpg","83","4","structured_normal","74","structured_normal,random,structured_incentive,structured_load","2,1,3,4,2,3","false","","",""
"null","","html-keyboard-response","110","355048","0.0-110.0","","<img src=""img/set1/S4.jpg"" width=""540"" height = ""360"">","null","","","","","","","","",""
"null","","html-keyboard-response","111","355249","0.0-111.0","","","null","","","","","","","","",""
"455.3999999910593","","image-keyboard-response","112","355705","0.0-112.0","","img/set1/S4.jpg","74","4","structured_normal","74","structured_normal,random,structured_incentive,structured_load","2,1,3,4,2,3","true","","",""
"null","","html-keyboard-response","113","356057","0.0-113.0","","<img src=""img/set1/S4.jpg"" width=""540"" height = ""360"" style=""border:16px solid orange"">","null","","","","","","","","",""
"null","","html-keyboard-response","114","356258","0.0-114.0","","","null","","","","","","","","",""
"630.0999999940395","","image-keyboard-response","115","356889","0.0-115.0","","img/set1/S2.jpg","68","2","structured_normal","68","structured_normal,random,structured_incentive,structured_load","2,1,3,4,2,3","true","","",""
"null","","html-keyboard-response","116","357242","0.0-116.0","","<img src=""img/set1/S2.jpg"" width=""540"" height = ""360"" style=""border:16px solid orange"">","null","","","","","","","","",""
"null","","html-keyboard-response","117","357443","0.0-117.0","","","null","","","","","","","","",""
"670.8000000119209","","image-keyboard-response","118","358115","0.0-118.0","","img/set1/S1.jpg","68","1","structured_normal","83","structured_normal,random,structured_incentive,structured_load","2,1,3,4,2,3","false","","",""
"null","","html-keyboard-response","119","358466","0.0-119.0","","<img src=""img/set1/S1.jpg"" width=""540"" height = ""360"">","null","","","","","","","","",""
"null","","html-keyboard-response","120","358667","0.0-120.0","","","null","","","","","","","","",""
"548.7000000029802","","image-keyboard-response","121","359217","0.0-121.0","","img/set1/S3.jpg","72","3","structured_normal","72","structured_normal,random,structured_incentive,structured_load","2,1,3,4,2,3","true","","",""
"null","","html-keyboard-response","122","359568","0.0-122.0","","<img src=""img/set1/S3.jpg"" width=""540"" height = ""360"" style=""border:16px solid orange"">","null","","","","","","","","",""
"null","","html-keyboard-response","123","359770","0.0-123.0","","","null","","","","","","","","",""
"582","","image-keyboard-response","124","360353","0.0-124.0","","img/set1/S2.jpg","83","2","structured_normal","68","structured_normal,random,structured_incentive,structured_load","2,1,3,4,2,3","false","","",""
"null","","html-keyboard-response","125","360705","0.0-125.0","","<img src=""img/set1/S2.jpg"" width=""540"" height = ""360"">","null","","","","","","","","",""
"null","","html-keyboard-response","126","360906","0.0-126.0","","","null","","","","","","","","",""
"637.7999999970198","","image-keyboard-response","127","361545","0.0-127.0","","img/set1/S1.jpg","74","1","structured_normal","83","structured_normal,random,structured_incentive,structured_load","2,1,3,4,2,3","false","","",""
"null","","html-keyboard-response","128","361897","0.0-128.0","","<img src=""img/set1/S1.jpg"" width=""540"" height = ""360"">","null","","","","","","","","",""
"null","","html-keyboard-response","129","362099","0.0-129.0","","","null","","","","","","","","",""
"613","","image-keyboard-response","130","362713","0.0-130.0","","img/set1/S2.jpg","68","2","structured_normal","68","structured_normal,random,structured_incentive,structured_load","2,1,3,4,2,3","true","","",""
"null","","html-keyboard-response","131","363064","0.0-131.0","","<img src=""img/set1/S2.jpg"" width=""540"" height = ""360"" style=""border:16px solid orange"">","null","","","","","","","","",""
"null","","html-keyboard-response","132","363266","0.0-132.0","","","null","","","","","","","","",""
"549.5999999940395","","image-keyboard-response","133","363817","0.0-133.0","","img/set1/S1.jpg","83","1","structured_normal","83","structured_normal,random,structured_incentive,structured_load","2,1,3,4,2,3","true","","",""
"null","","html-keyboard-response","134","364169","0.0-134.0","","<img src=""img/set1/S1.jpg"" width=""540"" height = ""360"" style=""border:16px solid orange"">","null","","","","","","","","",""
"null","","html-keyboard-response","135","364371","0.0-135.0","","","null","","","","","","","","",""
"620.9000000059605","","image-keyboard-response","136","364993","0.0-136.0","","img/set1/S2.jpg","68","2","structured_normal","68","structured_normal,random,structured_incentive,structured_load","2,1,3,4,2,3","true","","",""
"null","","html-keyboard-response","137","365344","0.0-137.0","","<img src=""img/set1/S2.jpg"" width=""540"" height = ""360"" style=""border:16px solid orange"">","null","","","","","","","","",""
"null","","html-keyboard-response","138","365546","0.0-138.0","","","null","","","","","","","","",""
"445.70000000298023","","image-keyboard-response","139","365993","0.0-139.0","","img/set1/S1.jpg","83","1","structured_normal","83","structured_normal,random,structured_incentive,structured_load","2,1,3,4,2,3","true","","",""
"null","","html-keyboard-response","140","366345","0.0-140.0","","<img src=""img/set1/S1.jpg"" width=""540"" height = ""360"" style=""border:16px solid orange"">","null","","","","","","","","",""
"null","","html-keyboard-response","141","366547","0.0-141.0","","","null","","","","","","","","",""
"509.40000000596046","","image-keyboard-response","142","367057","0.0-142.0","","img/set1/S3.jpg","72","3","structured_normal","72","structured_normal,random,structured_incentive,structured_load","2,1,3,4,2,3","true","","",""
"null","","html-keyboard-response","143","367409","0.0-143.0","","<img src=""img/set1/S3.jpg"" width=""540"" height = ""360"" style=""border:16px solid orange"">","null","","","","","","","","",""
"null","","html-keyboard-response","144","367611","0.0-144.0","","","null","","","","","","","","",""
"590.7000000029802","","image-keyboard-response","145","368203","0.0-145.0","","img/set1/S2.jpg","68","2","structured_normal","68","structured_normal,random,structured_incentive,structured_load","2,1,3,4,2,3","true","","",""
"null","","html-keyboard-response","146","368555","0.0-146.0","","<img src=""img/set1/S2.jpg"" width=""540"" height = ""360"" style=""border:16px solid orange"">","null","","","","","","","","",""
"null","","html-keyboard-response","147","368757","0.0-147.0","","","null","","","","","","","","",""
"451.20000000298023","","image-keyboard-response","148","369209","0.0-148.0","","img/set1/S1.jpg","83","1","structured_normal","83","structured_normal,random,structured_incentive,structured_load","2,1,3,4,2,3","true","","",""
"null","","html-keyboard-response","149","369560","0.0-149.0","","<img src=""img/set1/S1.jpg"" width=""540"" height = ""360"" style=""border:16px solid orange"">","null","","","","","","","","",""
"null","","html-keyboard-response","150","369761","0.0-150.0","","","null","","","","","","","","",""
"551.0999999940395","","image-keyboard-response","151","370313","0.0-151.0","","img/set1/S2.jpg","68","2","structured_normal","68","structured_normal,random,structured_incentive,structured_load","2,1,3,4,2,3","true","","",""
"null","","html-keyboard-response","152","370666","0.0-152.0","","<img src=""img/set1/S2.jpg"" width=""540"" height = ""360"" style=""border:16px solid orange"">","null","","","","","","","","",""
"null","","html-keyboard-response","153","370867","0.0-153.0","","","null","","","","","","","","",""
"492.90000000596046","","image-keyboard-response","154","371361","0.0-154.0","","img/set1/S1.jpg","83","1","structured_normal","83","structured_normal,random,structured_incentive,structured_load","2,1,3,4,2,3","true","","",""
"null","","html-keyboard-response","155","371713","0.0-155.0","","<img src=""img/set1/S1.jpg"" width=""540"" height = ""360"" style=""border:16px solid orange"">","null","","","","","","","","",""
"null","","html-keyboard-response","156","371915","0.0-156.0","","","null","","","","","","","","",""
"493","","image-keyboard-response","157","372409","0.0-157.0","","img/set1/S3.jpg","74","3","structured_normal","72","structured_normal,random,structured_incentive,structured_load","2,1,3,4,2,3","false","","",""
"null","","html-keyboard-response","158","372760","0.0-158.0","","<img src=""img/set1/S3.jpg"" width=""540"" height = ""360"">","null","","","","","","","","",""
"null","","html-keyboard-response","159","372961","0.0-159.0","","","null","","","","","","","","",""
"423.09999999403954","","image-keyboard-response","160","373385","0.0-160.0","","img/set1/S3.jpg","72","3","structured_normal","72","structured_normal,random,structured_incentive,structured_load","2,1,3,4,2,3","true","","",""
"null","","html-keyboard-response","161","373737","0.0-161.0","","<img src=""img/set1/S3.jpg"" width=""540"" height = ""360"" style=""border:16px solid orange"">","null","","","","","","","","",""
"null","","html-keyboard-response","162","373938","0.0-162.0","","","null","","","","","","","","",""
"622.3999999910593","","image-keyboard-response","163","374561","0.0-163.0","","img/set1/S2.jpg","68","2","structured_normal","68","structured_normal,random,structured_incentive,structured_load","2,1,3,4,2,3","true","","",""
"null","","html-keyboard-response","164","374913","0.0-164.0","","<img src=""img/set1/S2.jpg"" width=""540"" height = ""360"" style=""border:16px solid orange"">","null","","","","","","","","",""
"null","","html-keyboard-response","165","375114","0.0-165.0","","","null","","","","","","","","",""
"518.2999999970198","","image-keyboard-response","166","375633","0.0-166.0","","img/set1/S1.jpg","83","1","structured_normal","83","structured_normal,random,structured_incentive,structured_load","2,1,3,4,2,3","true","","",""
"null","","html-keyboard-response","167","375986","0.0-167.0","","<img src=""img/set1/S1.jpg"" width=""540"" height = ""360"" style=""border:16px solid orange"">","null","","","","","","","","",""
"null","","html-keyboard-response","168","376187","0.0-168.0","","","null","","","","","","","","",""
"452.90000000596046","","image-keyboard-response","169","376641","0.0-169.0","","img/set1/S4.jpg","74","4","structured_normal","74","structured_normal,random,structured_incentive,structured_load","2,1,3,4,2,3","true","","",""
"null","","html-keyboard-response","170","376992","0.0-170.0","","<img src=""img/set1/S4.jpg"" width=""540"" height = ""360"" style=""border:16px solid orange"">","null","","","","","","","","",""
"null","","html-keyboard-response","171","377195","0.0-171.0","","","null","","","","","","","","",""
"564.8999999910593","","image-keyboard-response","172","377761","0.0-172.0","","img/set1/S2.jpg","68","2","structured_normal","68","structured_normal,random,structured_incentive,structured_load","2,1,3,4,2,3","true","","",""
"null","","html-keyboard-response","173","378113","0.0-173.0","","<img src=""img/set1/S2.jpg"" width=""540"" height = ""360"" style=""border:16px solid orange"">","null","","","","","","","","",""
"null","","html-keyboard-response","174","378313","0.0-174.0","","","null","","","","","","","","",""
"568.2000000029802","","image-keyboard-response","175","378882","0.0-175.0","","img/set1/S1.jpg","83","1","structured_normal","83","structured_normal,random,structured_incentive,structured_load","2,1,3,4,2,3","true","","",""
"null","","html-keyboard-response","176","379234","0.0-176.0","","<img src=""img/set1/S1.jpg"" width=""540"" height = ""360"" style=""border:16px solid orange"">","null","","","","","","","","",""
"null","","html-keyboard-response","177","379436","0.0-177.0","","","null","","","","","","","","",""
"524","","image-keyboard-response","178","379961","0.0-178.0","","img/set1/S2.jpg","68","2","structured_normal","68","structured_normal,random,structured_incentive,structured_load","2,1,3,4,2,3","true","","",""
"null","","html-keyboard-response","179","380313","0.0-179.0","","<img src=""img/set1/S2.jpg"" width=""540"" height = ""360"" style=""border:16px solid orange"">","null","","","","","","","","",""
"null","","html-keyboard-response","180","380515","0.0-180.0","","","null","","","","","","","","",""
"582","","image-keyboard-response","181","381097","0.0-181.0","","img/set1/S1.jpg","83","1","structured_normal","83","structured_normal,random,structured_incentive,structured_load","2,1,3,4,2,3","true","","",""
"null","","html-keyboard-response","182","381449","0.0-182.0","","<img src=""img/set1/S1.jpg"" width=""540"" height = ""360"" style=""border:16px solid orange"">","null","","","","","","","","",""
"null","","html-keyboard-response","183","381650","0.0-183.0","","","null","","","","","","","","",""
"517.6999999880791","","image-keyboard-response","184","382168","0.0-184.0","","img/set1/S3.jpg","72","3","structured_normal","72","structured_normal,random,structured_incentive,structured_load","2,1,3,4,2,3","true","","",""
"null","","html-keyboard-response","185","382520","0.0-185.0","","<img src=""img/set1/S3.jpg"" width=""540"" height = ""360"" style=""border:16px solid orange"">","null","","","","","","","","",""
"null","","html-keyboard-response","186","382721","0.0-186.0","","","null","","","","","","","","",""
"470.69999998807907","","image-keyboard-response","187","383193","0.0-187.0","","img/set1/S2.jpg","83","2","structured_normal","68","structured_normal,random,structured_incentive,structured_load","2,1,3,4,2,3","false","","",""
"null","","html-keyboard-response","188","383545","0.0-188.0","","<img src=""img/set1/S2.jpg"" width=""540"" height = ""360"">","null","","","","","","","","",""
"null","","html-keyboard-response","189","383746","0.0-189.0","","","null","","","","","","","","",""
"494","","image-keyboard-response","190","384241","0.0-190.0","","img/set1/S1.jpg","83","1","structured_normal","83","structured_normal,random,structured_incentive,structured_load","2,1,3,4,2,3","true","","",""
"null","","html-keyboard-response","191","384593","0.0-191.0","","<img src=""img/set1/S1.jpg"" width=""540"" height = ""360"" style=""border:16px solid orange"">","null","","","","","","","","",""
"null","","html-keyboard-response","192","384794","0.0-192.0","","","null","","","","","","","","",""
"414.29999999701977","","image-keyboard-response","193","385209","0.0-193.0","","img/set1/S3.jpg","72","3","structured_normal","72","structured_normal,random,structured_incentive,structured_load","2,1,3,4,2,3","true","","",""
"null","","html-keyboard-response","194","385560","0.0-194.0","","<img src=""img/set1/S3.jpg"" width=""540"" height = ""360"" style=""border:16px solid orange"">","null","","","","","","","","",""
"null","","html-keyboard-response","195","385761","0.0-195.0","","","null","","","","","","","","",""
"527.2999999970198","","image-keyboard-response","196","386289","0.0-196.0","","img/set1/S4.jpg","74","4","structured_normal","74","structured_normal,random,structured_incentive,structured_load","2,1,3,4,2,3","true","","",""
"null","","html-keyboard-response","197","386641","0.0-197.0","","<img src=""img/set1/S4.jpg"" width=""540"" height = ""360"" style=""border:16px solid orange"">","null","","","","","","","","",""
"null","","html-keyboard-response","198","386842","0.0-198.0","","","null","","","","","","","","",""
"462.5","","image-keyboard-response","199","387305","0.0-199.0","","img/set1/S3.jpg","72","3","structured_normal","72","structured_normal,random,structured_incentive,structured_load","2,1,3,4,2,3","true","","",""
"null","","html-keyboard-response","200","387657","0.0-200.0","","<img src=""img/set1/S3.jpg"" width=""540"" height = ""360"" style=""border:16px solid orange"">","null","","","","","","","","",""
"null","","html-keyboard-response","201","387859","0.0-201.0","","","null","","","","","","","","",""
"628.8999999910593","","image-keyboard-response","202","388489","0.0-202.0","","img/set1/S2.jpg","68","2","structured_normal","68","structured_normal,random,structured_incentive,structured_load","2,1,3,4,2,3","true","","",""
"null","","html-keyboard-response","203","388841","0.0-203.0","","<img src=""img/set1/S2.jpg"" width=""540"" height = ""360"" style=""border:16px solid orange"">","null","","","","","","","","",""
"null","","html-keyboard-response","204","389043","0.0-204.0","","","null","","","","","","","","",""
"511.29999999701977","","image-keyboard-response","205","389555","0.0-205.0","","img/set1/S1.jpg","83","1","structured_normal","83","structured_normal,random,structured_incentive,structured_load","2,1,3,4,2,3","true","","",""
"null","","html-keyboard-response","206","389907","0.0-206.0","","<img src=""img/set1/S1.jpg"" width=""540"" height = ""360"" style=""border:16px solid orange"">","null","","","","","","","","",""
"null","","html-keyboard-response","207","390109","0.0-207.0","","","null","","","","","","","","",""
"603.0999999940395","","image-keyboard-response","208","390713","0.0-208.0","","img/set1/S2.jpg","68","2","structured_normal","68","structured_normal,random,structured_incentive,structured_load","2,1,3,4,2,3","true","","",""
"null","","html-keyboard-response","209","391065","0.0-209.0","","<img src=""img/set1/S2.jpg"" width=""540"" height = ""360"" style=""border:16px solid orange"">","null","","","","","","","","",""
"null","","html-keyboard-response","210","391265","0.0-210.0","","","null","","","","","","","","",""
"446.3999999910593","","image-keyboard-response","211","391713","0.0-211.0","","img/set1/S1.jpg","72","1","structured_normal","83","structured_normal,random,structured_incentive,structured_load","2,1,3,4,2,3","false","","",""
"null","","html-keyboard-response","212","392064","0.0-212.0","","<img src=""img/set1/S1.jpg"" width=""540"" height = ""360"">","null","","","","","","","","",""
"null","","html-keyboard-response","213","392267","0.0-213.0","","","null","","","","","","","","",""
"413","","image-keyboard-response","214","392680","0.0-214.0","","img/set1/S4.jpg","72","4","structured_normal","74","structured_normal,random,structured_incentive,structured_load","2,1,3,4,2,3","false","","",""
"null","","html-keyboard-response","215","393033","0.0-215.0","","<img src=""img/set1/S4.jpg"" width=""540"" height = ""360"">","null","","","","","","","","",""
"null","","html-keyboard-response","216","393234","0.0-216.0","","","null","","","","","","","","",""
"381.79999999701977","","image-keyboard-response","217","393616","0.0-217.0","","img/set1/S3.jpg","72","3","structured_normal","72","structured_normal,random,structured_incentive,structured_load","2,1,3,4,2,3","true","","",""
"null","","html-keyboard-response","218","393968","0.0-218.0","","<img src=""img/set1/S3.jpg"" width=""540"" height = ""360"" style=""border:16px solid orange"">","null","","","","","","","","",""
"null","","html-keyboard-response","219","394169","0.0-219.0","","","null","","","","","","","","",""
"542.7999999970198","","image-keyboard-response","220","394713","0.0-220.0","","img/set1/S2.jpg","68","2","structured_normal","68","structured_normal,random,structured_incentive,structured_load","2,1,3,4,2,3","true","","",""
"null","","html-keyboard-response","221","395065","0.0-221.0","","<img src=""img/set1/S2.jpg"" width=""540"" height = ""360"" style=""border:16px solid orange"">","null","","","","","","","","",""
"null","","html-keyboard-response","222","395266","0.0-222.0","","","null","","","","","","","","",""
"501.5","","image-keyboard-response","223","395768","0.0-223.0","","img/set1/S1.jpg","83","1","structured_normal","83","structured_normal,random,structured_incentive,structured_load","2,1,3,4,2,3","true","","",""
"null","","html-keyboard-response","224","396119","0.0-224.0","","<img src=""img/set1/S1.jpg"" width=""540"" height = ""360"" style=""border:16px solid orange"">","null","","","","","","","","",""
"null","","html-keyboard-response","225","396320","0.0-225.0","","","null","","","","","","","","",""
"544.5","","image-keyboard-response","226","396865","0.0-226.0","","img/set1/S4.jpg","68","4","structured_normal","74","structured_normal,random,structured_incentive,structured_load","2,1,3,4,2,3","false","","",""
"null","","html-keyboard-response","227","397217","0.0-227.0","","<img src=""img/set1/S4.jpg"" width=""540"" height = ""360"">","null","","","","","","","","",""
"null","","html-keyboard-response","228","397419","0.0-228.0","","","null","","","","","","","","",""
"389.5","","image-keyboard-response","229","397809","0.0-229.0","","img/set1/S4.jpg","74","4","structured_normal","74","structured_normal,random,structured_incentive,structured_load","2,1,3,4,2,3","true","","",""
"null","","html-keyboard-response","230","398160","0.0-230.0","","<img src=""img/set1/S4.jpg"" width=""540"" height = ""360"" style=""border:16px solid orange"">","null","","","","","","","","",""
"null","","html-keyboard-response","231","398362","0.0-231.0","","","null","","","","","","","","",""
"422.79999999701977","","image-keyboard-response","232","398786","0.0-232.0","","img/set1/S4.jpg","74","4","structured_normal","74","structured_normal,random,structured_incentive,structured_load","2,1,3,4,2,3","true","","",""
"null","","html-keyboard-response","233","399139","0.0-233.0","","<img src=""img/set1/S4.jpg"" width=""540"" height = ""360"" style=""border:16px solid orange"">","null","","","","","","","","",""
"null","","html-keyboard-response","234","399340","0.0-234.0","","","null","","","","","","","","",""
"397.09999999403954","","image-keyboard-response","235","399738","0.0-235.0","","img/set1/S4.jpg","74","4","structured_normal","74","structured_normal,random,structured_incentive,structured_load","2,1,3,4,2,3","true","","",""
"null","","html-keyboard-response","236","400090","0.0-236.0","","<img src=""img/set1/S4.jpg"" width=""540"" height = ""360"" style=""border:16px solid orange"">","null","","","","","","","","",""
"null","","html-keyboard-response","237","400293","0.0-237.0","","","null","","","","","","","","",""
"387.09999999403954","","image-keyboard-response","238","400680","0.0-238.0","","img/set1/S4.jpg","74","4","structured_normal","74","structured_normal,random,structured_incentive,structured_load","2,1,3,4,2,3","true","","",""
"null","","html-keyboard-response","239","401033","0.0-239.0","","<img src=""img/set1/S4.jpg"" width=""540"" height = ""360"" style=""border:16px solid orange"">","null","","","","","","","","",""
"null","","html-keyboard-response","240","401235","0.0-240.0","","","null","","","","","","","","",""
"469.29999999701977","","image-keyboard-response","241","401705","0.0-241.0","","img/set1/S3.jpg","68","3","structured_normal","72","structured_normal,random,structured_incentive,structured_load","2,1,3,4,2,3","false","","",""
"null","","html-keyboard-response","242","402057","0.0-242.0","","<img src=""img/set1/S3.jpg"" width=""540"" height = ""360"">","null","","","","","","","","",""
"null","","html-keyboard-response","243","402258","0.0-243.0","","","null","","","","","","","","",""
"437.59999999403954","","image-keyboard-response","244","402696","0.0-244.0","","img/set1/S3.jpg","72","3","structured_normal","72","structured_normal,random,structured_incentive,structured_load","2,1,3,4,2,3","true","","",""
"null","","html-keyboard-response","245","403048","0.0-245.0","","<img src=""img/set1/S3.jpg"" width=""540"" height = ""360"" style=""border:16px solid orange"">","null","","","","","","","","",""
"null","","html-keyboard-response","246","403249","0.0-246.0","","","null","","","","","","","","",""
"494.29999999701977","","image-keyboard-response","247","403744","0.0-247.0","","img/set1/S2.jpg","68","2","structured_normal","68","structured_normal,random,structured_incentive,structured_load","2,1,3,4,2,3","true","","",""
"null","","html-keyboard-response","248","404096","0.0-248.0","","<img src=""img/set1/S2.jpg"" width=""540"" height = ""360"" style=""border:16px solid orange"">","null","","","","","","","","",""
"null","","html-keyboard-response","249","404298","0.0-249.0","","","null","","","","","","","","",""
"502.09999999403954","","image-keyboard-response","250","404801","0.0-250.0","","img/set1/S1.jpg","83","1","structured_normal","83","structured_normal,random,structured_incentive,structured_load","2,1,3,4,2,3","true","","",""
"null","","html-keyboard-response","251","405153","0.0-251.0","","<img src=""img/set1/S1.jpg"" width=""540"" height = ""360"" style=""border:16px solid orange"">","null","","","","","","","","",""
"null","","html-keyboard-response","252","405354","0.0-252.0","","","null","","","","","","","","",""
"518.0999999940395","","image-keyboard-response","253","405873","0.0-253.0","","img/set1/S4.jpg","68","4","structured_normal","74","structured_normal,random,structured_incentive,structured_load","2,1,3,4,2,3","false","","",""
"null","","html-keyboard-response","254","406224","0.0-254.0","","<img src=""img/set1/S4.jpg"" width=""540"" height = ""360"">","null","","","","","","","","",""
"null","","html-keyboard-response","255","406426","0.0-255.0","","","null","","","","","","","","",""
"549.3999999910593","","image-keyboard-response","256","406976","0.0-256.0","","img/set1/S2.jpg","68","2","structured_normal","68","structured_normal,random,structured_incentive,structured_load","2,1,3,4,2,3","true","","",""
"null","","html-keyboard-response","257","407329","0.0-257.0","","<img src=""img/set1/S2.jpg"" width=""540"" height = ""360"" style=""border:16px solid orange"">","null","","","","","","","","",""
"null","","html-keyboard-response","258","407532","0.0-258.0","","","null","","","","","","","","",""
"540","","image-keyboard-response","259","408072","0.0-259.0","","img/set1/S1.jpg","83","1","structured_normal","83","structured_normal,random,structured_incentive,structured_load","2,1,3,4,2,3","true","","",""
"null","","html-keyboard-response","260","408424","0.0-260.0","","<img src=""img/set1/S1.jpg"" width=""540"" height = ""360"" style=""border:16px solid orange"">","null","","","","","","","","",""
"null","","html-keyboard-response","261","408627","0.0-261.0","","","null","","","","","","","","",""
"525.1000000089407","","image-keyboard-response","262","409152","0.0-262.0","","img/set1/S3.jpg","74","3","structured_normal","72","structured_normal,random,structured_incentive,structured_load","2,1,3,4,2,3","false","","",""
"null","","html-keyboard-response","263","409504","0.0-263.0","","<img src=""img/set1/S3.jpg"" width=""540"" height = ""360"">","null","","","","","","","","",""
"null","","html-keyboard-response","264","409706","0.0-264.0","","","null","","","","","","","","",""
"384.29999999701977","","image-keyboard-response","265","410091","0.0-265.0","","img/set1/S3.jpg","72","3","structured_normal","72","structured_normal,random,structured_incentive,structured_load","2,1,3,4,2,3","true","","",""
"null","","html-keyboard-response","266","410442","0.0-266.0","","<img src=""img/set1/S3.jpg"" width=""540"" height = ""360"" style=""border:16px solid orange"">","null","","","","","","","","",""
"null","","html-keyboard-response","267","410644","0.0-267.0","","","null","","","","","","","","",""
"364.30000001192093","","image-keyboard-response","268","411009","0.0-268.0","","img/set1/S3.jpg","72","3","structured_normal","72","structured_normal,random,structured_incentive,structured_load","2,1,3,4,2,3","true","","",""
"null","","html-keyboard-response","269","411361","0.0-269.0","","<img src=""img/set1/S3.jpg"" width=""540"" height = ""360"" style=""border:16px solid orange"">","null","","","","","","","","",""
"null","","html-keyboard-response","270","411563","0.0-270.0","","","null","","","","","","","","",""
"524.5","","image-keyboard-response","271","412088","0.0-271.0","","img/set1/S2.jpg","68","2","structured_normal","68","structured_normal,random,structured_incentive,structured_load","2,1,3,4,2,3","true","","",""
"null","","html-keyboard-response","272","412440","0.0-272.0","","<img src=""img/set1/S2.jpg"" width=""540"" height = ""360"" style=""border:16px solid orange"">","null","","","","","","","","",""
"null","","html-keyboard-response","273","412642","0.0-273.0","","","null","","","","","","","","",""
"462.20000000298023","","image-keyboard-response","274","413105","0.0-274.0","","img/set1/S1.jpg","83","1","structured_normal","83","structured_normal,random,structured_incentive,structured_load","2,1,3,4,2,3","true","","",""
"null","","html-keyboard-response","275","413457","0.0-275.0","","<img src=""img/set1/S1.jpg"" width=""540"" height = ""360"" style=""border:16px solid orange"">","null","","","","","","","","",""
"null","","html-keyboard-response","276","413658","0.0-276.0","","","null","","","","","","","","",""
"462.29999999701977","","image-keyboard-response","277","414120","0.0-277.0","","img/set1/S2.jpg","68","2","structured_normal","68","structured_normal,random,structured_incentive,structured_load","2,1,3,4,2,3","true","","",""
"null","","html-keyboard-response","278","414473","0.0-278.0","","<img src=""img/set1/S2.jpg"" width=""540"" height = ""360"" style=""border:16px solid orange"">","null","","","","","","","","",""
"null","","html-keyboard-response","279","414674","0.0-279.0","","","null","","","","","","","","",""
"501.1000000089407","","image-keyboard-response","280","415176","0.0-280.0","","img/set1/S1.jpg","83","1","structured_normal","83","structured_normal,random,structured_incentive,structured_load","2,1,3,4,2,3","true","","",""
"null","","html-keyboard-response","281","415528","0.0-281.0","","<img src=""img/set1/S1.jpg"" width=""540"" height = ""360"" style=""border:16px solid orange"">","null","","","","","","","","",""
"null","","html-keyboard-response","282","415731","0.0-282.0","","","null","","","","","","","","",""
"452.69999998807907","","image-keyboard-response","283","416184","0.0-283.0","","img/set1/S3.jpg","72","3","structured_normal","72","structured_normal,random,structured_incentive,structured_load","2,1,3,4,2,3","true","","",""
"null","","html-keyboard-response","284","416537","0.0-284.0","","<img src=""img/set1/S3.jpg"" width=""540"" height = ""360"" style=""border:16px solid orange"">","null","","","","","","","","",""
"null","","html-keyboard-response","285","416738","0.0-285.0","","","null","","","","","","","","",""
"381.70000000298023","","image-keyboard-response","286","417120","0.0-286.0","","img/set1/S4.jpg","74","4","structured_normal","74","structured_normal,random,structured_incentive,structured_load","2,1,3,4,2,3","true","","",""
"null","","html-keyboard-response","287","417473","0.0-287.0","","<img src=""img/set1/S4.jpg"" width=""540"" height = ""360"" style=""border:16px solid orange"">","null","","","","","","","","",""
"null","","html-keyboard-response","288","417675","0.0-288.0","","","null","","","","","","","","",""
"436.59999999403954","","image-keyboard-response","289","418113","0.0-289.0","","img/set1/S3.jpg","74","3","structured_normal","72","structured_normal,random,structured_incentive,structured_load","2,1,3,4,2,3","false","","",""
"null","","html-keyboard-response","290","418464","0.0-290.0","","<img src=""img/set1/S3.jpg"" width=""540"" height = ""360"">","null","","","","","","","","",""
"null","","html-keyboard-response","291","418666","0.0-291.0","","","null","","","","","","","","",""
"374.1000000089407","","image-keyboard-response","292","419041","0.0-292.0","","img/set1/S3.jpg","72","3","structured_normal","72","structured_normal,random,structured_incentive,structured_load","2,1,3,4,2,3","true","","",""
"null","","html-keyboard-response","293","419393","0.0-293.0","","<img src=""img/set1/S3.jpg"" width=""540"" height = ""360"" style=""border:16px solid orange"">","null","","","","","","","","",""
"null","","html-keyboard-response","294","419594","0.0-294.0","","","null","","","","","","","","",""
"382.20000000298023","","image-keyboard-response","295","419977","0.0-295.0","","img/set1/S3.jpg","72","3","structured_normal","72","structured_normal,random,structured_incentive,structured_load","2,1,3,4,2,3","true","","",""
"null","","html-keyboard-response","296","420328","0.0-296.0","","<img src=""img/set1/S3.jpg"" width=""540"" height = ""360"" style=""border:16px solid orange"">","null","","","","","","","","",""
"null","","html-keyboard-response","297","420530","0.0-297.0","","","null","","","","","","","","",""
"599.1999999880791","","image-keyboard-response","298","421130","0.0-298.0","","img/set1/S4.jpg","72","4","structured_normal","74","structured_normal,random,structured_incentive,structured_load","2,1,3,4,2,3","false","","",""
"null","","html-keyboard-response","299","421481","0.0-299.0","","<img src=""img/set1/S4.jpg"" width=""540"" height = ""360"">","null","","","","","","","","",""
"null","","html-keyboard-response","300","421683","0.0-300.0","","","null","","","","","","","","",""
"389.70000000298023","","image-keyboard-response","301","422073","0.0-301.0","","img/set1/S4.jpg","74","4","structured_normal","74","structured_normal,random,structured_incentive,structured_load","2,1,3,4,2,3","true","","",""
"null","","html-keyboard-response","302","422425","0.0-302.0","","<img src=""img/set1/S4.jpg"" width=""540"" height = ""360"" style=""border:16px solid orange"">","null","","","","","","","","",""
"null","","html-keyboard-response","303","422627","0.0-303.0","","","null","","","","","","","","",""
"501.3999999910593","","image-keyboard-response","304","423130","0.0-304.0","","img/set1/S3.jpg","72","3","structured_normal","72","structured_normal,random,structured_incentive,structured_load","2,1,3,4,2,3","true","","",""
"null","","html-keyboard-response","305","423482","0.0-305.0","","<img src=""img/set1/S3.jpg"" width=""540"" height = ""360"" style=""border:16px solid orange"">","null","","","","","","","","",""
"null","","html-keyboard-response","306","423683","0.0-306.0","","","null","","","","","","","","",""
"524.6999999880791","","image-keyboard-response","307","424209","0.0-307.0","","img/set1/S2.jpg","83","2","structured_normal","68","structured_normal,random,structured_incentive,structured_load","2,1,3,4,2,3","false","","",""
"null","","html-keyboard-response","308","424561","0.0-308.0","","<img src=""img/set1/S2.jpg"" width=""540"" height = ""360"">","null","","","","","","","","",""
"null","","html-keyboard-response","309","424762","0.0-309.0","","","null","","","","","","","","",""
"526","","image-keyboard-response","310","425288","0.0-310.0","","img/set1/S1.jpg","83","1","structured_normal","83","structured_normal,random,structured_incentive,structured_load","2,1,3,4,2,3","true","","",""
"null","","html-keyboard-response","311","425641","0.0-311.0","","<img src=""img/set1/S1.jpg"" width=""540"" height = ""360"" style=""border:16px solid orange"">","null","","","","","","","","",""
"null","","html-keyboard-response","312","425843","0.0-312.0","","","null","","","","","","","","",""
"508.29999999701977","","image-keyboard-response","313","426352","0.0-313.0","","img/set1/S4.jpg","74","4","structured_normal","74","structured_normal,random,structured_incentive,structured_load","2,1,3,4,2,3","true","","",""
"null","","html-keyboard-response","314","426704","0.0-314.0","","<img src=""img/set1/S4.jpg"" width=""540"" height = ""360"" style=""border:16px solid orange"">","null","","","","","","","","",""
"null","","html-keyboard-response","315","426906","0.0-315.0","","","null","","","","","","","","",""
"342.6000000089407","","image-keyboard-response","316","427249","0.0-316.0","","img/set1/S4.jpg","74","4","structured_normal","74","structured_normal,random,structured_incentive,structured_load","2,1,3,4,2,3","true","","",""
"null","","html-keyboard-response","317","427601","0.0-317.0","","<img src=""img/set1/S4.jpg"" width=""540"" height = ""360"" style=""border:16px solid orange"">","null","","","","","","","","",""
"null","","html-keyboard-response","318","427803","0.0-318.0","","","null","","","","","","","","",""
"461","","image-keyboard-response","319","428265","0.0-319.0","","img/set1/S3.jpg","72","3","structured_normal","72","structured_normal,random,structured_incentive,structured_load","2,1,3,4,2,3","true","","",""
"null","","html-keyboard-response","320","428617","0.0-320.0","","<img src=""img/set1/S3.jpg"" width=""540"" height = ""360"" style=""border:16px solid orange"">","null","","","","","","","","",""
"null","","html-keyboard-response","321","428819","0.0-321.0","","","null","","","","","","","","",""
"469.09999999403954","","image-keyboard-response","322","429289","0.0-322.0","","img/set1/S4.jpg","68","4","structured_normal","74","structured_normal,random,structured_incentive,structured_load","2,1,3,4,2,3","false","","",""
"null","","html-keyboard-response","323","429641","0.0-323.0","","<img src=""img/set1/S4.jpg"" width=""540"" height = ""360"">","null","","","","","","","","",""
"null","","html-keyboard-response","324","429843","0.0-324.0","","","null","","","","","","","","",""
"492.79999999701977","","image-keyboard-response","325","430336","0.0-325.0","","img/set1/S3.jpg","72","3","structured_normal","72","structured_normal,random,structured_incentive,structured_load","2,1,3,4,2,3","true","","",""
"null","","html-keyboard-response","326","430688","0.0-326.0","","<img src=""img/set1/S3.jpg"" width=""540"" height = ""360"" style=""border:16px solid orange"">","null","","","","","","","","",""
"null","","html-keyboard-response","327","430889","0.0-327.0","","","null","","","","","","","","",""
"472.80000001192093","","image-keyboard-response","328","431362","0.0-328.0","","img/set1/S2.jpg","68","2","structured_normal","68","structured_normal,random,structured_incentive,structured_load","2,1,3,4,2,3","true","","",""
"null","","html-keyboard-response","329","431715","0.0-329.0","","<img src=""img/set1/S2.jpg"" width=""540"" height = ""360"" style=""border:16px solid orange"">","null","","","","","","","","",""
"null","","html-keyboard-response","330","431916","0.0-330.0","","","null","","","","","","","","",""
"451.5","","image-keyboard-response","331","432368","0.0-331.0","","img/set1/S1.jpg","83","1","structured_normal","83","structured_normal,random,structured_incentive,structured_load","2,1,3,4,2,3","true","","",""
"null","","html-keyboard-response","332","432721","0.0-332.0","","<img src=""img/set1/S1.jpg"" width=""540"" height = ""360"" style=""border:16px solid orange"">","null","","","","","","","","",""
"null","","html-keyboard-response","333","432923","0.0-333.0","","","null","","","","","","","","",""
"509.20000000298023","","image-keyboard-response","334","433432","0.0-334.0","","img/set1/S2.jpg","72","2","structured_normal","68","structured_normal,random,structured_incentive,structured_load","2,1,3,4,2,3","false","","",""
"null","","html-keyboard-response","335","433784","0.0-335.0","","<img src=""img/set1/S2.jpg"" width=""540"" height = ""360"">","null","","","","","","","","",""
"null","","html-keyboard-response","336","433985","0.0-336.0","","","null","","","","","","","","",""
"550.5","","image-keyboard-response","337","434536","0.0-337.0","","img/set1/S1.jpg","83","1","structured_normal","83","structured_normal,random,structured_incentive,structured_load","2,1,3,4,2,3","true","","",""
"null","","html-keyboard-response","338","434888","0.0-338.0","","<img src=""img/set1/S1.jpg"" width=""540"" height = ""360"" style=""border:16px solid orange"">","null","","","","","","","","",""
"null","","html-keyboard-response","339","435090","0.0-339.0","","","null","","","","","","","","",""
"541.7000000029802","","image-keyboard-response","340","435633","0.0-340.0","","img/set1/S4.jpg","72","4","structured_normal","74","structured_normal,random,structured_incentive,structured_load","2,1,3,4,2,3","false","","",""
"null","","html-keyboard-response","341","435985","0.0-341.0","","<img src=""img/set1/S4.jpg"" width=""540"" height = ""360"">","null","","","","","","","","",""
"null","","html-keyboard-response","342","436186","0.0-342.0","","","null","","","","","","","","",""
"341.70000000298023","","image-keyboard-response","343","436529","0.0-343.0","","img/set1/S4.jpg","74","4","structured_normal","74","structured_normal,random,structured_incentive,structured_load","2,1,3,4,2,3","true","","",""
"null","","html-keyboard-response","344","436880","0.0-344.0","","<img src=""img/set1/S4.jpg"" width=""540"" height = ""360"" style=""border:16px solid orange"">","null","","","","","","","","",""
"null","","html-keyboard-response","345","437082","0.0-345.0","","","null","","","","","","","","",""
"525.7000000029802","","image-keyboard-response","346","437609","0.0-346.0","","img/set1/S3.jpg","72","3","structured_normal","72","structured_normal,random,structured_incentive,structured_load","2,1,3,4,2,3","true","","",""
"null","","html-keyboard-response","347","437961","0.0-347.0","","<img src=""img/set1/S3.jpg"" width=""540"" height = ""360"" style=""border:16px solid orange"">","null","","","","","","","","",""
"null","","html-keyboard-response","348","438163","0.0-348.0","","","null","","","","","","","","",""
"572.8999999910593","","image-keyboard-response","349","438737","0.0-349.0","","img/set1/S2.jpg","68","2","structured_normal","68","structured_normal,random,structured_incentive,structured_load","2,1,3,4,2,3","true","","",""
"null","","html-keyboard-response","350","439088","0.0-350.0","","<img src=""img/set1/S2.jpg"" width=""540"" height = ""360"" style=""border:16px solid orange"">","null","","","","","","","","",""
"null","","html-keyboard-response","351","439290","0.0-351.0","","","null","","","","","","","","",""
"486","","image-keyboard-response","352","439776","0.0-352.0","","img/set1/S1.jpg","83","1","structured_normal","83","structured_normal,random,structured_incentive,structured_load","2,1,3,4,2,3","true","","",""
"null","","html-keyboard-response","353","440128","0.0-353.0","","<img src=""img/set1/S1.jpg"" width=""540"" height = ""360"" style=""border:16px solid orange"">","null","","","","","","","","",""
"null","","html-keyboard-response","354","440330","0.0-354.0","","","null","","","","","","","","",""
"453.79999999701977","","image-keyboard-response","355","440784","0.0-355.0","","img/set1/S4.jpg","68","4","structured_normal","74","structured_normal,random,structured_incentive,structured_load","2,1,3,4,2,3","false","","",""
"null","","html-keyboard-response","356","441137","0.0-356.0","","<img src=""img/set1/S4.jpg"" width=""540"" height = ""360"">","null","","","","","","","","",""
"null","","html-keyboard-response","357","441337","0.0-357.0","","","null","","","","","","","","",""
"568.5","","image-keyboard-response","358","441907","0.0-358.0","","img/set1/S2.jpg","68","2","structured_normal","68","structured_normal,random,structured_incentive,structured_load","2,1,3,4,2,3","true","","",""
"null","","html-keyboard-response","359","442258","0.0-359.0","","<img src=""img/set1/S2.jpg"" width=""540"" height = ""360"" style=""border:16px solid orange"">","null","","","","","","","","",""
"null","","html-keyboard-response","360","442460","0.0-360.0","","","null","","","","","","","","",""
"524","","image-keyboard-response","361","442985","0.0-361.0","","img/set1/S1.jpg","68","1","structured_normal","83","structured_normal,random,structured_incentive,structured_load","2,1,3,4,2,3","false","","",""
"null","","html-keyboard-response","362","443337","0.0-362.0","","<img src=""img/set1/S1.jpg"" width=""540"" height = ""360"">","null","","","","","","","","",""
"null","","html-keyboard-response","363","443539","0.0-363.0","","","null","","","","","","","","",""
"4149.4000000059605","","html-keyboard-response","364","447689","0.0-364.0","","<p class=""center-content"">You have completed a block! </p><p class=""center-content"">Press any key on the keyboard to continue, </p><p class=""center-content"">or wait for the automatic progression to the next block after one minute.</p>","32","","","","","","","","",""
"5691.4000000059605","","instructions","365","453380","0.0-365.0","[{""page_index"":0,""viewing_time"":5691.20000000298}]","","","","","","","","","","",""
"1935.800000011921","","instructions","366","455317","0.0-366.0","[{""page_index"":0,""viewing_time"":1935.800000011921}]","","","","","","","","","","",""
"698.7000000029802","","image-keyboard-response","367","456016","0.0-367.0","","img/set2/S4.jpg","68","4","random","74","structured_normal,random,structured_incentive,structured_load","2,1,3,4,2,3","false","","",""
"null","","html-keyboard-response","368","456368","0.0-368.0","","<img src=""img/set2/S4.jpg"" width=""540"" height = ""360"">","null","","","","","","","","",""
"null","","html-keyboard-response","369","456569","0.0-369.0","","","null","","","","","","","","",""
"630.4000000059605","","image-keyboard-response","370","457200","0.0-370.0","","img/set2/S2.jpg","72","2","random","68","structured_normal,random,structured_incentive,structured_load","2,1,3,4,2,3","false","","",""
"null","","html-keyboard-response","371","457552","0.0-371.0","","<img src=""img/set2/S2.jpg"" width=""540"" height = ""360"">","null","","","","","","","","",""
"null","","html-keyboard-response","372","457754","0.0-372.0","","","null","","","","","","","","",""
"237.29999999701977","","image-keyboard-response","373","457992","0.0-373.0","","img/set2/S2.jpg","83","2","random","68","structured_normal,random,structured_incentive,structured_load","2,1,3,4,2,3","false","","",""
"null","","html-keyboard-response","374","458344","0.0-374.0","","<img src=""img/set2/S2.jpg"" width=""540"" height = ""360"">","null","","","","","","","","",""
"null","","html-keyboard-response","375","458545","0.0-375.0","","","null","","","","","","","","",""
"350.69999998807907","","image-keyboard-response","376","458896","0.0-376.0","","img/set2/S2.jpg","68","2","random","68","structured_normal,random,structured_incentive,structured_load","2,1,3,4,2,3","true","","",""
"null","","html-keyboard-response","377","459248","0.0-377.0","","<img src=""img/set2/S2.jpg"" width=""540"" height = ""360"" style=""border:16px solid orange"">","null","","","","","","","","",""
"null","","html-keyboard-response","378","459450","0.0-378.0","","","null","","","","","","","","",""
"526","","image-keyboard-response","379","459976","0.0-379.0","","img/set2/S1.jpg","72","1","random","83","structured_normal,random,structured_incentive,structured_load","2,1,3,4,2,3","false","","",""
"null","","html-keyboard-response","380","460329","0.0-380.0","","<img src=""img/set2/S1.jpg"" width=""540"" height = ""360"">","null","","","","","","","","",""
"null","","html-keyboard-response","381","460530","0.0-381.0","","","null","","","","","","","","",""
"389.79999999701977","","image-keyboard-response","382","460920","0.0-382.0","","img/set2/S1.jpg","68","1","random","83","structured_normal,random,structured_incentive,structured_load","2,1,3,4,2,3","false","","",""
"null","","html-keyboard-response","383","461272","0.0-383.0","","<img src=""img/set2/S1.jpg"" width=""540"" height = ""360"">","null","","","","","","","","",""
"null","","html-keyboard-response","384","461474","0.0-384.0","","","null","","","","","","","","",""
"373.59999999403954","","image-keyboard-response","385","461848","0.0-385.0","","img/set2/S4.jpg","83","4","random","74","structured_normal,random,structured_incentive,structured_load","2,1,3,4,2,3","false","","",""
"null","","html-keyboard-response","386","462201","0.0-386.0","","<img src=""img/set2/S4.jpg"" width=""540"" height = ""360"">","null","","","","","","","","",""
"null","","html-keyboard-response","387","462403","0.0-387.0","","","null","","","","","","","","",""
"340.09999999403954","","image-keyboard-response","388","462744","0.0-388.0","","img/set2/S1.jpg","68","1","random","83","structured_normal,random,structured_incentive,structured_load","2,1,3,4,2,3","false","","",""
"null","","html-keyboard-response","389","463096","0.0-389.0","","<img src=""img/set2/S1.jpg"" width=""540"" height = ""360"">","null","","","","","","","","",""
"null","","html-keyboard-response","390","463299","0.0-390.0","","","null","","","","","","","","",""
"350.40000000596046","","image-keyboard-response","391","463650","0.0-391.0","","img/set2/S1.jpg","72","1","random","83","structured_normal,random,structured_incentive,structured_load","2,1,3,4,2,3","false","","",""
"null","","html-keyboard-response","392","464003","0.0-392.0","","<img src=""img/set2/S1.jpg"" width=""540"" height = ""360"">","null","","","","","","","","",""
"null","","html-keyboard-response","393","464205","0.0-393.0","","","null","","","","","","","","",""
"426.70000000298023","","image-keyboard-response","394","464633","0.0-394.0","","img/set2/S2.jpg","68","2","random","68","structured_normal,random,structured_incentive,structured_load","2,1,3,4,2,3","true","","",""
"null","","html-keyboard-response","395","464985","0.0-395.0","","<img src=""img/set2/S2.jpg"" width=""540"" height = ""360"" style=""border:16px solid orange"">","null","","","","","","","","",""
"null","","html-keyboard-response","396","465188","0.0-396.0","","","null","","","","","","","","",""
"387.59999999403954","","image-keyboard-response","397","465576","0.0-397.0","","img/set2/S3.jpg","72","3","random","72","structured_normal,random,structured_incentive,structured_load","2,1,3,4,2,3","true","","",""
"null","","html-keyboard-response","398","465928","0.0-398.0","","<img src=""img/set2/S3.jpg"" width=""540"" height = ""360"" style=""border:16px solid orange"">","null","","","","","","","","",""
"null","","html-keyboard-response","399","466129","0.0-399.0","","","null","","","","","","","","",""
"381.90000000596046","","image-keyboard-response","400","466512","0.0-400.0","","img/set2/S1.jpg","68","1","random","83","structured_normal,random,structured_incentive,structured_load","2,1,3,4,2,3","false","","",""
"null","","html-keyboard-response","401","466865","0.0-401.0","","<img src=""img/set2/S1.jpg"" width=""540"" height = ""360"">","null","","","","","","","","",""
"null","","html-keyboard-response","402","467067","0.0-402.0","","","null","","","","","","","","",""
"588.5","","image-keyboard-response","403","467656","0.0-403.0","","img/set2/S3.jpg","68","3","random","72","structured_normal,random,structured_incentive,structured_load","2,1,3,4,2,3","false","","",""
"null","","html-keyboard-response","404","468008","0.0-404.0","","<img src=""img/set2/S3.jpg"" width=""540"" height = ""360"">","null","","","","","","","","",""
"null","","html-keyboard-response","405","468210","0.0-405.0","","","null","","","","","","","","",""
"525.7999999970198","","image-keyboard-response","406","468736","0.0-406.0","","img/set2/S1.jpg","83","1","random","83","structured_normal,random,structured_incentive,structured_load","2,1,3,4,2,3","true","","",""
"null","","html-keyboard-response","407","469088","0.0-407.0","","<img src=""img/set2/S1.jpg"" width=""540"" height = ""360"" style=""border:16px solid orange"">","null","","","","","","","","",""
"null","","html-keyboard-response","408","469290","0.0-408.0","","","null","","","","","","","","",""
"637.7999999970198","","image-keyboard-response","409","469929","0.0-409.0","","img/set2/S3.jpg","72","3","random","72","structured_normal,random,structured_incentive,structured_load","2,1,3,4,2,3","true","","",""
"null","","html-keyboard-response","410","470281","0.0-410.0","","<img src=""img/set2/S3.jpg"" width=""540"" height = ""360"" style=""border:16px solid orange"">","null","","","","","","","","",""
"null","","html-keyboard-response","411","470482","0.0-411.0","","","null","","","","","","","","",""
"589.3000000119209","","image-keyboard-response","412","471072","0.0-412.0","","img/set2/S4.jpg","74","4","random","74","structured_normal,random,structured_incentive,structured_load","2,1,3,4,2,3","true","","",""
"null","","html-keyboard-response","413","471425","0.0-413.0","","<img src=""img/set2/S4.jpg"" width=""540"" height = ""360"" style=""border:16px solid orange"">","null","","","","","","","","",""
"null","","html-keyboard-response","414","471626","0.0-414.0","","","null","","","","","","","","",""
"532.8999999910593","","image-keyboard-response","415","472160","0.0-415.0","","img/set2/S1.jpg","72","1","random","83","structured_normal,random,structured_incentive,structured_load","2,1,3,4,2,3","false","","",""
"null","","html-keyboard-response","416","472511","0.0-416.0","","<img src=""img/set2/S1.jpg"" width=""540"" height = ""360"">","null","","","","","","","","",""
"null","","html-keyboard-response","417","472713","0.0-417.0","","","null","","","","","","","","",""
"453.8999999910593","","image-keyboard-response","418","473168","0.0-418.0","","img/set2/S2.jpg","83","2","random","68","structured_normal,random,structured_incentive,structured_load","2,1,3,4,2,3","false","","",""
"null","","html-keyboard-response","419","473519","0.0-419.0","","<img src=""img/set2/S2.jpg"" width=""540"" height = ""360"">","null","","","","","","","","",""
"null","","html-keyboard-response","420","473720","0.0-420.0","","","null","","","","","","","","",""
"544.7000000029802","","image-keyboard-response","421","474266","0.0-421.0","","img/set2/S4.jpg","72","4","random","74","structured_normal,random,structured_incentive,structured_load","2,1,3,4,2,3","false","","",""
"null","","html-keyboard-response","422","474617","0.0-422.0","","<img src=""img/set2/S4.jpg"" width=""540"" height = ""360"">","null","","","","","","","","",""
"null","","html-keyboard-response","423","474820","0.0-423.0","","","null","","","","","","","","",""
"379.70000000298023","","image-keyboard-response","424","475200","0.0-424.0","","img/set2/S4.jpg","74","4","random","74","structured_normal,random,structured_incentive,structured_load","2,1,3,4,2,3","true","","",""
"null","","html-keyboard-response","425","475552","0.0-425.0","","<img src=""img/set2/S4.jpg"" width=""540"" height = ""360"" style=""border:16px solid orange"">","null","","","","","","","","",""
"null","","html-keyboard-response","426","475754","0.0-426.0","","","null","","","","","","","","",""
"541.6000000089407","","image-keyboard-response","427","476296","0.0-427.0","","img/set2/S2.jpg","68","2","random","68","structured_normal,random,structured_incentive,structured_load","2,1,3,4,2,3","true","","",""
"null","","html-keyboard-response","428","476649","0.0-428.0","","<img src=""img/set2/S2.jpg"" width=""540"" height = ""360"" style=""border:16px solid orange"">","null","","","","","","","","",""
"null","","html-keyboard-response","429","476851","0.0-429.0","","","null","","","","","","","","",""
"500.5","","image-keyboard-response","430","477352","0.0-430.0","","img/set2/S1.jpg","83","1","random","83","structured_normal,random,structured_incentive,structured_load","2,1,3,4,2,3","true","","",""
"null","","html-keyboard-response","431","477704","0.0-431.0","","<img src=""img/set2/S1.jpg"" width=""540"" height = ""360"" style=""border:16px solid orange"">","null","","","","","","","","",""
"null","","html-keyboard-response","432","477906","0.0-432.0","","","null","","","","","","","","",""
"501.40000000596046","","image-keyboard-response","433","478408","0.0-433.0","","img/set2/S4.jpg","68","4","random","74","structured_normal,random,structured_incentive,structured_load","2,1,3,4,2,3","false","","",""
"null","","html-keyboard-response","434","478760","0.0-434.0","","<img src=""img/set2/S4.jpg"" width=""540"" height = ""360"">","null","","","","","","","","",""
"null","","html-keyboard-response","435","478962","0.0-435.0","","","null","","","","","","","","",""
"381.20000000298023","","image-keyboard-response","436","479344","0.0-436.0","","img/set2/S4.jpg","72","4","random","74","structured_normal,random,structured_incentive,structured_load","2,1,3,4,2,3","false","","",""
"null","","html-keyboard-response","437","479696","0.0-437.0","","<img src=""img/set2/S4.jpg"" width=""540"" height = ""360"">","null","","","","","","","","",""
"null","","html-keyboard-response","438","479898","0.0-438.0","","","null","","","","","","","","",""
"333.30000001192093","","image-keyboard-response","439","480232","0.0-439.0","","img/set2/S4.jpg","74","4","random","74","structured_normal,random,structured_incentive,structured_load","2,1,3,4,2,3","true","","",""
"null","","html-keyboard-response","440","480585","0.0-440.0","","<img src=""img/set2/S4.jpg"" width=""540"" height = ""360"" style=""border:16px solid orange"">","null","","","","","","","","",""
"null","","html-keyboard-response","441","480787","0.0-441.0","","","null","","","","","","","","",""
"524.1000000089407","","image-keyboard-response","442","481312","0.0-442.0","","img/set2/S3.jpg","68","3","random","72","structured_normal,random,structured_incentive,structured_load","2,1,3,4,2,3","false","","",""
"null","","html-keyboard-response","443","481664","0.0-443.0","","<img src=""img/set2/S3.jpg"" width=""540"" height = ""360"">","null","","","","","","","","",""
"null","","html-keyboard-response","444","481865","0.0-444.0","","","null","","","","","","","","",""
"581.9000000059605","","image-keyboard-response","445","482448","0.0-445.0","","img/set2/S1.jpg","68","1","random","83","structured_normal,random,structured_incentive,structured_load","2,1,3,4,2,3","false","","",""
"null","","html-keyboard-response","446","482801","0.0-446.0","","<img src=""img/set2/S1.jpg"" width=""540"" height = ""360"">","null","","","","","","","","",""
"null","","html-keyboard-response","447","483002","0.0-447.0","","","null","","","","","","","","",""
"654.0999999940395","","image-keyboard-response","448","483657","0.0-448.0","","img/set2/S2.jpg","72","2","random","68","structured_normal,random,structured_incentive,structured_load","2,1,3,4,2,3","false","","",""
"null","","html-keyboard-response","449","484008","0.0-449.0","","<img src=""img/set2/S2.jpg"" width=""540"" height = ""360"">","null","","","","","","","","",""
"null","","html-keyboard-response","450","484210","0.0-450.0","","","null","","","","","","","","",""
"711.9000000059605","","image-keyboard-response","451","484922","0.0-451.0","","img/set2/S1.jpg","83","1","random","83","structured_normal,random,structured_incentive,structured_load","2,1,3,4,2,3","true","","",""
"null","","html-keyboard-response","452","485274","0.0-452.0","","<img src=""img/set2/S1.jpg"" width=""540"" height = ""360"" style=""border:16px solid orange"">","null","","","","","","","","",""
"null","","html-keyboard-response","453","485477","0.0-453.0","","","null","","","","","","","","",""
"451.19999998807907","","image-keyboard-response","454","485928","0.0-454.0","","img/set2/S4.jpg","68","4","random","74","structured_normal,random,structured_incentive,structured_load","2,1,3,4,2,3","false","","",""
"null","","html-keyboard-response","455","486279","0.0-455.0","","<img src=""img/set2/S4.jpg"" width=""540"" height = ""360"">","null","","","","","","","","",""
"null","","html-keyboard-response","456","486481","0.0-456.0","","","null","","","","","","","","",""
"643.8999999910593","","image-keyboard-response","457","487126","0.0-457.0","","img/set2/S1.jpg","68","1","random","83","structured_normal,random,structured_incentive,structured_load","2,1,3,4,2,3","false","","",""
"null","","html-keyboard-response","458","487477","0.0-458.0","","<img src=""img/set2/S1.jpg"" width=""540"" height = ""360"">","null","","","","","","","","",""
"null","","html-keyboard-response","459","487678","0.0-459.0","","","null","","","","","","","","",""
"585.1000000089407","","image-keyboard-response","460","488264","0.0-460.0","","img/set2/S4.jpg","74","4","random","74","structured_normal,random,structured_incentive,structured_load","2,1,3,4,2,3","true","","",""
"null","","html-keyboard-response","461","488617","0.0-461.0","","<img src=""img/set2/S4.jpg"" width=""540"" height = ""360"" style=""border:16px solid orange"">","null","","","","","","","","",""
"null","","html-keyboard-response","462","488818","0.0-462.0","","","null","","","","","","","","",""
"509.79999999701977","","image-keyboard-response","463","489328","0.0-463.0","","img/set2/S1.jpg","83","1","random","83","structured_normal,random,structured_incentive,structured_load","2,1,3,4,2,3","true","","",""
"null","","html-keyboard-response","464","489681","0.0-464.0","","<img src=""img/set2/S1.jpg"" width=""540"" height = ""360"" style=""border:16px solid orange"">","null","","","","","","","","",""
"null","","html-keyboard-response","465","489882","0.0-465.0","","","null","","","","","","","","",""
"628.8999999910593","","image-keyboard-response","466","490512","0.0-466.0","","img/set2/S3.jpg","72","3","random","72","structured_normal,random,structured_incentive,structured_load","2,1,3,4,2,3","true","","",""
"null","","html-keyboard-response","467","490863","0.0-467.0","","<img src=""img/set2/S3.jpg"" width=""540"" height = ""360"" style=""border:16px solid orange"">","null","","","","","","","","",""
"null","","html-keyboard-response","468","491065","0.0-468.0","","","null","","","","","","","","",""
"510.5","","image-keyboard-response","469","491576","0.0-469.0","","img/set2/S1.jpg","68","1","random","83","structured_normal,random,structured_incentive,structured_load","2,1,3,4,2,3","false","","",""
"null","","html-keyboard-response","470","491928","0.0-470.0","","<img src=""img/set2/S1.jpg"" width=""540"" height = ""360"">","null","","","","","","","","",""
"null","","html-keyboard-response","471","492129","0.0-471.0","","","null","","","","","","","","",""
"871.7000000029802","","image-keyboard-response","472","493002","0.0-472.0","","img/set2/S2.jpg","72","2","random","68","structured_normal,random,structured_incentive,structured_load","2,1,3,4,2,3","false","","",""
"null","","html-keyboard-response","473","493354","0.0-473.0","","<img src=""img/set2/S2.jpg"" width=""540"" height = ""360"">","null","","","","","","","","",""
"null","","html-keyboard-response","474","493556","0.0-474.0","","","null","","","","","","","","",""
"523","","image-keyboard-response","475","494080","0.0-475.0","","img/set2/S1.jpg","83","1","random","83","structured_normal,random,structured_incentive,structured_load","2,1,3,4,2,3","true","","",""
"null","","html-keyboard-response","476","494432","0.0-476.0","","<img src=""img/set2/S1.jpg"" width=""540"" height = ""360"" style=""border:16px solid orange"">","null","","","","","","","","",""
"null","","html-keyboard-response","477","494634","0.0-477.0","","","null","","","","","","","","",""
"606.9000000059605","","image-keyboard-response","478","495241","0.0-478.0","","img/set2/S2.jpg","68","2","random","68","structured_normal,random,structured_incentive,structured_load","2,1,3,4,2,3","true","","",""
"null","","html-keyboard-response","479","495593","0.0-479.0","","<img src=""img/set2/S2.jpg"" width=""540"" height = ""360"" style=""border:16px solid orange"">","null","","","","","","","","",""
"null","","html-keyboard-response","480","495795","0.0-480.0","","","null","","","","","","","","",""
"499.90000000596046","","image-keyboard-response","481","496296","0.0-481.0","","img/set2/S2.jpg","68","2","random","68","structured_normal,random,structured_incentive,structured_load","2,1,3,4,2,3","true","","",""
"null","","html-keyboard-response","482","496647","0.0-482.0","","<img src=""img/set2/S2.jpg"" width=""540"" height = ""360"" style=""border:16px solid orange"">","null","","","","","","","","",""
"null","","html-keyboard-response","483","496849","0.0-483.0","","","null","","","","","","","","",""
"629.8999999910593","","image-keyboard-response","484","497480","0.0-484.0","","img/set2/S1.jpg","83","1","random","83","structured_normal,random,structured_incentive,structured_load","2,1,3,4,2,3","true","","",""
"null","","html-keyboard-response","485","497832","0.0-485.0","","<img src=""img/set2/S1.jpg"" width=""540"" height = ""360"" style=""border:16px solid orange"">","null","","","","","","","","",""
"null","","html-keyboard-response","486","498034","0.0-486.0","","","null","","","","","","","","",""
"565.7999999970198","","image-keyboard-response","487","498600","0.0-487.0","","img/set2/S2.jpg","68","2","random","68","structured_normal,random,structured_incentive,structured_load","2,1,3,4,2,3","true","","",""
"null","","html-keyboard-response","488","498953","0.0-488.0","","<img src=""img/set2/S2.jpg"" width=""540"" height = ""360"" style=""border:16px solid orange"">","null","","","","","","","","",""
"null","","html-keyboard-response","489","499155","0.0-489.0","","","null","","","","","","","","",""
"565.0999999940395","","image-keyboard-response","490","499720","0.0-490.0","","img/set2/S4.jpg","74","4","random","74","structured_normal,random,structured_incentive,structured_load","2,1,3,4,2,3","true","","",""
"null","","html-keyboard-response","491","500073","0.0-491.0","","<img src=""img/set2/S4.jpg"" width=""540"" height = ""360"" style=""border:16px solid orange"">","null","","","","","","","","",""
"null","","html-keyboard-response","492","500275","0.0-492.0","","","null","","","","","","","","",""
"724.1000000089407","","image-keyboard-response","493","501000","0.0-493.0","","img/set2/S1.jpg","68","1","random","83","structured_normal,random,structured_incentive,structured_load","2,1,3,4,2,3","false","","",""
"null","","html-keyboard-response","494","501352","0.0-494.0","","<img src=""img/set2/S1.jpg"" width=""540"" height = ""360"">","null","","","","","","","","",""
"null","","html-keyboard-response","495","501554","0.0-495.0","","","null","","","","","","","","",""
"605.6000000089407","","image-keyboard-response","496","502161","0.0-496.0","","img/set2/S3.jpg","72","3","random","72","structured_normal,random,structured_incentive,structured_load","2,1,3,4,2,3","true","","",""
"null","","html-keyboard-response","497","502513","0.0-497.0","","<img src=""img/set2/S3.jpg"" width=""540"" height = ""360"" style=""border:16px solid orange"">","null","","","","","","","","",""
"null","","html-keyboard-response","498","502715","0.0-498.0","","","null","","","","","","","","",""
"636.1000000089407","","image-keyboard-response","499","503352","0.0-499.0","","img/set2/S4.jpg","74","4","random","74","structured_normal,random,structured_incentive,structured_load","2,1,3,4,2,3","true","","",""
"null","","html-keyboard-response","500","503704","0.0-500.0","","<img src=""img/set2/S4.jpg"" width=""540"" height = ""360"" style=""border:16px solid orange"">","null","","","","","","","","",""
"null","","html-keyboard-response","501","503906","0.0-501.0","","","null","","","","","","","","",""
"572.7999999970198","","image-keyboard-response","502","504480","0.0-502.0","","img/set2/S1.jpg","72","1","random","83","structured_normal,random,structured_incentive,structured_load","2,1,3,4,2,3","false","","",""
"null","","html-keyboard-response","503","504832","0.0-503.0","","<img src=""img/set2/S1.jpg"" width=""540"" height = ""360"">","null","","","","","","","","",""
"null","","html-keyboard-response","504","505034","0.0-504.0","","","null","","","","","","","","",""
"663.5999999940395","","image-keyboard-response","505","505699","0.0-505.0","","img/set2/S2.jpg","68","2","random","68","structured_normal,random,structured_incentive,structured_load","2,1,3,4,2,3","true","","",""
"null","","html-keyboard-response","506","506051","0.0-506.0","","<img src=""img/set2/S2.jpg"" width=""540"" height = ""360"" style=""border:16px solid orange"">","null","","","","","","","","",""
"null","","html-keyboard-response","507","506253","0.0-507.0","","","null","","","","","","","","",""
"482.79999999701977","","image-keyboard-response","508","506737","0.0-508.0","","img/set2/S3.jpg","72","3","random","72","structured_normal,random,structured_incentive,structured_load","2,1,3,4,2,3","true","","",""
"null","","html-keyboard-response","509","507088","0.0-509.0","","<img src=""img/set2/S3.jpg"" width=""540"" height = ""360"" style=""border:16px solid orange"">","null","","","","","","","","",""
"null","","html-keyboard-response","510","507289","0.0-510.0","","","null","","","","","","","","",""
"663.4000000059605","","image-keyboard-response","511","507953","0.0-511.0","","img/set2/S2.jpg","68","2","random","68","structured_normal,random,structured_incentive,structured_load","2,1,3,4,2,3","true","","",""
"null","","html-keyboard-response","512","508305","0.0-512.0","","<img src=""img/set2/S2.jpg"" width=""540"" height = ""360"" style=""border:16px solid orange"">","null","","","","","","","","",""
"null","","html-keyboard-response","513","508507","0.0-513.0","","","null","","","","","","","","",""
"691.5999999940395","","image-keyboard-response","514","509200","0.0-514.0","","img/set2/S3.jpg","72","3","random","72","structured_normal,random,structured_incentive,structured_load","2,1,3,4,2,3","true","","",""
"null","","html-keyboard-response","515","509551","0.0-515.0","","<img src=""img/set2/S3.jpg"" width=""540"" height = ""360"" style=""border:16px solid orange"">","null","","","","","","","","",""
"null","","html-keyboard-response","516","509754","0.0-516.0","","","null","","","","","","","","",""
"581.5","","image-keyboard-response","517","510336","0.0-517.0","","img/set2/S2.jpg","68","2","random","68","structured_normal,random,structured_incentive,structured_load","2,1,3,4,2,3","true","","",""
"null","","html-keyboard-response","518","510689","0.0-518.0","","<img src=""img/set2/S2.jpg"" width=""540"" height = ""360"" style=""border:16px solid orange"">","null","","","","","","","","",""
"null","","html-keyboard-response","519","510891","0.0-519.0","","","null","","","","","","","","",""
"628.4000000059605","","image-keyboard-response","520","511520","0.0-520.0","","img/set2/S1.jpg","83","1","random","83","structured_normal,random,structured_incentive,structured_load","2,1,3,4,2,3","true","","",""
"null","","html-keyboard-response","521","511871","0.0-521.0","","<img src=""img/set2/S1.jpg"" width=""540"" height = ""360"" style=""border:16px solid orange"">","null","","","","","","","","",""
"null","","html-keyboard-response","522","512073","0.0-522.0","","","null","","","","","","","","",""
"566.4000000059605","","image-keyboard-response","523","512641","0.0-523.0","","img/set2/S4.jpg","74","4","random","74","structured_normal,random,structured_incentive,structured_load","2,1,3,4,2,3","true","","",""
"null","","html-keyboard-response","524","512994","0.0-524.0","","<img src=""img/set2/S4.jpg"" width=""540"" height = ""360"" style=""border:16px solid orange"">","null","","","","","","","","",""
"null","","html-keyboard-response","525","513196","0.0-525.0","","","null","","","","","","","","",""
"595.5999999940395","","image-keyboard-response","526","513793","0.0-526.0","","img/set2/S3.jpg","72","3","random","72","structured_normal,random,structured_incentive,structured_load","2,1,3,4,2,3","true","","",""
"null","","html-keyboard-response","527","514144","0.0-527.0","","<img src=""img/set2/S3.jpg"" width=""540"" height = ""360"" style=""border:16px solid orange"">","null","","","","","","","","",""
"null","","html-keyboard-response","528","514346","0.0-528.0","","","null","","","","","","","","",""
"485.3999999910593","","image-keyboard-response","529","514833","0.0-529.0","","img/set2/S3.jpg","72","3","random","72","structured_normal,random,structured_incentive,structured_load","2,1,3,4,2,3","true","","",""
"null","","html-keyboard-response","530","515184","0.0-530.0","","<img src=""img/set2/S3.jpg"" width=""540"" height = ""360"" style=""border:16px solid orange"">","null","","","","","","","","",""
"null","","html-keyboard-response","531","515385","0.0-531.0","","","null","","","","","","","","",""
"656","","image-keyboard-response","532","516042","0.0-532.0","","img/set2/S4.jpg","74","4","random","74","structured_normal,random,structured_incentive,structured_load","2,1,3,4,2,3","true","","",""
"null","","html-keyboard-response","533","516395","0.0-533.0","","<img src=""img/set2/S4.jpg"" width=""540"" height = ""360"" style=""border:16px solid orange"">","null","","","","","","","","",""
"null","","html-keyboard-response","534","516597","0.0-534.0","","","null","","","","","","","","",""
"730.7000000029802","","image-keyboard-response","535","517329","0.0-535.0","","img/set2/S2.jpg","83","2","random","68","structured_normal,random,structured_incentive,structured_load","2,1,3,4,2,3","false","","",""
"null","","html-keyboard-response","536","517680","0.0-536.0","","<img src=""img/set2/S2.jpg"" width=""540"" height = ""360"">","null","","","","","","","","",""
"null","","html-keyboard-response","537","517881","0.0-537.0","","","null","","","","","","","","",""
"558.5999999940395","","image-keyboard-response","538","518441","0.0-538.0","","img/set2/S3.jpg","72","3","random","72","structured_normal,random,structured_incentive,structured_load","2,1,3,4,2,3","true","","",""
"null","","html-keyboard-response","539","518794","0.0-539.0","","<img src=""img/set2/S3.jpg"" width=""540"" height = ""360"" style=""border:16px solid orange"">","null","","","","","","","","",""
"null","","html-keyboard-response","540","518995","0.0-540.0","","","null","","","","","","","","",""
"461.79999999701977","","image-keyboard-response","541","519457","0.0-541.0","","img/set2/S3.jpg","72","3","random","72","structured_normal,random,structured_incentive,structured_load","2,1,3,4,2,3","true","","",""
"null","","html-keyboard-response","542","519809","0.0-542.0","","<img src=""img/set2/S3.jpg"" width=""540"" height = ""360"" style=""border:16px solid orange"">","null","","","","","","","","",""
"null","","html-keyboard-response","543","520010","0.0-543.0","","","null","","","","","","","","",""
"558.1999999880791","","image-keyboard-response","544","520568","0.0-544.0","","img/set2/S2.jpg","68","2","random","68","structured_normal,random,structured_incentive,structured_load","2,1,3,4,2,3","true","","",""
"null","","html-keyboard-response","545","520921","0.0-545.0","","<img src=""img/set2/S2.jpg"" width=""540"" height = ""360"" style=""border:16px solid orange"">","null","","","","","","","","",""
"null","","html-keyboard-response","546","521122","0.0-546.0","","","null","","","","","","","","",""
"373.29999999701977","","image-keyboard-response","547","521497","0.0-547.0","","img/set2/S2.jpg","68","2","random","68","structured_normal,random,structured_incentive,structured_load","2,1,3,4,2,3","true","","",""
"null","","html-keyboard-response","548","521849","0.0-548.0","","<img src=""img/set2/S2.jpg"" width=""540"" height = ""360"" style=""border:16px solid orange"">","null","","","","","","","","",""
"null","","html-keyboard-response","549","522051","0.0-549.0","","","null","","","","","","","","",""
"453","","image-keyboard-response","550","522504","0.0-550.0","","img/set2/S2.jpg","68","2","random","68","structured_normal,random,structured_incentive,structured_load","2,1,3,4,2,3","true","","",""
"null","","html-keyboard-response","551","522857","0.0-551.0","","<img src=""img/set2/S2.jpg"" width=""540"" height = ""360"" style=""border:16px solid orange"">","null","","","","","","","","",""
"null","","html-keyboard-response","552","523059","0.0-552.0","","","null","","","","","","","","",""
"580.0999999940395","","image-keyboard-response","553","523640","0.0-553.0","","img/set2/S3.jpg","72","3","random","72","structured_normal,random,structured_incentive,structured_load","2,1,3,4,2,3","true","","",""
"null","","html-keyboard-response","554","523993","0.0-554.0","","<img src=""img/set2/S3.jpg"" width=""540"" height = ""360"" style=""border:16px solid orange"">","null","","","","","","","","",""
"null","","html-keyboard-response","555","524194","0.0-555.0","","","null","","","","","","","","",""
"573.8999999910593","","image-keyboard-response","556","524769","0.0-556.0","","img/set2/S2.jpg","72","2","random","68","structured_normal,random,structured_incentive,structured_load","2,1,3,4,2,3","false","","",""
"null","","html-keyboard-response","557","525121","0.0-557.0","","<img src=""img/set2/S2.jpg"" width=""540"" height = ""360"">","null","","","","","","","","",""
"null","","html-keyboard-response","558","525324","0.0-558.0","","","null","","","","","","","","",""
"564","","image-keyboard-response","559","525888","0.0-559.0","","img/set2/S1.jpg","83","1","random","83","structured_normal,random,structured_incentive,structured_load","2,1,3,4,2,3","true","","",""
"null","","html-keyboard-response","560","526241","0.0-560.0","","<img src=""img/set2/S1.jpg"" width=""540"" height = ""360"" style=""border:16px solid orange"">","null","","","","","","","","",""
"null","","html-keyboard-response","561","526442","0.0-561.0","","","null","","","","","","","","",""
"574.2999999970198","","image-keyboard-response","562","527018","0.0-562.0","","img/set2/S2.jpg","68","2","random","68","structured_normal,random,structured_incentive,structured_load","2,1,3,4,2,3","true","","",""
"null","","html-keyboard-response","563","527377","0.0-563.0","","<img src=""img/set2/S2.jpg"" width=""540"" height = ""360"" style=""border:16px solid orange"">","null","","","","","","","","",""
"null","","html-keyboard-response","564","527579","0.0-564.0","","","null","","","","","","","","",""
"516.6000000089407","","image-keyboard-response","565","528097","0.0-565.0","","img/set2/S4.jpg","74","4","random","74","structured_normal,random,structured_incentive,structured_load","2,1,3,4,2,3","true","","",""
"null","","html-keyboard-response","566","528449","0.0-566.0","","<img src=""img/set2/S4.jpg"" width=""540"" height = ""360"" style=""border:16px solid orange"">","null","","","","","","","","",""
"null","","html-keyboard-response","567","528651","0.0-567.0","","","null","","","","","","","","",""
"549","","image-keyboard-response","568","529200","0.0-568.0","","img/set2/S2.jpg","68","2","random","68","structured_normal,random,structured_incentive,structured_load","2,1,3,4,2,3","true","","",""
"null","","html-keyboard-response","569","529551","0.0-569.0","","<img src=""img/set2/S2.jpg"" width=""540"" height = ""360"" style=""border:16px solid orange"">","null","","","","","","","","",""
"null","","html-keyboard-response","570","529753","0.0-570.0","","","null","","","","","","","","",""
"543","","image-keyboard-response","571","530296","0.0-571.0","","img/set2/S3.jpg","68","3","random","72","structured_normal,random,structured_incentive,structured_load","2,1,3,4,2,3","false","","",""
"null","","html-keyboard-response","572","530648","0.0-572.0","","<img src=""img/set2/S3.jpg"" width=""540"" height = ""360"">","null","","","","","","","","",""
"null","","html-keyboard-response","573","530849","0.0-573.0","","","null","","","","","","","","",""
"535.2000000029802","","image-keyboard-response","574","531385","0.0-574.0","","img/set2/S1.jpg","83","1","random","83","structured_normal,random,structured_incentive,structured_load","2,1,3,4,2,3","true","","",""
"null","","html-keyboard-response","575","531737","0.0-575.0","","<img src=""img/set2/S1.jpg"" width=""540"" height = ""360"" style=""border:16px solid orange"">","null","","","","","","","","",""
"null","","html-keyboard-response","576","531940","0.0-576.0","","","null","","","","","","","","",""
"445.20000000298023","","image-keyboard-response","577","532386","0.0-577.0","","img/set2/S2.jpg","68","2","random","68","structured_normal,random,structured_incentive,structured_load","2,1,3,4,2,3","true","","",""
"null","","html-keyboard-response","578","532738","0.0-578.0","","<img src=""img/set2/S2.jpg"" width=""540"" height = ""360"" style=""border:16px solid orange"">","null","","","","","","","","",""
"null","","html-keyboard-response","579","532939","0.0-579.0","","","null","","","","","","","","",""
"564.7999999970198","","image-keyboard-response","580","533505","0.0-580.0","","img/set2/S4.jpg","72","4","random","74","structured_normal,random,structured_incentive,structured_load","2,1,3,4,2,3","false","","",""
"null","","html-keyboard-response","581","533856","0.0-581.0","","<img src=""img/set2/S4.jpg"" width=""540"" height = ""360"">","null","","","","","","","","",""
"null","","html-keyboard-response","582","534058","0.0-582.0","","","null","","","","","","","","",""
"678.4000000059605","","image-keyboard-response","583","534737","0.0-583.0","","img/set2/S1.jpg","83","1","random","83","structured_normal,random,structured_incentive,structured_load","2,1,3,4,2,3","true","","",""
"null","","html-keyboard-response","584","535089","0.0-584.0","","<img src=""img/set2/S1.jpg"" width=""540"" height = ""360"" style=""border:16px solid orange"">","null","","","","","","","","",""
"null","","html-keyboard-response","585","535292","0.0-585.0","","","null","","","","","","","","",""
"596.2000000029802","","image-keyboard-response","586","535889","0.0-586.0","","img/set2/S4.jpg","74","4","random","74","structured_normal,random,structured_incentive,structured_load","2,1,3,4,2,3","true","","",""
"null","","html-keyboard-response","587","536241","0.0-587.0","","<img src=""img/set2/S4.jpg"" width=""540"" height = ""360"" style=""border:16px solid orange"">","null","","","","","","","","",""
