"rt","url","trial_type","trial_index","time_elapsed","internal_node_id","assignmentID","mturkID","hitID","view_history","stimulus","key_press","state","test_part","correct_response","order_block","order_chunk","order_freq","correct","responses","question_order","bonus"
"73870.79999999981","consent.html","external-html","0","73940","0.0-0.0","30MVJZJNHNZ0CR6AKJXH085YV6DJ9P","A5DZDONM2Y082","3URJ6VVYUP9BUCT1SZOT2DFI02L4OC","","","","","","","","","","","","",""
"404153.7999999998","","instructions","1","478095","0.0-1.0","30MVJZJNHNZ0CR6AKJXH085YV6DJ9P","A5DZDONM2Y082","3URJ6VVYUP9BUCT1SZOT2DFI02L4OC","[{""page_index"":0,""viewing_time"":12668},{""page_index"":1,""viewing_time"":30431.5},{""page_index"":2,""viewing_time"":46351.90000000037},{""page_index"":3,""viewing_time"":85895.29999999981},{""page_index"":4,""viewing_time"":25951.700000000186},{""page_index"":5,""viewing_time"":60543.59999999963},{""page_index"":6,""viewing_time"":39576},{""page_index"":5,""viewing_time"":1095.9000000003725},{""page_index"":4,""viewing_time"":1247.8999999994412},{""page_index"":3,""viewing_time"":2143.9000000003725},{""page_index"":2,""viewing_time"":1256.0999999996275},{""page_index"":1,""viewing_time"":719.9000000003725},{""page_index"":0,""viewing_time"":8503.899999999441},{""page_index"":1,""viewing_time"":16983.900000000373},{""page_index"":2,""viewing_time"":19543.799999999814},{""page_index"":3,""viewing_time"":26600},{""page_index"":4,""viewing_time"":7519.9000000003725},{""page_index"":5,""viewing_time"":10127.799999999814},{""page_index"":6,""viewing_time"":6992}]","","","","","","","","","","","",""
"47918.700000000186","","instructions","2","526014","0.0-2.0","30MVJZJNHNZ0CR6AKJXH085YV6DJ9P","A5DZDONM2Y082","3URJ6VVYUP9BUCT1SZOT2DFI02L4OC","[{""page_index"":0,""viewing_time"":47918.200000000186}]","","","","","","","","","","","",""
"77126.5","","instructions","3","603142","0.0-3.0","30MVJZJNHNZ0CR6AKJXH085YV6DJ9P","A5DZDONM2Y082","3URJ6VVYUP9BUCT1SZOT2DFI02L4OC","[{""page_index"":0,""viewing_time"":29270.5},{""page_index"":1,""viewing_time"":47855.700000000186}]","","","","","","","","","","","",""
"1265.7000000001863","","image-keyboard-response","4","604409","0.0-4.0","30MVJZJNHNZ0CR6AKJXH085YV6DJ9P","A5DZDONM2Y082","3URJ6VVYUP9BUCT1SZOT2DFI02L4OC","","img/set1/S3.jpg","72","3","structured_incentive","72","structured_incentive,random,structured_load,structured_normal","1,2,2,3,4,2","2,1,3,4","true","","",""
"null","","html-keyboard-response","5","604766","0.0-5.0","30MVJZJNHNZ0CR6AKJXH085YV6DJ9P","A5DZDONM2Y082","3URJ6VVYUP9BUCT1SZOT2DFI02L4OC","","<img src=""img/set1/S3.jpg"" width=""540"" height = ""360"" style=""border:16px solid orange"">","null","","","","","","","","","",""
"null","","html-keyboard-response","6","604980","0.0-6.0","30MVJZJNHNZ0CR6AKJXH085YV6DJ9P","A5DZDONM2Y082","3URJ6VVYUP9BUCT1SZOT2DFI02L4OC","","","null","","","","","","","","","",""
"1177","","image-keyboard-response","7","606158","0.0-7.0","30MVJZJNHNZ0CR6AKJXH085YV6DJ9P","A5DZDONM2Y082","3URJ6VVYUP9BUCT1SZOT2DFI02L4OC","","img/set1/S2.jpg","74","2","structured_incentive","68","structured_incentive,random,structured_load,structured_normal","1,2,2,3,4,2","2,1,3,4","false","","",""
"null","","html-keyboard-response","8","606516","0.0-8.0","30MVJZJNHNZ0CR6AKJXH085YV6DJ9P","A5DZDONM2Y082","3URJ6VVYUP9BUCT1SZOT2DFI02L4OC","","<img src=""img/set1/S2.jpg"" width=""540"" height = ""360"">","null","","","","","","","","","",""
"null","","html-keyboard-response","9","606730","0.0-9.0","30MVJZJNHNZ0CR6AKJXH085YV6DJ9P","A5DZDONM2Y082","3URJ6VVYUP9BUCT1SZOT2DFI02L4OC","","","null","","","","","","","","","",""
"637.7999999998137","","image-keyboard-response","10","607368","0.0-10.0","30MVJZJNHNZ0CR6AKJXH085YV6DJ9P","A5DZDONM2Y082","3URJ6VVYUP9BUCT1SZOT2DFI02L4OC","","img/set1/S3.jpg","72","3","structured_incentive","72","structured_incentive,random,structured_load,structured_normal","1,2,2,3,4,2","2,1,3,4","true","","",""
"null","","html-keyboard-response","11","607724","0.0-11.0","30MVJZJNHNZ0CR6AKJXH085YV6DJ9P","A5DZDONM2Y082","3URJ6VVYUP9BUCT1SZOT2DFI02L4OC","","<img src=""img/set1/S3.jpg"" width=""540"" height = ""360"" style=""border:16px solid orange"">","null","","","","","","","","","",""
"null","","html-keyboard-response","12","607938","0.0-12.0","30MVJZJNHNZ0CR6AKJXH085YV6DJ9P","A5DZDONM2Y082","3URJ6VVYUP9BUCT1SZOT2DFI02L4OC","","","null","","","","","","","","","",""
"899.2999999998137","","image-keyboard-response","13","608838","0.0-13.0","30MVJZJNHNZ0CR6AKJXH085YV6DJ9P","A5DZDONM2Y082","3URJ6VVYUP9BUCT1SZOT2DFI02L4OC","","img/set1/S1.jpg","83","1","structured_incentive","83","structured_incentive,random,structured_load,structured_normal","1,2,2,3,4,2","2,1,3,4","true","","",""
"null","","html-keyboard-response","14","609197","0.0-14.0","30MVJZJNHNZ0CR6AKJXH085YV6DJ9P","A5DZDONM2Y082","3URJ6VVYUP9BUCT1SZOT2DFI02L4OC","","<img src=""img/set1/S1.jpg"" width=""540"" height = ""360"" style=""border:16px solid orange"">","null","","","","","","","","","",""
"null","","html-keyboard-response","15","609410","0.0-15.0","30MVJZJNHNZ0CR6AKJXH085YV6DJ9P","A5DZDONM2Y082","3URJ6VVYUP9BUCT1SZOT2DFI02L4OC","","","null","","","","","","","","","",""
"957","","image-keyboard-response","16","610368","0.0-16.0","30MVJZJNHNZ0CR6AKJXH085YV6DJ9P","A5DZDONM2Y082","3URJ6VVYUP9BUCT1SZOT2DFI02L4OC","","img/set1/S4.jpg","68","4","structured_incentive","74","structured_incentive,random,structured_load,structured_normal","1,2,2,3,4,2","2,1,3,4","false","","",""
"null","","html-keyboard-response","17","610725","0.0-17.0","30MVJZJNHNZ0CR6AKJXH085YV6DJ9P","A5DZDONM2Y082","3URJ6VVYUP9BUCT1SZOT2DFI02L4OC","","<img src=""img/set1/S4.jpg"" width=""540"" height = ""360"">","null","","","","","","","","","",""
"null","","html-keyboard-response","18","610938","0.0-18.0","30MVJZJNHNZ0CR6AKJXH085YV6DJ9P","A5DZDONM2Y082","3URJ6VVYUP9BUCT1SZOT2DFI02L4OC","","","null","","","","","","","","","",""
"749.3999999994412","","image-keyboard-response","19","611688","0.0-19.0","30MVJZJNHNZ0CR6AKJXH085YV6DJ9P","A5DZDONM2Y082","3URJ6VVYUP9BUCT1SZOT2DFI02L4OC","","img/set1/S4.jpg","72","4","structured_incentive","74","structured_incentive,random,structured_load,structured_normal","1,2,2,3,4,2","2,1,3,4","false","","",""
"null","","html-keyboard-response","20","612044","0.0-20.0","30MVJZJNHNZ0CR6AKJXH085YV6DJ9P","A5DZDONM2Y082","3URJ6VVYUP9BUCT1SZOT2DFI02L4OC","","<img src=""img/set1/S4.jpg"" width=""540"" height = ""360"">","null","","","","","","","","","",""
"null","","html-keyboard-response","21","612257","0.0-21.0","30MVJZJNHNZ0CR6AKJXH085YV6DJ9P","A5DZDONM2Y082","3URJ6VVYUP9BUCT1SZOT2DFI02L4OC","","","null","","","","","","","","","",""
"1079.2000000001863","","image-keyboard-response","22","613338","0.0-22.0","30MVJZJNHNZ0CR6AKJXH085YV6DJ9P","A5DZDONM2Y082","3URJ6VVYUP9BUCT1SZOT2DFI02L4OC","","img/set1/S1.jpg","74","1","structured_incentive","83","structured_incentive,random,structured_load,structured_normal","1,2,2,3,4,2","2,1,3,4","false","","",""
"null","","html-keyboard-response","23","613690","0.0-23.0","30MVJZJNHNZ0CR6AKJXH085YV6DJ9P","A5DZDONM2Y082","3URJ6VVYUP9BUCT1SZOT2DFI02L4OC","","<img src=""img/set1/S1.jpg"" width=""540"" height = ""360"">","null","","","","","","","","","",""
"null","","html-keyboard-response","24","613903","0.0-24.0","30MVJZJNHNZ0CR6AKJXH085YV6DJ9P","A5DZDONM2Y082","3URJ6VVYUP9BUCT1SZOT2DFI02L4OC","","","null","","","","","","","","","",""
"753.2999999998137","","image-keyboard-response","25","614657","0.0-25.0","30MVJZJNHNZ0CR6AKJXH085YV6DJ9P","A5DZDONM2Y082","3URJ6VVYUP9BUCT1SZOT2DFI02L4OC","","img/set1/S2.jpg","72","2","structured_incentive","68","structured_incentive,random,structured_load,structured_normal","1,2,2,3,4,2","2,1,3,4","false","","",""
"null","","html-keyboard-response","26","615009","0.0-26.0","30MVJZJNHNZ0CR6AKJXH085YV6DJ9P","A5DZDONM2Y082","3URJ6VVYUP9BUCT1SZOT2DFI02L4OC","","<img src=""img/set1/S2.jpg"" width=""540"" height = ""360"">","null","","","","","","","","","",""
"null","","html-keyboard-response","27","615223","0.0-27.0","30MVJZJNHNZ0CR6AKJXH085YV6DJ9P","A5DZDONM2Y082","3URJ6VVYUP9BUCT1SZOT2DFI02L4OC","","","null","","","","","","","","","",""
"1183.7999999998137","","image-keyboard-response","28","616407","0.0-28.0","30MVJZJNHNZ0CR6AKJXH085YV6DJ9P","A5DZDONM2Y082","3URJ6VVYUP9BUCT1SZOT2DFI02L4OC","","img/set1/S1.jpg","68","1","structured_incentive","83","structured_incentive,random,structured_load,structured_normal","1,2,2,3,4,2","2,1,3,4","false","","",""
"null","","html-keyboard-response","29","616759","0.0-29.0","30MVJZJNHNZ0CR6AKJXH085YV6DJ9P","A5DZDONM2Y082","3URJ6VVYUP9BUCT1SZOT2DFI02L4OC","","<img src=""img/set1/S1.jpg"" width=""540"" height = ""360"">","null","","","","","","","","","",""
"null","","html-keyboard-response","30","616973","0.0-30.0","30MVJZJNHNZ0CR6AKJXH085YV6DJ9P","A5DZDONM2Y082","3URJ6VVYUP9BUCT1SZOT2DFI02L4OC","","","null","","","","","","","","","",""
"1173.7999999998137","","image-keyboard-response","31","618147","0.0-31.0","30MVJZJNHNZ0CR6AKJXH085YV6DJ9P","A5DZDONM2Y082","3URJ6VVYUP9BUCT1SZOT2DFI02L4OC","","img/set1/S2.jpg","83","2","structured_incentive","68","structured_incentive,random,structured_load,structured_normal","1,2,2,3,4,2","2,1,3,4","false","","",""
"null","","html-keyboard-response","32","618502","0.0-32.0","30MVJZJNHNZ0CR6AKJXH085YV6DJ9P","A5DZDONM2Y082","3URJ6VVYUP9BUCT1SZOT2DFI02L4OC","","<img src=""img/set1/S2.jpg"" width=""540"" height = ""360"">","null","","","","","","","","","",""
"null","","html-keyboard-response","33","618716","0.0-33.0","30MVJZJNHNZ0CR6AKJXH085YV6DJ9P","A5DZDONM2Y082","3URJ6VVYUP9BUCT1SZOT2DFI02L4OC","","","null","","","","","","","","","",""
"1050.7000000001863","","image-keyboard-response","34","619767","0.0-34.0","30MVJZJNHNZ0CR6AKJXH085YV6DJ9P","A5DZDONM2Y082","3URJ6VVYUP9BUCT1SZOT2DFI02L4OC","","img/set1/S3.jpg","72","3","structured_incentive","72","structured_incentive,random,structured_load,structured_normal","1,2,2,3,4,2","2,1,3,4","true","","",""
"null","","html-keyboard-response","35","620120","0.0-35.0","30MVJZJNHNZ0CR6AKJXH085YV6DJ9P","A5DZDONM2Y082","3URJ6VVYUP9BUCT1SZOT2DFI02L4OC","","<img src=""img/set1/S3.jpg"" width=""540"" height = ""360"" style=""border:16px solid orange"">","null","","","","","","","","","",""
"null","","html-keyboard-response","36","620334","0.0-36.0","30MVJZJNHNZ0CR6AKJXH085YV6DJ9P","A5DZDONM2Y082","3URJ6VVYUP9BUCT1SZOT2DFI02L4OC","","","null","","","","","","","","","",""
"812.5999999996275","","image-keyboard-response","37","621147","0.0-37.0","30MVJZJNHNZ0CR6AKJXH085YV6DJ9P","A5DZDONM2Y082","3URJ6VVYUP9BUCT1SZOT2DFI02L4OC","","img/set1/S3.jpg","72","3","structured_incentive","72","structured_incentive,random,structured_load,structured_normal","1,2,2,3,4,2","2,1,3,4","true","","",""
"null","","html-keyboard-response","38","621502","0.0-38.0","30MVJZJNHNZ0CR6AKJXH085YV6DJ9P","A5DZDONM2Y082","3URJ6VVYUP9BUCT1SZOT2DFI02L4OC","","<img src=""img/set1/S3.jpg"" width=""540"" height = ""360"" style=""border:16px solid orange"">","null","","","","","","","","","",""
"null","","html-keyboard-response","39","621716","0.0-39.0","30MVJZJNHNZ0CR6AKJXH085YV6DJ9P","A5DZDONM2Y082","3URJ6VVYUP9BUCT1SZOT2DFI02L4OC","","","null","","","","","","","","","",""
"1300.6000000005588","","image-keyboard-response","40","623017","0.0-40.0","30MVJZJNHNZ0CR6AKJXH085YV6DJ9P","A5DZDONM2Y082","3URJ6VVYUP9BUCT1SZOT2DFI02L4OC","","img/set1/S1.jpg","68","1","structured_incentive","83","structured_incentive,random,structured_load,structured_normal","1,2,2,3,4,2","2,1,3,4","false","","",""
"null","","html-keyboard-response","41","623370","0.0-41.0","30MVJZJNHNZ0CR6AKJXH085YV6DJ9P","A5DZDONM2Y082","3URJ6VVYUP9BUCT1SZOT2DFI02L4OC","","<img src=""img/set1/S1.jpg"" width=""540"" height = ""360"">","null","","","","","","","","","",""
"null","","html-keyboard-response","42","623584","0.0-42.0","30MVJZJNHNZ0CR6AKJXH085YV6DJ9P","A5DZDONM2Y082","3URJ6VVYUP9BUCT1SZOT2DFI02L4OC","","","null","","","","","","","","","",""
"1093","","image-keyboard-response","43","624677","0.0-43.0","30MVJZJNHNZ0CR6AKJXH085YV6DJ9P","A5DZDONM2Y082","3URJ6VVYUP9BUCT1SZOT2DFI02L4OC","","img/set1/S2.jpg","74","2","structured_incentive","68","structured_incentive,random,structured_load,structured_normal","1,2,2,3,4,2","2,1,3,4","false","","",""
"null","","html-keyboard-response","44","625030","0.0-44.0","30MVJZJNHNZ0CR6AKJXH085YV6DJ9P","A5DZDONM2Y082","3URJ6VVYUP9BUCT1SZOT2DFI02L4OC","","<img src=""img/set1/S2.jpg"" width=""540"" height = ""360"">","null","","","","","","","","","",""
"null","","html-keyboard-response","45","625243","0.0-45.0","30MVJZJNHNZ0CR6AKJXH085YV6DJ9P","A5DZDONM2Y082","3URJ6VVYUP9BUCT1SZOT2DFI02L4OC","","","null","","","","","","","","","",""
"791.9000000003725","","image-keyboard-response","46","626036","0.0-46.0","30MVJZJNHNZ0CR6AKJXH085YV6DJ9P","A5DZDONM2Y082","3URJ6VVYUP9BUCT1SZOT2DFI02L4OC","","img/set1/S3.jpg","72","3","structured_incentive","72","structured_incentive,random,structured_load,structured_normal","1,2,2,3,4,2","2,1,3,4","true","","",""
"null","","html-keyboard-response","47","626391","0.0-47.0","30MVJZJNHNZ0CR6AKJXH085YV6DJ9P","A5DZDONM2Y082","3URJ6VVYUP9BUCT1SZOT2DFI02L4OC","","<img src=""img/set1/S3.jpg"" width=""540"" height = ""360"" style=""border:16px solid orange"">","null","","","","","","","","","",""
"null","","html-keyboard-response","48","626605","0.0-48.0","30MVJZJNHNZ0CR6AKJXH085YV6DJ9P","A5DZDONM2Y082","3URJ6VVYUP9BUCT1SZOT2DFI02L4OC","","","null","","","","","","","","","",""
"1170.8999999994412","","image-keyboard-response","49","627776","0.0-49.0","30MVJZJNHNZ0CR6AKJXH085YV6DJ9P","A5DZDONM2Y082","3URJ6VVYUP9BUCT1SZOT2DFI02L4OC","","img/set1/S4.jpg","83","4","structured_incentive","74","structured_incentive,random,structured_load,structured_normal","1,2,2,3,4,2","2,1,3,4","false","","",""
"null","","html-keyboard-response","50","628134","0.0-50.0","30MVJZJNHNZ0CR6AKJXH085YV6DJ9P","A5DZDONM2Y082","3URJ6VVYUP9BUCT1SZOT2DFI02L4OC","","<img src=""img/set1/S4.jpg"" width=""540"" height = ""360"">","null","","","","","","","","","",""
"null","","html-keyboard-response","51","628348","0.0-51.0","30MVJZJNHNZ0CR6AKJXH085YV6DJ9P","A5DZDONM2Y082","3URJ6VVYUP9BUCT1SZOT2DFI02L4OC","","","null","","","","","","","","","",""
"1067.7000000001863","","image-keyboard-response","52","629416","0.0-52.0","30MVJZJNHNZ0CR6AKJXH085YV6DJ9P","A5DZDONM2Y082","3URJ6VVYUP9BUCT1SZOT2DFI02L4OC","","img/set1/S4.jpg","74","4","structured_incentive","74","structured_incentive,random,structured_load,structured_normal","1,2,2,3,4,2","2,1,3,4","true","","",""
"null","","html-keyboard-response","53","629773","0.0-53.0","30MVJZJNHNZ0CR6AKJXH085YV6DJ9P","A5DZDONM2Y082","3URJ6VVYUP9BUCT1SZOT2DFI02L4OC","","<img src=""img/set1/S4.jpg"" width=""540"" height = ""360"" style=""border:16px solid Violet"">","null","","","","","","","","","",""
"null","","html-keyboard-response","54","629987","0.0-54.0","30MVJZJNHNZ0CR6AKJXH085YV6DJ9P","A5DZDONM2Y082","3URJ6VVYUP9BUCT1SZOT2DFI02L4OC","","","null","","","","","","","","","",""
"1248.7999999998137","","image-keyboard-response","55","631236","0.0-55.0","30MVJZJNHNZ0CR6AKJXH085YV6DJ9P","A5DZDONM2Y082","3URJ6VVYUP9BUCT1SZOT2DFI02L4OC","","img/set1/S1.jpg","68","1","structured_incentive","83","structured_incentive,random,structured_load,structured_normal","1,2,2,3,4,2","2,1,3,4","false","","",""
"null","","html-keyboard-response","56","631593","0.0-56.0","30MVJZJNHNZ0CR6AKJXH085YV6DJ9P","A5DZDONM2Y082","3URJ6VVYUP9BUCT1SZOT2DFI02L4OC","","<img src=""img/set1/S1.jpg"" width=""540"" height = ""360"">","null","","","","","","","","","",""
"null","","html-keyboard-response","57","631806","0.0-57.0","30MVJZJNHNZ0CR6AKJXH085YV6DJ9P","A5DZDONM2Y082","3URJ6VVYUP9BUCT1SZOT2DFI02L4OC","","","null","","","","","","","","","",""
"1359.4000000003725","","image-keyboard-response","58","633166","0.0-58.0","30MVJZJNHNZ0CR6AKJXH085YV6DJ9P","A5DZDONM2Y082","3URJ6VVYUP9BUCT1SZOT2DFI02L4OC","","img/set1/S2.jpg","72","2","structured_incentive","68","structured_incentive,random,structured_load,structured_normal","1,2,2,3,4,2","2,1,3,4","false","","",""
"null","","html-keyboard-response","59","633530","0.0-59.0","30MVJZJNHNZ0CR6AKJXH085YV6DJ9P","A5DZDONM2Y082","3URJ6VVYUP9BUCT1SZOT2DFI02L4OC","","<img src=""img/set1/S2.jpg"" width=""540"" height = ""360"">","null","","","","","","","","","",""
"null","","html-keyboard-response","60","633743","0.0-60.0","30MVJZJNHNZ0CR6AKJXH085YV6DJ9P","A5DZDONM2Y082","3URJ6VVYUP9BUCT1SZOT2DFI02L4OC","","","null","","","","","","","","","",""
"1002","","image-keyboard-response","61","634746","0.0-61.0","30MVJZJNHNZ0CR6AKJXH085YV6DJ9P","A5DZDONM2Y082","3URJ6VVYUP9BUCT1SZOT2DFI02L4OC","","img/set1/S1.jpg","74","1","structured_incentive","83","structured_incentive,random,structured_load,structured_normal","1,2,2,3,4,2","2,1,3,4","false","","",""
"null","","html-keyboard-response","62","635099","0.0-62.0","30MVJZJNHNZ0CR6AKJXH085YV6DJ9P","A5DZDONM2Y082","3URJ6VVYUP9BUCT1SZOT2DFI02L4OC","","<img src=""img/set1/S1.jpg"" width=""540"" height = ""360"">","null","","","","","","","","","",""
"null","","html-keyboard-response","63","635313","0.0-63.0","30MVJZJNHNZ0CR6AKJXH085YV6DJ9P","A5DZDONM2Y082","3URJ6VVYUP9BUCT1SZOT2DFI02L4OC","","","null","","","","","","","","","",""
"1171.2999999998137","","image-keyboard-response","64","636485","0.0-64.0","30MVJZJNHNZ0CR6AKJXH085YV6DJ9P","A5DZDONM2Y082","3URJ6VVYUP9BUCT1SZOT2DFI02L4OC","","img/set1/S2.jpg","68","2","structured_incentive","68","structured_incentive,random,structured_load,structured_normal","1,2,2,3,4,2","2,1,3,4","true","","",""
"null","","html-keyboard-response","65","636850","0.0-65.0","30MVJZJNHNZ0CR6AKJXH085YV6DJ9P","A5DZDONM2Y082","3URJ6VVYUP9BUCT1SZOT2DFI02L4OC","","<img src=""img/set1/S2.jpg"" width=""540"" height = ""360"" style=""border:16px solid orange"">","null","","","","","","","","","",""
"null","","html-keyboard-response","66","637063","0.0-66.0","30MVJZJNHNZ0CR6AKJXH085YV6DJ9P","A5DZDONM2Y082","3URJ6VVYUP9BUCT1SZOT2DFI02L4OC","","","null","","","","","","","","","",""
"881.4000000003725","","image-keyboard-response","67","637945","0.0-67.0","30MVJZJNHNZ0CR6AKJXH085YV6DJ9P","A5DZDONM2Y082","3URJ6VVYUP9BUCT1SZOT2DFI02L4OC","","img/set1/S3.jpg","72","3","structured_incentive","72","structured_incentive,random,structured_load,structured_normal","1,2,2,3,4,2","2,1,3,4","true","","",""
"null","","html-keyboard-response","68","638301","0.0-68.0","30MVJZJNHNZ0CR6AKJXH085YV6DJ9P","A5DZDONM2Y082","3URJ6VVYUP9BUCT1SZOT2DFI02L4OC","","<img src=""img/set1/S3.jpg"" width=""540"" height = ""360"" style=""border:16px solid orange"">","null","","","","","","","","","",""
"null","","html-keyboard-response","69","638514","0.0-69.0","30MVJZJNHNZ0CR6AKJXH085YV6DJ9P","A5DZDONM2Y082","3URJ6VVYUP9BUCT1SZOT2DFI02L4OC","","","null","","","","","","","","","",""
"578.8999999994412","","image-keyboard-response","70","639095","0.0-70.0","30MVJZJNHNZ0CR6AKJXH085YV6DJ9P","A5DZDONM2Y082","3URJ6VVYUP9BUCT1SZOT2DFI02L4OC","","img/set1/S4.jpg","72","4","structured_incentive","74","structured_incentive,random,structured_load,structured_normal","1,2,2,3,4,2","2,1,3,4","false","","",""
"null","","html-keyboard-response","71","639447","0.0-71.0","30MVJZJNHNZ0CR6AKJXH085YV6DJ9P","A5DZDONM2Y082","3URJ6VVYUP9BUCT1SZOT2DFI02L4OC","","<img src=""img/set1/S4.jpg"" width=""540"" height = ""360"">","null","","","","","","","","","",""
"null","","html-keyboard-response","72","639660","0.0-72.0","30MVJZJNHNZ0CR6AKJXH085YV6DJ9P","A5DZDONM2Y082","3URJ6VVYUP9BUCT1SZOT2DFI02L4OC","","","null","","","","","","","","","",""
"704.0999999996275","","image-keyboard-response","73","640365","0.0-73.0","30MVJZJNHNZ0CR6AKJXH085YV6DJ9P","A5DZDONM2Y082","3URJ6VVYUP9BUCT1SZOT2DFI02L4OC","","img/set1/S3.jpg","72","3","structured_incentive","72","structured_incentive,random,structured_load,structured_normal","1,2,2,3,4,2","2,1,3,4","true","","",""
"null","","html-keyboard-response","74","640717","0.0-74.0","30MVJZJNHNZ0CR6AKJXH085YV6DJ9P","A5DZDONM2Y082","3URJ6VVYUP9BUCT1SZOT2DFI02L4OC","","<img src=""img/set1/S3.jpg"" width=""540"" height = ""360"" style=""border:16px solid orange"">","null","","","","","","","","","",""
"null","","html-keyboard-response","75","640931","0.0-75.0","30MVJZJNHNZ0CR6AKJXH085YV6DJ9P","A5DZDONM2Y082","3URJ6VVYUP9BUCT1SZOT2DFI02L4OC","","","null","","","","","","","","","",""
"963.2999999998137","","image-keyboard-response","76","641895","0.0-76.0","30MVJZJNHNZ0CR6AKJXH085YV6DJ9P","A5DZDONM2Y082","3URJ6VVYUP9BUCT1SZOT2DFI02L4OC","","img/set1/S4.jpg","74","4","structured_incentive","74","structured_incentive,random,structured_load,structured_normal","1,2,2,3,4,2","2,1,3,4","true","","",""
"null","","html-keyboard-response","77","642259","0.0-77.0","30MVJZJNHNZ0CR6AKJXH085YV6DJ9P","A5DZDONM2Y082","3URJ6VVYUP9BUCT1SZOT2DFI02L4OC","","<img src=""img/set1/S4.jpg"" width=""540"" height = ""360"" style=""border:16px solid Violet"">","null","","","","","","","","","",""
"null","","html-keyboard-response","78","642472","0.0-78.0","30MVJZJNHNZ0CR6AKJXH085YV6DJ9P","A5DZDONM2Y082","3URJ6VVYUP9BUCT1SZOT2DFI02L4OC","","","null","","","","","","","","","",""
"561.7999999998137","","image-keyboard-response","79","643035","0.0-79.0","30MVJZJNHNZ0CR6AKJXH085YV6DJ9P","A5DZDONM2Y082","3URJ6VVYUP9BUCT1SZOT2DFI02L4OC","","img/set1/S3.jpg","72","3","structured_incentive","72","structured_incentive,random,structured_load,structured_normal","1,2,2,3,4,2","2,1,3,4","true","","",""
"null","","html-keyboard-response","80","643391","0.0-80.0","30MVJZJNHNZ0CR6AKJXH085YV6DJ9P","A5DZDONM2Y082","3URJ6VVYUP9BUCT1SZOT2DFI02L4OC","","<img src=""img/set1/S3.jpg"" width=""540"" height = ""360"" style=""border:16px solid orange"">","null","","","","","","","","","",""
"null","","html-keyboard-response","81","643605","0.0-81.0","30MVJZJNHNZ0CR6AKJXH085YV6DJ9P","A5DZDONM2Y082","3URJ6VVYUP9BUCT1SZOT2DFI02L4OC","","","null","","","","","","","","","",""
"639.6999999992549","","image-keyboard-response","82","644245","0.0-82.0","30MVJZJNHNZ0CR6AKJXH085YV6DJ9P","A5DZDONM2Y082","3URJ6VVYUP9BUCT1SZOT2DFI02L4OC","","img/set1/S4.jpg","74","4","structured_incentive","74","structured_incentive,random,structured_load,structured_normal","1,2,2,3,4,2","2,1,3,4","true","","",""
"null","","html-keyboard-response","83","644599","0.0-83.0","30MVJZJNHNZ0CR6AKJXH085YV6DJ9P","A5DZDONM2Y082","3URJ6VVYUP9BUCT1SZOT2DFI02L4OC","","<img src=""img/set1/S4.jpg"" width=""540"" height = ""360"" style=""border:16px solid Violet"">","null","","","","","","","","","",""
"null","","html-keyboard-response","84","644813","0.0-84.0","30MVJZJNHNZ0CR6AKJXH085YV6DJ9P","A5DZDONM2Y082","3URJ6VVYUP9BUCT1SZOT2DFI02L4OC","","","null","","","","","","","","","",""
"651.7000000001863","","image-keyboard-response","85","645465","0.0-85.0","30MVJZJNHNZ0CR6AKJXH085YV6DJ9P","A5DZDONM2Y082","3URJ6VVYUP9BUCT1SZOT2DFI02L4OC","","img/set1/S3.jpg","72","3","structured_incentive","72","structured_incentive,random,structured_load,structured_normal","1,2,2,3,4,2","2,1,3,4","true","","",""
"null","","html-keyboard-response","86","645822","0.0-86.0","30MVJZJNHNZ0CR6AKJXH085YV6DJ9P","A5DZDONM2Y082","3URJ6VVYUP9BUCT1SZOT2DFI02L4OC","","<img src=""img/set1/S3.jpg"" width=""540"" height = ""360"" style=""border:16px solid orange"">","null","","","","","","","","","",""
"null","","html-keyboard-response","87","646035","0.0-87.0","30MVJZJNHNZ0CR6AKJXH085YV6DJ9P","A5DZDONM2Y082","3URJ6VVYUP9BUCT1SZOT2DFI02L4OC","","","null","","","","","","","","","",""
"739","","image-keyboard-response","88","646775","0.0-88.0","30MVJZJNHNZ0CR6AKJXH085YV6DJ9P","A5DZDONM2Y082","3URJ6VVYUP9BUCT1SZOT2DFI02L4OC","","img/set1/S3.jpg","72","3","structured_incentive","72","structured_incentive,random,structured_load,structured_normal","1,2,2,3,4,2","2,1,3,4","true","","",""
"null","","html-keyboard-response","89","647127","0.0-89.0","30MVJZJNHNZ0CR6AKJXH085YV6DJ9P","A5DZDONM2Y082","3URJ6VVYUP9BUCT1SZOT2DFI02L4OC","","<img src=""img/set1/S3.jpg"" width=""540"" height = ""360"" style=""border:16px solid orange"">","null","","","","","","","","","",""
"null","","html-keyboard-response","90","647341","0.0-90.0","30MVJZJNHNZ0CR6AKJXH085YV6DJ9P","A5DZDONM2Y082","3URJ6VVYUP9BUCT1SZOT2DFI02L4OC","","","null","","","","","","","","","",""
"663.4000000003725","","image-keyboard-response","91","648005","0.0-91.0","30MVJZJNHNZ0CR6AKJXH085YV6DJ9P","A5DZDONM2Y082","3URJ6VVYUP9BUCT1SZOT2DFI02L4OC","","img/set1/S4.jpg","74","4","structured_incentive","74","structured_incentive,random,structured_load,structured_normal","1,2,2,3,4,2","2,1,3,4","true","","",""
"null","","html-keyboard-response","92","648363","0.0-92.0","30MVJZJNHNZ0CR6AKJXH085YV6DJ9P","A5DZDONM2Y082","3URJ6VVYUP9BUCT1SZOT2DFI02L4OC","","<img src=""img/set1/S4.jpg"" width=""540"" height = ""360"" style=""border:16px solid Violet"">","null","","","","","","","","","",""
"null","","html-keyboard-response","93","648577","0.0-93.0","30MVJZJNHNZ0CR6AKJXH085YV6DJ9P","A5DZDONM2Y082","3URJ6VVYUP9BUCT1SZOT2DFI02L4OC","","","null","","","","","","","","","",""
"776.3999999994412","","image-keyboard-response","94","649354","0.0-94.0","30MVJZJNHNZ0CR6AKJXH085YV6DJ9P","A5DZDONM2Y082","3URJ6VVYUP9BUCT1SZOT2DFI02L4OC","","img/set1/S4.jpg","74","4","structured_incentive","74","structured_incentive,random,structured_load,structured_normal","1,2,2,3,4,2","2,1,3,4","true","","",""
"null","","html-keyboard-response","95","649711","0.0-95.0","30MVJZJNHNZ0CR6AKJXH085YV6DJ9P","A5DZDONM2Y082","3URJ6VVYUP9BUCT1SZOT2DFI02L4OC","","<img src=""img/set1/S4.jpg"" width=""540"" height = ""360"" style=""border:16px solid Violet"">","null","","","","","","","","","",""
"null","","html-keyboard-response","96","649924","0.0-96.0","30MVJZJNHNZ0CR6AKJXH085YV6DJ9P","A5DZDONM2Y082","3URJ6VVYUP9BUCT1SZOT2DFI02L4OC","","","null","","","","","","","","","",""
"679.1999999992549","","image-keyboard-response","97","650604","0.0-97.0","30MVJZJNHNZ0CR6AKJXH085YV6DJ9P","A5DZDONM2Y082","3URJ6VVYUP9BUCT1SZOT2DFI02L4OC","","img/set1/S4.jpg","74","4","structured_incentive","74","structured_incentive,random,structured_load,structured_normal","1,2,2,3,4,2","2,1,3,4","true","","",""
"null","","html-keyboard-response","98","650960","0.0-98.0","30MVJZJNHNZ0CR6AKJXH085YV6DJ9P","A5DZDONM2Y082","3URJ6VVYUP9BUCT1SZOT2DFI02L4OC","","<img src=""img/set1/S4.jpg"" width=""540"" height = ""360"" style=""border:16px solid Violet"">","null","","","","","","","","","",""
"null","","html-keyboard-response","99","651174","0.0-99.0","30MVJZJNHNZ0CR6AKJXH085YV6DJ9P","A5DZDONM2Y082","3URJ6VVYUP9BUCT1SZOT2DFI02L4OC","","","null","","","","","","","","","",""
"569.2999999998137","","image-keyboard-response","100","651744","0.0-100.0","30MVJZJNHNZ0CR6AKJXH085YV6DJ9P","A5DZDONM2Y082","3URJ6VVYUP9BUCT1SZOT2DFI02L4OC","","img/set1/S3.jpg","72","3","structured_incentive","72","structured_incentive,random,structured_load,structured_normal","1,2,2,3,4,2","2,1,3,4","true","","",""
"null","","html-keyboard-response","101","652099","0.0-101.0","30MVJZJNHNZ0CR6AKJXH085YV6DJ9P","A5DZDONM2Y082","3URJ6VVYUP9BUCT1SZOT2DFI02L4OC","","<img src=""img/set1/S3.jpg"" width=""540"" height = ""360"" style=""border:16px solid orange"">","null","","","","","","","","","",""
"null","","html-keyboard-response","102","652313","0.0-102.0","30MVJZJNHNZ0CR6AKJXH085YV6DJ9P","A5DZDONM2Y082","3URJ6VVYUP9BUCT1SZOT2DFI02L4OC","","","null","","","","","","","","","",""
"590.2000000001863","","image-keyboard-response","103","652904","0.0-103.0","30MVJZJNHNZ0CR6AKJXH085YV6DJ9P","A5DZDONM2Y082","3URJ6VVYUP9BUCT1SZOT2DFI02L4OC","","img/set1/S3.jpg","72","3","structured_incentive","72","structured_incentive,random,structured_load,structured_normal","1,2,2,3,4,2","2,1,3,4","true","","",""
"null","","html-keyboard-response","104","653259","0.0-104.0","30MVJZJNHNZ0CR6AKJXH085YV6DJ9P","A5DZDONM2Y082","3URJ6VVYUP9BUCT1SZOT2DFI02L4OC","","<img src=""img/set1/S3.jpg"" width=""540"" height = ""360"" style=""border:16px solid orange"">","null","","","","","","","","","",""
"null","","html-keyboard-response","105","653473","0.0-105.0","30MVJZJNHNZ0CR6AKJXH085YV6DJ9P","A5DZDONM2Y082","3URJ6VVYUP9BUCT1SZOT2DFI02L4OC","","","null","","","","","","","","","",""
"1370.5","","image-keyboard-response","106","654844","0.0-106.0","30MVJZJNHNZ0CR6AKJXH085YV6DJ9P","A5DZDONM2Y082","3URJ6VVYUP9BUCT1SZOT2DFI02L4OC","","img/set1/S1.jpg","74","1","structured_incentive","83","structured_incentive,random,structured_load,structured_normal","1,2,2,3,4,2","2,1,3,4","false","","",""
"null","","html-keyboard-response","107","655197","0.0-107.0","30MVJZJNHNZ0CR6AKJXH085YV6DJ9P","A5DZDONM2Y082","3URJ6VVYUP9BUCT1SZOT2DFI02L4OC","","<img src=""img/set1/S1.jpg"" width=""540"" height = ""360"">","null","","","","","","","","","",""
"null","","html-keyboard-response","108","655410","0.0-108.0","30MVJZJNHNZ0CR6AKJXH085YV6DJ9P","A5DZDONM2Y082","3URJ6VVYUP9BUCT1SZOT2DFI02L4OC","","","null","","","","","","","","","",""
"762.8999999994412","","image-keyboard-response","109","656174","0.0-109.0","30MVJZJNHNZ0CR6AKJXH085YV6DJ9P","A5DZDONM2Y082","3URJ6VVYUP9BUCT1SZOT2DFI02L4OC","","img/set1/S2.jpg","74","2","structured_incentive","68","structured_incentive,random,structured_load,structured_normal","1,2,2,3,4,2","2,1,3,4","false","","",""
"null","","html-keyboard-response","110","656530","0.0-110.0","30MVJZJNHNZ0CR6AKJXH085YV6DJ9P","A5DZDONM2Y082","3URJ6VVYUP9BUCT1SZOT2DFI02L4OC","","<img src=""img/set1/S2.jpg"" width=""540"" height = ""360"">","null","","","","","","","","","",""
"null","","html-keyboard-response","111","656744","0.0-111.0","30MVJZJNHNZ0CR6AKJXH085YV6DJ9P","A5DZDONM2Y082","3URJ6VVYUP9BUCT1SZOT2DFI02L4OC","","","null","","","","","","","","","",""
"929.5999999996275","","image-keyboard-response","112","657674","0.0-112.0","30MVJZJNHNZ0CR6AKJXH085YV6DJ9P","A5DZDONM2Y082","3URJ6VVYUP9BUCT1SZOT2DFI02L4OC","","img/set1/S1.jpg","72","1","structured_incentive","83","structured_incentive,random,structured_load,structured_normal","1,2,2,3,4,2","2,1,3,4","false","","",""
"null","","html-keyboard-response","113","658030","0.0-113.0","30MVJZJNHNZ0CR6AKJXH085YV6DJ9P","A5DZDONM2Y082","3URJ6VVYUP9BUCT1SZOT2DFI02L4OC","","<img src=""img/set1/S1.jpg"" width=""540"" height = ""360"">","null","","","","","","","","","",""
"null","","html-keyboard-response","114","658244","0.0-114.0","30MVJZJNHNZ0CR6AKJXH085YV6DJ9P","A5DZDONM2Y082","3URJ6VVYUP9BUCT1SZOT2DFI02L4OC","","","null","","","","","","","","","",""
"559.5999999996275","","image-keyboard-response","115","658804","0.0-115.0","30MVJZJNHNZ0CR6AKJXH085YV6DJ9P","A5DZDONM2Y082","3URJ6VVYUP9BUCT1SZOT2DFI02L4OC","","img/set1/S2.jpg","72","2","structured_incentive","68","structured_incentive,random,structured_load,structured_normal","1,2,2,3,4,2","2,1,3,4","false","","",""
"null","","html-keyboard-response","116","659162","0.0-116.0","30MVJZJNHNZ0CR6AKJXH085YV6DJ9P","A5DZDONM2Y082","3URJ6VVYUP9BUCT1SZOT2DFI02L4OC","","<img src=""img/set1/S2.jpg"" width=""540"" height = ""360"">","null","","","","","","","","","",""
"null","","html-keyboard-response","117","659376","0.0-117.0","30MVJZJNHNZ0CR6AKJXH085YV6DJ9P","A5DZDONM2Y082","3URJ6VVYUP9BUCT1SZOT2DFI02L4OC","","","null","","","","","","","","","",""
"746.7000000001863","","image-keyboard-response","118","660123","0.0-118.0","30MVJZJNHNZ0CR6AKJXH085YV6DJ9P","A5DZDONM2Y082","3URJ6VVYUP9BUCT1SZOT2DFI02L4OC","","img/set1/S3.jpg","72","3","structured_incentive","72","structured_incentive,random,structured_load,structured_normal","1,2,2,3,4,2","2,1,3,4","true","","",""
"null","","html-keyboard-response","119","660481","0.0-119.0","30MVJZJNHNZ0CR6AKJXH085YV6DJ9P","A5DZDONM2Y082","3URJ6VVYUP9BUCT1SZOT2DFI02L4OC","","<img src=""img/set1/S3.jpg"" width=""540"" height = ""360"" style=""border:16px solid orange"">","null","","","","","","","","","",""
"null","","html-keyboard-response","120","660695","0.0-120.0","30MVJZJNHNZ0CR6AKJXH085YV6DJ9P","A5DZDONM2Y082","3URJ6VVYUP9BUCT1SZOT2DFI02L4OC","","","null","","","","","","","","","",""
"747.2999999998137","","image-keyboard-response","121","661443","0.0-121.0","30MVJZJNHNZ0CR6AKJXH085YV6DJ9P","A5DZDONM2Y082","3URJ6VVYUP9BUCT1SZOT2DFI02L4OC","","img/set1/S1.jpg","68","1","structured_incentive","83","structured_incentive,random,structured_load,structured_normal","1,2,2,3,4,2","2,1,3,4","false","","",""
"null","","html-keyboard-response","122","661801","0.0-122.0","30MVJZJNHNZ0CR6AKJXH085YV6DJ9P","A5DZDONM2Y082","3URJ6VVYUP9BUCT1SZOT2DFI02L4OC","","<img src=""img/set1/S1.jpg"" width=""540"" height = ""360"">","null","","","","","","","","","",""
"null","","html-keyboard-response","123","662014","0.0-123.0","30MVJZJNHNZ0CR6AKJXH085YV6DJ9P","A5DZDONM2Y082","3URJ6VVYUP9BUCT1SZOT2DFI02L4OC","","","null","","","","","","","","","",""
"747.7999999998137","","image-keyboard-response","124","662763","0.0-124.0","30MVJZJNHNZ0CR6AKJXH085YV6DJ9P","A5DZDONM2Y082","3URJ6VVYUP9BUCT1SZOT2DFI02L4OC","","img/set1/S2.jpg","68","2","structured_incentive","68","structured_incentive,random,structured_load,structured_normal","1,2,2,3,4,2","2,1,3,4","true","","",""
"null","","html-keyboard-response","125","663127","0.0-125.0","30MVJZJNHNZ0CR6AKJXH085YV6DJ9P","A5DZDONM2Y082","3URJ6VVYUP9BUCT1SZOT2DFI02L4OC","","<img src=""img/set1/S2.jpg"" width=""540"" height = ""360"" style=""border:16px solid orange"">","null","","","","","","","","","",""
"null","","html-keyboard-response","126","663341","0.0-126.0","30MVJZJNHNZ0CR6AKJXH085YV6DJ9P","A5DZDONM2Y082","3URJ6VVYUP9BUCT1SZOT2DFI02L4OC","","","null","","","","","","","","","",""
"801.5","","image-keyboard-response","127","664143","0.0-127.0","30MVJZJNHNZ0CR6AKJXH085YV6DJ9P","A5DZDONM2Y082","3URJ6VVYUP9BUCT1SZOT2DFI02L4OC","","img/set1/S3.jpg","72","3","structured_incentive","72","structured_incentive,random,structured_load,structured_normal","1,2,2,3,4,2","2,1,3,4","true","","",""
"null","","html-keyboard-response","128","664495","0.0-128.0","30MVJZJNHNZ0CR6AKJXH085YV6DJ9P","A5DZDONM2Y082","3URJ6VVYUP9BUCT1SZOT2DFI02L4OC","","<img src=""img/set1/S3.jpg"" width=""540"" height = ""360"" style=""border:16px solid orange"">","null","","","","","","","","","",""
"null","","html-keyboard-response","129","664709","0.0-129.0","30MVJZJNHNZ0CR6AKJXH085YV6DJ9P","A5DZDONM2Y082","3URJ6VVYUP9BUCT1SZOT2DFI02L4OC","","","null","","","","","","","","","",""
"633.5","","image-keyboard-response","130","665343","0.0-130.0","30MVJZJNHNZ0CR6AKJXH085YV6DJ9P","A5DZDONM2Y082","3URJ6VVYUP9BUCT1SZOT2DFI02L4OC","","img/set1/S3.jpg","72","3","structured_incentive","72","structured_incentive,random,structured_load,structured_normal","1,2,2,3,4,2","2,1,3,4","true","","",""
"null","","html-keyboard-response","131","665697","0.0-131.0","30MVJZJNHNZ0CR6AKJXH085YV6DJ9P","A5DZDONM2Y082","3URJ6VVYUP9BUCT1SZOT2DFI02L4OC","","<img src=""img/set1/S3.jpg"" width=""540"" height = ""360"" style=""border:16px solid orange"">","null","","","","","","","","","",""
"null","","html-keyboard-response","132","665910","0.0-132.0","30MVJZJNHNZ0CR6AKJXH085YV6DJ9P","A5DZDONM2Y082","3URJ6VVYUP9BUCT1SZOT2DFI02L4OC","","","null","","","","","","","","","",""
"682","","image-keyboard-response","133","666593","0.0-133.0","30MVJZJNHNZ0CR6AKJXH085YV6DJ9P","A5DZDONM2Y082","3URJ6VVYUP9BUCT1SZOT2DFI02L4OC","","img/set1/S3.jpg","72","3","structured_incentive","72","structured_incentive,random,structured_load,structured_normal","1,2,2,3,4,2","2,1,3,4","true","","",""
"null","","html-keyboard-response","134","666947","0.0-134.0","30MVJZJNHNZ0CR6AKJXH085YV6DJ9P","A5DZDONM2Y082","3URJ6VVYUP9BUCT1SZOT2DFI02L4OC","","<img src=""img/set1/S3.jpg"" width=""540"" height = ""360"" style=""border:16px solid orange"">","null","","","","","","","","","",""
"null","","html-keyboard-response","135","667160","0.0-135.0","30MVJZJNHNZ0CR6AKJXH085YV6DJ9P","A5DZDONM2Y082","3URJ6VVYUP9BUCT1SZOT2DFI02L4OC","","","null","","","","","","","","","",""
"581.9000000003725","","image-keyboard-response","136","667743","0.0-136.0","30MVJZJNHNZ0CR6AKJXH085YV6DJ9P","A5DZDONM2Y082","3URJ6VVYUP9BUCT1SZOT2DFI02L4OC","","img/set1/S2.jpg","68","2","structured_incentive","68","structured_incentive,random,structured_load,structured_normal","1,2,2,3,4,2","2,1,3,4","true","","",""
"null","","html-keyboard-response","137","668100","0.0-137.0","30MVJZJNHNZ0CR6AKJXH085YV6DJ9P","A5DZDONM2Y082","3URJ6VVYUP9BUCT1SZOT2DFI02L4OC","","<img src=""img/set1/S2.jpg"" width=""540"" height = ""360"" style=""border:16px solid orange"">","null","","","","","","","","","",""
"null","","html-keyboard-response","138","668313","0.0-138.0","30MVJZJNHNZ0CR6AKJXH085YV6DJ9P","A5DZDONM2Y082","3URJ6VVYUP9BUCT1SZOT2DFI02L4OC","","","null","","","","","","","","","",""
"658.4000000003725","","image-keyboard-response","139","668973","0.0-139.0","30MVJZJNHNZ0CR6AKJXH085YV6DJ9P","A5DZDONM2Y082","3URJ6VVYUP9BUCT1SZOT2DFI02L4OC","","img/set1/S3.jpg","72","3","structured_incentive","72","structured_incentive,random,structured_load,structured_normal","1,2,2,3,4,2","2,1,3,4","true","","",""
"null","","html-keyboard-response","140","669329","0.0-140.0","30MVJZJNHNZ0CR6AKJXH085YV6DJ9P","A5DZDONM2Y082","3URJ6VVYUP9BUCT1SZOT2DFI02L4OC","","<img src=""img/set1/S3.jpg"" width=""540"" height = ""360"" style=""border:16px solid orange"">","null","","","","","","","","","",""
"null","","html-keyboard-response","141","669542","0.0-141.0","30MVJZJNHNZ0CR6AKJXH085YV6DJ9P","A5DZDONM2Y082","3URJ6VVYUP9BUCT1SZOT2DFI02L4OC","","","null","","","","","","","","","",""
"629.9000000003725","","image-keyboard-response","142","670173","0.0-142.0","30MVJZJNHNZ0CR6AKJXH085YV6DJ9P","A5DZDONM2Y082","3URJ6VVYUP9BUCT1SZOT2DFI02L4OC","","img/set1/S4.jpg","74","4","structured_incentive","74","structured_incentive,random,structured_load,structured_normal","1,2,2,3,4,2","2,1,3,4","true","","",""
"null","","html-keyboard-response","143","670537","0.0-143.0","30MVJZJNHNZ0CR6AKJXH085YV6DJ9P","A5DZDONM2Y082","3URJ6VVYUP9BUCT1SZOT2DFI02L4OC","","<img src=""img/set1/S4.jpg"" width=""540"" height = ""360"" style=""border:16px solid Violet"">","null","","","","","","","","","",""
"null","","html-keyboard-response","144","670750","0.0-144.0","30MVJZJNHNZ0CR6AKJXH085YV6DJ9P","A5DZDONM2Y082","3URJ6VVYUP9BUCT1SZOT2DFI02L4OC","","","null","","","","","","","","","",""
"652","","image-keyboard-response","145","671403","0.0-145.0","30MVJZJNHNZ0CR6AKJXH085YV6DJ9P","A5DZDONM2Y082","3URJ6VVYUP9BUCT1SZOT2DFI02L4OC","","img/set1/S4.jpg","74","4","structured_incentive","74","structured_incentive,random,structured_load,structured_normal","1,2,2,3,4,2","2,1,3,4","true","","",""
"null","","html-keyboard-response","146","671759","0.0-146.0","30MVJZJNHNZ0CR6AKJXH085YV6DJ9P","A5DZDONM2Y082","3URJ6VVYUP9BUCT1SZOT2DFI02L4OC","","<img src=""img/set1/S4.jpg"" width=""540"" height = ""360"" style=""border:16px solid Violet"">","null","","","","","","","","","",""
"null","","html-keyboard-response","147","671973","0.0-147.0","30MVJZJNHNZ0CR6AKJXH085YV6DJ9P","A5DZDONM2Y082","3URJ6VVYUP9BUCT1SZOT2DFI02L4OC","","","null","","","","","","","","","",""
"1238.5","","image-keyboard-response","148","673212","0.0-148.0","30MVJZJNHNZ0CR6AKJXH085YV6DJ9P","A5DZDONM2Y082","3URJ6VVYUP9BUCT1SZOT2DFI02L4OC","","img/set1/S1.jpg","68","1","structured_incentive","83","structured_incentive,random,structured_load,structured_normal","1,2,2,3,4,2","2,1,3,4","false","","",""
"null","","html-keyboard-response","149","673565","0.0-149.0","30MVJZJNHNZ0CR6AKJXH085YV6DJ9P","A5DZDONM2Y082","3URJ6VVYUP9BUCT1SZOT2DFI02L4OC","","<img src=""img/set1/S1.jpg"" width=""540"" height = ""360"">","null","","","","","","","","","",""
"null","","html-keyboard-response","150","673778","0.0-150.0","30MVJZJNHNZ0CR6AKJXH085YV6DJ9P","A5DZDONM2Y082","3URJ6VVYUP9BUCT1SZOT2DFI02L4OC","","","null","","","","","","","","","",""
"1022.9000000003725","","image-keyboard-response","151","674802","0.0-151.0","30MVJZJNHNZ0CR6AKJXH085YV6DJ9P","A5DZDONM2Y082","3URJ6VVYUP9BUCT1SZOT2DFI02L4OC","","img/set1/S2.jpg","68","2","structured_incentive","68","structured_incentive,random,structured_load,structured_normal","1,2,2,3,4,2","2,1,3,4","true","","",""
"null","","html-keyboard-response","152","675155","0.0-152.0","30MVJZJNHNZ0CR6AKJXH085YV6DJ9P","A5DZDONM2Y082","3URJ6VVYUP9BUCT1SZOT2DFI02L4OC","","<img src=""img/set1/S2.jpg"" width=""540"" height = ""360"" style=""border:16px solid orange"">","null","","","","","","","","","",""
"null","","html-keyboard-response","153","675368","0.0-153.0","30MVJZJNHNZ0CR6AKJXH085YV6DJ9P","A5DZDONM2Y082","3URJ6VVYUP9BUCT1SZOT2DFI02L4OC","","","null","","","","","","","","","",""
"522.8000000007451","","image-keyboard-response","154","675892","0.0-154.0","30MVJZJNHNZ0CR6AKJXH085YV6DJ9P","A5DZDONM2Y082","3URJ6VVYUP9BUCT1SZOT2DFI02L4OC","","img/set1/S3.jpg","72","3","structured_incentive","72","structured_incentive,random,structured_load,structured_normal","1,2,2,3,4,2","2,1,3,4","true","","",""
"null","","html-keyboard-response","155","676245","0.0-155.0","30MVJZJNHNZ0CR6AKJXH085YV6DJ9P","A5DZDONM2Y082","3URJ6VVYUP9BUCT1SZOT2DFI02L4OC","","<img src=""img/set1/S3.jpg"" width=""540"" height = ""360"" style=""border:16px solid orange"">","null","","","","","","","","","",""
"null","","html-keyboard-response","156","676459","0.0-156.0","30MVJZJNHNZ0CR6AKJXH085YV6DJ9P","A5DZDONM2Y082","3URJ6VVYUP9BUCT1SZOT2DFI02L4OC","","","null","","","","","","","","","",""
"592.2000000001863","","image-keyboard-response","157","677052","0.0-157.0","30MVJZJNHNZ0CR6AKJXH085YV6DJ9P","A5DZDONM2Y082","3URJ6VVYUP9BUCT1SZOT2DFI02L4OC","","img/set1/S3.jpg","72","3","structured_incentive","72","structured_incentive,random,structured_load,structured_normal","1,2,2,3,4,2","2,1,3,4","true","","",""
"null","","html-keyboard-response","158","677405","0.0-158.0","30MVJZJNHNZ0CR6AKJXH085YV6DJ9P","A5DZDONM2Y082","3URJ6VVYUP9BUCT1SZOT2DFI02L4OC","","<img src=""img/set1/S3.jpg"" width=""540"" height = ""360"" style=""border:16px solid orange"">","null","","","","","","","","","",""
"null","","html-keyboard-response","159","677618","0.0-159.0","30MVJZJNHNZ0CR6AKJXH085YV6DJ9P","A5DZDONM2Y082","3URJ6VVYUP9BUCT1SZOT2DFI02L4OC","","","null","","","","","","","","","",""
"572.5","","image-keyboard-response","160","678192","0.0-160.0","30MVJZJNHNZ0CR6AKJXH085YV6DJ9P","A5DZDONM2Y082","3URJ6VVYUP9BUCT1SZOT2DFI02L4OC","","img/set1/S4.jpg","74","4","structured_incentive","74","structured_incentive,random,structured_load,structured_normal","1,2,2,3,4,2","2,1,3,4","true","","",""
"null","","html-keyboard-response","161","678560","0.0-161.0","30MVJZJNHNZ0CR6AKJXH085YV6DJ9P","A5DZDONM2Y082","3URJ6VVYUP9BUCT1SZOT2DFI02L4OC","","<img src=""img/set1/S4.jpg"" width=""540"" height = ""360"" style=""border:16px solid Violet"">","null","","","","","","","","","",""
"null","","html-keyboard-response","162","678771","0.0-162.0","30MVJZJNHNZ0CR6AKJXH085YV6DJ9P","A5DZDONM2Y082","3URJ6VVYUP9BUCT1SZOT2DFI02L4OC","","","null","","","","","","","","","",""
"1039.9000000003725","","image-keyboard-response","163","679812","0.0-163.0","30MVJZJNHNZ0CR6AKJXH085YV6DJ9P","A5DZDONM2Y082","3URJ6VVYUP9BUCT1SZOT2DFI02L4OC","","img/set1/S1.jpg","68","1","structured_incentive","83","structured_incentive,random,structured_load,structured_normal","1,2,2,3,4,2","2,1,3,4","false","","",""
"null","","html-keyboard-response","164","680176","0.0-164.0","30MVJZJNHNZ0CR6AKJXH085YV6DJ9P","A5DZDONM2Y082","3URJ6VVYUP9BUCT1SZOT2DFI02L4OC","","<img src=""img/set1/S1.jpg"" width=""540"" height = ""360"">","null","","","","","","","","","",""
"null","","html-keyboard-response","165","680389","0.0-165.0","30MVJZJNHNZ0CR6AKJXH085YV6DJ9P","A5DZDONM2Y082","3URJ6VVYUP9BUCT1SZOT2DFI02L4OC","","","null","","","","","","","","","",""
"901.5999999996275","","image-keyboard-response","166","681292","0.0-166.0","30MVJZJNHNZ0CR6AKJXH085YV6DJ9P","A5DZDONM2Y082","3URJ6VVYUP9BUCT1SZOT2DFI02L4OC","","img/set1/S2.jpg","68","2","structured_incentive","68","structured_incentive,random,structured_load,structured_normal","1,2,2,3,4,2","2,1,3,4","true","","",""
"null","","html-keyboard-response","167","681648","0.0-167.0","30MVJZJNHNZ0CR6AKJXH085YV6DJ9P","A5DZDONM2Y082","3URJ6VVYUP9BUCT1SZOT2DFI02L4OC","","<img src=""img/set1/S2.jpg"" width=""540"" height = ""360"" style=""border:16px solid orange"">","null","","","","","","","","","",""
"null","","html-keyboard-response","168","681862","0.0-168.0","30MVJZJNHNZ0CR6AKJXH085YV6DJ9P","A5DZDONM2Y082","3URJ6VVYUP9BUCT1SZOT2DFI02L4OC","","","null","","","","","","","","","",""
"859.5","","image-keyboard-response","169","682722","0.0-169.0","30MVJZJNHNZ0CR6AKJXH085YV6DJ9P","A5DZDONM2Y082","3URJ6VVYUP9BUCT1SZOT2DFI02L4OC","","img/set1/S3.jpg","72","3","structured_incentive","72","structured_incentive,random,structured_load,structured_normal","1,2,2,3,4,2","2,1,3,4","true","","",""
"null","","html-keyboard-response","170","683079","0.0-170.0","30MVJZJNHNZ0CR6AKJXH085YV6DJ9P","A5DZDONM2Y082","3URJ6VVYUP9BUCT1SZOT2DFI02L4OC","","<img src=""img/set1/S3.jpg"" width=""540"" height = ""360"" style=""border:16px solid orange"">","null","","","","","","","","","",""
"null","","html-keyboard-response","171","683292","0.0-171.0","30MVJZJNHNZ0CR6AKJXH085YV6DJ9P","A5DZDONM2Y082","3URJ6VVYUP9BUCT1SZOT2DFI02L4OC","","","null","","","","","","","","","",""
"528.8999999994412","","image-keyboard-response","172","683822","0.0-172.0","30MVJZJNHNZ0CR6AKJXH085YV6DJ9P","A5DZDONM2Y082","3URJ6VVYUP9BUCT1SZOT2DFI02L4OC","","img/set1/S3.jpg","72","3","structured_incentive","72","structured_incentive,random,structured_load,structured_normal","1,2,2,3,4,2","2,1,3,4","true","","",""
"null","","html-keyboard-response","173","684176","0.0-173.0","30MVJZJNHNZ0CR6AKJXH085YV6DJ9P","A5DZDONM2Y082","3URJ6VVYUP9BUCT1SZOT2DFI02L4OC","","<img src=""img/set1/S3.jpg"" width=""540"" height = ""360"" style=""border:16px solid orange"">","null","","","","","","","","","",""
"null","","html-keyboard-response","174","684389","0.0-174.0","30MVJZJNHNZ0CR6AKJXH085YV6DJ9P","A5DZDONM2Y082","3URJ6VVYUP9BUCT1SZOT2DFI02L4OC","","","null","","","","","","","","","",""
"711.7000000001863","","image-keyboard-response","175","685102","0.0-175.0","30MVJZJNHNZ0CR6AKJXH085YV6DJ9P","A5DZDONM2Y082","3URJ6VVYUP9BUCT1SZOT2DFI02L4OC","","img/set1/S3.jpg","72","3","structured_incentive","72","structured_incentive,random,structured_load,structured_normal","1,2,2,3,4,2","2,1,3,4","true","","",""
"null","","html-keyboard-response","176","685454","0.0-176.0","30MVJZJNHNZ0CR6AKJXH085YV6DJ9P","A5DZDONM2Y082","3URJ6VVYUP9BUCT1SZOT2DFI02L4OC","","<img src=""img/set1/S3.jpg"" width=""540"" height = ""360"" style=""border:16px solid orange"">","null","","","","","","","","","",""
"null","","html-keyboard-response","177","685667","0.0-177.0","30MVJZJNHNZ0CR6AKJXH085YV6DJ9P","A5DZDONM2Y082","3URJ6VVYUP9BUCT1SZOT2DFI02L4OC","","","null","","","","","","","","","",""
"633","","image-keyboard-response","178","686301","0.0-178.0","30MVJZJNHNZ0CR6AKJXH085YV6DJ9P","A5DZDONM2Y082","3URJ6VVYUP9BUCT1SZOT2DFI02L4OC","","img/set1/S4.jpg","74","4","structured_incentive","74","structured_incentive,random,structured_load,structured_normal","1,2,2,3,4,2","2,1,3,4","true","","",""
"null","","html-keyboard-response","179","686655","0.0-179.0","30MVJZJNHNZ0CR6AKJXH085YV6DJ9P","A5DZDONM2Y082","3URJ6VVYUP9BUCT1SZOT2DFI02L4OC","","<img src=""img/set1/S4.jpg"" width=""540"" height = ""360"" style=""border:16px solid Violet"">","null","","","","","","","","","",""
"null","","html-keyboard-response","180","686869","0.0-180.0","30MVJZJNHNZ0CR6AKJXH085YV6DJ9P","A5DZDONM2Y082","3URJ6VVYUP9BUCT1SZOT2DFI02L4OC","","","null","","","","","","","","","",""
"591.4000000003725","","image-keyboard-response","181","687461","0.0-181.0","30MVJZJNHNZ0CR6AKJXH085YV6DJ9P","A5DZDONM2Y082","3URJ6VVYUP9BUCT1SZOT2DFI02L4OC","","img/set1/S4.jpg","74","4","structured_incentive","74","structured_incentive,random,structured_load,structured_normal","1,2,2,3,4,2","2,1,3,4","true","","",""
"null","","html-keyboard-response","182","687814","0.0-182.0","30MVJZJNHNZ0CR6AKJXH085YV6DJ9P","A5DZDONM2Y082","3URJ6VVYUP9BUCT1SZOT2DFI02L4OC","","<img src=""img/set1/S4.jpg"" width=""540"" height = ""360"" style=""border:16px solid Violet"">","null","","","","","","","","","",""
"null","","html-keyboard-response","183","688028","0.0-183.0","30MVJZJNHNZ0CR6AKJXH085YV6DJ9P","A5DZDONM2Y082","3URJ6VVYUP9BUCT1SZOT2DFI02L4OC","","","null","","","","","","","","","",""
"1411.7999999998137","","image-keyboard-response","184","689441","0.0-184.0","30MVJZJNHNZ0CR6AKJXH085YV6DJ9P","A5DZDONM2Y082","3URJ6VVYUP9BUCT1SZOT2DFI02L4OC","","img/set1/S1.jpg","74","1","structured_incentive","83","structured_incentive,random,structured_load,structured_normal","1,2,2,3,4,2","2,1,3,4","false","","",""
"null","","html-keyboard-response","185","689794","0.0-185.0","30MVJZJNHNZ0CR6AKJXH085YV6DJ9P","A5DZDONM2Y082","3URJ6VVYUP9BUCT1SZOT2DFI02L4OC","","<img src=""img/set1/S1.jpg"" width=""540"" height = ""360"">","null","","","","","","","","","",""
"null","","html-keyboard-response","186","690007","0.0-186.0","30MVJZJNHNZ0CR6AKJXH085YV6DJ9P","A5DZDONM2Y082","3URJ6VVYUP9BUCT1SZOT2DFI02L4OC","","","null","","","","","","","","","",""
"762.6000000005588","","image-keyboard-response","187","690771","0.0-187.0","30MVJZJNHNZ0CR6AKJXH085YV6DJ9P","A5DZDONM2Y082","3URJ6VVYUP9BUCT1SZOT2DFI02L4OC","","img/set1/S4.jpg","74","4","structured_incentive","74","structured_incentive,random,structured_load,structured_normal","1,2,2,3,4,2","2,1,3,4","true","","",""
"null","","html-keyboard-response","188","691127","0.0-188.0","30MVJZJNHNZ0CR6AKJXH085YV6DJ9P","A5DZDONM2Y082","3URJ6VVYUP9BUCT1SZOT2DFI02L4OC","","<img src=""img/set1/S4.jpg"" width=""540"" height = ""360"" style=""border:16px solid Violet"">","null","","","","","","","","","",""
"null","","html-keyboard-response","189","691341","0.0-189.0","30MVJZJNHNZ0CR6AKJXH085YV6DJ9P","A5DZDONM2Y082","3URJ6VVYUP9BUCT1SZOT2DFI02L4OC","","","null","","","","","","","","","",""
"569.1000000005588","","image-keyboard-response","190","691911","0.0-190.0","30MVJZJNHNZ0CR6AKJXH085YV6DJ9P","A5DZDONM2Y082","3URJ6VVYUP9BUCT1SZOT2DFI02L4OC","","img/set1/S4.jpg","74","4","structured_incentive","74","structured_incentive,random,structured_load,structured_normal","1,2,2,3,4,2","2,1,3,4","true","","",""
"null","","html-keyboard-response","191","692266","0.0-191.0","30MVJZJNHNZ0CR6AKJXH085YV6DJ9P","A5DZDONM2Y082","3URJ6VVYUP9BUCT1SZOT2DFI02L4OC","","<img src=""img/set1/S4.jpg"" width=""540"" height = ""360"" style=""border:16px solid Violet"">","null","","","","","","","","","",""
"null","","html-keyboard-response","192","692480","0.0-192.0","30MVJZJNHNZ0CR6AKJXH085YV6DJ9P","A5DZDONM2Y082","3URJ6VVYUP9BUCT1SZOT2DFI02L4OC","","","null","","","","","","","","","",""
"630.1999999992549","","image-keyboard-response","193","693111","0.0-193.0","30MVJZJNHNZ0CR6AKJXH085YV6DJ9P","A5DZDONM2Y082","3URJ6VVYUP9BUCT1SZOT2DFI02L4OC","","img/set1/S1.jpg","72","1","structured_incentive","83","structured_incentive,random,structured_load,structured_normal","1,2,2,3,4,2","2,1,3,4","false","","",""
"null","","html-keyboard-response","194","693475","0.0-194.0","30MVJZJNHNZ0CR6AKJXH085YV6DJ9P","A5DZDONM2Y082","3URJ6VVYUP9BUCT1SZOT2DFI02L4OC","","<img src=""img/set1/S1.jpg"" width=""540"" height = ""360"">","null","","","","","","","","","",""
"null","","html-keyboard-response","195","693688","0.0-195.0","30MVJZJNHNZ0CR6AKJXH085YV6DJ9P","A5DZDONM2Y082","3URJ6VVYUP9BUCT1SZOT2DFI02L4OC","","","null","","","","","","","","","",""
"632","","image-keyboard-response","196","694321","0.0-196.0","30MVJZJNHNZ0CR6AKJXH085YV6DJ9P","A5DZDONM2Y082","3URJ6VVYUP9BUCT1SZOT2DFI02L4OC","","img/set1/S4.jpg","74","4","structured_incentive","74","structured_incentive,random,structured_load,structured_normal","1,2,2,3,4,2","2,1,3,4","true","","",""
"null","","html-keyboard-response","197","694676","0.0-197.0","30MVJZJNHNZ0CR6AKJXH085YV6DJ9P","A5DZDONM2Y082","3URJ6VVYUP9BUCT1SZOT2DFI02L4OC","","<img src=""img/set1/S4.jpg"" width=""540"" height = ""360"" style=""border:16px solid Violet"">","null","","","","","","","","","",""
"null","","html-keyboard-response","198","694889","0.0-198.0","30MVJZJNHNZ0CR6AKJXH085YV6DJ9P","A5DZDONM2Y082","3URJ6VVYUP9BUCT1SZOT2DFI02L4OC","","","null","","","","","","","","","",""
"700.6000000005588","","image-keyboard-response","199","695591","0.0-199.0","30MVJZJNHNZ0CR6AKJXH085YV6DJ9P","A5DZDONM2Y082","3URJ6VVYUP9BUCT1SZOT2DFI02L4OC","","img/set1/S3.jpg","72","3","structured_incentive","72","structured_incentive,random,structured_load,structured_normal","1,2,2,3,4,2","2,1,3,4","true","","",""
"null","","html-keyboard-response","200","695947","0.0-200.0","30MVJZJNHNZ0CR6AKJXH085YV6DJ9P","A5DZDONM2Y082","3URJ6VVYUP9BUCT1SZOT2DFI02L4OC","","<img src=""img/set1/S3.jpg"" width=""540"" height = ""360"" style=""border:16px solid orange"">","null","","","","","","","","","",""
"null","","html-keyboard-response","201","696160","0.0-201.0","30MVJZJNHNZ0CR6AKJXH085YV6DJ9P","A5DZDONM2Y082","3URJ6VVYUP9BUCT1SZOT2DFI02L4OC","","","null","","","","","","","","","",""
"989.7999999998137","","image-keyboard-response","202","697151","0.0-202.0","30MVJZJNHNZ0CR6AKJXH085YV6DJ9P","A5DZDONM2Y082","3URJ6VVYUP9BUCT1SZOT2DFI02L4OC","","img/set1/S2.jpg","68","2","structured_incentive","68","structured_incentive,random,structured_load,structured_normal","1,2,2,3,4,2","2,1,3,4","true","","",""
"null","","html-keyboard-response","203","697502","0.0-203.0","30MVJZJNHNZ0CR6AKJXH085YV6DJ9P","A5DZDONM2Y082","3URJ6VVYUP9BUCT1SZOT2DFI02L4OC","","<img src=""img/set1/S2.jpg"" width=""540"" height = ""360"" style=""border:16px solid orange"">","null","","","","","","","","","",""
"null","","html-keyboard-response","204","697716","0.0-204.0","30MVJZJNHNZ0CR6AKJXH085YV6DJ9P","A5DZDONM2Y082","3URJ6VVYUP9BUCT1SZOT2DFI02L4OC","","","null","","","","","","","","","",""
"613.5","","image-keyboard-response","205","698330","0.0-205.0","30MVJZJNHNZ0CR6AKJXH085YV6DJ9P","A5DZDONM2Y082","3URJ6VVYUP9BUCT1SZOT2DFI02L4OC","","img/set1/S3.jpg","72","3","structured_incentive","72","structured_incentive,random,structured_load,structured_normal","1,2,2,3,4,2","2,1,3,4","true","","",""
"null","","html-keyboard-response","206","698683","0.0-206.0","30MVJZJNHNZ0CR6AKJXH085YV6DJ9P","A5DZDONM2Y082","3URJ6VVYUP9BUCT1SZOT2DFI02L4OC","","<img src=""img/set1/S3.jpg"" width=""540"" height = ""360"" style=""border:16px solid orange"">","null","","","","","","","","","",""
"null","","html-keyboard-response","207","698896","0.0-207.0","30MVJZJNHNZ0CR6AKJXH085YV6DJ9P","A5DZDONM2Y082","3URJ6VVYUP9BUCT1SZOT2DFI02L4OC","","","null","","","","","","","","","",""
"702.5","","image-keyboard-response","208","699600","0.0-208.0","30MVJZJNHNZ0CR6AKJXH085YV6DJ9P","A5DZDONM2Y082","3URJ6VVYUP9BUCT1SZOT2DFI02L4OC","","img/set1/S1.jpg","68","1","structured_incentive","83","structured_incentive,random,structured_load,structured_normal","1,2,2,3,4,2","2,1,3,4","false","","",""
"null","","html-keyboard-response","209","699954","0.0-209.0","30MVJZJNHNZ0CR6AKJXH085YV6DJ9P","A5DZDONM2Y082","3URJ6VVYUP9BUCT1SZOT2DFI02L4OC","","<img src=""img/set1/S1.jpg"" width=""540"" height = ""360"">","null","","","","","","","","","",""
"null","","html-keyboard-response","210","700167","0.0-210.0","30MVJZJNHNZ0CR6AKJXH085YV6DJ9P","A5DZDONM2Y082","3URJ6VVYUP9BUCT1SZOT2DFI02L4OC","","","null","","","","","","","","","",""
"791.9000000003725","","image-keyboard-response","211","700960","0.0-211.0","30MVJZJNHNZ0CR6AKJXH085YV6DJ9P","A5DZDONM2Y082","3URJ6VVYUP9BUCT1SZOT2DFI02L4OC","","img/set1/S2.jpg","72","2","structured_incentive","68","structured_incentive,random,structured_load,structured_normal","1,2,2,3,4,2","2,1,3,4","false","","",""
"null","","html-keyboard-response","212","701315","0.0-212.0","30MVJZJNHNZ0CR6AKJXH085YV6DJ9P","A5DZDONM2Y082","3URJ6VVYUP9BUCT1SZOT2DFI02L4OC","","<img src=""img/set1/S2.jpg"" width=""540"" height = ""360"">","null","","","","","","","","","",""
"null","","html-keyboard-response","213","701528","0.0-213.0","30MVJZJNHNZ0CR6AKJXH085YV6DJ9P","A5DZDONM2Y082","3URJ6VVYUP9BUCT1SZOT2DFI02L4OC","","","null","","","","","","","","","",""
"630.6000000005588","","image-keyboard-response","214","702160","0.0-214.0","30MVJZJNHNZ0CR6AKJXH085YV6DJ9P","A5DZDONM2Y082","3URJ6VVYUP9BUCT1SZOT2DFI02L4OC","","img/set1/S4.jpg","74","4","structured_incentive","74","structured_incentive,random,structured_load,structured_normal","1,2,2,3,4,2","2,1,3,4","true","","",""
"null","","html-keyboard-response","215","702516","0.0-215.0","30MVJZJNHNZ0CR6AKJXH085YV6DJ9P","A5DZDONM2Y082","3URJ6VVYUP9BUCT1SZOT2DFI02L4OC","","<img src=""img/set1/S4.jpg"" width=""540"" height = ""360"" style=""border:16px solid Violet"">","null","","","","","","","","","",""
"null","","html-keyboard-response","216","702730","0.0-216.0","30MVJZJNHNZ0CR6AKJXH085YV6DJ9P","A5DZDONM2Y082","3URJ6VVYUP9BUCT1SZOT2DFI02L4OC","","","null","","","","","","","","","",""
"829.2000000001863","","image-keyboard-response","217","703560","0.0-217.0","30MVJZJNHNZ0CR6AKJXH085YV6DJ9P","A5DZDONM2Y082","3URJ6VVYUP9BUCT1SZOT2DFI02L4OC","","img/set1/S1.jpg","83","1","structured_incentive","83","structured_incentive,random,structured_load,structured_normal","1,2,2,3,4,2","2,1,3,4","true","","",""
"null","","html-keyboard-response","218","703912","0.0-218.0","30MVJZJNHNZ0CR6AKJXH085YV6DJ9P","A5DZDONM2Y082","3URJ6VVYUP9BUCT1SZOT2DFI02L4OC","","<img src=""img/set1/S1.jpg"" width=""540"" height = ""360"" style=""border:16px solid orange"">","null","","","","","","","","","",""
"null","","html-keyboard-response","219","704125","0.0-219.0","30MVJZJNHNZ0CR6AKJXH085YV6DJ9P","A5DZDONM2Y082","3URJ6VVYUP9BUCT1SZOT2DFI02L4OC","","","null","","","","","","","","","",""
"863.5","","image-keyboard-response","220","704990","0.0-220.0","30MVJZJNHNZ0CR6AKJXH085YV6DJ9P","A5DZDONM2Y082","3URJ6VVYUP9BUCT1SZOT2DFI02L4OC","","img/set1/S2.jpg","68","2","structured_incentive","68","structured_incentive,random,structured_load,structured_normal","1,2,2,3,4,2","2,1,3,4","true","","",""
"null","","html-keyboard-response","221","705343","0.0-221.0","30MVJZJNHNZ0CR6AKJXH085YV6DJ9P","A5DZDONM2Y082","3URJ6VVYUP9BUCT1SZOT2DFI02L4OC","","<img src=""img/set1/S2.jpg"" width=""540"" height = ""360"" style=""border:16px solid orange"">","null","","","","","","","","","",""
"null","","html-keyboard-response","222","705556","0.0-222.0","30MVJZJNHNZ0CR6AKJXH085YV6DJ9P","A5DZDONM2Y082","3URJ6VVYUP9BUCT1SZOT2DFI02L4OC","","","null","","","","","","","","","",""
"682.7999999998137","","image-keyboard-response","223","706240","0.0-223.0","30MVJZJNHNZ0CR6AKJXH085YV6DJ9P","A5DZDONM2Y082","3URJ6VVYUP9BUCT1SZOT2DFI02L4OC","","img/set1/S4.jpg","74","4","structured_incentive","74","structured_incentive,random,structured_load,structured_normal","1,2,2,3,4,2","2,1,3,4","true","","",""
"null","","html-keyboard-response","224","706592","0.0-224.0","30MVJZJNHNZ0CR6AKJXH085YV6DJ9P","A5DZDONM2Y082","3URJ6VVYUP9BUCT1SZOT2DFI02L4OC","","<img src=""img/set1/S4.jpg"" width=""540"" height = ""360"" style=""border:16px solid Violet"">","null","","","","","","","","","",""
"null","","html-keyboard-response","225","706806","0.0-225.0","30MVJZJNHNZ0CR6AKJXH085YV6DJ9P","A5DZDONM2Y082","3URJ6VVYUP9BUCT1SZOT2DFI02L4OC","","","null","","","","","","","","","",""
"542.8999999994412","","image-keyboard-response","226","707350","0.0-226.0","30MVJZJNHNZ0CR6AKJXH085YV6DJ9P","A5DZDONM2Y082","3URJ6VVYUP9BUCT1SZOT2DFI02L4OC","","img/set1/S4.jpg","74","4","structured_incentive","74","structured_incentive,random,structured_load,structured_normal","1,2,2,3,4,2","2,1,3,4","true","","",""
"null","","html-keyboard-response","227","707703","0.0-227.0","30MVJZJNHNZ0CR6AKJXH085YV6DJ9P","A5DZDONM2Y082","3URJ6VVYUP9BUCT1SZOT2DFI02L4OC","","<img src=""img/set1/S4.jpg"" width=""540"" height = ""360"" style=""border:16px solid Violet"">","null","","","","","","","","","",""
"null","","html-keyboard-response","228","707917","0.0-228.0","30MVJZJNHNZ0CR6AKJXH085YV6DJ9P","A5DZDONM2Y082","3URJ6VVYUP9BUCT1SZOT2DFI02L4OC","","","null","","","","","","","","","",""
"841.7999999998137","","image-keyboard-response","229","708760","0.0-229.0","30MVJZJNHNZ0CR6AKJXH085YV6DJ9P","A5DZDONM2Y082","3URJ6VVYUP9BUCT1SZOT2DFI02L4OC","","img/set1/S1.jpg","83","1","structured_incentive","83","structured_incentive,random,structured_load,structured_normal","1,2,2,3,4,2","2,1,3,4","true","","",""
"null","","html-keyboard-response","230","709113","0.0-230.0","30MVJZJNHNZ0CR6AKJXH085YV6DJ9P","A5DZDONM2Y082","3URJ6VVYUP9BUCT1SZOT2DFI02L4OC","","<img src=""img/set1/S1.jpg"" width=""540"" height = ""360"" style=""border:16px solid orange"">","null","","","","","","","","","",""
"null","","html-keyboard-response","231","709327","0.0-231.0","30MVJZJNHNZ0CR6AKJXH085YV6DJ9P","A5DZDONM2Y082","3URJ6VVYUP9BUCT1SZOT2DFI02L4OC","","","null","","","","","","","","","",""
"581","","image-keyboard-response","232","709908","0.0-232.0","30MVJZJNHNZ0CR6AKJXH085YV6DJ9P","A5DZDONM2Y082","3URJ6VVYUP9BUCT1SZOT2DFI02L4OC","","img/set1/S2.jpg","68","2","structured_incentive","68","structured_incentive,random,structured_load,structured_normal","1,2,2,3,4,2","2,1,3,4","true","","",""
"null","","html-keyboard-response","233","710273","0.0-233.0","30MVJZJNHNZ0CR6AKJXH085YV6DJ9P","A5DZDONM2Y082","3URJ6VVYUP9BUCT1SZOT2DFI02L4OC","","<img src=""img/set1/S2.jpg"" width=""540"" height = ""360"" style=""border:16px solid orange"">","null","","","","","","","","","",""
"null","","html-keyboard-response","234","710486","0.0-234.0","30MVJZJNHNZ0CR6AKJXH085YV6DJ9P","A5DZDONM2Y082","3URJ6VVYUP9BUCT1SZOT2DFI02L4OC","","","null","","","","","","","","","",""
"591.2999999998137","","image-keyboard-response","235","711079","0.0-235.0","30MVJZJNHNZ0CR6AKJXH085YV6DJ9P","A5DZDONM2Y082","3URJ6VVYUP9BUCT1SZOT2DFI02L4OC","","img/set1/S1.jpg","83","1","structured_incentive","83","structured_incentive,random,structured_load,structured_normal","1,2,2,3,4,2","2,1,3,4","true","","",""
"null","","html-keyboard-response","236","711433","0.0-236.0","30MVJZJNHNZ0CR6AKJXH085YV6DJ9P","A5DZDONM2Y082","3URJ6VVYUP9BUCT1SZOT2DFI02L4OC","","<img src=""img/set1/S1.jpg"" width=""540"" height = ""360"" style=""border:16px solid orange"">","null","","","","","","","","","",""
"null","","html-keyboard-response","237","711646","0.0-237.0","30MVJZJNHNZ0CR6AKJXH085YV6DJ9P","A5DZDONM2Y082","3URJ6VVYUP9BUCT1SZOT2DFI02L4OC","","","null","","","","","","","","","",""
"631.6000000005588","","image-keyboard-response","238","712279","0.0-238.0","30MVJZJNHNZ0CR6AKJXH085YV6DJ9P","A5DZDONM2Y082","3URJ6VVYUP9BUCT1SZOT2DFI02L4OC","","img/set1/S2.jpg","68","2","structured_incentive","68","structured_incentive,random,structured_load,structured_normal","1,2,2,3,4,2","2,1,3,4","true","","",""
"null","","html-keyboard-response","239","712643","0.0-239.0","30MVJZJNHNZ0CR6AKJXH085YV6DJ9P","A5DZDONM2Y082","3URJ6VVYUP9BUCT1SZOT2DFI02L4OC","","<img src=""img/set1/S2.jpg"" width=""540"" height = ""360"" style=""border:16px solid orange"">","null","","","","","","","","","",""
"null","","html-keyboard-response","240","712848","0.0-240.0","30MVJZJNHNZ0CR6AKJXH085YV6DJ9P","A5DZDONM2Y082","3URJ6VVYUP9BUCT1SZOT2DFI02L4OC","","","null","","","","","","","","","",""
"539.9000000003725","","image-keyboard-response","241","713388","0.0-241.0","30MVJZJNHNZ0CR6AKJXH085YV6DJ9P","A5DZDONM2Y082","3URJ6VVYUP9BUCT1SZOT2DFI02L4OC","","img/set1/S3.jpg","72","3","structured_incentive","72","structured_incentive,random,structured_load,structured_normal","1,2,2,3,4,2","2,1,3,4","true","","",""
"null","","html-keyboard-response","242","713745","0.0-242.0","30MVJZJNHNZ0CR6AKJXH085YV6DJ9P","A5DZDONM2Y082","3URJ6VVYUP9BUCT1SZOT2DFI02L4OC","","<img src=""img/set1/S3.jpg"" width=""540"" height = ""360"" style=""border:16px solid orange"">","null","","","","","","","","","",""
"null","","html-keyboard-response","243","713951","0.0-243.0","30MVJZJNHNZ0CR6AKJXH085YV6DJ9P","A5DZDONM2Y082","3URJ6VVYUP9BUCT1SZOT2DFI02L4OC","","","null","","","","","","","","","",""
"556.2000000001863","","image-keyboard-response","244","714509","0.0-244.0","30MVJZJNHNZ0CR6AKJXH085YV6DJ9P","A5DZDONM2Y082","3URJ6VVYUP9BUCT1SZOT2DFI02L4OC","","img/set1/S3.jpg","72","3","structured_incentive","72","structured_incentive,random,structured_load,structured_normal","1,2,2,3,4,2","2,1,3,4","true","","",""
"null","","html-keyboard-response","245","714872","0.0-245.0","30MVJZJNHNZ0CR6AKJXH085YV6DJ9P","A5DZDONM2Y082","3URJ6VVYUP9BUCT1SZOT2DFI02L4OC","","<img src=""img/set1/S3.jpg"" width=""540"" height = ""360"" style=""border:16px solid orange"">","null","","","","","","","","","",""
"null","","html-keyboard-response","246","715077","0.0-246.0","30MVJZJNHNZ0CR6AKJXH085YV6DJ9P","A5DZDONM2Y082","3URJ6VVYUP9BUCT1SZOT2DFI02L4OC","","","null","","","","","","","","","",""
"550.7999999998137","","image-keyboard-response","247","715629","0.0-247.0","30MVJZJNHNZ0CR6AKJXH085YV6DJ9P","A5DZDONM2Y082","3URJ6VVYUP9BUCT1SZOT2DFI02L4OC","","img/set1/S4.jpg","74","4","structured_incentive","74","structured_incentive,random,structured_load,structured_normal","1,2,2,3,4,2","2,1,3,4","true","","",""
"null","","html-keyboard-response","248","715990","0.0-248.0","30MVJZJNHNZ0CR6AKJXH085YV6DJ9P","A5DZDONM2Y082","3URJ6VVYUP9BUCT1SZOT2DFI02L4OC","","<img src=""img/set1/S4.jpg"" width=""540"" height = ""360"" style=""border:16px solid Violet"">","null","","","","","","","","","",""
"null","","html-keyboard-response","249","716195","0.0-249.0","30MVJZJNHNZ0CR6AKJXH085YV6DJ9P","A5DZDONM2Y082","3URJ6VVYUP9BUCT1SZOT2DFI02L4OC","","","null","","","","","","","","","",""
"863","","image-keyboard-response","250","717059","0.0-250.0","30MVJZJNHNZ0CR6AKJXH085YV6DJ9P","A5DZDONM2Y082","3URJ6VVYUP9BUCT1SZOT2DFI02L4OC","","img/set1/S1.jpg","83","1","structured_incentive","83","structured_incentive,random,structured_load,structured_normal","1,2,2,3,4,2","2,1,3,4","true","","",""
"null","","html-keyboard-response","251","717421","0.0-251.0","30MVJZJNHNZ0CR6AKJXH085YV6DJ9P","A5DZDONM2Y082","3URJ6VVYUP9BUCT1SZOT2DFI02L4OC","","<img src=""img/set1/S1.jpg"" width=""540"" height = ""360"" style=""border:16px solid orange"">","null","","","","","","","","","",""
"null","","html-keyboard-response","252","717625","0.0-252.0","30MVJZJNHNZ0CR6AKJXH085YV6DJ9P","A5DZDONM2Y082","3URJ6VVYUP9BUCT1SZOT2DFI02L4OC","","","null","","","","","","","","","",""
"462.20000000018626","","image-keyboard-response","253","718088","0.0-253.0","30MVJZJNHNZ0CR6AKJXH085YV6DJ9P","A5DZDONM2Y082","3URJ6VVYUP9BUCT1SZOT2DFI02L4OC","","img/set1/S2.jpg","68","2","structured_incentive","68","structured_incentive,random,structured_load,structured_normal","1,2,2,3,4,2","2,1,3,4","true","","",""
"null","","html-keyboard-response","254","718455","0.0-254.0","30MVJZJNHNZ0CR6AKJXH085YV6DJ9P","A5DZDONM2Y082","3URJ6VVYUP9BUCT1SZOT2DFI02L4OC","","<img src=""img/set1/S2.jpg"" width=""540"" height = ""360"" style=""border:16px solid orange"">","null","","","","","","","","","",""
"null","","html-keyboard-response","255","718660","0.0-255.0","30MVJZJNHNZ0CR6AKJXH085YV6DJ9P","A5DZDONM2Y082","3URJ6VVYUP9BUCT1SZOT2DFI02L4OC","","","null","","","","","","","","","",""
"568.5","","image-keyboard-response","256","719229","0.0-256.0","30MVJZJNHNZ0CR6AKJXH085YV6DJ9P","A5DZDONM2Y082","3URJ6VVYUP9BUCT1SZOT2DFI02L4OC","","img/set1/S4.jpg","74","4","structured_incentive","74","structured_incentive,random,structured_load,structured_normal","1,2,2,3,4,2","2,1,3,4","true","","",""
"null","","html-keyboard-response","257","719594","0.0-257.0","30MVJZJNHNZ0CR6AKJXH085YV6DJ9P","A5DZDONM2Y082","3URJ6VVYUP9BUCT1SZOT2DFI02L4OC","","<img src=""img/set1/S4.jpg"" width=""540"" height = ""360"" style=""border:16px solid Violet"">","null","","","","","","","","","",""
"null","","html-keyboard-response","258","719799","0.0-258.0","30MVJZJNHNZ0CR6AKJXH085YV6DJ9P","A5DZDONM2Y082","3URJ6VVYUP9BUCT1SZOT2DFI02L4OC","","","null","","","","","","","","","",""
"518.5999999996275","","image-keyboard-response","259","720318","0.0-259.0","30MVJZJNHNZ0CR6AKJXH085YV6DJ9P","A5DZDONM2Y082","3URJ6VVYUP9BUCT1SZOT2DFI02L4OC","","img/set1/S4.jpg","74","4","structured_incentive","74","structured_incentive,random,structured_load,structured_normal","1,2,2,3,4,2","2,1,3,4","true","","",""
"null","","html-keyboard-response","260","720683","0.0-260.0","30MVJZJNHNZ0CR6AKJXH085YV6DJ9P","A5DZDONM2Y082","3URJ6VVYUP9BUCT1SZOT2DFI02L4OC","","<img src=""img/set1/S4.jpg"" width=""540"" height = ""360"" style=""border:16px solid Violet"">","null","","","","","","","","","",""
"null","","html-keyboard-response","261","720889","0.0-261.0","30MVJZJNHNZ0CR6AKJXH085YV6DJ9P","A5DZDONM2Y082","3URJ6VVYUP9BUCT1SZOT2DFI02L4OC","","","null","","","","","","","","","",""
"728.6999999992549","","image-keyboard-response","262","721619","0.0-262.0","30MVJZJNHNZ0CR6AKJXH085YV6DJ9P","A5DZDONM2Y082","3URJ6VVYUP9BUCT1SZOT2DFI02L4OC","","img/set1/S2.jpg","68","2","structured_incentive","68","structured_incentive,random,structured_load,structured_normal","1,2,2,3,4,2","2,1,3,4","true","","",""
"null","","html-keyboard-response","263","721983","0.0-263.0","30MVJZJNHNZ0CR6AKJXH085YV6DJ9P","A5DZDONM2Y082","3URJ6VVYUP9BUCT1SZOT2DFI02L4OC","","<img src=""img/set1/S2.jpg"" width=""540"" height = ""360"" style=""border:16px solid orange"">","null","","","","","","","","","",""
"null","","html-keyboard-response","264","722188","0.0-264.0","30MVJZJNHNZ0CR6AKJXH085YV6DJ9P","A5DZDONM2Y082","3URJ6VVYUP9BUCT1SZOT2DFI02L4OC","","","null","","","","","","","","","",""
"488.70000000018626","","image-keyboard-response","265","722677","0.0-265.0","30MVJZJNHNZ0CR6AKJXH085YV6DJ9P","A5DZDONM2Y082","3URJ6VVYUP9BUCT1SZOT2DFI02L4OC","","img/set1/S3.jpg","72","3","structured_incentive","72","structured_incentive,random,structured_load,structured_normal","1,2,2,3,4,2","2,1,3,4","true","","",""
"null","","html-keyboard-response","266","723038","0.0-266.0","30MVJZJNHNZ0CR6AKJXH085YV6DJ9P","A5DZDONM2Y082","3URJ6VVYUP9BUCT1SZOT2DFI02L4OC","","<img src=""img/set1/S3.jpg"" width=""540"" height = ""360"" style=""border:16px solid orange"">","null","","","","","","","","","",""
"null","","html-keyboard-response","267","723243","0.0-267.0","30MVJZJNHNZ0CR6AKJXH085YV6DJ9P","A5DZDONM2Y082","3URJ6VVYUP9BUCT1SZOT2DFI02L4OC","","","null","","","","","","","","","",""
"753.2000000001863","","image-keyboard-response","268","723997","0.0-268.0","30MVJZJNHNZ0CR6AKJXH085YV6DJ9P","A5DZDONM2Y082","3URJ6VVYUP9BUCT1SZOT2DFI02L4OC","","img/set1/S2.jpg","68","2","structured_incentive","68","structured_incentive,random,structured_load,structured_normal","1,2,2,3,4,2","2,1,3,4","true","","",""
"null","","html-keyboard-response","269","724358","0.0-269.0","30MVJZJNHNZ0CR6AKJXH085YV6DJ9P","A5DZDONM2Y082","3URJ6VVYUP9BUCT1SZOT2DFI02L4OC","","<img src=""img/set1/S2.jpg"" width=""540"" height = ""360"" style=""border:16px solid orange"">","null","","","","","","","","","",""
"null","","html-keyboard-response","270","724563","0.0-270.0","30MVJZJNHNZ0CR6AKJXH085YV6DJ9P","A5DZDONM2Y082","3URJ6VVYUP9BUCT1SZOT2DFI02L4OC","","","null","","","","","","","","","",""
"613.7999999998137","","image-keyboard-response","271","725177","0.0-271.0","30MVJZJNHNZ0CR6AKJXH085YV6DJ9P","A5DZDONM2Y082","3URJ6VVYUP9BUCT1SZOT2DFI02L4OC","","img/set1/S3.jpg","72","3","structured_incentive","72","structured_incentive,random,structured_load,structured_normal","1,2,2,3,4,2","2,1,3,4","true","","",""
"null","","html-keyboard-response","272","725538","0.0-272.0","30MVJZJNHNZ0CR6AKJXH085YV6DJ9P","A5DZDONM2Y082","3URJ6VVYUP9BUCT1SZOT2DFI02L4OC","","<img src=""img/set1/S3.jpg"" width=""540"" height = ""360"" style=""border:16px solid orange"">","null","","","","","","","","","",""
"null","","html-keyboard-response","273","725743","0.0-273.0","30MVJZJNHNZ0CR6AKJXH085YV6DJ9P","A5DZDONM2Y082","3URJ6VVYUP9BUCT1SZOT2DFI02L4OC","","","null","","","","","","","","","",""
"623.2000000001863","","image-keyboard-response","274","726367","0.0-274.0","30MVJZJNHNZ0CR6AKJXH085YV6DJ9P","A5DZDONM2Y082","3URJ6VVYUP9BUCT1SZOT2DFI02L4OC","","img/set1/S3.jpg","72","3","structured_incentive","72","structured_incentive,random,structured_load,structured_normal","1,2,2,3,4,2","2,1,3,4","true","","",""
"null","","html-keyboard-response","275","726731","0.0-275.0","30MVJZJNHNZ0CR6AKJXH085YV6DJ9P","A5DZDONM2Y082","3URJ6VVYUP9BUCT1SZOT2DFI02L4OC","","<img src=""img/set1/S3.jpg"" width=""540"" height = ""360"" style=""border:16px solid orange"">","null","","","","","","","","","",""
"null","","html-keyboard-response","276","726938","0.0-276.0","30MVJZJNHNZ0CR6AKJXH085YV6DJ9P","A5DZDONM2Y082","3URJ6VVYUP9BUCT1SZOT2DFI02L4OC","","","null","","","","","","","","","",""
"648.8999999994412","","image-keyboard-response","277","727588","0.0-277.0","30MVJZJNHNZ0CR6AKJXH085YV6DJ9P","A5DZDONM2Y082","3URJ6VVYUP9BUCT1SZOT2DFI02L4OC","","img/set1/S1.jpg","83","1","structured_incentive","83","structured_incentive,random,structured_load,structured_normal","1,2,2,3,4,2","2,1,3,4","true","","",""
"null","","html-keyboard-response","278","727948","0.0-278.0","30MVJZJNHNZ0CR6AKJXH085YV6DJ9P","A5DZDONM2Y082","3URJ6VVYUP9BUCT1SZOT2DFI02L4OC","","<img src=""img/set1/S1.jpg"" width=""540"" height = ""360"" style=""border:16px solid orange"">","null","","","","","","","","","",""
"null","","html-keyboard-response","279","728153","0.0-279.0","30MVJZJNHNZ0CR6AKJXH085YV6DJ9P","A5DZDONM2Y082","3URJ6VVYUP9BUCT1SZOT2DFI02L4OC","","","null","","","","","","","","","",""
"563.4000000003725","","image-keyboard-response","280","728717","0.0-280.0","30MVJZJNHNZ0CR6AKJXH085YV6DJ9P","A5DZDONM2Y082","3URJ6VVYUP9BUCT1SZOT2DFI02L4OC","","img/set1/S2.jpg","68","2","structured_incentive","68","structured_incentive,random,structured_load,structured_normal","1,2,2,3,4,2","2,1,3,4","true","","",""
"null","","html-keyboard-response","281","729080","0.0-281.0","30MVJZJNHNZ0CR6AKJXH085YV6DJ9P","A5DZDONM2Y082","3URJ6VVYUP9BUCT1SZOT2DFI02L4OC","","<img src=""img/set1/S2.jpg"" width=""540"" height = ""360"" style=""border:16px solid orange"">","null","","","","","","","","","",""
"null","","html-keyboard-response","282","729285","0.0-282.0","30MVJZJNHNZ0CR6AKJXH085YV6DJ9P","A5DZDONM2Y082","3URJ6VVYUP9BUCT1SZOT2DFI02L4OC","","","null","","","","","","","","","",""
"561.6999999992549","","image-keyboard-response","283","729848","0.0-283.0","30MVJZJNHNZ0CR6AKJXH085YV6DJ9P","A5DZDONM2Y082","3URJ6VVYUP9BUCT1SZOT2DFI02L4OC","","img/set1/S1.jpg","83","1","structured_incentive","83","structured_incentive,random,structured_load,structured_normal","1,2,2,3,4,2","2,1,3,4","true","","",""
"null","","html-keyboard-response","284","730212","0.0-284.0","30MVJZJNHNZ0CR6AKJXH085YV6DJ9P","A5DZDONM2Y082","3URJ6VVYUP9BUCT1SZOT2DFI02L4OC","","<img src=""img/set1/S1.jpg"" width=""540"" height = ""360"" style=""border:16px solid orange"">","null","","","","","","","","","",""
"null","","html-keyboard-response","285","730417","0.0-285.0","30MVJZJNHNZ0CR6AKJXH085YV6DJ9P","A5DZDONM2Y082","3URJ6VVYUP9BUCT1SZOT2DFI02L4OC","","","null","","","","","","","","","",""
"529.3000000007451","","image-keyboard-response","286","730947","0.0-286.0","30MVJZJNHNZ0CR6AKJXH085YV6DJ9P","A5DZDONM2Y082","3URJ6VVYUP9BUCT1SZOT2DFI02L4OC","","img/set1/S2.jpg","68","2","structured_incentive","68","structured_incentive,random,structured_load,structured_normal","1,2,2,3,4,2","2,1,3,4","true","","",""
"null","","html-keyboard-response","287","731309","0.0-287.0","30MVJZJNHNZ0CR6AKJXH085YV6DJ9P","A5DZDONM2Y082","3URJ6VVYUP9BUCT1SZOT2DFI02L4OC","","<img src=""img/set1/S2.jpg"" width=""540"" height = ""360"" style=""border:16px solid orange"">","null","","","","","","","","","",""
"null","","html-keyboard-response","288","731514","0.0-288.0","30MVJZJNHNZ0CR6AKJXH085YV6DJ9P","A5DZDONM2Y082","3URJ6VVYUP9BUCT1SZOT2DFI02L4OC","","","null","","","","","","","","","",""
"822.4000000003725","","image-keyboard-response","289","732337","0.0-289.0","30MVJZJNHNZ0CR6AKJXH085YV6DJ9P","A5DZDONM2Y082","3URJ6VVYUP9BUCT1SZOT2DFI02L4OC","","img/set1/S1.jpg","83","1","structured_incentive","83","structured_incentive,random,structured_load,structured_normal","1,2,2,3,4,2","2,1,3,4","true","","",""
"null","","html-keyboard-response","290","732698","0.0-290.0","30MVJZJNHNZ0CR6AKJXH085YV6DJ9P","A5DZDONM2Y082","3URJ6VVYUP9BUCT1SZOT2DFI02L4OC","","<img src=""img/set1/S1.jpg"" width=""540"" height = ""360"" style=""border:16px solid orange"">","null","","","","","","","","","",""
"null","","html-keyboard-response","291","732903","0.0-291.0","30MVJZJNHNZ0CR6AKJXH085YV6DJ9P","A5DZDONM2Y082","3URJ6VVYUP9BUCT1SZOT2DFI02L4OC","","","null","","","","","","","","","",""
"603.4000000003725","","image-keyboard-response","292","733507","0.0-292.0","30MVJZJNHNZ0CR6AKJXH085YV6DJ9P","A5DZDONM2Y082","3URJ6VVYUP9BUCT1SZOT2DFI02L4OC","","img/set1/S2.jpg","68","2","structured_incentive","68","structured_incentive,random,structured_load,structured_normal","1,2,2,3,4,2","2,1,3,4","true","","",""
"null","","html-keyboard-response","293","733872","0.0-293.0","30MVJZJNHNZ0CR6AKJXH085YV6DJ9P","A5DZDONM2Y082","3URJ6VVYUP9BUCT1SZOT2DFI02L4OC","","<img src=""img/set1/S2.jpg"" width=""540"" height = ""360"" style=""border:16px solid orange"">","null","","","","","","","","","",""
"null","","html-keyboard-response","294","734077","0.0-294.0","30MVJZJNHNZ0CR6AKJXH085YV6DJ9P","A5DZDONM2Y082","3URJ6VVYUP9BUCT1SZOT2DFI02L4OC","","","null","","","","","","","","","",""
"558.2000000001863","","image-keyboard-response","295","734636","0.0-295.0","30MVJZJNHNZ0CR6AKJXH085YV6DJ9P","A5DZDONM2Y082","3URJ6VVYUP9BUCT1SZOT2DFI02L4OC","","img/set1/S4.jpg","74","4","structured_incentive","74","structured_incentive,random,structured_load,structured_normal","1,2,2,3,4,2","2,1,3,4","true","","",""
"null","","html-keyboard-response","296","734988","0.0-296.0","30MVJZJNHNZ0CR6AKJXH085YV6DJ9P","A5DZDONM2Y082","3URJ6VVYUP9BUCT1SZOT2DFI02L4OC","","<img src=""img/set1/S4.jpg"" width=""540"" height = ""360"" style=""border:16px solid Violet"">","null","","","","","","","","","",""
"null","","html-keyboard-response","297","735195","0.0-297.0","30MVJZJNHNZ0CR6AKJXH085YV6DJ9P","A5DZDONM2Y082","3URJ6VVYUP9BUCT1SZOT2DFI02L4OC","","","null","","","","","","","","","",""
"630.3000000007451","","image-keyboard-response","298","735826","0.0-298.0","30MVJZJNHNZ0CR6AKJXH085YV6DJ9P","A5DZDONM2Y082","3URJ6VVYUP9BUCT1SZOT2DFI02L4OC","","img/set1/S3.jpg","72","3","structured_incentive","72","structured_incentive,random,structured_load,structured_normal","1,2,2,3,4,2","2,1,3,4","true","","",""
"null","","html-keyboard-response","299","736191","0.0-299.0","30MVJZJNHNZ0CR6AKJXH085YV6DJ9P","A5DZDONM2Y082","3URJ6VVYUP9BUCT1SZOT2DFI02L4OC","","<img src=""img/set1/S3.jpg"" width=""540"" height = ""360"" style=""border:16px solid orange"">","null","","","","","","","","","",""
"null","","html-keyboard-response","300","736396","0.0-300.0","30MVJZJNHNZ0CR6AKJXH085YV6DJ9P","A5DZDONM2Y082","3URJ6VVYUP9BUCT1SZOT2DFI02L4OC","","","null","","","","","","","","","",""
"549.4000000003725","","image-keyboard-response","301","736946","0.0-301.0","30MVJZJNHNZ0CR6AKJXH085YV6DJ9P","A5DZDONM2Y082","3URJ6VVYUP9BUCT1SZOT2DFI02L4OC","","img/set1/S4.jpg","74","4","structured_incentive","74","structured_incentive,random,structured_load,structured_normal","1,2,2,3,4,2","2,1,3,4","true","","",""
"null","","html-keyboard-response","302","737309","0.0-302.0","30MVJZJNHNZ0CR6AKJXH085YV6DJ9P","A5DZDONM2Y082","3URJ6VVYUP9BUCT1SZOT2DFI02L4OC","","<img src=""img/set1/S4.jpg"" width=""540"" height = ""360"" style=""border:16px solid Violet"">","null","","","","","","","","","",""
"null","","html-keyboard-response","303","737514","0.0-303.0","30MVJZJNHNZ0CR6AKJXH085YV6DJ9P","A5DZDONM2Y082","3URJ6VVYUP9BUCT1SZOT2DFI02L4OC","","","null","","","","","","","","","",""
"641.3000000007451","","image-keyboard-response","304","738156","0.0-304.0","30MVJZJNHNZ0CR6AKJXH085YV6DJ9P","A5DZDONM2Y082","3URJ6VVYUP9BUCT1SZOT2DFI02L4OC","","img/set1/S2.jpg","68","2","structured_incentive","68","structured_incentive,random,structured_load,structured_normal","1,2,2,3,4,2","2,1,3,4","true","","",""
"null","","html-keyboard-response","305","738518","0.0-305.0","30MVJZJNHNZ0CR6AKJXH085YV6DJ9P","A5DZDONM2Y082","3URJ6VVYUP9BUCT1SZOT2DFI02L4OC","","<img src=""img/set1/S2.jpg"" width=""540"" height = ""360"" style=""border:16px solid orange"">","null","","","","","","","","","",""
"null","","html-keyboard-response","306","738723","0.0-306.0","30MVJZJNHNZ0CR6AKJXH085YV6DJ9P","A5DZDONM2Y082","3URJ6VVYUP9BUCT1SZOT2DFI02L4OC","","","null","","","","","","","","","",""
"592.9000000003725","","image-keyboard-response","307","739316","0.0-307.0","30MVJZJNHNZ0CR6AKJXH085YV6DJ9P","A5DZDONM2Y082","3URJ6VVYUP9BUCT1SZOT2DFI02L4OC","","img/set1/S4.jpg","74","4","structured_incentive","74","structured_incentive,random,structured_load,structured_normal","1,2,2,3,4,2","2,1,3,4","true","","",""
"null","","html-keyboard-response","308","739677","0.0-308.0","30MVJZJNHNZ0CR6AKJXH085YV6DJ9P","A5DZDONM2Y082","3URJ6VVYUP9BUCT1SZOT2DFI02L4OC","","<img src=""img/set1/S4.jpg"" width=""540"" height = ""360"" style=""border:16px solid Violet"">","null","","","","","","","","","",""
"null","","html-keyboard-response","309","739882","0.0-309.0","30MVJZJNHNZ0CR6AKJXH085YV6DJ9P","A5DZDONM2Y082","3URJ6VVYUP9BUCT1SZOT2DFI02L4OC","","","null","","","","","","","","","",""
"603.2999999998137","","image-keyboard-response","310","740486","0.0-310.0","30MVJZJNHNZ0CR6AKJXH085YV6DJ9P","A5DZDONM2Y082","3URJ6VVYUP9BUCT1SZOT2DFI02L4OC","","img/set1/S3.jpg","72","3","structured_incentive","72","structured_incentive,random,structured_load,structured_normal","1,2,2,3,4,2","2,1,3,4","true","","",""
"null","","html-keyboard-response","311","740851","0.0-311.0","30MVJZJNHNZ0CR6AKJXH085YV6DJ9P","A5DZDONM2Y082","3URJ6VVYUP9BUCT1SZOT2DFI02L4OC","","<img src=""img/set1/S3.jpg"" width=""540"" height = ""360"" style=""border:16px solid orange"">","null","","","","","","","","","",""
"null","","html-keyboard-response","312","741056","0.0-312.0","30MVJZJNHNZ0CR6AKJXH085YV6DJ9P","A5DZDONM2Y082","3URJ6VVYUP9BUCT1SZOT2DFI02L4OC","","","null","","","","","","","","","",""
"559.7000000001863","","image-keyboard-response","313","741616","0.0-313.0","30MVJZJNHNZ0CR6AKJXH085YV6DJ9P","A5DZDONM2Y082","3URJ6VVYUP9BUCT1SZOT2DFI02L4OC","","img/set1/S3.jpg","72","3","structured_incentive","72","structured_incentive,random,structured_load,structured_normal","1,2,2,3,4,2","2,1,3,4","true","","",""
"null","","html-keyboard-response","314","741983","0.0-314.0","30MVJZJNHNZ0CR6AKJXH085YV6DJ9P","A5DZDONM2Y082","3URJ6VVYUP9BUCT1SZOT2DFI02L4OC","","<img src=""img/set1/S3.jpg"" width=""540"" height = ""360"" style=""border:16px solid orange"">","null","","","","","","","","","",""
"null","","html-keyboard-response","315","742188","0.0-315.0","30MVJZJNHNZ0CR6AKJXH085YV6DJ9P","A5DZDONM2Y082","3URJ6VVYUP9BUCT1SZOT2DFI02L4OC","","","null","","","","","","","","","",""
"637.5999999996275","","image-keyboard-response","316","742826","0.0-316.0","30MVJZJNHNZ0CR6AKJXH085YV6DJ9P","A5DZDONM2Y082","3URJ6VVYUP9BUCT1SZOT2DFI02L4OC","","img/set1/S1.jpg","83","1","structured_incentive","83","structured_incentive,random,structured_load,structured_normal","1,2,2,3,4,2","2,1,3,4","true","","",""
"null","","html-keyboard-response","317","743191","0.0-317.0","30MVJZJNHNZ0CR6AKJXH085YV6DJ9P","A5DZDONM2Y082","3URJ6VVYUP9BUCT1SZOT2DFI02L4OC","","<img src=""img/set1/S1.jpg"" width=""540"" height = ""360"" style=""border:16px solid orange"">","null","","","","","","","","","",""
"null","","html-keyboard-response","318","743396","0.0-318.0","30MVJZJNHNZ0CR6AKJXH085YV6DJ9P","A5DZDONM2Y082","3URJ6VVYUP9BUCT1SZOT2DFI02L4OC","","","null","","","","","","","","","",""
"639.3000000007451","","image-keyboard-response","319","744036","0.0-319.0","30MVJZJNHNZ0CR6AKJXH085YV6DJ9P","A5DZDONM2Y082","3URJ6VVYUP9BUCT1SZOT2DFI02L4OC","","img/set1/S2.jpg","68","2","structured_incentive","68","structured_incentive,random,structured_load,structured_normal","1,2,2,3,4,2","2,1,3,4","true","","",""
"null","","html-keyboard-response","320","744400","0.0-320.0","30MVJZJNHNZ0CR6AKJXH085YV6DJ9P","A5DZDONM2Y082","3URJ6VVYUP9BUCT1SZOT2DFI02L4OC","","<img src=""img/set1/S2.jpg"" width=""540"" height = ""360"" style=""border:16px solid orange"">","null","","","","","","","","","",""
"null","","html-keyboard-response","321","744604","0.0-321.0","30MVJZJNHNZ0CR6AKJXH085YV6DJ9P","A5DZDONM2Y082","3URJ6VVYUP9BUCT1SZOT2DFI02L4OC","","","null","","","","","","","","","",""
"680.1000000005588","","image-keyboard-response","322","745285","0.0-322.0","30MVJZJNHNZ0CR6AKJXH085YV6DJ9P","A5DZDONM2Y082","3URJ6VVYUP9BUCT1SZOT2DFI02L4OC","","img/set1/S1.jpg","83","1","structured_incentive","83","structured_incentive,random,structured_load,structured_normal","1,2,2,3,4,2","2,1,3,4","true","","",""
"null","","html-keyboard-response","323","745650","0.0-323.0","30MVJZJNHNZ0CR6AKJXH085YV6DJ9P","A5DZDONM2Y082","3URJ6VVYUP9BUCT1SZOT2DFI02L4OC","","<img src=""img/set1/S1.jpg"" width=""540"" height = ""360"" style=""border:16px solid orange"">","null","","","","","","","","","",""
"null","","html-keyboard-response","324","745855","0.0-324.0","30MVJZJNHNZ0CR6AKJXH085YV6DJ9P","A5DZDONM2Y082","3URJ6VVYUP9BUCT1SZOT2DFI02L4OC","","","null","","","","","","","","","",""
"640","","image-keyboard-response","325","746495","0.0-325.0","30MVJZJNHNZ0CR6AKJXH085YV6DJ9P","A5DZDONM2Y082","3URJ6VVYUP9BUCT1SZOT2DFI02L4OC","","img/set1/S4.jpg","74","4","structured_incentive","74","structured_incentive,random,structured_load,structured_normal","1,2,2,3,4,2","2,1,3,4","true","","",""
"null","","html-keyboard-response","326","746858","0.0-326.0","30MVJZJNHNZ0CR6AKJXH085YV6DJ9P","A5DZDONM2Y082","3URJ6VVYUP9BUCT1SZOT2DFI02L4OC","","<img src=""img/set1/S4.jpg"" width=""540"" height = ""360"" style=""border:16px solid Violet"">","null","","","","","","","","","",""
"null","","html-keyboard-response","327","747063","0.0-327.0","30MVJZJNHNZ0CR6AKJXH085YV6DJ9P","A5DZDONM2Y082","3URJ6VVYUP9BUCT1SZOT2DFI02L4OC","","","null","","","","","","","","","",""
"331.6000000005588","","image-keyboard-response","328","747395","0.0-328.0","30MVJZJNHNZ0CR6AKJXH085YV6DJ9P","A5DZDONM2Y082","3URJ6VVYUP9BUCT1SZOT2DFI02L4OC","","img/set1/S4.jpg","74","4","structured_incentive","74","structured_incentive,random,structured_load,structured_normal","1,2,2,3,4,2","2,1,3,4","true","","",""
"null","","html-keyboard-response","329","747752","0.0-329.0","30MVJZJNHNZ0CR6AKJXH085YV6DJ9P","A5DZDONM2Y082","3URJ6VVYUP9BUCT1SZOT2DFI02L4OC","","<img src=""img/set1/S4.jpg"" width=""540"" height = ""360"" style=""border:16px solid Violet"">","null","","","","","","","","","",""
"null","","html-keyboard-response","330","747959","0.0-330.0","30MVJZJNHNZ0CR6AKJXH085YV6DJ9P","A5DZDONM2Y082","3URJ6VVYUP9BUCT1SZOT2DFI02L4OC","","","null","","","","","","","","","",""
"625.9000000003725","","image-keyboard-response","331","748585","0.0-331.0","30MVJZJNHNZ0CR6AKJXH085YV6DJ9P","A5DZDONM2Y082","3URJ6VVYUP9BUCT1SZOT2DFI02L4OC","","img/set1/S1.jpg","83","1","structured_incentive","83","structured_incentive,random,structured_load,structured_normal","1,2,2,3,4,2","2,1,3,4","true","","",""
"null","","html-keyboard-response","332","748948","0.0-332.0","30MVJZJNHNZ0CR6AKJXH085YV6DJ9P","A5DZDONM2Y082","3URJ6VVYUP9BUCT1SZOT2DFI02L4OC","","<img src=""img/set1/S1.jpg"" width=""540"" height = ""360"" style=""border:16px solid orange"">","null","","","","","","","","","",""
"null","","html-keyboard-response","333","749153","0.0-333.0","30MVJZJNHNZ0CR6AKJXH085YV6DJ9P","A5DZDONM2Y082","3URJ6VVYUP9BUCT1SZOT2DFI02L4OC","","","null","","","","","","","","","",""
"441.5","","image-keyboard-response","334","749595","0.0-334.0","30MVJZJNHNZ0CR6AKJXH085YV6DJ9P","A5DZDONM2Y082","3URJ6VVYUP9BUCT1SZOT2DFI02L4OC","","img/set1/S2.jpg","68","2","structured_incentive","68","structured_incentive,random,structured_load,structured_normal","1,2,2,3,4,2","2,1,3,4","true","","",""
"null","","html-keyboard-response","335","749962","0.0-335.0","30MVJZJNHNZ0CR6AKJXH085YV6DJ9P","A5DZDONM2Y082","3URJ6VVYUP9BUCT1SZOT2DFI02L4OC","","<img src=""img/set1/S2.jpg"" width=""540"" height = ""360"" style=""border:16px solid orange"">","null","","","","","","","","","",""
"null","","html-keyboard-response","336","750167","0.0-336.0","30MVJZJNHNZ0CR6AKJXH085YV6DJ9P","A5DZDONM2Y082","3URJ6VVYUP9BUCT1SZOT2DFI02L4OC","","","null","","","","","","","","","",""
"557.5999999996275","","image-keyboard-response","337","750725","0.0-337.0","30MVJZJNHNZ0CR6AKJXH085YV6DJ9P","A5DZDONM2Y082","3URJ6VVYUP9BUCT1SZOT2DFI02L4OC","","img/set1/S1.jpg","83","1","structured_incentive","83","structured_incentive,random,structured_load,structured_normal","1,2,2,3,4,2","2,1,3,4","true","","",""
"null","","html-keyboard-response","338","751087","0.0-338.0","30MVJZJNHNZ0CR6AKJXH085YV6DJ9P","A5DZDONM2Y082","3URJ6VVYUP9BUCT1SZOT2DFI02L4OC","","<img src=""img/set1/S1.jpg"" width=""540"" height = ""360"" style=""border:16px solid orange"">","null","","","","","","","","","",""
"null","","html-keyboard-response","339","751292","0.0-339.0","30MVJZJNHNZ0CR6AKJXH085YV6DJ9P","A5DZDONM2Y082","3URJ6VVYUP9BUCT1SZOT2DFI02L4OC","","","null","","","","","","","","","",""
"492.3999999994412","","image-keyboard-response","340","751785","0.0-340.0","30MVJZJNHNZ0CR6AKJXH085YV6DJ9P","A5DZDONM2Y082","3URJ6VVYUP9BUCT1SZOT2DFI02L4OC","","img/set1/S2.jpg","68","2","structured_incentive","68","structured_incentive,random,structured_load,structured_normal","1,2,2,3,4,2","2,1,3,4","true","","",""
"null","","html-keyboard-response","341","752150","0.0-341.0","30MVJZJNHNZ0CR6AKJXH085YV6DJ9P","A5DZDONM2Y082","3URJ6VVYUP9BUCT1SZOT2DFI02L4OC","","<img src=""img/set1/S2.jpg"" width=""540"" height = ""360"" style=""border:16px solid orange"">","null","","","","","","","","","",""
"null","","html-keyboard-response","342","752354","0.0-342.0","30MVJZJNHNZ0CR6AKJXH085YV6DJ9P","A5DZDONM2Y082","3URJ6VVYUP9BUCT1SZOT2DFI02L4OC","","","null","","","","","","","","","",""
"490","","image-keyboard-response","343","752845","0.0-343.0","30MVJZJNHNZ0CR6AKJXH085YV6DJ9P","A5DZDONM2Y082","3URJ6VVYUP9BUCT1SZOT2DFI02L4OC","","img/set1/S2.jpg","68","2","structured_incentive","68","structured_incentive,random,structured_load,structured_normal","1,2,2,3,4,2","2,1,3,4","true","","",""
"null","","html-keyboard-response","344","753196","0.0-344.0","30MVJZJNHNZ0CR6AKJXH085YV6DJ9P","A5DZDONM2Y082","3URJ6VVYUP9BUCT1SZOT2DFI02L4OC","","<img src=""img/set1/S2.jpg"" width=""540"" height = ""360"" style=""border:16px solid orange"">","null","","","","","","","","","",""
"null","","html-keyboard-response","345","753403","0.0-345.0","30MVJZJNHNZ0CR6AKJXH085YV6DJ9P","A5DZDONM2Y082","3URJ6VVYUP9BUCT1SZOT2DFI02L4OC","","","null","","","","","","","","","",""
"591.6000000005588","","image-keyboard-response","346","753995","0.0-346.0","30MVJZJNHNZ0CR6AKJXH085YV6DJ9P","A5DZDONM2Y082","3URJ6VVYUP9BUCT1SZOT2DFI02L4OC","","img/set1/S1.jpg","83","1","structured_incentive","83","structured_incentive,random,structured_load,structured_normal","1,2,2,3,4,2","2,1,3,4","true","","",""
"null","","html-keyboard-response","347","754358","0.0-347.0","30MVJZJNHNZ0CR6AKJXH085YV6DJ9P","A5DZDONM2Y082","3URJ6VVYUP9BUCT1SZOT2DFI02L4OC","","<img src=""img/set1/S1.jpg"" width=""540"" height = ""360"" style=""border:16px solid orange"">","null","","","","","","","","","",""
"null","","html-keyboard-response","348","754563","0.0-348.0","30MVJZJNHNZ0CR6AKJXH085YV6DJ9P","A5DZDONM2Y082","3URJ6VVYUP9BUCT1SZOT2DFI02L4OC","","","null","","","","","","","","","",""
"491.70000000018626","","image-keyboard-response","349","755055","0.0-349.0","30MVJZJNHNZ0CR6AKJXH085YV6DJ9P","A5DZDONM2Y082","3URJ6VVYUP9BUCT1SZOT2DFI02L4OC","","img/set1/S2.jpg","68","2","structured_incentive","68","structured_incentive,random,structured_load,structured_normal","1,2,2,3,4,2","2,1,3,4","true","","",""
"null","","html-keyboard-response","350","755412","0.0-350.0","30MVJZJNHNZ0CR6AKJXH085YV6DJ9P","A5DZDONM2Y082","3URJ6VVYUP9BUCT1SZOT2DFI02L4OC","","<img src=""img/set1/S2.jpg"" width=""540"" height = ""360"" style=""border:16px solid orange"">","null","","","","","","","","","",""
"null","","html-keyboard-response","351","755618","0.0-351.0","30MVJZJNHNZ0CR6AKJXH085YV6DJ9P","A5DZDONM2Y082","3URJ6VVYUP9BUCT1SZOT2DFI02L4OC","","","null","","","","","","","","","",""
"566.0999999996275","","image-keyboard-response","352","756185","0.0-352.0","30MVJZJNHNZ0CR6AKJXH085YV6DJ9P","A5DZDONM2Y082","3URJ6VVYUP9BUCT1SZOT2DFI02L4OC","","img/set1/S1.jpg","83","1","structured_incentive","83","structured_incentive,random,structured_load,structured_normal","1,2,2,3,4,2","2,1,3,4","true","","",""
"null","","html-keyboard-response","353","756537","0.0-353.0","30MVJZJNHNZ0CR6AKJXH085YV6DJ9P","A5DZDONM2Y082","3URJ6VVYUP9BUCT1SZOT2DFI02L4OC","","<img src=""img/set1/S1.jpg"" width=""540"" height = ""360"" style=""border:16px solid orange"">","null","","","","","","","","","",""
"null","","html-keyboard-response","354","756743","0.0-354.0","30MVJZJNHNZ0CR6AKJXH085YV6DJ9P","A5DZDONM2Y082","3URJ6VVYUP9BUCT1SZOT2DFI02L4OC","","","null","","","","","","","","","",""
"530","","image-keyboard-response","355","757274","0.0-355.0","30MVJZJNHNZ0CR6AKJXH085YV6DJ9P","A5DZDONM2Y082","3URJ6VVYUP9BUCT1SZOT2DFI02L4OC","","img/set1/S4.jpg","74","4","structured_incentive","74","structured_incentive,random,structured_load,structured_normal","1,2,2,3,4,2","2,1,3,4","true","","",""
"null","","html-keyboard-response","356","757636","0.0-356.0","30MVJZJNHNZ0CR6AKJXH085YV6DJ9P","A5DZDONM2Y082","3URJ6VVYUP9BUCT1SZOT2DFI02L4OC","","<img src=""img/set1/S4.jpg"" width=""540"" height = ""360"" style=""border:16px solid Violet"">","null","","","","","","","","","",""
"null","","html-keyboard-response","357","757841","0.0-357.0","30MVJZJNHNZ0CR6AKJXH085YV6DJ9P","A5DZDONM2Y082","3URJ6VVYUP9BUCT1SZOT2DFI02L4OC","","","null","","","","","","","","","",""
"742.7999999998137","","image-keyboard-response","358","758584","0.0-358.0","30MVJZJNHNZ0CR6AKJXH085YV6DJ9P","A5DZDONM2Y082","3URJ6VVYUP9BUCT1SZOT2DFI02L4OC","","img/set1/S1.jpg","83","1","structured_incentive","83","structured_incentive,random,structured_load,structured_normal","1,2,2,3,4,2","2,1,3,4","true","","",""
"null","","html-keyboard-response","359","758948","0.0-359.0","30MVJZJNHNZ0CR6AKJXH085YV6DJ9P","A5DZDONM2Y082","3URJ6VVYUP9BUCT1SZOT2DFI02L4OC","","<img src=""img/set1/S1.jpg"" width=""540"" height = ""360"" style=""border:16px solid orange"">","null","","","","","","","","","",""
"null","","html-keyboard-response","360","759153","0.0-360.0","30MVJZJNHNZ0CR6AKJXH085YV6DJ9P","A5DZDONM2Y082","3URJ6VVYUP9BUCT1SZOT2DFI02L4OC","","","null","","","","","","","","","",""
"410.40000000037253","","image-keyboard-response","361","759564","0.0-361.0","30MVJZJNHNZ0CR6AKJXH085YV6DJ9P","A5DZDONM2Y082","3URJ6VVYUP9BUCT1SZOT2DFI02L4OC","","img/set1/S2.jpg","68","2","structured_incentive","68","structured_incentive,random,structured_load,structured_normal","1,2,2,3,4,2","2,1,3,4","true","","",""
"null","","html-keyboard-response","362","759927","0.0-362.0","30MVJZJNHNZ0CR6AKJXH085YV6DJ9P","A5DZDONM2Y082","3URJ6VVYUP9BUCT1SZOT2DFI02L4OC","","<img src=""img/set1/S2.jpg"" width=""540"" height = ""360"" style=""border:16px solid orange"">","null","","","","","","","","","",""
"null","","html-keyboard-response","363","760132","0.0-363.0","30MVJZJNHNZ0CR6AKJXH085YV6DJ9P","A5DZDONM2Y082","3URJ6VVYUP9BUCT1SZOT2DFI02L4OC","","","null","","","","","","","","","",""
"481","","image-keyboard-response","364","760614","0.0-364.0","30MVJZJNHNZ0CR6AKJXH085YV6DJ9P","A5DZDONM2Y082","3URJ6VVYUP9BUCT1SZOT2DFI02L4OC","","img/set1/S1.jpg","83","1","structured_incentive","83","structured_incentive,random,structured_load,structured_normal","1,2,2,3,4,2","2,1,3,4","true","","",""
"null","","html-keyboard-response","365","760976","0.0-365.0","30MVJZJNHNZ0CR6AKJXH085YV6DJ9P","A5DZDONM2Y082","3URJ6VVYUP9BUCT1SZOT2DFI02L4OC","","<img src=""img/set1/S1.jpg"" width=""540"" height = ""360"" style=""border:16px solid orange"">","null","","","","","","","","","",""
"null","","html-keyboard-response","366","761181","0.0-366.0","30MVJZJNHNZ0CR6AKJXH085YV6DJ9P","A5DZDONM2Y082","3URJ6VVYUP9BUCT1SZOT2DFI02L4OC","","","null","","","","","","","","","",""
"482.70000000018626","","image-keyboard-response","367","761664","0.0-367.0","30MVJZJNHNZ0CR6AKJXH085YV6DJ9P","A5DZDONM2Y082","3URJ6VVYUP9BUCT1SZOT2DFI02L4OC","","img/set1/S4.jpg","74","4","structured_incentive","74","structured_incentive,random,structured_load,structured_normal","1,2,2,3,4,2","2,1,3,4","true","","",""
"null","","html-keyboard-response","368","762032","0.0-368.0","30MVJZJNHNZ0CR6AKJXH085YV6DJ9P","A5DZDONM2Y082","3URJ6VVYUP9BUCT1SZOT2DFI02L4OC","","<img src=""img/set1/S4.jpg"" width=""540"" height = ""360"" style=""border:16px solid Violet"">","null","","","","","","","","","",""
"null","","html-keyboard-response","369","762236","0.0-369.0","30MVJZJNHNZ0CR6AKJXH085YV6DJ9P","A5DZDONM2Y082","3URJ6VVYUP9BUCT1SZOT2DFI02L4OC","","","null","","","","","","","","","",""
"696.8999999994412","","image-keyboard-response","370","762934","0.0-370.0","30MVJZJNHNZ0CR6AKJXH085YV6DJ9P","A5DZDONM2Y082","3URJ6VVYUP9BUCT1SZOT2DFI02L4OC","","img/set1/S1.jpg","83","1","structured_incentive","83","structured_incentive,random,structured_load,structured_normal","1,2,2,3,4,2","2,1,3,4","true","","",""
"null","","html-keyboard-response","371","763295","0.0-371.0","30MVJZJNHNZ0CR6AKJXH085YV6DJ9P","A5DZDONM2Y082","3URJ6VVYUP9BUCT1SZOT2DFI02L4OC","","<img src=""img/set1/S1.jpg"" width=""540"" height = ""360"" style=""border:16px solid orange"">","null","","","","","","","","","",""
"null","","html-keyboard-response","372","763500","0.0-372.0","30MVJZJNHNZ0CR6AKJXH085YV6DJ9P","A5DZDONM2Y082","3URJ6VVYUP9BUCT1SZOT2DFI02L4OC","","","null","","","","","","","","","",""
"412.8999999994412","","image-keyboard-response","373","763914","0.0-373.0","30MVJZJNHNZ0CR6AKJXH085YV6DJ9P","A5DZDONM2Y082","3URJ6VVYUP9BUCT1SZOT2DFI02L4OC","","img/set1/S2.jpg","68","2","structured_incentive","68","structured_incentive,random,structured_load,structured_normal","1,2,2,3,4,2","2,1,3,4","true","","",""
"null","","html-keyboard-response","374","764274","0.0-374.0","30MVJZJNHNZ0CR6AKJXH085YV6DJ9P","A5DZDONM2Y082","3URJ6VVYUP9BUCT1SZOT2DFI02L4OC","","<img src=""img/set1/S2.jpg"" width=""540"" height = ""360"" style=""border:16px solid orange"">","null","","","","","","","","","",""
"null","","html-keyboard-response","375","764479","0.0-375.0","30MVJZJNHNZ0CR6AKJXH085YV6DJ9P","A5DZDONM2Y082","3URJ6VVYUP9BUCT1SZOT2DFI02L4OC","","","null","","","","","","","","","",""
"504","","image-keyboard-response","376","764984","0.0-376.0","30MVJZJNHNZ0CR6AKJXH085YV6DJ9P","A5DZDONM2Y082","3URJ6VVYUP9BUCT1SZOT2DFI02L4OC","","img/set1/S1.jpg","83","1","structured_incentive","83","structured_incentive,random,structured_load,structured_normal","1,2,2,3,4,2","2,1,3,4","true","","",""
"null","","html-keyboard-response","377","765351","0.0-377.0","30MVJZJNHNZ0CR6AKJXH085YV6DJ9P","A5DZDONM2Y082","3URJ6VVYUP9BUCT1SZOT2DFI02L4OC","","<img src=""img/set1/S1.jpg"" width=""540"" height = ""360"" style=""border:16px solid orange"">","null","","","","","","","","","",""
"null","","html-keyboard-response","378","765556","0.0-378.0","30MVJZJNHNZ0CR6AKJXH085YV6DJ9P","A5DZDONM2Y082","3URJ6VVYUP9BUCT1SZOT2DFI02L4OC","","","null","","","","","","","","","",""
