"rt","url","trial_type","trial_index","time_elapsed","internal_node_id","assignmentID","mturkID","hitID","view_history","stimulus","key_press","state","test_part","correct_response","order_block","order_chunk","order_freq","correct","responses","question_order","bonus"
"21883.69999998808","consent.html","external-html","0","21947","0.0-0.0","3K772S5NP9XLGH214UAIG9QU9BPEHP","A5P12YJP805RG","3ZXV7Q5FJBAKJ3TNMBBLYHIS0EBCFB","","","","","","","","","","","","",""
"56139.5","","instructions","1","78088","0.0-1.0","3K772S5NP9XLGH214UAIG9QU9BPEHP","A5P12YJP805RG","3ZXV7Q5FJBAKJ3TNMBBLYHIS0EBCFB","[{""page_index"":0,""viewing_time"":5091.300000011921},{""page_index"":1,""viewing_time"":6015.899999976158},{""page_index"":2,""viewing_time"":7288},{""page_index"":3,""viewing_time"":10168.100000023842},{""page_index"":4,""viewing_time"":5928},{""page_index"":5,""viewing_time"":11975.899999976158},{""page_index"":6,""viewing_time"":9672}]","","","","","","","","","","","",""
"9847.299999952316","","instructions","2","87936","0.0-2.0","3K772S5NP9XLGH214UAIG9QU9BPEHP","A5P12YJP805RG","3ZXV7Q5FJBAKJ3TNMBBLYHIS0EBCFB","[{""page_index"":0,""viewing_time"":9847}]","","","","","","","","","","","",""
"16999.5","","instructions","3","104936","0.0-3.0","3K772S5NP9XLGH214UAIG9QU9BPEHP","A5P12YJP805RG","3ZXV7Q5FJBAKJ3TNMBBLYHIS0EBCFB","[{""page_index"":0,""viewing_time"":13791.099999964237},{""page_index"":1,""viewing_time"":3208.100000023842}]","","","","","","","","","","","",""
"1721.2000000476837","","image-keyboard-response","4","106660","0.0-4.0","3K772S5NP9XLGH214UAIG9QU9BPEHP","A5P12YJP805RG","3ZXV7Q5FJBAKJ3TNMBBLYHIS0EBCFB","","img/set1/S4.jpg","83","4","structured_load","74","structured_load,structured_normal,random,structured_incentive","1,2,2,3,4,2","1,4,3,2","false","","",""
"null","","html-keyboard-response","5","107016","0.0-5.0","3K772S5NP9XLGH214UAIG9QU9BPEHP","A5P12YJP805RG","3ZXV7Q5FJBAKJ3TNMBBLYHIS0EBCFB","","<img src=""img/set1/S4.jpg"" width=""540"" height = ""360"">","null","","","","","","","","","",""
"null","","html-keyboard-response","6","107220","0.0-6.0","3K772S5NP9XLGH214UAIG9QU9BPEHP","A5P12YJP805RG","3ZXV7Q5FJBAKJ3TNMBBLYHIS0EBCFB","","","null","","","","","","","","","",""
"880","","image-keyboard-response","7","108105","0.0-7.0","3K772S5NP9XLGH214UAIG9QU9BPEHP","A5P12YJP805RG","3ZXV7Q5FJBAKJ3TNMBBLYHIS0EBCFB","","img/set1/S2.jpg","68","2","structured_load","68","structured_load,structured_normal,random,structured_incentive","1,2,2,3,4,2","1,4,3,2","true","","",""
"null","","html-keyboard-response","8","108464","0.0-8.0","3K772S5NP9XLGH214UAIG9QU9BPEHP","A5P12YJP805RG","3ZXV7Q5FJBAKJ3TNMBBLYHIS0EBCFB","","<img src=""img/set1/S2.jpg"" width=""540"" height = ""360"" style=""border:16px solid orange"">","null","","","","","","","","","",""
"null","","html-keyboard-response","9","108667","0.0-9.0","3K772S5NP9XLGH214UAIG9QU9BPEHP","A5P12YJP805RG","3ZXV7Q5FJBAKJ3TNMBBLYHIS0EBCFB","","","null","","","","","","","","","",""
"728","","image-keyboard-response","10","109397","0.0-10.0","3K772S5NP9XLGH214UAIG9QU9BPEHP","A5P12YJP805RG","3ZXV7Q5FJBAKJ3TNMBBLYHIS0EBCFB","","img/set1/S3.jpg","83","3","structured_load","72","structured_load,structured_normal,random,structured_incentive","1,2,2,3,4,2","1,4,3,2","false","","",""
"null","","html-keyboard-response","11","109753","0.0-11.0","3K772S5NP9XLGH214UAIG9QU9BPEHP","A5P12YJP805RG","3ZXV7Q5FJBAKJ3TNMBBLYHIS0EBCFB","","<img src=""img/set1/S3.jpg"" width=""540"" height = ""360"">","null","","","","","","","","","",""
"null","","html-keyboard-response","12","109970","0.0-12.0","3K772S5NP9XLGH214UAIG9QU9BPEHP","A5P12YJP805RG","3ZXV7Q5FJBAKJ3TNMBBLYHIS0EBCFB","","","null","","","","","","","","","",""
"772.7999999523163","","image-keyboard-response","13","110745","0.0-13.0","3K772S5NP9XLGH214UAIG9QU9BPEHP","A5P12YJP805RG","3ZXV7Q5FJBAKJ3TNMBBLYHIS0EBCFB","","img/set1/S1.jpg","83","1","structured_load","83","structured_load,structured_normal,random,structured_incentive","1,2,2,3,4,2","1,4,3,2","true","","",""
"null","","html-keyboard-response","14","111104","0.0-14.0","3K772S5NP9XLGH214UAIG9QU9BPEHP","A5P12YJP805RG","3ZXV7Q5FJBAKJ3TNMBBLYHIS0EBCFB","","<img src=""img/set1/S1.jpg"" width=""540"" height = ""360"" style=""border:16px solid orange"">","null","","","","","","","","","",""
"null","","html-keyboard-response","15","111306","0.0-15.0","3K772S5NP9XLGH214UAIG9QU9BPEHP","A5P12YJP805RG","3ZXV7Q5FJBAKJ3TNMBBLYHIS0EBCFB","","","null","","","","","","","","","",""
"722","","image-keyboard-response","16","112030","0.0-16.0","3K772S5NP9XLGH214UAIG9QU9BPEHP","A5P12YJP805RG","3ZXV7Q5FJBAKJ3TNMBBLYHIS0EBCFB","","img/set1/S2.jpg","83","2","structured_load","68","structured_load,structured_normal,random,structured_incentive","1,2,2,3,4,2","1,4,3,2","false","","",""
"null","","html-keyboard-response","17","112394","0.0-17.0","3K772S5NP9XLGH214UAIG9QU9BPEHP","A5P12YJP805RG","3ZXV7Q5FJBAKJ3TNMBBLYHIS0EBCFB","","<img src=""img/set1/S2.jpg"" width=""540"" height = ""360"">","null","","","","","","","","","",""
"null","","html-keyboard-response","18","112597","0.0-18.0","3K772S5NP9XLGH214UAIG9QU9BPEHP","A5P12YJP805RG","3ZXV7Q5FJBAKJ3TNMBBLYHIS0EBCFB","","","null","","","","","","","","","",""
"1105.1000000238419","","image-keyboard-response","19","113704","0.0-19.0","3K772S5NP9XLGH214UAIG9QU9BPEHP","A5P12YJP805RG","3ZXV7Q5FJBAKJ3TNMBBLYHIS0EBCFB","","img/set1/S1.jpg","83","1","structured_load","83","structured_load,structured_normal,random,structured_incentive","1,2,2,3,4,2","1,4,3,2","true","","",""
"null","","html-keyboard-response","20","114057","0.0-20.0","3K772S5NP9XLGH214UAIG9QU9BPEHP","A5P12YJP805RG","3ZXV7Q5FJBAKJ3TNMBBLYHIS0EBCFB","","<img src=""img/set1/S1.jpg"" width=""540"" height = ""360"" style=""border:16px solid orange"">","null","","","","","","","","","",""
"null","","html-keyboard-response","21","114261","0.0-21.0","3K772S5NP9XLGH214UAIG9QU9BPEHP","A5P12YJP805RG","3ZXV7Q5FJBAKJ3TNMBBLYHIS0EBCFB","","","null","","","","","","","","","",""
"866.0999999642372","","image-keyboard-response","22","115129","0.0-22.0","3K772S5NP9XLGH214UAIG9QU9BPEHP","A5P12YJP805RG","3ZXV7Q5FJBAKJ3TNMBBLYHIS0EBCFB","","img/set1/S4.jpg","68","4","structured_load","74","structured_load,structured_normal,random,structured_incentive","1,2,2,3,4,2","1,4,3,2","false","","",""
"null","","html-keyboard-response","23","115490","0.0-23.0","3K772S5NP9XLGH214UAIG9QU9BPEHP","A5P12YJP805RG","3ZXV7Q5FJBAKJ3TNMBBLYHIS0EBCFB","","<img src=""img/set1/S4.jpg"" width=""540"" height = ""360"">","null","","","","","","","","","",""
"null","","html-keyboard-response","24","115706","0.0-24.0","3K772S5NP9XLGH214UAIG9QU9BPEHP","A5P12YJP805RG","3ZXV7Q5FJBAKJ3TNMBBLYHIS0EBCFB","","","null","","","","","","","","","",""
"709.8999999761581","","image-keyboard-response","25","116417","0.0-25.0","3K772S5NP9XLGH214UAIG9QU9BPEHP","A5P12YJP805RG","3ZXV7Q5FJBAKJ3TNMBBLYHIS0EBCFB","","img/set1/S1.jpg","83","1","structured_load","83","structured_load,structured_normal,random,structured_incentive","1,2,2,3,4,2","1,4,3,2","true","","",""
"null","","html-keyboard-response","26","116777","0.0-26.0","3K772S5NP9XLGH214UAIG9QU9BPEHP","A5P12YJP805RG","3ZXV7Q5FJBAKJ3TNMBBLYHIS0EBCFB","","<img src=""img/set1/S1.jpg"" width=""540"" height = ""360"" style=""border:16px solid orange"">","null","","","","","","","","","",""
"null","","html-keyboard-response","27","116994","0.0-27.0","3K772S5NP9XLGH214UAIG9QU9BPEHP","A5P12YJP805RG","3ZXV7Q5FJBAKJ3TNMBBLYHIS0EBCFB","","","null","","","","","","","","","",""
"514.5999999642372","","image-keyboard-response","28","117510","0.0-28.0","3K772S5NP9XLGH214UAIG9QU9BPEHP","A5P12YJP805RG","3ZXV7Q5FJBAKJ3TNMBBLYHIS0EBCFB","","img/set1/S2.jpg","72","2","structured_load","68","structured_load,structured_normal,random,structured_incentive","1,2,2,3,4,2","1,4,3,2","false","","",""
"null","","html-keyboard-response","29","117864","0.0-29.0","3K772S5NP9XLGH214UAIG9QU9BPEHP","A5P12YJP805RG","3ZXV7Q5FJBAKJ3TNMBBLYHIS0EBCFB","","<img src=""img/set1/S2.jpg"" width=""540"" height = ""360"">","null","","","","","","","","","",""
"null","","html-keyboard-response","30","118066","0.0-30.0","3K772S5NP9XLGH214UAIG9QU9BPEHP","A5P12YJP805RG","3ZXV7Q5FJBAKJ3TNMBBLYHIS0EBCFB","","","null","","","","","","","","","",""
"912.5999999642372","","image-keyboard-response","31","118980","0.0-31.0","3K772S5NP9XLGH214UAIG9QU9BPEHP","A5P12YJP805RG","3ZXV7Q5FJBAKJ3TNMBBLYHIS0EBCFB","","img/set1/S1.jpg","83","1","structured_load","83","structured_load,structured_normal,random,structured_incentive","1,2,2,3,4,2","1,4,3,2","true","","",""
"null","","html-keyboard-response","32","119341","0.0-32.0","3K772S5NP9XLGH214UAIG9QU9BPEHP","A5P12YJP805RG","3ZXV7Q5FJBAKJ3TNMBBLYHIS0EBCFB","","<img src=""img/set1/S1.jpg"" width=""540"" height = ""360"" style=""border:16px solid orange"">","null","","","","","","","","","",""
"null","","html-keyboard-response","33","119543","0.0-33.0","3K772S5NP9XLGH214UAIG9QU9BPEHP","A5P12YJP805RG","3ZXV7Q5FJBAKJ3TNMBBLYHIS0EBCFB","","","null","","","","","","","","","",""
"567.6999999880791","","image-keyboard-response","34","120112","0.0-34.0","3K772S5NP9XLGH214UAIG9QU9BPEHP","A5P12YJP805RG","3ZXV7Q5FJBAKJ3TNMBBLYHIS0EBCFB","","img/set1/S2.jpg","74","2","structured_load","68","structured_load,structured_normal,random,structured_incentive","1,2,2,3,4,2","1,4,3,2","false","","",""
"null","","html-keyboard-response","35","120465","0.0-35.0","3K772S5NP9XLGH214UAIG9QU9BPEHP","A5P12YJP805RG","3ZXV7Q5FJBAKJ3TNMBBLYHIS0EBCFB","","<img src=""img/set1/S2.jpg"" width=""540"" height = ""360"">","null","","","","","","","","","",""
"null","","html-keyboard-response","36","120682","0.0-36.0","3K772S5NP9XLGH214UAIG9QU9BPEHP","A5P12YJP805RG","3ZXV7Q5FJBAKJ3TNMBBLYHIS0EBCFB","","","null","","","","","","","","","",""
"667.9000000357628","","image-keyboard-response","37","121352","0.0-37.0","3K772S5NP9XLGH214UAIG9QU9BPEHP","A5P12YJP805RG","3ZXV7Q5FJBAKJ3TNMBBLYHIS0EBCFB","","img/set1/S1.jpg","83","1","structured_load","83","structured_load,structured_normal,random,structured_incentive","1,2,2,3,4,2","1,4,3,2","true","","",""
"null","","html-keyboard-response","38","121707","0.0-38.0","3K772S5NP9XLGH214UAIG9QU9BPEHP","A5P12YJP805RG","3ZXV7Q5FJBAKJ3TNMBBLYHIS0EBCFB","","<img src=""img/set1/S1.jpg"" width=""540"" height = ""360"" style=""border:16px solid orange"">","null","","","","","","","","","",""
"null","","html-keyboard-response","39","121909","0.0-39.0","3K772S5NP9XLGH214UAIG9QU9BPEHP","A5P12YJP805RG","3ZXV7Q5FJBAKJ3TNMBBLYHIS0EBCFB","","","null","","","","","","","","","",""
"850.6000000238419","","image-keyboard-response","40","122762","0.0-40.0","3K772S5NP9XLGH214UAIG9QU9BPEHP","A5P12YJP805RG","3ZXV7Q5FJBAKJ3TNMBBLYHIS0EBCFB","","img/set1/S2.jpg","68","2","structured_load","68","structured_load,structured_normal,random,structured_incentive","1,2,2,3,4,2","1,4,3,2","true","","",""
"null","","html-keyboard-response","41","123115","0.0-41.0","3K772S5NP9XLGH214UAIG9QU9BPEHP","A5P12YJP805RG","3ZXV7Q5FJBAKJ3TNMBBLYHIS0EBCFB","","<img src=""img/set1/S2.jpg"" width=""540"" height = ""360"" style=""border:16px solid orange"">","null","","","","","","","","","",""
"null","","html-keyboard-response","42","123317","0.0-42.0","3K772S5NP9XLGH214UAIG9QU9BPEHP","A5P12YJP805RG","3ZXV7Q5FJBAKJ3TNMBBLYHIS0EBCFB","","","null","","","","","","","","","",""
"806.6000000238419","","image-keyboard-response","43","124125","0.0-43.0","3K772S5NP9XLGH214UAIG9QU9BPEHP","A5P12YJP805RG","3ZXV7Q5FJBAKJ3TNMBBLYHIS0EBCFB","","img/set1/S4.jpg","83","4","structured_load","74","structured_load,structured_normal,random,structured_incentive","1,2,2,3,4,2","1,4,3,2","false","","",""
"null","","html-keyboard-response","44","124479","0.0-44.0","3K772S5NP9XLGH214UAIG9QU9BPEHP","A5P12YJP805RG","3ZXV7Q5FJBAKJ3TNMBBLYHIS0EBCFB","","<img src=""img/set1/S4.jpg"" width=""540"" height = ""360"">","null","","","","","","","","","",""
"null","","html-keyboard-response","45","124682","0.0-45.0","3K772S5NP9XLGH214UAIG9QU9BPEHP","A5P12YJP805RG","3ZXV7Q5FJBAKJ3TNMBBLYHIS0EBCFB","","","null","","","","","","","","","",""
"735.6000000238419","","image-keyboard-response","46","125419","0.0-46.0","3K772S5NP9XLGH214UAIG9QU9BPEHP","A5P12YJP805RG","3ZXV7Q5FJBAKJ3TNMBBLYHIS0EBCFB","","img/set1/S1.jpg","83","1","structured_load","83","structured_load,structured_normal,random,structured_incentive","1,2,2,3,4,2","1,4,3,2","true","","",""
"null","","html-keyboard-response","47","125773","0.0-47.0","3K772S5NP9XLGH214UAIG9QU9BPEHP","A5P12YJP805RG","3ZXV7Q5FJBAKJ3TNMBBLYHIS0EBCFB","","<img src=""img/set1/S1.jpg"" width=""540"" height = ""360"" style=""border:16px solid orange"">","null","","","","","","","","","",""
"null","","html-keyboard-response","48","125987","0.0-48.0","3K772S5NP9XLGH214UAIG9QU9BPEHP","A5P12YJP805RG","3ZXV7Q5FJBAKJ3TNMBBLYHIS0EBCFB","","","null","","","","","","","","","",""
"641.2999999523163","","image-keyboard-response","49","126629","0.0-49.0","3K772S5NP9XLGH214UAIG9QU9BPEHP","A5P12YJP805RG","3ZXV7Q5FJBAKJ3TNMBBLYHIS0EBCFB","","img/set1/S2.jpg","83","2","structured_load","68","structured_load,structured_normal,random,structured_incentive","1,2,2,3,4,2","1,4,3,2","false","","",""
"null","","html-keyboard-response","50","126988","0.0-50.0","3K772S5NP9XLGH214UAIG9QU9BPEHP","A5P12YJP805RG","3ZXV7Q5FJBAKJ3TNMBBLYHIS0EBCFB","","<img src=""img/set1/S2.jpg"" width=""540"" height = ""360"">","null","","","","","","","","","",""
"null","","html-keyboard-response","51","127191","0.0-51.0","3K772S5NP9XLGH214UAIG9QU9BPEHP","A5P12YJP805RG","3ZXV7Q5FJBAKJ3TNMBBLYHIS0EBCFB","","","null","","","","","","","","","",""
"757.6999999880791","","image-keyboard-response","52","127951","0.0-52.0","3K772S5NP9XLGH214UAIG9QU9BPEHP","A5P12YJP805RG","3ZXV7Q5FJBAKJ3TNMBBLYHIS0EBCFB","","img/set1/S3.jpg","68","3","structured_load","72","structured_load,structured_normal,random,structured_incentive","1,2,2,3,4,2","1,4,3,2","false","","",""
"null","","html-keyboard-response","53","128310","0.0-53.0","3K772S5NP9XLGH214UAIG9QU9BPEHP","A5P12YJP805RG","3ZXV7Q5FJBAKJ3TNMBBLYHIS0EBCFB","","<img src=""img/set1/S3.jpg"" width=""540"" height = ""360"">","null","","","","","","","","","",""
"null","","html-keyboard-response","54","128527","0.0-54.0","3K772S5NP9XLGH214UAIG9QU9BPEHP","A5P12YJP805RG","3ZXV7Q5FJBAKJ3TNMBBLYHIS0EBCFB","","","null","","","","","","","","","",""
"645.5","","image-keyboard-response","55","129174","0.0-55.0","3K772S5NP9XLGH214UAIG9QU9BPEHP","A5P12YJP805RG","3ZXV7Q5FJBAKJ3TNMBBLYHIS0EBCFB","","img/set1/S1.jpg","83","1","structured_load","83","structured_load,structured_normal,random,structured_incentive","1,2,2,3,4,2","1,4,3,2","true","","",""
"null","","html-keyboard-response","56","129536","0.0-56.0","3K772S5NP9XLGH214UAIG9QU9BPEHP","A5P12YJP805RG","3ZXV7Q5FJBAKJ3TNMBBLYHIS0EBCFB","","<img src=""img/set1/S1.jpg"" width=""540"" height = ""360"" style=""border:16px solid orange"">","null","","","","","","","","","",""
"null","","html-keyboard-response","57","129752","0.0-57.0","3K772S5NP9XLGH214UAIG9QU9BPEHP","A5P12YJP805RG","3ZXV7Q5FJBAKJ3TNMBBLYHIS0EBCFB","","","null","","","","","","","","","",""
"687.3999999761581","","image-keyboard-response","58","130441","0.0-58.0","3K772S5NP9XLGH214UAIG9QU9BPEHP","A5P12YJP805RG","3ZXV7Q5FJBAKJ3TNMBBLYHIS0EBCFB","","img/set1/S2.jpg","74","2","structured_load","68","structured_load,structured_normal,random,structured_incentive","1,2,2,3,4,2","1,4,3,2","false","","",""
"null","","html-keyboard-response","59","130798","0.0-59.0","3K772S5NP9XLGH214UAIG9QU9BPEHP","A5P12YJP805RG","3ZXV7Q5FJBAKJ3TNMBBLYHIS0EBCFB","","<img src=""img/set1/S2.jpg"" width=""540"" height = ""360"">","null","","","","","","","","","",""
"null","","html-keyboard-response","60","131002","0.0-60.0","3K772S5NP9XLGH214UAIG9QU9BPEHP","A5P12YJP805RG","3ZXV7Q5FJBAKJ3TNMBBLYHIS0EBCFB","","","null","","","","","","","","","",""
"1144.8999999761581","","image-keyboard-response","61","132148","0.0-61.0","3K772S5NP9XLGH214UAIG9QU9BPEHP","A5P12YJP805RG","3ZXV7Q5FJBAKJ3TNMBBLYHIS0EBCFB","","img/set1/S3.jpg","68","3","structured_load","72","structured_load,structured_normal,random,structured_incentive","1,2,2,3,4,2","1,4,3,2","false","","",""
"null","","html-keyboard-response","62","132505","0.0-62.0","3K772S5NP9XLGH214UAIG9QU9BPEHP","A5P12YJP805RG","3ZXV7Q5FJBAKJ3TNMBBLYHIS0EBCFB","","<img src=""img/set1/S3.jpg"" width=""540"" height = ""360"">","null","","","","","","","","","",""
"null","","html-keyboard-response","63","132709","0.0-63.0","3K772S5NP9XLGH214UAIG9QU9BPEHP","A5P12YJP805RG","3ZXV7Q5FJBAKJ3TNMBBLYHIS0EBCFB","","","null","","","","","","","","","",""
"492.0999999642372","","image-keyboard-response","64","133203","0.0-64.0","3K772S5NP9XLGH214UAIG9QU9BPEHP","A5P12YJP805RG","3ZXV7Q5FJBAKJ3TNMBBLYHIS0EBCFB","","img/set1/S3.jpg","83","3","structured_load","72","structured_load,structured_normal,random,structured_incentive","1,2,2,3,4,2","1,4,3,2","false","","",""
"null","","html-keyboard-response","65","133565","0.0-65.0","3K772S5NP9XLGH214UAIG9QU9BPEHP","A5P12YJP805RG","3ZXV7Q5FJBAKJ3TNMBBLYHIS0EBCFB","","<img src=""img/set1/S3.jpg"" width=""540"" height = ""360"">","null","","","","","","","","","",""
"null","","html-keyboard-response","66","133781","0.0-66.0","3K772S5NP9XLGH214UAIG9QU9BPEHP","A5P12YJP805RG","3ZXV7Q5FJBAKJ3TNMBBLYHIS0EBCFB","","","null","","","","","","","","","",""
"1024.5","","image-keyboard-response","67","134808","0.0-67.0","3K772S5NP9XLGH214UAIG9QU9BPEHP","A5P12YJP805RG","3ZXV7Q5FJBAKJ3TNMBBLYHIS0EBCFB","","img/set1/S4.jpg","72","4","structured_load","74","structured_load,structured_normal,random,structured_incentive","1,2,2,3,4,2","1,4,3,2","false","","",""
"null","","html-keyboard-response","68","135175","0.0-68.0","3K772S5NP9XLGH214UAIG9QU9BPEHP","A5P12YJP805RG","3ZXV7Q5FJBAKJ3TNMBBLYHIS0EBCFB","","<img src=""img/set1/S4.jpg"" width=""540"" height = ""360"">","null","","","","","","","","","",""
"null","","html-keyboard-response","69","135381","0.0-69.0","3K772S5NP9XLGH214UAIG9QU9BPEHP","A5P12YJP805RG","3ZXV7Q5FJBAKJ3TNMBBLYHIS0EBCFB","","","null","","","","","","","","","",""
"557.6000000238419","","image-keyboard-response","70","135944","0.0-70.0","3K772S5NP9XLGH214UAIG9QU9BPEHP","A5P12YJP805RG","3ZXV7Q5FJBAKJ3TNMBBLYHIS0EBCFB","","img/set1/S4.jpg","74","4","structured_load","74","structured_load,structured_normal,random,structured_incentive","1,2,2,3,4,2","1,4,3,2","true","","",""
"null","","html-keyboard-response","71","136301","0.0-71.0","3K772S5NP9XLGH214UAIG9QU9BPEHP","A5P12YJP805RG","3ZXV7Q5FJBAKJ3TNMBBLYHIS0EBCFB","","<img src=""img/set1/S4.jpg"" width=""540"" height = ""360"" style=""border:16px solid orange"">","null","","","","","","","","","",""
"null","","html-keyboard-response","72","136517","0.0-72.0","3K772S5NP9XLGH214UAIG9QU9BPEHP","A5P12YJP805RG","3ZXV7Q5FJBAKJ3TNMBBLYHIS0EBCFB","","","null","","","","","","","","","",""
"504.2999999523163","","image-keyboard-response","73","137023","0.0-73.0","3K772S5NP9XLGH214UAIG9QU9BPEHP","A5P12YJP805RG","3ZXV7Q5FJBAKJ3TNMBBLYHIS0EBCFB","","img/set1/S4.jpg","74","4","structured_load","74","structured_load,structured_normal,random,structured_incentive","1,2,2,3,4,2","1,4,3,2","true","","",""
"null","","html-keyboard-response","74","137387","0.0-74.0","3K772S5NP9XLGH214UAIG9QU9BPEHP","A5P12YJP805RG","3ZXV7Q5FJBAKJ3TNMBBLYHIS0EBCFB","","<img src=""img/set1/S4.jpg"" width=""540"" height = ""360"" style=""border:16px solid orange"">","null","","","","","","","","","",""
"null","","html-keyboard-response","75","137593","0.0-75.0","3K772S5NP9XLGH214UAIG9QU9BPEHP","A5P12YJP805RG","3ZXV7Q5FJBAKJ3TNMBBLYHIS0EBCFB","","","null","","","","","","","","","",""
"442.19999998807907","","image-keyboard-response","76","138036","0.0-76.0","3K772S5NP9XLGH214UAIG9QU9BPEHP","A5P12YJP805RG","3ZXV7Q5FJBAKJ3TNMBBLYHIS0EBCFB","","img/set1/S4.jpg","74","4","structured_load","74","structured_load,structured_normal,random,structured_incentive","1,2,2,3,4,2","1,4,3,2","true","","",""
"null","","html-keyboard-response","77","138398","0.0-77.0","3K772S5NP9XLGH214UAIG9QU9BPEHP","A5P12YJP805RG","3ZXV7Q5FJBAKJ3TNMBBLYHIS0EBCFB","","<img src=""img/set1/S4.jpg"" width=""540"" height = ""360"" style=""border:16px solid orange"">","null","","","","","","","","","",""
"null","","html-keyboard-response","78","138600","0.0-78.0","3K772S5NP9XLGH214UAIG9QU9BPEHP","A5P12YJP805RG","3ZXV7Q5FJBAKJ3TNMBBLYHIS0EBCFB","","","null","","","","","","","","","",""
"1209.6000000238419","","image-keyboard-response","79","139812","0.0-79.0","3K772S5NP9XLGH214UAIG9QU9BPEHP","A5P12YJP805RG","3ZXV7Q5FJBAKJ3TNMBBLYHIS0EBCFB","","img/set1/S3.jpg","74","3","structured_load","72","structured_load,structured_normal,random,structured_incentive","1,2,2,3,4,2","1,4,3,2","false","","",""
"null","","html-keyboard-response","80","140174","0.0-80.0","3K772S5NP9XLGH214UAIG9QU9BPEHP","A5P12YJP805RG","3ZXV7Q5FJBAKJ3TNMBBLYHIS0EBCFB","","<img src=""img/set1/S3.jpg"" width=""540"" height = ""360"">","null","","","","","","","","","",""
"null","","html-keyboard-response","81","140378","0.0-81.0","3K772S5NP9XLGH214UAIG9QU9BPEHP","A5P12YJP805RG","3ZXV7Q5FJBAKJ3TNMBBLYHIS0EBCFB","","","null","","","","","","","","","",""
"635.7999999523163","","image-keyboard-response","82","141015","0.0-82.0","3K772S5NP9XLGH214UAIG9QU9BPEHP","A5P12YJP805RG","3ZXV7Q5FJBAKJ3TNMBBLYHIS0EBCFB","","img/set1/S1.jpg","83","1","structured_load","83","structured_load,structured_normal,random,structured_incentive","1,2,2,3,4,2","1,4,3,2","true","","",""
"null","","html-keyboard-response","83","141370","0.0-83.0","3K772S5NP9XLGH214UAIG9QU9BPEHP","A5P12YJP805RG","3ZXV7Q5FJBAKJ3TNMBBLYHIS0EBCFB","","<img src=""img/set1/S1.jpg"" width=""540"" height = ""360"" style=""border:16px solid orange"">","null","","","","","","","","","",""
"null","","html-keyboard-response","84","141586","0.0-84.0","3K772S5NP9XLGH214UAIG9QU9BPEHP","A5P12YJP805RG","3ZXV7Q5FJBAKJ3TNMBBLYHIS0EBCFB","","","null","","","","","","","","","",""
"650.6999999880791","","image-keyboard-response","85","142238","0.0-85.0","3K772S5NP9XLGH214UAIG9QU9BPEHP","A5P12YJP805RG","3ZXV7Q5FJBAKJ3TNMBBLYHIS0EBCFB","","img/set1/S2.jpg","72","2","structured_load","68","structured_load,structured_normal,random,structured_incentive","1,2,2,3,4,2","1,4,3,2","false","","",""
"null","","html-keyboard-response","86","142594","0.0-86.0","3K772S5NP9XLGH214UAIG9QU9BPEHP","A5P12YJP805RG","3ZXV7Q5FJBAKJ3TNMBBLYHIS0EBCFB","","<img src=""img/set1/S2.jpg"" width=""540"" height = ""360"">","null","","","","","","","","","",""
"null","","html-keyboard-response","87","142796","0.0-87.0","3K772S5NP9XLGH214UAIG9QU9BPEHP","A5P12YJP805RG","3ZXV7Q5FJBAKJ3TNMBBLYHIS0EBCFB","","","null","","","","","","","","","",""
"699.6000000238419","","image-keyboard-response","88","143497","0.0-88.0","3K772S5NP9XLGH214UAIG9QU9BPEHP","A5P12YJP805RG","3ZXV7Q5FJBAKJ3TNMBBLYHIS0EBCFB","","img/set1/S1.jpg","83","1","structured_load","83","structured_load,structured_normal,random,structured_incentive","1,2,2,3,4,2","1,4,3,2","true","","",""
"null","","html-keyboard-response","89","143853","0.0-89.0","3K772S5NP9XLGH214UAIG9QU9BPEHP","A5P12YJP805RG","3ZXV7Q5FJBAKJ3TNMBBLYHIS0EBCFB","","<img src=""img/set1/S1.jpg"" width=""540"" height = ""360"" style=""border:16px solid orange"">","null","","","","","","","","","",""
"null","","html-keyboard-response","90","144056","0.0-90.0","3K772S5NP9XLGH214UAIG9QU9BPEHP","A5P12YJP805RG","3ZXV7Q5FJBAKJ3TNMBBLYHIS0EBCFB","","","null","","","","","","","","","",""
"423.80000001192093","","image-keyboard-response","91","144481","0.0-91.0","3K772S5NP9XLGH214UAIG9QU9BPEHP","A5P12YJP805RG","3ZXV7Q5FJBAKJ3TNMBBLYHIS0EBCFB","","img/set1/S2.jpg","68","2","structured_load","68","structured_load,structured_normal,random,structured_incentive","1,2,2,3,4,2","1,4,3,2","true","","",""
"null","","html-keyboard-response","92","144843","0.0-92.0","3K772S5NP9XLGH214UAIG9QU9BPEHP","A5P12YJP805RG","3ZXV7Q5FJBAKJ3TNMBBLYHIS0EBCFB","","<img src=""img/set1/S2.jpg"" width=""540"" height = ""360"" style=""border:16px solid orange"">","null","","","","","","","","","",""
"null","","html-keyboard-response","93","145046","0.0-93.0","3K772S5NP9XLGH214UAIG9QU9BPEHP","A5P12YJP805RG","3ZXV7Q5FJBAKJ3TNMBBLYHIS0EBCFB","","","null","","","","","","","","","",""
"1363.3999999761581","","image-keyboard-response","94","146411","0.0-94.0","3K772S5NP9XLGH214UAIG9QU9BPEHP","A5P12YJP805RG","3ZXV7Q5FJBAKJ3TNMBBLYHIS0EBCFB","","img/set1/S3.jpg","72","3","structured_load","72","structured_load,structured_normal,random,structured_incentive","1,2,2,3,4,2","1,4,3,2","true","","",""
"null","","html-keyboard-response","95","146772","0.0-95.0","3K772S5NP9XLGH214UAIG9QU9BPEHP","A5P12YJP805RG","3ZXV7Q5FJBAKJ3TNMBBLYHIS0EBCFB","","<img src=""img/set1/S3.jpg"" width=""540"" height = ""360"" style=""border:16px solid orange"">","null","","","","","","","","","",""
"null","","html-keyboard-response","96","146988","0.0-96.0","3K772S5NP9XLGH214UAIG9QU9BPEHP","A5P12YJP805RG","3ZXV7Q5FJBAKJ3TNMBBLYHIS0EBCFB","","","null","","","","","","","","","",""
"1381.800000011921","","image-keyboard-response","97","148371","0.0-97.0","3K772S5NP9XLGH214UAIG9QU9BPEHP","A5P12YJP805RG","3ZXV7Q5FJBAKJ3TNMBBLYHIS0EBCFB","","img/set1/S4.jpg","74","4","structured_load","74","structured_load,structured_normal,random,structured_incentive","1,2,2,3,4,2","1,4,3,2","true","","",""
"null","","html-keyboard-response","98","148732","0.0-98.0","3K772S5NP9XLGH214UAIG9QU9BPEHP","A5P12YJP805RG","3ZXV7Q5FJBAKJ3TNMBBLYHIS0EBCFB","","<img src=""img/set1/S4.jpg"" width=""540"" height = ""360"" style=""border:16px solid orange"">","null","","","","","","","","","",""
"null","","html-keyboard-response","99","148936","0.0-99.0","3K772S5NP9XLGH214UAIG9QU9BPEHP","A5P12YJP805RG","3ZXV7Q5FJBAKJ3TNMBBLYHIS0EBCFB","","","null","","","","","","","","","",""
"442.10000002384186","","image-keyboard-response","100","149379","0.0-100.0","3K772S5NP9XLGH214UAIG9QU9BPEHP","A5P12YJP805RG","3ZXV7Q5FJBAKJ3TNMBBLYHIS0EBCFB","","img/set1/S4.jpg","74","4","structured_load","74","structured_load,structured_normal,random,structured_incentive","1,2,2,3,4,2","1,4,3,2","true","","",""
"null","","html-keyboard-response","101","149743","0.0-101.0","3K772S5NP9XLGH214UAIG9QU9BPEHP","A5P12YJP805RG","3ZXV7Q5FJBAKJ3TNMBBLYHIS0EBCFB","","<img src=""img/set1/S4.jpg"" width=""540"" height = ""360"" style=""border:16px solid orange"">","null","","","","","","","","","",""
"null","","html-keyboard-response","102","149945","0.0-102.0","3K772S5NP9XLGH214UAIG9QU9BPEHP","A5P12YJP805RG","3ZXV7Q5FJBAKJ3TNMBBLYHIS0EBCFB","","","null","","","","","","","","","",""
"1243.300000011921","","image-keyboard-response","103","151190","0.0-103.0","3K772S5NP9XLGH214UAIG9QU9BPEHP","A5P12YJP805RG","3ZXV7Q5FJBAKJ3TNMBBLYHIS0EBCFB","","img/set1/S3.jpg","72","3","structured_load","72","structured_load,structured_normal,random,structured_incentive","1,2,2,3,4,2","1,4,3,2","true","","",""
"null","","html-keyboard-response","104","151544","0.0-104.0","3K772S5NP9XLGH214UAIG9QU9BPEHP","A5P12YJP805RG","3ZXV7Q5FJBAKJ3TNMBBLYHIS0EBCFB","","<img src=""img/set1/S3.jpg"" width=""540"" height = ""360"" style=""border:16px solid orange"">","null","","","","","","","","","",""
"null","","html-keyboard-response","105","151761","0.0-105.0","3K772S5NP9XLGH214UAIG9QU9BPEHP","A5P12YJP805RG","3ZXV7Q5FJBAKJ3TNMBBLYHIS0EBCFB","","","null","","","","","","","","","",""
"632","","image-keyboard-response","106","152394","0.0-106.0","3K772S5NP9XLGH214UAIG9QU9BPEHP","A5P12YJP805RG","3ZXV7Q5FJBAKJ3TNMBBLYHIS0EBCFB","","img/set1/S1.jpg","83","1","structured_load","83","structured_load,structured_normal,random,structured_incentive","1,2,2,3,4,2","1,4,3,2","true","","",""
"null","","html-keyboard-response","107","152751","0.0-107.0","3K772S5NP9XLGH214UAIG9QU9BPEHP","A5P12YJP805RG","3ZXV7Q5FJBAKJ3TNMBBLYHIS0EBCFB","","<img src=""img/set1/S1.jpg"" width=""540"" height = ""360"" style=""border:16px solid orange"">","null","","","","","","","","","",""
"null","","html-keyboard-response","108","152967","0.0-108.0","3K772S5NP9XLGH214UAIG9QU9BPEHP","A5P12YJP805RG","3ZXV7Q5FJBAKJ3TNMBBLYHIS0EBCFB","","","null","","","","","","","","","",""
"1331.199999988079","","image-keyboard-response","109","154300","0.0-109.0","3K772S5NP9XLGH214UAIG9QU9BPEHP","A5P12YJP805RG","3ZXV7Q5FJBAKJ3TNMBBLYHIS0EBCFB","","img/set1/S2.jpg","68","2","structured_load","68","structured_load,structured_normal,random,structured_incentive","1,2,2,3,4,2","1,4,3,2","true","","",""
"null","","html-keyboard-response","110","154665","0.0-110.0","3K772S5NP9XLGH214UAIG9QU9BPEHP","A5P12YJP805RG","3ZXV7Q5FJBAKJ3TNMBBLYHIS0EBCFB","","<img src=""img/set1/S2.jpg"" width=""540"" height = ""360"" style=""border:16px solid orange"">","null","","","","","","","","","",""
"null","","html-keyboard-response","111","154874","0.0-111.0","3K772S5NP9XLGH214UAIG9QU9BPEHP","A5P12YJP805RG","3ZXV7Q5FJBAKJ3TNMBBLYHIS0EBCFB","","","null","","","","","","","","","",""
"718.5","","image-keyboard-response","112","155595","0.0-112.0","3K772S5NP9XLGH214UAIG9QU9BPEHP","A5P12YJP805RG","3ZXV7Q5FJBAKJ3TNMBBLYHIS0EBCFB","","img/set1/S1.jpg","83","1","structured_load","83","structured_load,structured_normal,random,structured_incentive","1,2,2,3,4,2","1,4,3,2","true","","",""
"null","","html-keyboard-response","113","155961","0.0-113.0","3K772S5NP9XLGH214UAIG9QU9BPEHP","A5P12YJP805RG","3ZXV7Q5FJBAKJ3TNMBBLYHIS0EBCFB","","<img src=""img/set1/S1.jpg"" width=""540"" height = ""360"" style=""border:16px solid orange"">","null","","","","","","","","","",""
"null","","html-keyboard-response","114","156165","0.0-114.0","3K772S5NP9XLGH214UAIG9QU9BPEHP","A5P12YJP805RG","3ZXV7Q5FJBAKJ3TNMBBLYHIS0EBCFB","","","null","","","","","","","","","",""
"600.8000000119209","","image-keyboard-response","115","156767","0.0-115.0","3K772S5NP9XLGH214UAIG9QU9BPEHP","A5P12YJP805RG","3ZXV7Q5FJBAKJ3TNMBBLYHIS0EBCFB","","img/set1/S2.jpg","68","2","structured_load","68","structured_load,structured_normal,random,structured_incentive","1,2,2,3,4,2","1,4,3,2","true","","",""
"null","","html-keyboard-response","116","157132","0.0-116.0","3K772S5NP9XLGH214UAIG9QU9BPEHP","A5P12YJP805RG","3ZXV7Q5FJBAKJ3TNMBBLYHIS0EBCFB","","<img src=""img/set1/S2.jpg"" width=""540"" height = ""360"" style=""border:16px solid orange"">","null","","","","","","","","","",""
"null","","html-keyboard-response","117","157348","0.0-117.0","3K772S5NP9XLGH214UAIG9QU9BPEHP","A5P12YJP805RG","3ZXV7Q5FJBAKJ3TNMBBLYHIS0EBCFB","","","null","","","","","","","","","",""
"1222.3999999761581","","image-keyboard-response","118","158573","0.0-118.0","3K772S5NP9XLGH214UAIG9QU9BPEHP","A5P12YJP805RG","3ZXV7Q5FJBAKJ3TNMBBLYHIS0EBCFB","","img/set1/S4.jpg","74","4","structured_load","74","structured_load,structured_normal,random,structured_incentive","1,2,2,3,4,2","1,4,3,2","true","","",""
"null","","html-keyboard-response","119","158936","0.0-119.0","3K772S5NP9XLGH214UAIG9QU9BPEHP","A5P12YJP805RG","3ZXV7Q5FJBAKJ3TNMBBLYHIS0EBCFB","","<img src=""img/set1/S4.jpg"" width=""540"" height = ""360"" style=""border:16px solid orange"">","null","","","","","","","","","",""
"null","","html-keyboard-response","120","159153","0.0-120.0","3K772S5NP9XLGH214UAIG9QU9BPEHP","A5P12YJP805RG","3ZXV7Q5FJBAKJ3TNMBBLYHIS0EBCFB","","","null","","","","","","","","","",""
"1017.8000000119209","","image-keyboard-response","121","160172","0.0-121.0","3K772S5NP9XLGH214UAIG9QU9BPEHP","A5P12YJP805RG","3ZXV7Q5FJBAKJ3TNMBBLYHIS0EBCFB","","img/set1/S1.jpg","83","1","structured_load","83","structured_load,structured_normal,random,structured_incentive","1,2,2,3,4,2","1,4,3,2","true","","",""
"null","","html-keyboard-response","122","160527","0.0-122.0","3K772S5NP9XLGH214UAIG9QU9BPEHP","A5P12YJP805RG","3ZXV7Q5FJBAKJ3TNMBBLYHIS0EBCFB","","<img src=""img/set1/S1.jpg"" width=""540"" height = ""360"" style=""border:16px solid orange"">","null","","","","","","","","","",""
"null","","html-keyboard-response","123","160744","0.0-123.0","3K772S5NP9XLGH214UAIG9QU9BPEHP","A5P12YJP805RG","3ZXV7Q5FJBAKJ3TNMBBLYHIS0EBCFB","","","null","","","","","","","","","",""
"1666.800000011921","","image-keyboard-response","124","162412","0.0-124.0","3K772S5NP9XLGH214UAIG9QU9BPEHP","A5P12YJP805RG","3ZXV7Q5FJBAKJ3TNMBBLYHIS0EBCFB","","img/set1/S2.jpg","68","2","structured_load","68","structured_load,structured_normal,random,structured_incentive","1,2,2,3,4,2","1,4,3,2","true","","",""
"null","","html-keyboard-response","125","162768","0.0-125.0","3K772S5NP9XLGH214UAIG9QU9BPEHP","A5P12YJP805RG","3ZXV7Q5FJBAKJ3TNMBBLYHIS0EBCFB","","<img src=""img/set1/S2.jpg"" width=""540"" height = ""360"" style=""border:16px solid orange"">","null","","","","","","","","","",""
"null","","html-keyboard-response","126","162985","0.0-126.0","3K772S5NP9XLGH214UAIG9QU9BPEHP","A5P12YJP805RG","3ZXV7Q5FJBAKJ3TNMBBLYHIS0EBCFB","","","null","","","","","","","","","",""
"689.3000000119209","","image-keyboard-response","127","163676","0.0-127.0","3K772S5NP9XLGH214UAIG9QU9BPEHP","A5P12YJP805RG","3ZXV7Q5FJBAKJ3TNMBBLYHIS0EBCFB","","img/set1/S1.jpg","83","1","structured_load","83","structured_load,structured_normal,random,structured_incentive","1,2,2,3,4,2","1,4,3,2","true","","",""
"null","","html-keyboard-response","128","164029","0.0-128.0","3K772S5NP9XLGH214UAIG9QU9BPEHP","A5P12YJP805RG","3ZXV7Q5FJBAKJ3TNMBBLYHIS0EBCFB","","<img src=""img/set1/S1.jpg"" width=""540"" height = ""360"" style=""border:16px solid orange"">","null","","","","","","","","","",""
"null","","html-keyboard-response","129","164231","0.0-129.0","3K772S5NP9XLGH214UAIG9QU9BPEHP","A5P12YJP805RG","3ZXV7Q5FJBAKJ3TNMBBLYHIS0EBCFB","","","null","","","","","","","","","",""
"603.6999999880791","","image-keyboard-response","130","164837","0.0-130.0","3K772S5NP9XLGH214UAIG9QU9BPEHP","A5P12YJP805RG","3ZXV7Q5FJBAKJ3TNMBBLYHIS0EBCFB","","img/set1/S2.jpg","83","2","structured_load","68","structured_load,structured_normal,random,structured_incentive","1,2,2,3,4,2","1,4,3,2","false","","",""
"null","","html-keyboard-response","131","165193","0.0-131.0","3K772S5NP9XLGH214UAIG9QU9BPEHP","A5P12YJP805RG","3ZXV7Q5FJBAKJ3TNMBBLYHIS0EBCFB","","<img src=""img/set1/S2.jpg"" width=""540"" height = ""360"">","null","","","","","","","","","",""
"null","","html-keyboard-response","132","165410","0.0-132.0","3K772S5NP9XLGH214UAIG9QU9BPEHP","A5P12YJP805RG","3ZXV7Q5FJBAKJ3TNMBBLYHIS0EBCFB","","","null","","","","","","","","","",""
"923.3999999761581","","image-keyboard-response","133","166335","0.0-133.0","3K772S5NP9XLGH214UAIG9QU9BPEHP","A5P12YJP805RG","3ZXV7Q5FJBAKJ3TNMBBLYHIS0EBCFB","","img/set1/S4.jpg","72","4","structured_load","74","structured_load,structured_normal,random,structured_incentive","1,2,2,3,4,2","1,4,3,2","false","","",""
"null","","html-keyboard-response","134","166688","0.0-134.0","3K772S5NP9XLGH214UAIG9QU9BPEHP","A5P12YJP805RG","3ZXV7Q5FJBAKJ3TNMBBLYHIS0EBCFB","","<img src=""img/set1/S4.jpg"" width=""540"" height = ""360"">","null","","","","","","","","","",""
"null","","html-keyboard-response","135","166890","0.0-135.0","3K772S5NP9XLGH214UAIG9QU9BPEHP","A5P12YJP805RG","3ZXV7Q5FJBAKJ3TNMBBLYHIS0EBCFB","","","null","","","","","","","","","",""
"522.1000000238419","","image-keyboard-response","136","167414","0.0-136.0","3K772S5NP9XLGH214UAIG9QU9BPEHP","A5P12YJP805RG","3ZXV7Q5FJBAKJ3TNMBBLYHIS0EBCFB","","img/set1/S4.jpg","74","4","structured_load","74","structured_load,structured_normal,random,structured_incentive","1,2,2,3,4,2","1,4,3,2","true","","",""
"null","","html-keyboard-response","137","167776","0.0-137.0","3K772S5NP9XLGH214UAIG9QU9BPEHP","A5P12YJP805RG","3ZXV7Q5FJBAKJ3TNMBBLYHIS0EBCFB","","<img src=""img/set1/S4.jpg"" width=""540"" height = ""360"" style=""border:16px solid orange"">","null","","","","","","","","","",""
"null","","html-keyboard-response","138","167981","0.0-138.0","3K772S5NP9XLGH214UAIG9QU9BPEHP","A5P12YJP805RG","3ZXV7Q5FJBAKJ3TNMBBLYHIS0EBCFB","","","null","","","","","","","","","",""
"1403.199999988079","","image-keyboard-response","139","169386","0.0-139.0","3K772S5NP9XLGH214UAIG9QU9BPEHP","A5P12YJP805RG","3ZXV7Q5FJBAKJ3TNMBBLYHIS0EBCFB","","img/set1/S3.jpg","72","3","structured_load","72","structured_load,structured_normal,random,structured_incentive","1,2,2,3,4,2","1,4,3,2","true","","",""
"null","","html-keyboard-response","140","169744","0.0-140.0","3K772S5NP9XLGH214UAIG9QU9BPEHP","A5P12YJP805RG","3ZXV7Q5FJBAKJ3TNMBBLYHIS0EBCFB","","<img src=""img/set1/S3.jpg"" width=""540"" height = ""360"" style=""border:16px solid orange"">","null","","","","","","","","","",""
"null","","html-keyboard-response","141","169960","0.0-141.0","3K772S5NP9XLGH214UAIG9QU9BPEHP","A5P12YJP805RG","3ZXV7Q5FJBAKJ3TNMBBLYHIS0EBCFB","","","null","","","","","","","","","",""
"761.6000000238419","","image-keyboard-response","142","170723","0.0-142.0","3K772S5NP9XLGH214UAIG9QU9BPEHP","A5P12YJP805RG","3ZXV7Q5FJBAKJ3TNMBBLYHIS0EBCFB","","img/set1/S4.jpg","74","4","structured_load","74","structured_load,structured_normal,random,structured_incentive","1,2,2,3,4,2","1,4,3,2","true","","",""
"null","","html-keyboard-response","143","171077","0.0-143.0","3K772S5NP9XLGH214UAIG9QU9BPEHP","A5P12YJP805RG","3ZXV7Q5FJBAKJ3TNMBBLYHIS0EBCFB","","<img src=""img/set1/S4.jpg"" width=""540"" height = ""360"" style=""border:16px solid orange"">","null","","","","","","","","","",""
"null","","html-keyboard-response","144","171280","0.0-144.0","3K772S5NP9XLGH214UAIG9QU9BPEHP","A5P12YJP805RG","3ZXV7Q5FJBAKJ3TNMBBLYHIS0EBCFB","","","null","","","","","","","","","",""
"654.6000000238419","","image-keyboard-response","145","171937","0.0-145.0","3K772S5NP9XLGH214UAIG9QU9BPEHP","A5P12YJP805RG","3ZXV7Q5FJBAKJ3TNMBBLYHIS0EBCFB","","img/set1/S1.jpg","83","1","structured_load","83","structured_load,structured_normal,random,structured_incentive","1,2,2,3,4,2","1,4,3,2","true","","",""
"null","","html-keyboard-response","146","172296","0.0-146.0","3K772S5NP9XLGH214UAIG9QU9BPEHP","A5P12YJP805RG","3ZXV7Q5FJBAKJ3TNMBBLYHIS0EBCFB","","<img src=""img/set1/S1.jpg"" width=""540"" height = ""360"" style=""border:16px solid orange"">","null","","","","","","","","","",""
"null","","html-keyboard-response","147","172512","0.0-147.0","3K772S5NP9XLGH214UAIG9QU9BPEHP","A5P12YJP805RG","3ZXV7Q5FJBAKJ3TNMBBLYHIS0EBCFB","","","null","","","","","","","","","",""
"867","","image-keyboard-response","148","173381","0.0-148.0","3K772S5NP9XLGH214UAIG9QU9BPEHP","A5P12YJP805RG","3ZXV7Q5FJBAKJ3TNMBBLYHIS0EBCFB","","img/set1/S2.jpg","68","2","structured_load","68","structured_load,structured_normal,random,structured_incentive","1,2,2,3,4,2","1,4,3,2","true","","",""
"null","","html-keyboard-response","149","173736","0.0-149.0","3K772S5NP9XLGH214UAIG9QU9BPEHP","A5P12YJP805RG","3ZXV7Q5FJBAKJ3TNMBBLYHIS0EBCFB","","<img src=""img/set1/S2.jpg"" width=""540"" height = ""360"" style=""border:16px solid orange"">","null","","","","","","","","","",""
"null","","html-keyboard-response","150","173953","0.0-150.0","3K772S5NP9XLGH214UAIG9QU9BPEHP","A5P12YJP805RG","3ZXV7Q5FJBAKJ3TNMBBLYHIS0EBCFB","","","null","","","","","","","","","",""
"816.1999999880791","","image-keyboard-response","151","174771","0.0-151.0","3K772S5NP9XLGH214UAIG9QU9BPEHP","A5P12YJP805RG","3ZXV7Q5FJBAKJ3TNMBBLYHIS0EBCFB","","img/set1/S4.jpg","72","4","structured_load","74","structured_load,structured_normal,random,structured_incentive","1,2,2,3,4,2","1,4,3,2","false","","",""
"null","","html-keyboard-response","152","175138","0.0-152.0","3K772S5NP9XLGH214UAIG9QU9BPEHP","A5P12YJP805RG","3ZXV7Q5FJBAKJ3TNMBBLYHIS0EBCFB","","<img src=""img/set1/S4.jpg"" width=""540"" height = ""360"">","null","","","","","","","","","",""
"null","","html-keyboard-response","153","175354","0.0-153.0","3K772S5NP9XLGH214UAIG9QU9BPEHP","A5P12YJP805RG","3ZXV7Q5FJBAKJ3TNMBBLYHIS0EBCFB","","","null","","","","","","","","","",""
"407.5","","image-keyboard-response","154","175764","0.0-154.0","3K772S5NP9XLGH214UAIG9QU9BPEHP","A5P12YJP805RG","3ZXV7Q5FJBAKJ3TNMBBLYHIS0EBCFB","","img/set1/S4.jpg","74","4","structured_load","74","structured_load,structured_normal,random,structured_incentive","1,2,2,3,4,2","1,4,3,2","true","","",""
"null","","html-keyboard-response","155","176119","0.0-155.0","3K772S5NP9XLGH214UAIG9QU9BPEHP","A5P12YJP805RG","3ZXV7Q5FJBAKJ3TNMBBLYHIS0EBCFB","","<img src=""img/set1/S4.jpg"" width=""540"" height = ""360"" style=""border:16px solid orange"">","null","","","","","","","","","",""
"null","","html-keyboard-response","156","176321","0.0-156.0","3K772S5NP9XLGH214UAIG9QU9BPEHP","A5P12YJP805RG","3ZXV7Q5FJBAKJ3TNMBBLYHIS0EBCFB","","","null","","","","","","","","","",""
"995.0999999642372","","image-keyboard-response","157","177318","0.0-157.0","3K772S5NP9XLGH214UAIG9QU9BPEHP","A5P12YJP805RG","3ZXV7Q5FJBAKJ3TNMBBLYHIS0EBCFB","","img/set1/S3.jpg","72","3","structured_load","72","structured_load,structured_normal,random,structured_incentive","1,2,2,3,4,2","1,4,3,2","true","","",""
"null","","html-keyboard-response","158","177672","0.0-158.0","3K772S5NP9XLGH214UAIG9QU9BPEHP","A5P12YJP805RG","3ZXV7Q5FJBAKJ3TNMBBLYHIS0EBCFB","","<img src=""img/set1/S3.jpg"" width=""540"" height = ""360"" style=""border:16px solid orange"">","null","","","","","","","","","",""
"null","","html-keyboard-response","159","177874","0.0-159.0","3K772S5NP9XLGH214UAIG9QU9BPEHP","A5P12YJP805RG","3ZXV7Q5FJBAKJ3TNMBBLYHIS0EBCFB","","","null","","","","","","","","","",""
"550.8000000119209","","image-keyboard-response","160","178426","0.0-160.0","3K772S5NP9XLGH214UAIG9QU9BPEHP","A5P12YJP805RG","3ZXV7Q5FJBAKJ3TNMBBLYHIS0EBCFB","","img/set1/S3.jpg","72","3","structured_load","72","structured_load,structured_normal,random,structured_incentive","1,2,2,3,4,2","1,4,3,2","true","","",""
"null","","html-keyboard-response","161","178788","0.0-161.0","3K772S5NP9XLGH214UAIG9QU9BPEHP","A5P12YJP805RG","3ZXV7Q5FJBAKJ3TNMBBLYHIS0EBCFB","","<img src=""img/set1/S3.jpg"" width=""540"" height = ""360"" style=""border:16px solid orange"">","null","","","","","","","","","",""
"null","","html-keyboard-response","162","179006","0.0-162.0","3K772S5NP9XLGH214UAIG9QU9BPEHP","A5P12YJP805RG","3ZXV7Q5FJBAKJ3TNMBBLYHIS0EBCFB","","","null","","","","","","","","","",""
"406","","image-keyboard-response","163","179414","0.0-163.0","3K772S5NP9XLGH214UAIG9QU9BPEHP","A5P12YJP805RG","3ZXV7Q5FJBAKJ3TNMBBLYHIS0EBCFB","","img/set1/S3.jpg","72","3","structured_load","72","structured_load,structured_normal,random,structured_incentive","1,2,2,3,4,2","1,4,3,2","true","","",""
"null","","html-keyboard-response","164","179781","0.0-164.0","3K772S5NP9XLGH214UAIG9QU9BPEHP","A5P12YJP805RG","3ZXV7Q5FJBAKJ3TNMBBLYHIS0EBCFB","","<img src=""img/set1/S3.jpg"" width=""540"" height = ""360"" style=""border:16px solid orange"">","null","","","","","","","","","",""
"null","","html-keyboard-response","165","179985","0.0-165.0","3K772S5NP9XLGH214UAIG9QU9BPEHP","A5P12YJP805RG","3ZXV7Q5FJBAKJ3TNMBBLYHIS0EBCFB","","","null","","","","","","","","","",""
"605.5","","image-keyboard-response","166","180592","0.0-166.0","3K772S5NP9XLGH214UAIG9QU9BPEHP","A5P12YJP805RG","3ZXV7Q5FJBAKJ3TNMBBLYHIS0EBCFB","","img/set1/S1.jpg","83","1","structured_load","83","structured_load,structured_normal,random,structured_incentive","1,2,2,3,4,2","1,4,3,2","true","","",""
"null","","html-keyboard-response","167","180950","0.0-167.0","3K772S5NP9XLGH214UAIG9QU9BPEHP","A5P12YJP805RG","3ZXV7Q5FJBAKJ3TNMBBLYHIS0EBCFB","","<img src=""img/set1/S1.jpg"" width=""540"" height = ""360"" style=""border:16px solid orange"">","null","","","","","","","","","",""
"null","","html-keyboard-response","168","181153","0.0-168.0","3K772S5NP9XLGH214UAIG9QU9BPEHP","A5P12YJP805RG","3ZXV7Q5FJBAKJ3TNMBBLYHIS0EBCFB","","","null","","","","","","","","","",""
"1645.2999999523163","","image-keyboard-response","169","182800","0.0-169.0","3K772S5NP9XLGH214UAIG9QU9BPEHP","A5P12YJP805RG","3ZXV7Q5FJBAKJ3TNMBBLYHIS0EBCFB","","img/set1/S2.jpg","68","2","structured_load","68","structured_load,structured_normal,random,structured_incentive","1,2,2,3,4,2","1,4,3,2","true","","",""
"null","","html-keyboard-response","170","183154","0.0-170.0","3K772S5NP9XLGH214UAIG9QU9BPEHP","A5P12YJP805RG","3ZXV7Q5FJBAKJ3TNMBBLYHIS0EBCFB","","<img src=""img/set1/S2.jpg"" width=""540"" height = ""360"" style=""border:16px solid orange"">","null","","","","","","","","","",""
"null","","html-keyboard-response","171","183358","0.0-171.0","3K772S5NP9XLGH214UAIG9QU9BPEHP","A5P12YJP805RG","3ZXV7Q5FJBAKJ3TNMBBLYHIS0EBCFB","","","null","","","","","","","","","",""
"1008.3000000119209","","image-keyboard-response","172","184368","0.0-172.0","3K772S5NP9XLGH214UAIG9QU9BPEHP","A5P12YJP805RG","3ZXV7Q5FJBAKJ3TNMBBLYHIS0EBCFB","","img/set1/S3.jpg","74","3","structured_load","72","structured_load,structured_normal,random,structured_incentive","1,2,2,3,4,2","1,4,3,2","false","","",""
"null","","html-keyboard-response","173","184728","0.0-173.0","3K772S5NP9XLGH214UAIG9QU9BPEHP","A5P12YJP805RG","3ZXV7Q5FJBAKJ3TNMBBLYHIS0EBCFB","","<img src=""img/set1/S3.jpg"" width=""540"" height = ""360"">","null","","","","","","","","","",""
"null","","html-keyboard-response","174","184945","0.0-174.0","3K772S5NP9XLGH214UAIG9QU9BPEHP","A5P12YJP805RG","3ZXV7Q5FJBAKJ3TNMBBLYHIS0EBCFB","","","null","","","","","","","","","",""
"917","","image-keyboard-response","175","185863","0.0-175.0","3K772S5NP9XLGH214UAIG9QU9BPEHP","A5P12YJP805RG","3ZXV7Q5FJBAKJ3TNMBBLYHIS0EBCFB","","img/set1/S4.jpg","74","4","structured_load","74","structured_load,structured_normal,random,structured_incentive","1,2,2,3,4,2","1,4,3,2","true","","",""
"null","","html-keyboard-response","176","186219","0.0-176.0","3K772S5NP9XLGH214UAIG9QU9BPEHP","A5P12YJP805RG","3ZXV7Q5FJBAKJ3TNMBBLYHIS0EBCFB","","<img src=""img/set1/S4.jpg"" width=""540"" height = ""360"" style=""border:16px solid orange"">","null","","","","","","","","","",""
"null","","html-keyboard-response","177","186435","0.0-177.0","3K772S5NP9XLGH214UAIG9QU9BPEHP","A5P12YJP805RG","3ZXV7Q5FJBAKJ3TNMBBLYHIS0EBCFB","","","null","","","","","","","","","",""
"534.8000000119209","","image-keyboard-response","178","186971","0.0-178.0","3K772S5NP9XLGH214UAIG9QU9BPEHP","A5P12YJP805RG","3ZXV7Q5FJBAKJ3TNMBBLYHIS0EBCFB","","img/set1/S3.jpg","72","3","structured_load","72","structured_load,structured_normal,random,structured_incentive","1,2,2,3,4,2","1,4,3,2","true","","",""
"null","","html-keyboard-response","179","187337","0.0-179.0","3K772S5NP9XLGH214UAIG9QU9BPEHP","A5P12YJP805RG","3ZXV7Q5FJBAKJ3TNMBBLYHIS0EBCFB","","<img src=""img/set1/S3.jpg"" width=""540"" height = ""360"" style=""border:16px solid orange"">","null","","","","","","","","","",""
"null","","html-keyboard-response","180","187538","0.0-180.0","3K772S5NP9XLGH214UAIG9QU9BPEHP","A5P12YJP805RG","3ZXV7Q5FJBAKJ3TNMBBLYHIS0EBCFB","","","null","","","","","","","","","",""
"779.6000000238419","","image-keyboard-response","181","188320","0.0-181.0","3K772S5NP9XLGH214UAIG9QU9BPEHP","A5P12YJP805RG","3ZXV7Q5FJBAKJ3TNMBBLYHIS0EBCFB","","img/set1/S1.jpg","83","1","structured_load","83","structured_load,structured_normal,random,structured_incentive","1,2,2,3,4,2","1,4,3,2","true","","",""
"null","","html-keyboard-response","182","188673","0.0-182.0","3K772S5NP9XLGH214UAIG9QU9BPEHP","A5P12YJP805RG","3ZXV7Q5FJBAKJ3TNMBBLYHIS0EBCFB","","<img src=""img/set1/S1.jpg"" width=""540"" height = ""360"" style=""border:16px solid orange"">","null","","","","","","","","","",""
"null","","html-keyboard-response","183","188888","0.0-183.0","3K772S5NP9XLGH214UAIG9QU9BPEHP","A5P12YJP805RG","3ZXV7Q5FJBAKJ3TNMBBLYHIS0EBCFB","","","null","","","","","","","","","",""
"1460.3999999761581","","image-keyboard-response","184","190350","0.0-184.0","3K772S5NP9XLGH214UAIG9QU9BPEHP","A5P12YJP805RG","3ZXV7Q5FJBAKJ3TNMBBLYHIS0EBCFB","","img/set1/S2.jpg","68","2","structured_load","68","structured_load,structured_normal,random,structured_incentive","1,2,2,3,4,2","1,4,3,2","true","","",""
"null","","html-keyboard-response","185","190709","0.0-185.0","3K772S5NP9XLGH214UAIG9QU9BPEHP","A5P12YJP805RG","3ZXV7Q5FJBAKJ3TNMBBLYHIS0EBCFB","","<img src=""img/set1/S2.jpg"" width=""540"" height = ""360"" style=""border:16px solid orange"">","null","","","","","","","","","",""
"null","","html-keyboard-response","186","190924","0.0-186.0","3K772S5NP9XLGH214UAIG9QU9BPEHP","A5P12YJP805RG","3ZXV7Q5FJBAKJ3TNMBBLYHIS0EBCFB","","","null","","","","","","","","","",""
"2022.7000000476837","","image-keyboard-response","187","192948","0.0-187.0","3K772S5NP9XLGH214UAIG9QU9BPEHP","A5P12YJP805RG","3ZXV7Q5FJBAKJ3TNMBBLYHIS0EBCFB","","img/set1/S3.jpg","74","3","structured_load","72","structured_load,structured_normal,random,structured_incentive","1,2,2,3,4,2","1,4,3,2","false","","",""
"null","","html-keyboard-response","188","193308","0.0-188.0","3K772S5NP9XLGH214UAIG9QU9BPEHP","A5P12YJP805RG","3ZXV7Q5FJBAKJ3TNMBBLYHIS0EBCFB","","<img src=""img/set1/S3.jpg"" width=""540"" height = ""360"">","null","","","","","","","","","",""
"null","","html-keyboard-response","189","193511","0.0-189.0","3K772S5NP9XLGH214UAIG9QU9BPEHP","A5P12YJP805RG","3ZXV7Q5FJBAKJ3TNMBBLYHIS0EBCFB","","","null","","","","","","","","","",""
"834.5","","image-keyboard-response","190","194347","0.0-190.0","3K772S5NP9XLGH214UAIG9QU9BPEHP","A5P12YJP805RG","3ZXV7Q5FJBAKJ3TNMBBLYHIS0EBCFB","","img/set1/S2.jpg","68","2","structured_load","68","structured_load,structured_normal,random,structured_incentive","1,2,2,3,4,2","1,4,3,2","true","","",""
"null","","html-keyboard-response","191","194709","0.0-191.0","3K772S5NP9XLGH214UAIG9QU9BPEHP","A5P12YJP805RG","3ZXV7Q5FJBAKJ3TNMBBLYHIS0EBCFB","","<img src=""img/set1/S2.jpg"" width=""540"" height = ""360"" style=""border:16px solid orange"">","null","","","","","","","","","",""
"null","","html-keyboard-response","192","194926","0.0-192.0","3K772S5NP9XLGH214UAIG9QU9BPEHP","A5P12YJP805RG","3ZXV7Q5FJBAKJ3TNMBBLYHIS0EBCFB","","","null","","","","","","","","","",""
"663.6000000238419","","image-keyboard-response","193","195591","0.0-193.0","3K772S5NP9XLGH214UAIG9QU9BPEHP","A5P12YJP805RG","3ZXV7Q5FJBAKJ3TNMBBLYHIS0EBCFB","","img/set1/S4.jpg","72","4","structured_load","74","structured_load,structured_normal,random,structured_incentive","1,2,2,3,4,2","1,4,3,2","false","","",""
"null","","html-keyboard-response","194","195953","0.0-194.0","3K772S5NP9XLGH214UAIG9QU9BPEHP","A5P12YJP805RG","3ZXV7Q5FJBAKJ3TNMBBLYHIS0EBCFB","","<img src=""img/set1/S4.jpg"" width=""540"" height = ""360"">","null","","","","","","","","","",""
"null","","html-keyboard-response","195","196156","0.0-195.0","3K772S5NP9XLGH214UAIG9QU9BPEHP","A5P12YJP805RG","3ZXV7Q5FJBAKJ3TNMBBLYHIS0EBCFB","","","null","","","","","","","","","",""
"622.5999999642372","","image-keyboard-response","196","196781","0.0-196.0","3K772S5NP9XLGH214UAIG9QU9BPEHP","A5P12YJP805RG","3ZXV7Q5FJBAKJ3TNMBBLYHIS0EBCFB","","img/set1/S1.jpg","83","1","structured_load","83","structured_load,structured_normal,random,structured_incentive","1,2,2,3,4,2","1,4,3,2","true","","",""
"null","","html-keyboard-response","197","197136","0.0-197.0","3K772S5NP9XLGH214UAIG9QU9BPEHP","A5P12YJP805RG","3ZXV7Q5FJBAKJ3TNMBBLYHIS0EBCFB","","<img src=""img/set1/S1.jpg"" width=""540"" height = ""360"" style=""border:16px solid orange"">","null","","","","","","","","","",""
"null","","html-keyboard-response","198","197352","0.0-198.0","3K772S5NP9XLGH214UAIG9QU9BPEHP","A5P12YJP805RG","3ZXV7Q5FJBAKJ3TNMBBLYHIS0EBCFB","","","null","","","","","","","","","",""
"1621.5999999642372","","image-keyboard-response","199","198975","0.0-199.0","3K772S5NP9XLGH214UAIG9QU9BPEHP","A5P12YJP805RG","3ZXV7Q5FJBAKJ3TNMBBLYHIS0EBCFB","","img/set1/S2.jpg","68","2","structured_load","68","structured_load,structured_normal,random,structured_incentive","1,2,2,3,4,2","1,4,3,2","true","","",""
"null","","html-keyboard-response","200","199340","0.0-200.0","3K772S5NP9XLGH214UAIG9QU9BPEHP","A5P12YJP805RG","3ZXV7Q5FJBAKJ3TNMBBLYHIS0EBCFB","","<img src=""img/set1/S2.jpg"" width=""540"" height = ""360"" style=""border:16px solid orange"">","null","","","","","","","","","",""
"null","","html-keyboard-response","201","199543","0.0-201.0","3K772S5NP9XLGH214UAIG9QU9BPEHP","A5P12YJP805RG","3ZXV7Q5FJBAKJ3TNMBBLYHIS0EBCFB","","","null","","","","","","","","","",""
"389.60000002384186","","image-keyboard-response","202","199934","0.0-202.0","3K772S5NP9XLGH214UAIG9QU9BPEHP","A5P12YJP805RG","3ZXV7Q5FJBAKJ3TNMBBLYHIS0EBCFB","","img/set1/S2.jpg","68","2","structured_load","68","structured_load,structured_normal,random,structured_incentive","1,2,2,3,4,2","1,4,3,2","true","","",""
"null","","html-keyboard-response","203","200290","0.0-203.0","3K772S5NP9XLGH214UAIG9QU9BPEHP","A5P12YJP805RG","3ZXV7Q5FJBAKJ3TNMBBLYHIS0EBCFB","","<img src=""img/set1/S2.jpg"" width=""540"" height = ""360"" style=""border:16px solid orange"">","null","","","","","","","","","",""
"null","","html-keyboard-response","204","200492","0.0-204.0","3K772S5NP9XLGH214UAIG9QU9BPEHP","A5P12YJP805RG","3ZXV7Q5FJBAKJ3TNMBBLYHIS0EBCFB","","","null","","","","","","","","","",""
"1551.5","","image-keyboard-response","205","202045","0.0-205.0","3K772S5NP9XLGH214UAIG9QU9BPEHP","A5P12YJP805RG","3ZXV7Q5FJBAKJ3TNMBBLYHIS0EBCFB","","img/set1/S4.jpg","74","4","structured_load","74","structured_load,structured_normal,random,structured_incentive","1,2,2,3,4,2","1,4,3,2","true","","",""
"null","","html-keyboard-response","206","202403","0.0-206.0","3K772S5NP9XLGH214UAIG9QU9BPEHP","A5P12YJP805RG","3ZXV7Q5FJBAKJ3TNMBBLYHIS0EBCFB","","<img src=""img/set1/S4.jpg"" width=""540"" height = ""360"" style=""border:16px solid orange"">","null","","","","","","","","","",""
"null","","html-keyboard-response","207","202605","0.0-207.0","3K772S5NP9XLGH214UAIG9QU9BPEHP","A5P12YJP805RG","3ZXV7Q5FJBAKJ3TNMBBLYHIS0EBCFB","","","null","","","","","","","","","",""
"562","","image-keyboard-response","208","203169","0.0-208.0","3K772S5NP9XLGH214UAIG9QU9BPEHP","A5P12YJP805RG","3ZXV7Q5FJBAKJ3TNMBBLYHIS0EBCFB","","img/set1/S1.jpg","83","1","structured_load","83","structured_load,structured_normal,random,structured_incentive","1,2,2,3,4,2","1,4,3,2","true","","",""
"null","","html-keyboard-response","209","203536","0.0-209.0","3K772S5NP9XLGH214UAIG9QU9BPEHP","A5P12YJP805RG","3ZXV7Q5FJBAKJ3TNMBBLYHIS0EBCFB","","<img src=""img/set1/S1.jpg"" width=""540"" height = ""360"" style=""border:16px solid orange"">","null","","","","","","","","","",""
"null","","html-keyboard-response","210","203741","0.0-210.0","3K772S5NP9XLGH214UAIG9QU9BPEHP","A5P12YJP805RG","3ZXV7Q5FJBAKJ3TNMBBLYHIS0EBCFB","","","null","","","","","","","","","",""
"740","","image-keyboard-response","211","204483","0.0-211.0","3K772S5NP9XLGH214UAIG9QU9BPEHP","A5P12YJP805RG","3ZXV7Q5FJBAKJ3TNMBBLYHIS0EBCFB","","img/set1/S2.jpg","68","2","structured_load","68","structured_load,structured_normal,random,structured_incentive","1,2,2,3,4,2","1,4,3,2","true","","",""
"null","","html-keyboard-response","212","204849","0.0-212.0","3K772S5NP9XLGH214UAIG9QU9BPEHP","A5P12YJP805RG","3ZXV7Q5FJBAKJ3TNMBBLYHIS0EBCFB","","<img src=""img/set1/S2.jpg"" width=""540"" height = ""360"" style=""border:16px solid orange"">","null","","","","","","","","","",""
"null","","html-keyboard-response","213","205065","0.0-213.0","3K772S5NP9XLGH214UAIG9QU9BPEHP","A5P12YJP805RG","3ZXV7Q5FJBAKJ3TNMBBLYHIS0EBCFB","","","null","","","","","","","","","",""
"699.6000000238419","","image-keyboard-response","214","205767","0.0-214.0","3K772S5NP9XLGH214UAIG9QU9BPEHP","A5P12YJP805RG","3ZXV7Q5FJBAKJ3TNMBBLYHIS0EBCFB","","img/set1/S3.jpg","72","3","structured_load","72","structured_load,structured_normal,random,structured_incentive","1,2,2,3,4,2","1,4,3,2","true","","",""
"null","","html-keyboard-response","215","206120","0.0-215.0","3K772S5NP9XLGH214UAIG9QU9BPEHP","A5P12YJP805RG","3ZXV7Q5FJBAKJ3TNMBBLYHIS0EBCFB","","<img src=""img/set1/S3.jpg"" width=""540"" height = ""360"" style=""border:16px solid orange"">","null","","","","","","","","","",""
"null","","html-keyboard-response","216","206324","0.0-216.0","3K772S5NP9XLGH214UAIG9QU9BPEHP","A5P12YJP805RG","3ZXV7Q5FJBAKJ3TNMBBLYHIS0EBCFB","","","null","","","","","","","","","",""
"393.39999997615814","","image-keyboard-response","217","206719","0.0-217.0","3K772S5NP9XLGH214UAIG9QU9BPEHP","A5P12YJP805RG","3ZXV7Q5FJBAKJ3TNMBBLYHIS0EBCFB","","img/set1/S3.jpg","72","3","structured_load","72","structured_load,structured_normal,random,structured_incentive","1,2,2,3,4,2","1,4,3,2","true","","",""
"null","","html-keyboard-response","218","207085","0.0-218.0","3K772S5NP9XLGH214UAIG9QU9BPEHP","A5P12YJP805RG","3ZXV7Q5FJBAKJ3TNMBBLYHIS0EBCFB","","<img src=""img/set1/S3.jpg"" width=""540"" height = ""360"" style=""border:16px solid orange"">","null","","","","","","","","","",""
"null","","html-keyboard-response","219","207287","0.0-219.0","3K772S5NP9XLGH214UAIG9QU9BPEHP","A5P12YJP805RG","3ZXV7Q5FJBAKJ3TNMBBLYHIS0EBCFB","","","null","","","","","","","","","",""
"568.8000000119209","","image-keyboard-response","220","207858","0.0-220.0","3K772S5NP9XLGH214UAIG9QU9BPEHP","A5P12YJP805RG","3ZXV7Q5FJBAKJ3TNMBBLYHIS0EBCFB","","img/set1/S1.jpg","83","1","structured_load","83","structured_load,structured_normal,random,structured_incentive","1,2,2,3,4,2","1,4,3,2","true","","",""
"null","","html-keyboard-response","221","208218","0.0-221.0","3K772S5NP9XLGH214UAIG9QU9BPEHP","A5P12YJP805RG","3ZXV7Q5FJBAKJ3TNMBBLYHIS0EBCFB","","<img src=""img/set1/S1.jpg"" width=""540"" height = ""360"" style=""border:16px solid orange"">","null","","","","","","","","","",""
"null","","html-keyboard-response","222","208434","0.0-222.0","3K772S5NP9XLGH214UAIG9QU9BPEHP","A5P12YJP805RG","3ZXV7Q5FJBAKJ3TNMBBLYHIS0EBCFB","","","null","","","","","","","","","",""
"1307","","image-keyboard-response","223","209742","0.0-223.0","3K772S5NP9XLGH214UAIG9QU9BPEHP","A5P12YJP805RG","3ZXV7Q5FJBAKJ3TNMBBLYHIS0EBCFB","","img/set1/S2.jpg","68","2","structured_load","68","structured_load,structured_normal,random,structured_incentive","1,2,2,3,4,2","1,4,3,2","true","","",""
"null","","html-keyboard-response","224","210095","0.0-224.0","3K772S5NP9XLGH214UAIG9QU9BPEHP","A5P12YJP805RG","3ZXV7Q5FJBAKJ3TNMBBLYHIS0EBCFB","","<img src=""img/set1/S2.jpg"" width=""540"" height = ""360"" style=""border:16px solid orange"">","null","","","","","","","","","",""
"null","","html-keyboard-response","225","210298","0.0-225.0","3K772S5NP9XLGH214UAIG9QU9BPEHP","A5P12YJP805RG","3ZXV7Q5FJBAKJ3TNMBBLYHIS0EBCFB","","","null","","","","","","","","","",""
"501.9000000357628","","image-keyboard-response","226","210801","0.0-226.0","3K772S5NP9XLGH214UAIG9QU9BPEHP","A5P12YJP805RG","3ZXV7Q5FJBAKJ3TNMBBLYHIS0EBCFB","","img/set1/S2.jpg","68","2","structured_load","68","structured_load,structured_normal,random,structured_incentive","1,2,2,3,4,2","1,4,3,2","true","","",""
"null","","html-keyboard-response","227","211170","0.0-227.0","3K772S5NP9XLGH214UAIG9QU9BPEHP","A5P12YJP805RG","3ZXV7Q5FJBAKJ3TNMBBLYHIS0EBCFB","","<img src=""img/set1/S2.jpg"" width=""540"" height = ""360"" style=""border:16px solid orange"">","null","","","","","","","","","",""
"null","","html-keyboard-response","228","211371","0.0-228.0","3K772S5NP9XLGH214UAIG9QU9BPEHP","A5P12YJP805RG","3ZXV7Q5FJBAKJ3TNMBBLYHIS0EBCFB","","","null","","","","","","","","","",""
"340.80000001192093","","image-keyboard-response","229","211714","0.0-229.0","3K772S5NP9XLGH214UAIG9QU9BPEHP","A5P12YJP805RG","3ZXV7Q5FJBAKJ3TNMBBLYHIS0EBCFB","","img/set1/S2.jpg","68","2","structured_load","68","structured_load,structured_normal,random,structured_incentive","1,2,2,3,4,2","1,4,3,2","true","","",""
"null","","html-keyboard-response","230","212068","0.0-230.0","3K772S5NP9XLGH214UAIG9QU9BPEHP","A5P12YJP805RG","3ZXV7Q5FJBAKJ3TNMBBLYHIS0EBCFB","","<img src=""img/set1/S2.jpg"" width=""540"" height = ""360"" style=""border:16px solid orange"">","null","","","","","","","","","",""
"null","","html-keyboard-response","231","212272","0.0-231.0","3K772S5NP9XLGH214UAIG9QU9BPEHP","A5P12YJP805RG","3ZXV7Q5FJBAKJ3TNMBBLYHIS0EBCFB","","","null","","","","","","","","","",""
"1596.199999988079","","image-keyboard-response","232","213870","0.0-232.0","3K772S5NP9XLGH214UAIG9QU9BPEHP","A5P12YJP805RG","3ZXV7Q5FJBAKJ3TNMBBLYHIS0EBCFB","","img/set1/S4.jpg","74","4","structured_load","74","structured_load,structured_normal,random,structured_incentive","1,2,2,3,4,2","1,4,3,2","true","","",""
"null","","html-keyboard-response","233","214235","0.0-233.0","3K772S5NP9XLGH214UAIG9QU9BPEHP","A5P12YJP805RG","3ZXV7Q5FJBAKJ3TNMBBLYHIS0EBCFB","","<img src=""img/set1/S4.jpg"" width=""540"" height = ""360"" style=""border:16px solid orange"">","null","","","","","","","","","",""
"null","","html-keyboard-response","234","214437","0.0-234.0","3K772S5NP9XLGH214UAIG9QU9BPEHP","A5P12YJP805RG","3ZXV7Q5FJBAKJ3TNMBBLYHIS0EBCFB","","","null","","","","","","","","","",""
"339.19999998807907","","image-keyboard-response","235","214778","0.0-235.0","3K772S5NP9XLGH214UAIG9QU9BPEHP","A5P12YJP805RG","3ZXV7Q5FJBAKJ3TNMBBLYHIS0EBCFB","","img/set1/S4.jpg","74","4","structured_load","74","structured_load,structured_normal,random,structured_incentive","1,2,2,3,4,2","1,4,3,2","true","","",""
"null","","html-keyboard-response","236","215140","0.0-236.0","3K772S5NP9XLGH214UAIG9QU9BPEHP","A5P12YJP805RG","3ZXV7Q5FJBAKJ3TNMBBLYHIS0EBCFB","","<img src=""img/set1/S4.jpg"" width=""540"" height = ""360"" style=""border:16px solid orange"">","null","","","","","","","","","",""
"null","","html-keyboard-response","237","215343","0.0-237.0","3K772S5NP9XLGH214UAIG9QU9BPEHP","A5P12YJP805RG","3ZXV7Q5FJBAKJ3TNMBBLYHIS0EBCFB","","","null","","","","","","","","","",""
"356.60000002384186","","image-keyboard-response","238","215701","0.0-238.0","3K772S5NP9XLGH214UAIG9QU9BPEHP","A5P12YJP805RG","3ZXV7Q5FJBAKJ3TNMBBLYHIS0EBCFB","","img/set1/S4.jpg","74","4","structured_load","74","structured_load,structured_normal,random,structured_incentive","1,2,2,3,4,2","1,4,3,2","true","","",""
"null","","html-keyboard-response","239","216060","0.0-239.0","3K772S5NP9XLGH214UAIG9QU9BPEHP","A5P12YJP805RG","3ZXV7Q5FJBAKJ3TNMBBLYHIS0EBCFB","","<img src=""img/set1/S4.jpg"" width=""540"" height = ""360"" style=""border:16px solid orange"">","null","","","","","","","","","",""
"null","","html-keyboard-response","240","216276","0.0-240.0","3K772S5NP9XLGH214UAIG9QU9BPEHP","A5P12YJP805RG","3ZXV7Q5FJBAKJ3TNMBBLYHIS0EBCFB","","","null","","","","","","","","","",""
"471","","image-keyboard-response","241","216749","0.0-241.0","3K772S5NP9XLGH214UAIG9QU9BPEHP","A5P12YJP805RG","3ZXV7Q5FJBAKJ3TNMBBLYHIS0EBCFB","","img/set1/S3.jpg","72","3","structured_load","72","structured_load,structured_normal,random,structured_incentive","1,2,2,3,4,2","1,4,3,2","true","","",""
"null","","html-keyboard-response","242","217117","0.0-242.0","3K772S5NP9XLGH214UAIG9QU9BPEHP","A5P12YJP805RG","3ZXV7Q5FJBAKJ3TNMBBLYHIS0EBCFB","","<img src=""img/set1/S3.jpg"" width=""540"" height = ""360"" style=""border:16px solid orange"">","null","","","","","","","","","",""
"null","","html-keyboard-response","243","217331","0.0-243.0","3K772S5NP9XLGH214UAIG9QU9BPEHP","A5P12YJP805RG","3ZXV7Q5FJBAKJ3TNMBBLYHIS0EBCFB","","","null","","","","","","","","","",""
"514.2000000476837","","image-keyboard-response","244","217847","0.0-244.0","3K772S5NP9XLGH214UAIG9QU9BPEHP","A5P12YJP805RG","3ZXV7Q5FJBAKJ3TNMBBLYHIS0EBCFB","","img/set1/S4.jpg","74","4","structured_load","74","structured_load,structured_normal,random,structured_incentive","1,2,2,3,4,2","1,4,3,2","true","","",""
"null","","html-keyboard-response","245","218202","0.0-245.0","3K772S5NP9XLGH214UAIG9QU9BPEHP","A5P12YJP805RG","3ZXV7Q5FJBAKJ3TNMBBLYHIS0EBCFB","","<img src=""img/set1/S4.jpg"" width=""540"" height = ""360"" style=""border:16px solid orange"">","null","","","","","","","","","",""
"null","","html-keyboard-response","246","218403","0.0-246.0","3K772S5NP9XLGH214UAIG9QU9BPEHP","A5P12YJP805RG","3ZXV7Q5FJBAKJ3TNMBBLYHIS0EBCFB","","","null","","","","","","","","","",""
"671","","image-keyboard-response","247","219076","0.0-247.0","3K772S5NP9XLGH214UAIG9QU9BPEHP","A5P12YJP805RG","3ZXV7Q5FJBAKJ3TNMBBLYHIS0EBCFB","","img/set1/S3.jpg","72","3","structured_load","72","structured_load,structured_normal,random,structured_incentive","1,2,2,3,4,2","1,4,3,2","true","","",""
"null","","html-keyboard-response","248","219444","0.0-248.0","3K772S5NP9XLGH214UAIG9QU9BPEHP","A5P12YJP805RG","3ZXV7Q5FJBAKJ3TNMBBLYHIS0EBCFB","","<img src=""img/set1/S3.jpg"" width=""540"" height = ""360"" style=""border:16px solid orange"">","null","","","","","","","","","",""
"null","","html-keyboard-response","249","219645","0.0-249.0","3K772S5NP9XLGH214UAIG9QU9BPEHP","A5P12YJP805RG","3ZXV7Q5FJBAKJ3TNMBBLYHIS0EBCFB","","","null","","","","","","","","","",""
"366.4000000357628","","image-keyboard-response","250","220014","0.0-250.0","3K772S5NP9XLGH214UAIG9QU9BPEHP","A5P12YJP805RG","3ZXV7Q5FJBAKJ3TNMBBLYHIS0EBCFB","","img/set1/S3.jpg","72","3","structured_load","72","structured_load,structured_normal,random,structured_incentive","1,2,2,3,4,2","1,4,3,2","true","","",""
"null","","html-keyboard-response","251","220375","0.0-251.0","3K772S5NP9XLGH214UAIG9QU9BPEHP","A5P12YJP805RG","3ZXV7Q5FJBAKJ3TNMBBLYHIS0EBCFB","","<img src=""img/set1/S3.jpg"" width=""540"" height = ""360"" style=""border:16px solid orange"">","null","","","","","","","","","",""
"null","","html-keyboard-response","252","220591","0.0-252.0","3K772S5NP9XLGH214UAIG9QU9BPEHP","A5P12YJP805RG","3ZXV7Q5FJBAKJ3TNMBBLYHIS0EBCFB","","","null","","","","","","","","","",""
"353.60000002384186","","image-keyboard-response","253","220946","0.0-253.0","3K772S5NP9XLGH214UAIG9QU9BPEHP","A5P12YJP805RG","3ZXV7Q5FJBAKJ3TNMBBLYHIS0EBCFB","","img/set1/S3.jpg","72","3","structured_load","72","structured_load,structured_normal,random,structured_incentive","1,2,2,3,4,2","1,4,3,2","true","","",""
"null","","html-keyboard-response","254","221305","0.0-254.0","3K772S5NP9XLGH214UAIG9QU9BPEHP","A5P12YJP805RG","3ZXV7Q5FJBAKJ3TNMBBLYHIS0EBCFB","","<img src=""img/set1/S3.jpg"" width=""540"" height = ""360"" style=""border:16px solid orange"">","null","","","","","","","","","",""
"null","","html-keyboard-response","255","221522","0.0-255.0","3K772S5NP9XLGH214UAIG9QU9BPEHP","A5P12YJP805RG","3ZXV7Q5FJBAKJ3TNMBBLYHIS0EBCFB","","","null","","","","","","","","","",""
"344.39999997615814","","image-keyboard-response","256","221868","0.0-256.0","3K772S5NP9XLGH214UAIG9QU9BPEHP","A5P12YJP805RG","3ZXV7Q5FJBAKJ3TNMBBLYHIS0EBCFB","","img/set1/S3.jpg","72","3","structured_load","72","structured_load,structured_normal,random,structured_incentive","1,2,2,3,4,2","1,4,3,2","true","","",""
"null","","html-keyboard-response","257","222220","0.0-257.0","3K772S5NP9XLGH214UAIG9QU9BPEHP","A5P12YJP805RG","3ZXV7Q5FJBAKJ3TNMBBLYHIS0EBCFB","","<img src=""img/set1/S3.jpg"" width=""540"" height = ""360"" style=""border:16px solid orange"">","null","","","","","","","","","",""
"null","","html-keyboard-response","258","222424","0.0-258.0","3K772S5NP9XLGH214UAIG9QU9BPEHP","A5P12YJP805RG","3ZXV7Q5FJBAKJ3TNMBBLYHIS0EBCFB","","","null","","","","","","","","","",""
"589","","image-keyboard-response","259","223015","0.0-259.0","3K772S5NP9XLGH214UAIG9QU9BPEHP","A5P12YJP805RG","3ZXV7Q5FJBAKJ3TNMBBLYHIS0EBCFB","","img/set1/S4.jpg","74","4","structured_load","74","structured_load,structured_normal,random,structured_incentive","1,2,2,3,4,2","1,4,3,2","true","","",""
"null","","html-keyboard-response","260","223368","0.0-260.0","3K772S5NP9XLGH214UAIG9QU9BPEHP","A5P12YJP805RG","3ZXV7Q5FJBAKJ3TNMBBLYHIS0EBCFB","","<img src=""img/set1/S4.jpg"" width=""540"" height = ""360"" style=""border:16px solid orange"">","null","","","","","","","","","",""
"null","","html-keyboard-response","261","223584","0.0-261.0","3K772S5NP9XLGH214UAIG9QU9BPEHP","A5P12YJP805RG","3ZXV7Q5FJBAKJ3TNMBBLYHIS0EBCFB","","","null","","","","","","","","","",""
"769.3999999761581","","image-keyboard-response","262","224355","0.0-262.0","3K772S5NP9XLGH214UAIG9QU9BPEHP","A5P12YJP805RG","3ZXV7Q5FJBAKJ3TNMBBLYHIS0EBCFB","","img/set1/S1.jpg","83","1","structured_load","83","structured_load,structured_normal,random,structured_incentive","1,2,2,3,4,2","1,4,3,2","true","","",""
"null","","html-keyboard-response","263","224717","0.0-263.0","3K772S5NP9XLGH214UAIG9QU9BPEHP","A5P12YJP805RG","3ZXV7Q5FJBAKJ3TNMBBLYHIS0EBCFB","","<img src=""img/set1/S1.jpg"" width=""540"" height = ""360"" style=""border:16px solid orange"">","null","","","","","","","","","",""
"null","","html-keyboard-response","264","224934","0.0-264.0","3K772S5NP9XLGH214UAIG9QU9BPEHP","A5P12YJP805RG","3ZXV7Q5FJBAKJ3TNMBBLYHIS0EBCFB","","","null","","","","","","","","","",""
"744.5","","image-keyboard-response","265","225681","0.0-265.0","3K772S5NP9XLGH214UAIG9QU9BPEHP","A5P12YJP805RG","3ZXV7Q5FJBAKJ3TNMBBLYHIS0EBCFB","","img/set1/S2.jpg","68","2","structured_load","68","structured_load,structured_normal,random,structured_incentive","1,2,2,3,4,2","1,4,3,2","true","","",""
"null","","html-keyboard-response","266","226048","0.0-266.0","3K772S5NP9XLGH214UAIG9QU9BPEHP","A5P12YJP805RG","3ZXV7Q5FJBAKJ3TNMBBLYHIS0EBCFB","","<img src=""img/set1/S2.jpg"" width=""540"" height = ""360"" style=""border:16px solid orange"">","null","","","","","","","","","",""
"null","","html-keyboard-response","267","226255","0.0-267.0","3K772S5NP9XLGH214UAIG9QU9BPEHP","A5P12YJP805RG","3ZXV7Q5FJBAKJ3TNMBBLYHIS0EBCFB","","","null","","","","","","","","","",""
"1493.0999999642372","","image-keyboard-response","268","227750","0.0-268.0","3K772S5NP9XLGH214UAIG9QU9BPEHP","A5P12YJP805RG","3ZXV7Q5FJBAKJ3TNMBBLYHIS0EBCFB","","img/set1/S3.jpg","72","3","structured_load","72","structured_load,structured_normal,random,structured_incentive","1,2,2,3,4,2","1,4,3,2","true","","",""
"null","","html-keyboard-response","269","228117","0.0-269.0","3K772S5NP9XLGH214UAIG9QU9BPEHP","A5P12YJP805RG","3ZXV7Q5FJBAKJ3TNMBBLYHIS0EBCFB","","<img src=""img/set1/S3.jpg"" width=""540"" height = ""360"" style=""border:16px solid orange"">","null","","","","","","","","","",""
"null","","html-keyboard-response","270","228320","0.0-270.0","3K772S5NP9XLGH214UAIG9QU9BPEHP","A5P12YJP805RG","3ZXV7Q5FJBAKJ3TNMBBLYHIS0EBCFB","","","null","","","","","","","","","",""
"342.2999999523163","","image-keyboard-response","271","228663","0.0-271.0","3K772S5NP9XLGH214UAIG9QU9BPEHP","A5P12YJP805RG","3ZXV7Q5FJBAKJ3TNMBBLYHIS0EBCFB","","img/set1/S3.jpg","72","3","structured_load","72","structured_load,structured_normal,random,structured_incentive","1,2,2,3,4,2","1,4,3,2","true","","",""
"null","","html-keyboard-response","272","229021","0.0-272.0","3K772S5NP9XLGH214UAIG9QU9BPEHP","A5P12YJP805RG","3ZXV7Q5FJBAKJ3TNMBBLYHIS0EBCFB","","<img src=""img/set1/S3.jpg"" width=""540"" height = ""360"" style=""border:16px solid orange"">","null","","","","","","","","","",""
"null","","html-keyboard-response","273","229223","0.0-273.0","3K772S5NP9XLGH214UAIG9QU9BPEHP","A5P12YJP805RG","3ZXV7Q5FJBAKJ3TNMBBLYHIS0EBCFB","","","null","","","","","","","","","",""
"322.89999997615814","","image-keyboard-response","274","229547","0.0-274.0","3K772S5NP9XLGH214UAIG9QU9BPEHP","A5P12YJP805RG","3ZXV7Q5FJBAKJ3TNMBBLYHIS0EBCFB","","img/set1/S3.jpg","72","3","structured_load","72","structured_load,structured_normal,random,structured_incentive","1,2,2,3,4,2","1,4,3,2","true","","",""
"null","","html-keyboard-response","275","229902","0.0-275.0","3K772S5NP9XLGH214UAIG9QU9BPEHP","A5P12YJP805RG","3ZXV7Q5FJBAKJ3TNMBBLYHIS0EBCFB","","<img src=""img/set1/S3.jpg"" width=""540"" height = ""360"" style=""border:16px solid orange"">","null","","","","","","","","","",""
"null","","html-keyboard-response","276","230104","0.0-276.0","3K772S5NP9XLGH214UAIG9QU9BPEHP","A5P12YJP805RG","3ZXV7Q5FJBAKJ3TNMBBLYHIS0EBCFB","","","null","","","","","","","","","",""
"639.1000000238419","","image-keyboard-response","277","230745","0.0-277.0","3K772S5NP9XLGH214UAIG9QU9BPEHP","A5P12YJP805RG","3ZXV7Q5FJBAKJ3TNMBBLYHIS0EBCFB","","img/set1/S1.jpg","83","1","structured_load","83","structured_load,structured_normal,random,structured_incentive","1,2,2,3,4,2","1,4,3,2","true","","",""
"null","","html-keyboard-response","278","231098","0.0-278.0","3K772S5NP9XLGH214UAIG9QU9BPEHP","A5P12YJP805RG","3ZXV7Q5FJBAKJ3TNMBBLYHIS0EBCFB","","<img src=""img/set1/S1.jpg"" width=""540"" height = ""360"" style=""border:16px solid orange"">","null","","","","","","","","","",""
"null","","html-keyboard-response","279","231302","0.0-279.0","3K772S5NP9XLGH214UAIG9QU9BPEHP","A5P12YJP805RG","3ZXV7Q5FJBAKJ3TNMBBLYHIS0EBCFB","","","null","","","","","","","","","",""
"700.1999999880791","","image-keyboard-response","280","232004","0.0-280.0","3K772S5NP9XLGH214UAIG9QU9BPEHP","A5P12YJP805RG","3ZXV7Q5FJBAKJ3TNMBBLYHIS0EBCFB","","img/set1/S2.jpg","68","2","structured_load","68","structured_load,structured_normal,random,structured_incentive","1,2,2,3,4,2","1,4,3,2","true","","",""
"null","","html-keyboard-response","281","232364","0.0-281.0","3K772S5NP9XLGH214UAIG9QU9BPEHP","A5P12YJP805RG","3ZXV7Q5FJBAKJ3TNMBBLYHIS0EBCFB","","<img src=""img/set1/S2.jpg"" width=""540"" height = ""360"" style=""border:16px solid orange"">","null","","","","","","","","","",""
"null","","html-keyboard-response","282","232568","0.0-282.0","3K772S5NP9XLGH214UAIG9QU9BPEHP","A5P12YJP805RG","3ZXV7Q5FJBAKJ3TNMBBLYHIS0EBCFB","","","null","","","","","","","","","",""
"551.1999999880791","","image-keyboard-response","283","233121","0.0-283.0","3K772S5NP9XLGH214UAIG9QU9BPEHP","A5P12YJP805RG","3ZXV7Q5FJBAKJ3TNMBBLYHIS0EBCFB","","img/set1/S1.jpg","83","1","structured_load","83","structured_load,structured_normal,random,structured_incentive","1,2,2,3,4,2","1,4,3,2","true","","",""
"null","","html-keyboard-response","284","233485","0.0-284.0","3K772S5NP9XLGH214UAIG9QU9BPEHP","A5P12YJP805RG","3ZXV7Q5FJBAKJ3TNMBBLYHIS0EBCFB","","<img src=""img/set1/S1.jpg"" width=""540"" height = ""360"" style=""border:16px solid orange"">","null","","","","","","","","","",""
"null","","html-keyboard-response","285","233700","0.0-285.0","3K772S5NP9XLGH214UAIG9QU9BPEHP","A5P12YJP805RG","3ZXV7Q5FJBAKJ3TNMBBLYHIS0EBCFB","","","null","","","","","","","","","",""
"458.0999999642372","","image-keyboard-response","286","234160","0.0-286.0","3K772S5NP9XLGH214UAIG9QU9BPEHP","A5P12YJP805RG","3ZXV7Q5FJBAKJ3TNMBBLYHIS0EBCFB","","img/set1/S2.jpg","68","2","structured_load","68","structured_load,structured_normal,random,structured_incentive","1,2,2,3,4,2","1,4,3,2","true","","",""
"null","","html-keyboard-response","287","234521","0.0-287.0","3K772S5NP9XLGH214UAIG9QU9BPEHP","A5P12YJP805RG","3ZXV7Q5FJBAKJ3TNMBBLYHIS0EBCFB","","<img src=""img/set1/S2.jpg"" width=""540"" height = ""360"" style=""border:16px solid orange"">","null","","","","","","","","","",""
"null","","html-keyboard-response","288","234738","0.0-288.0","3K772S5NP9XLGH214UAIG9QU9BPEHP","A5P12YJP805RG","3ZXV7Q5FJBAKJ3TNMBBLYHIS0EBCFB","","","null","","","","","","","","","",""
"2088.2999999523163","","image-keyboard-response","289","236828","0.0-289.0","3K772S5NP9XLGH214UAIG9QU9BPEHP","A5P12YJP805RG","3ZXV7Q5FJBAKJ3TNMBBLYHIS0EBCFB","","img/set1/S3.jpg","72","3","structured_load","72","structured_load,structured_normal,random,structured_incentive","1,2,2,3,4,2","1,4,3,2","true","","",""
"null","","html-keyboard-response","290","237188","0.0-290.0","3K772S5NP9XLGH214UAIG9QU9BPEHP","A5P12YJP805RG","3ZXV7Q5FJBAKJ3TNMBBLYHIS0EBCFB","","<img src=""img/set1/S3.jpg"" width=""540"" height = ""360"" style=""border:16px solid orange"">","null","","","","","","","","","",""
"null","","html-keyboard-response","291","237391","0.0-291.0","3K772S5NP9XLGH214UAIG9QU9BPEHP","A5P12YJP805RG","3ZXV7Q5FJBAKJ3TNMBBLYHIS0EBCFB","","","null","","","","","","","","","",""
"754","","image-keyboard-response","292","238147","0.0-292.0","3K772S5NP9XLGH214UAIG9QU9BPEHP","A5P12YJP805RG","3ZXV7Q5FJBAKJ3TNMBBLYHIS0EBCFB","","img/set1/S2.jpg","68","2","structured_load","68","structured_load,structured_normal,random,structured_incentive","1,2,2,3,4,2","1,4,3,2","true","","",""
"null","","html-keyboard-response","293","238509","0.0-293.0","3K772S5NP9XLGH214UAIG9QU9BPEHP","A5P12YJP805RG","3ZXV7Q5FJBAKJ3TNMBBLYHIS0EBCFB","","<img src=""img/set1/S2.jpg"" width=""540"" height = ""360"" style=""border:16px solid orange"">","null","","","","","","","","","",""
"null","","html-keyboard-response","294","238711","0.0-294.0","3K772S5NP9XLGH214UAIG9QU9BPEHP","A5P12YJP805RG","3ZXV7Q5FJBAKJ3TNMBBLYHIS0EBCFB","","","null","","","","","","","","","",""
"472.80000001192093","","image-keyboard-response","295","239185","0.0-295.0","3K772S5NP9XLGH214UAIG9QU9BPEHP","A5P12YJP805RG","3ZXV7Q5FJBAKJ3TNMBBLYHIS0EBCFB","","img/set1/S1.jpg","83","1","structured_load","83","structured_load,structured_normal,random,structured_incentive","1,2,2,3,4,2","1,4,3,2","true","","",""
"null","","html-keyboard-response","296","239550","0.0-296.0","3K772S5NP9XLGH214UAIG9QU9BPEHP","A5P12YJP805RG","3ZXV7Q5FJBAKJ3TNMBBLYHIS0EBCFB","","<img src=""img/set1/S1.jpg"" width=""540"" height = ""360"" style=""border:16px solid orange"">","null","","","","","","","","","",""
"null","","html-keyboard-response","297","239760","0.0-297.0","3K772S5NP9XLGH214UAIG9QU9BPEHP","A5P12YJP805RG","3ZXV7Q5FJBAKJ3TNMBBLYHIS0EBCFB","","","null","","","","","","","","","",""
"1187.6000000238419","","image-keyboard-response","298","240951","0.0-298.0","3K772S5NP9XLGH214UAIG9QU9BPEHP","A5P12YJP805RG","3ZXV7Q5FJBAKJ3TNMBBLYHIS0EBCFB","","img/set1/S2.jpg","68","2","structured_load","68","structured_load,structured_normal,random,structured_incentive","1,2,2,3,4,2","1,4,3,2","true","","",""
"null","","html-keyboard-response","299","241317","0.0-299.0","3K772S5NP9XLGH214UAIG9QU9BPEHP","A5P12YJP805RG","3ZXV7Q5FJBAKJ3TNMBBLYHIS0EBCFB","","<img src=""img/set1/S2.jpg"" width=""540"" height = ""360"" style=""border:16px solid orange"">","null","","","","","","","","","",""
"null","","html-keyboard-response","300","241533","0.0-300.0","3K772S5NP9XLGH214UAIG9QU9BPEHP","A5P12YJP805RG","3ZXV7Q5FJBAKJ3TNMBBLYHIS0EBCFB","","","null","","","","","","","","","",""
"996.1999999880791","","image-keyboard-response","301","242531","0.0-301.0","3K772S5NP9XLGH214UAIG9QU9BPEHP","A5P12YJP805RG","3ZXV7Q5FJBAKJ3TNMBBLYHIS0EBCFB","","img/set1/S1.jpg","83","1","structured_load","83","structured_load,structured_normal,random,structured_incentive","1,2,2,3,4,2","1,4,3,2","true","","",""
"null","","html-keyboard-response","302","242885","0.0-302.0","3K772S5NP9XLGH214UAIG9QU9BPEHP","A5P12YJP805RG","3ZXV7Q5FJBAKJ3TNMBBLYHIS0EBCFB","","<img src=""img/set1/S1.jpg"" width=""540"" height = ""360"" style=""border:16px solid orange"">","null","","","","","","","","","",""
"null","","html-keyboard-response","303","243088","0.0-303.0","3K772S5NP9XLGH214UAIG9QU9BPEHP","A5P12YJP805RG","3ZXV7Q5FJBAKJ3TNMBBLYHIS0EBCFB","","","null","","","","","","","","","",""
"723.6000000238419","","image-keyboard-response","304","243813","0.0-304.0","3K772S5NP9XLGH214UAIG9QU9BPEHP","A5P12YJP805RG","3ZXV7Q5FJBAKJ3TNMBBLYHIS0EBCFB","","img/set1/S4.jpg","74","4","structured_load","74","structured_load,structured_normal,random,structured_incentive","1,2,2,3,4,2","1,4,3,2","true","","",""
"null","","html-keyboard-response","305","244174","0.0-305.0","3K772S5NP9XLGH214UAIG9QU9BPEHP","A5P12YJP805RG","3ZXV7Q5FJBAKJ3TNMBBLYHIS0EBCFB","","<img src=""img/set1/S4.jpg"" width=""540"" height = ""360"" style=""border:16px solid orange"">","null","","","","","","","","","",""
"null","","html-keyboard-response","306","244377","0.0-306.0","3K772S5NP9XLGH214UAIG9QU9BPEHP","A5P12YJP805RG","3ZXV7Q5FJBAKJ3TNMBBLYHIS0EBCFB","","","null","","","","","","","","","",""
"683","","image-keyboard-response","307","245062","0.0-307.0","3K772S5NP9XLGH214UAIG9QU9BPEHP","A5P12YJP805RG","3ZXV7Q5FJBAKJ3TNMBBLYHIS0EBCFB","","img/set1/S2.jpg","68","2","structured_load","68","structured_load,structured_normal,random,structured_incentive","1,2,2,3,4,2","1,4,3,2","true","","",""
"null","","html-keyboard-response","308","245417","0.0-308.0","3K772S5NP9XLGH214UAIG9QU9BPEHP","A5P12YJP805RG","3ZXV7Q5FJBAKJ3TNMBBLYHIS0EBCFB","","<img src=""img/set1/S2.jpg"" width=""540"" height = ""360"" style=""border:16px solid orange"">","null","","","","","","","","","",""
"null","","html-keyboard-response","309","245621","0.0-309.0","3K772S5NP9XLGH214UAIG9QU9BPEHP","A5P12YJP805RG","3ZXV7Q5FJBAKJ3TNMBBLYHIS0EBCFB","","","null","","","","","","","","","",""
"532.5","","image-keyboard-response","310","246155","0.0-310.0","3K772S5NP9XLGH214UAIG9QU9BPEHP","A5P12YJP805RG","3ZXV7Q5FJBAKJ3TNMBBLYHIS0EBCFB","","img/set1/S4.jpg","74","4","structured_load","74","structured_load,structured_normal,random,structured_incentive","1,2,2,3,4,2","1,4,3,2","true","","",""
"null","","html-keyboard-response","311","246517","0.0-311.0","3K772S5NP9XLGH214UAIG9QU9BPEHP","A5P12YJP805RG","3ZXV7Q5FJBAKJ3TNMBBLYHIS0EBCFB","","<img src=""img/set1/S4.jpg"" width=""540"" height = ""360"" style=""border:16px solid orange"">","null","","","","","","","","","",""
"null","","html-keyboard-response","312","246721","0.0-312.0","3K772S5NP9XLGH214UAIG9QU9BPEHP","A5P12YJP805RG","3ZXV7Q5FJBAKJ3TNMBBLYHIS0EBCFB","","","null","","","","","","","","","",""
"645.7000000476837","","image-keyboard-response","313","247369","0.0-313.0","3K772S5NP9XLGH214UAIG9QU9BPEHP","A5P12YJP805RG","3ZXV7Q5FJBAKJ3TNMBBLYHIS0EBCFB","","img/set1/S1.jpg","83","1","structured_load","83","structured_load,structured_normal,random,structured_incentive","1,2,2,3,4,2","1,4,3,2","true","","",""
"null","","html-keyboard-response","314","247730","0.0-314.0","3K772S5NP9XLGH214UAIG9QU9BPEHP","A5P12YJP805RG","3ZXV7Q5FJBAKJ3TNMBBLYHIS0EBCFB","","<img src=""img/set1/S1.jpg"" width=""540"" height = ""360"" style=""border:16px solid orange"">","null","","","","","","","","","",""
"null","","html-keyboard-response","315","247945","0.0-315.0","3K772S5NP9XLGH214UAIG9QU9BPEHP","A5P12YJP805RG","3ZXV7Q5FJBAKJ3TNMBBLYHIS0EBCFB","","","null","","","","","","","","","",""
"670.5999999642372","","image-keyboard-response","316","248617","0.0-316.0","3K772S5NP9XLGH214UAIG9QU9BPEHP","A5P12YJP805RG","3ZXV7Q5FJBAKJ3TNMBBLYHIS0EBCFB","","img/set1/S2.jpg","68","2","structured_load","68","structured_load,structured_normal,random,structured_incentive","1,2,2,3,4,2","1,4,3,2","true","","",""
"null","","html-keyboard-response","317","248985","0.0-317.0","3K772S5NP9XLGH214UAIG9QU9BPEHP","A5P12YJP805RG","3ZXV7Q5FJBAKJ3TNMBBLYHIS0EBCFB","","<img src=""img/set1/S2.jpg"" width=""540"" height = ""360"" style=""border:16px solid orange"">","null","","","","","","","","","",""
"null","","html-keyboard-response","318","249202","0.0-318.0","3K772S5NP9XLGH214UAIG9QU9BPEHP","A5P12YJP805RG","3ZXV7Q5FJBAKJ3TNMBBLYHIS0EBCFB","","","null","","","","","","","","","",""
"466.30000001192093","","image-keyboard-response","319","249670","0.0-319.0","3K772S5NP9XLGH214UAIG9QU9BPEHP","A5P12YJP805RG","3ZXV7Q5FJBAKJ3TNMBBLYHIS0EBCFB","","img/set1/S1.jpg","83","1","structured_load","83","structured_load,structured_normal,random,structured_incentive","1,2,2,3,4,2","1,4,3,2","true","","",""
"null","","html-keyboard-response","320","250027","0.0-320.0","3K772S5NP9XLGH214UAIG9QU9BPEHP","A5P12YJP805RG","3ZXV7Q5FJBAKJ3TNMBBLYHIS0EBCFB","","<img src=""img/set1/S1.jpg"" width=""540"" height = ""360"" style=""border:16px solid orange"">","null","","","","","","","","","",""
"null","","html-keyboard-response","321","250243","0.0-321.0","3K772S5NP9XLGH214UAIG9QU9BPEHP","A5P12YJP805RG","3ZXV7Q5FJBAKJ3TNMBBLYHIS0EBCFB","","","null","","","","","","","","","",""
"1311.300000011921","","image-keyboard-response","322","251556","0.0-322.0","3K772S5NP9XLGH214UAIG9QU9BPEHP","A5P12YJP805RG","3ZXV7Q5FJBAKJ3TNMBBLYHIS0EBCFB","","img/set1/S4.jpg","74","4","structured_load","74","structured_load,structured_normal,random,structured_incentive","1,2,2,3,4,2","1,4,3,2","true","","",""
"null","","html-keyboard-response","323","251920","0.0-323.0","3K772S5NP9XLGH214UAIG9QU9BPEHP","A5P12YJP805RG","3ZXV7Q5FJBAKJ3TNMBBLYHIS0EBCFB","","<img src=""img/set1/S4.jpg"" width=""540"" height = ""360"" style=""border:16px solid orange"">","null","","","","","","","","","",""
"null","","html-keyboard-response","324","252122","0.0-324.0","3K772S5NP9XLGH214UAIG9QU9BPEHP","A5P12YJP805RG","3ZXV7Q5FJBAKJ3TNMBBLYHIS0EBCFB","","","null","","","","","","","","","",""
"620.8999999761581","","image-keyboard-response","325","252744","0.0-325.0","3K772S5NP9XLGH214UAIG9QU9BPEHP","A5P12YJP805RG","3ZXV7Q5FJBAKJ3TNMBBLYHIS0EBCFB","","img/set1/S1.jpg","68","1","structured_load","83","structured_load,structured_normal,random,structured_incentive","1,2,2,3,4,2","1,4,3,2","false","","",""
"null","","html-keyboard-response","326","253100","0.0-326.0","3K772S5NP9XLGH214UAIG9QU9BPEHP","A5P12YJP805RG","3ZXV7Q5FJBAKJ3TNMBBLYHIS0EBCFB","","<img src=""img/set1/S1.jpg"" width=""540"" height = ""360"">","null","","","","","","","","","",""
"null","","html-keyboard-response","327","253305","0.0-327.0","3K772S5NP9XLGH214UAIG9QU9BPEHP","A5P12YJP805RG","3ZXV7Q5FJBAKJ3TNMBBLYHIS0EBCFB","","","null","","","","","","","","","",""
"981.8000000119209","","image-keyboard-response","328","254289","0.0-328.0","3K772S5NP9XLGH214UAIG9QU9BPEHP","A5P12YJP805RG","3ZXV7Q5FJBAKJ3TNMBBLYHIS0EBCFB","","img/set1/S2.jpg","68","2","structured_load","68","structured_load,structured_normal,random,structured_incentive","1,2,2,3,4,2","1,4,3,2","true","","",""
"null","","html-keyboard-response","329","254644","0.0-329.0","3K772S5NP9XLGH214UAIG9QU9BPEHP","A5P12YJP805RG","3ZXV7Q5FJBAKJ3TNMBBLYHIS0EBCFB","","<img src=""img/set1/S2.jpg"" width=""540"" height = ""360"" style=""border:16px solid orange"">","null","","","","","","","","","",""
"null","","html-keyboard-response","330","254858","0.0-330.0","3K772S5NP9XLGH214UAIG9QU9BPEHP","A5P12YJP805RG","3ZXV7Q5FJBAKJ3TNMBBLYHIS0EBCFB","","","null","","","","","","","","","",""
"642","","image-keyboard-response","331","255502","0.0-331.0","3K772S5NP9XLGH214UAIG9QU9BPEHP","A5P12YJP805RG","3ZXV7Q5FJBAKJ3TNMBBLYHIS0EBCFB","","img/set1/S3.jpg","72","3","structured_load","72","structured_load,structured_normal,random,structured_incentive","1,2,2,3,4,2","1,4,3,2","true","","",""
"null","","html-keyboard-response","332","255867","0.0-332.0","3K772S5NP9XLGH214UAIG9QU9BPEHP","A5P12YJP805RG","3ZXV7Q5FJBAKJ3TNMBBLYHIS0EBCFB","","<img src=""img/set1/S3.jpg"" width=""540"" height = ""360"" style=""border:16px solid orange"">","null","","","","","","","","","",""
"null","","html-keyboard-response","333","256083","0.0-333.0","3K772S5NP9XLGH214UAIG9QU9BPEHP","A5P12YJP805RG","3ZXV7Q5FJBAKJ3TNMBBLYHIS0EBCFB","","","null","","","","","","","","","",""
"576.1000000238419","","image-keyboard-response","334","256661","0.0-334.0","3K772S5NP9XLGH214UAIG9QU9BPEHP","A5P12YJP805RG","3ZXV7Q5FJBAKJ3TNMBBLYHIS0EBCFB","","img/set1/S1.jpg","83","1","structured_load","83","structured_load,structured_normal,random,structured_incentive","1,2,2,3,4,2","1,4,3,2","true","","",""
"null","","html-keyboard-response","335","257028","0.0-335.0","3K772S5NP9XLGH214UAIG9QU9BPEHP","A5P12YJP805RG","3ZXV7Q5FJBAKJ3TNMBBLYHIS0EBCFB","","<img src=""img/set1/S1.jpg"" width=""540"" height = ""360"" style=""border:16px solid orange"">","null","","","","","","","","","",""
"null","","html-keyboard-response","336","257230","0.0-336.0","3K772S5NP9XLGH214UAIG9QU9BPEHP","A5P12YJP805RG","3ZXV7Q5FJBAKJ3TNMBBLYHIS0EBCFB","","","null","","","","","","","","","",""
"917.5","","image-keyboard-response","337","258150","0.0-337.0","3K772S5NP9XLGH214UAIG9QU9BPEHP","A5P12YJP805RG","3ZXV7Q5FJBAKJ3TNMBBLYHIS0EBCFB","","img/set1/S4.jpg","74","4","structured_load","74","structured_load,structured_normal,random,structured_incentive","1,2,2,3,4,2","1,4,3,2","true","","",""
"null","","html-keyboard-response","338","258502","0.0-338.0","3K772S5NP9XLGH214UAIG9QU9BPEHP","A5P12YJP805RG","3ZXV7Q5FJBAKJ3TNMBBLYHIS0EBCFB","","<img src=""img/set1/S4.jpg"" width=""540"" height = ""360"" style=""border:16px solid orange"">","null","","","","","","","","","",""
"null","","html-keyboard-response","339","258719","0.0-339.0","3K772S5NP9XLGH214UAIG9QU9BPEHP","A5P12YJP805RG","3ZXV7Q5FJBAKJ3TNMBBLYHIS0EBCFB","","","null","","","","","","","","","",""
"1525.5","","image-keyboard-response","340","260246","0.0-340.0","3K772S5NP9XLGH214UAIG9QU9BPEHP","A5P12YJP805RG","3ZXV7Q5FJBAKJ3TNMBBLYHIS0EBCFB","","img/set1/S3.jpg","72","3","structured_load","72","structured_load,structured_normal,random,structured_incentive","1,2,2,3,4,2","1,4,3,2","true","","",""
"null","","html-keyboard-response","341","260607","0.0-341.0","3K772S5NP9XLGH214UAIG9QU9BPEHP","A5P12YJP805RG","3ZXV7Q5FJBAKJ3TNMBBLYHIS0EBCFB","","<img src=""img/set1/S3.jpg"" width=""540"" height = ""360"" style=""border:16px solid orange"">","null","","","","","","","","","",""
"null","","html-keyboard-response","342","260824","0.0-342.0","3K772S5NP9XLGH214UAIG9QU9BPEHP","A5P12YJP805RG","3ZXV7Q5FJBAKJ3TNMBBLYHIS0EBCFB","","","null","","","","","","","","","",""
"638.7999999523163","","image-keyboard-response","343","261464","0.0-343.0","3K772S5NP9XLGH214UAIG9QU9BPEHP","A5P12YJP805RG","3ZXV7Q5FJBAKJ3TNMBBLYHIS0EBCFB","","img/set1/S4.jpg","74","4","structured_load","74","structured_load,structured_normal,random,structured_incentive","1,2,2,3,4,2","1,4,3,2","true","","",""
"null","","html-keyboard-response","344","261819","0.0-344.0","3K772S5NP9XLGH214UAIG9QU9BPEHP","A5P12YJP805RG","3ZXV7Q5FJBAKJ3TNMBBLYHIS0EBCFB","","<img src=""img/set1/S4.jpg"" width=""540"" height = ""360"" style=""border:16px solid orange"">","null","","","","","","","","","",""
"null","","html-keyboard-response","345","262022","0.0-345.0","3K772S5NP9XLGH214UAIG9QU9BPEHP","A5P12YJP805RG","3ZXV7Q5FJBAKJ3TNMBBLYHIS0EBCFB","","","null","","","","","","","","","",""
"1015.3000000119209","","image-keyboard-response","346","263039","0.0-346.0","3K772S5NP9XLGH214UAIG9QU9BPEHP","A5P12YJP805RG","3ZXV7Q5FJBAKJ3TNMBBLYHIS0EBCFB","","img/set1/S3.jpg","72","3","structured_load","72","structured_load,structured_normal,random,structured_incentive","1,2,2,3,4,2","1,4,3,2","true","","",""
"null","","html-keyboard-response","347","263405","0.0-347.0","3K772S5NP9XLGH214UAIG9QU9BPEHP","A5P12YJP805RG","3ZXV7Q5FJBAKJ3TNMBBLYHIS0EBCFB","","<img src=""img/set1/S3.jpg"" width=""540"" height = ""360"" style=""border:16px solid orange"">","null","","","","","","","","","",""
"null","","html-keyboard-response","348","263622","0.0-348.0","3K772S5NP9XLGH214UAIG9QU9BPEHP","A5P12YJP805RG","3ZXV7Q5FJBAKJ3TNMBBLYHIS0EBCFB","","","null","","","","","","","","","",""
"598.8000000119209","","image-keyboard-response","349","264222","0.0-349.0","3K772S5NP9XLGH214UAIG9QU9BPEHP","A5P12YJP805RG","3ZXV7Q5FJBAKJ3TNMBBLYHIS0EBCFB","","img/set1/S1.jpg","83","1","structured_load","83","structured_load,structured_normal,random,structured_incentive","1,2,2,3,4,2","1,4,3,2","true","","",""
"null","","html-keyboard-response","350","264584","0.0-350.0","3K772S5NP9XLGH214UAIG9QU9BPEHP","A5P12YJP805RG","3ZXV7Q5FJBAKJ3TNMBBLYHIS0EBCFB","","<img src=""img/set1/S1.jpg"" width=""540"" height = ""360"" style=""border:16px solid orange"">","null","","","","","","","","","",""
"null","","html-keyboard-response","351","264802","0.0-351.0","3K772S5NP9XLGH214UAIG9QU9BPEHP","A5P12YJP805RG","3ZXV7Q5FJBAKJ3TNMBBLYHIS0EBCFB","","","null","","","","","","","","","",""
"1107.8999999761581","","image-keyboard-response","352","265912","0.0-352.0","3K772S5NP9XLGH214UAIG9QU9BPEHP","A5P12YJP805RG","3ZXV7Q5FJBAKJ3TNMBBLYHIS0EBCFB","","img/set1/S2.jpg","68","2","structured_load","68","structured_load,structured_normal,random,structured_incentive","1,2,2,3,4,2","1,4,3,2","true","","",""
"null","","html-keyboard-response","353","266280","0.0-353.0","3K772S5NP9XLGH214UAIG9QU9BPEHP","A5P12YJP805RG","3ZXV7Q5FJBAKJ3TNMBBLYHIS0EBCFB","","<img src=""img/set1/S2.jpg"" width=""540"" height = ""360"" style=""border:16px solid orange"">","null","","","","","","","","","",""
"null","","html-keyboard-response","354","266482","0.0-354.0","3K772S5NP9XLGH214UAIG9QU9BPEHP","A5P12YJP805RG","3ZXV7Q5FJBAKJ3TNMBBLYHIS0EBCFB","","","null","","","","","","","","","",""
"1680.199999988079","","image-keyboard-response","355","268164","0.0-355.0","3K772S5NP9XLGH214UAIG9QU9BPEHP","A5P12YJP805RG","3ZXV7Q5FJBAKJ3TNMBBLYHIS0EBCFB","","img/set1/S4.jpg","74","4","structured_load","74","structured_load,structured_normal,random,structured_incentive","1,2,2,3,4,2","1,4,3,2","true","","",""
"null","","html-keyboard-response","356","268520","0.0-356.0","3K772S5NP9XLGH214UAIG9QU9BPEHP","A5P12YJP805RG","3ZXV7Q5FJBAKJ3TNMBBLYHIS0EBCFB","","<img src=""img/set1/S4.jpg"" width=""540"" height = ""360"" style=""border:16px solid orange"">","null","","","","","","","","","",""
"null","","html-keyboard-response","357","268736","0.0-357.0","3K772S5NP9XLGH214UAIG9QU9BPEHP","A5P12YJP805RG","3ZXV7Q5FJBAKJ3TNMBBLYHIS0EBCFB","","","null","","","","","","","","","",""
"579.2999999523163","","image-keyboard-response","358","269317","0.0-358.0","3K772S5NP9XLGH214UAIG9QU9BPEHP","A5P12YJP805RG","3ZXV7Q5FJBAKJ3TNMBBLYHIS0EBCFB","","img/set1/S1.jpg","83","1","structured_load","83","structured_load,structured_normal,random,structured_incentive","1,2,2,3,4,2","1,4,3,2","true","","",""
"null","","html-keyboard-response","359","269685","0.0-359.0","3K772S5NP9XLGH214UAIG9QU9BPEHP","A5P12YJP805RG","3ZXV7Q5FJBAKJ3TNMBBLYHIS0EBCFB","","<img src=""img/set1/S1.jpg"" width=""540"" height = ""360"" style=""border:16px solid orange"">","null","","","","","","","","","",""
"null","","html-keyboard-response","360","269887","0.0-360.0","3K772S5NP9XLGH214UAIG9QU9BPEHP","A5P12YJP805RG","3ZXV7Q5FJBAKJ3TNMBBLYHIS0EBCFB","","","null","","","","","","","","","",""
"1183.4000000357628","","image-keyboard-response","361","271072","0.0-361.0","3K772S5NP9XLGH214UAIG9QU9BPEHP","A5P12YJP805RG","3ZXV7Q5FJBAKJ3TNMBBLYHIS0EBCFB","","img/set1/S2.jpg","68","2","structured_load","68","structured_load,structured_normal,random,structured_incentive","1,2,2,3,4,2","1,4,3,2","true","","",""
"null","","html-keyboard-response","362","271440","0.0-362.0","3K772S5NP9XLGH214UAIG9QU9BPEHP","A5P12YJP805RG","3ZXV7Q5FJBAKJ3TNMBBLYHIS0EBCFB","","<img src=""img/set1/S2.jpg"" width=""540"" height = ""360"" style=""border:16px solid orange"">","null","","","","","","","","","",""
"null","","html-keyboard-response","363","271657","0.0-363.0","3K772S5NP9XLGH214UAIG9QU9BPEHP","A5P12YJP805RG","3ZXV7Q5FJBAKJ3TNMBBLYHIS0EBCFB","","","null","","","","","","","","","",""
"777.7999999523163","","image-keyboard-response","364","272436","0.0-364.0","3K772S5NP9XLGH214UAIG9QU9BPEHP","A5P12YJP805RG","3ZXV7Q5FJBAKJ3TNMBBLYHIS0EBCFB","","img/set1/S3.jpg","72","3","structured_load","72","structured_load,structured_normal,random,structured_incentive","1,2,2,3,4,2","1,4,3,2","true","","",""
"null","","html-keyboard-response","365","272804","0.0-365.0","3K772S5NP9XLGH214UAIG9QU9BPEHP","A5P12YJP805RG","3ZXV7Q5FJBAKJ3TNMBBLYHIS0EBCFB","","<img src=""img/set1/S3.jpg"" width=""540"" height = ""360"" style=""border:16px solid orange"">","null","","","","","","","","","",""
"null","","html-keyboard-response","366","273007","0.0-366.0","3K772S5NP9XLGH214UAIG9QU9BPEHP","A5P12YJP805RG","3ZXV7Q5FJBAKJ3TNMBBLYHIS0EBCFB","","","null","","","","","","","","","",""
"371.30000001192093","","image-keyboard-response","367","273380","0.0-367.0","3K772S5NP9XLGH214UAIG9QU9BPEHP","A5P12YJP805RG","3ZXV7Q5FJBAKJ3TNMBBLYHIS0EBCFB","","img/set1/S3.jpg","72","3","structured_load","72","structured_load,structured_normal,random,structured_incentive","1,2,2,3,4,2","1,4,3,2","true","","",""
"null","","html-keyboard-response","368","273738","0.0-368.0","3K772S5NP9XLGH214UAIG9QU9BPEHP","A5P12YJP805RG","3ZXV7Q5FJBAKJ3TNMBBLYHIS0EBCFB","","<img src=""img/set1/S3.jpg"" width=""540"" height = ""360"" style=""border:16px solid orange"">","null","","","","","","","","","",""
"null","","html-keyboard-response","369","273952","0.0-369.0","3K772S5NP9XLGH214UAIG9QU9BPEHP","A5P12YJP805RG","3ZXV7Q5FJBAKJ3TNMBBLYHIS0EBCFB","","","null","","","","","","","","","",""
"358.10000002384186","","image-keyboard-response","370","274312","0.0-370.0","3K772S5NP9XLGH214UAIG9QU9BPEHP","A5P12YJP805RG","3ZXV7Q5FJBAKJ3TNMBBLYHIS0EBCFB","","img/set1/S3.jpg","72","3","structured_load","72","structured_load,structured_normal,random,structured_incentive","1,2,2,3,4,2","1,4,3,2","true","","",""
"null","","html-keyboard-response","371","274666","0.0-371.0","3K772S5NP9XLGH214UAIG9QU9BPEHP","A5P12YJP805RG","3ZXV7Q5FJBAKJ3TNMBBLYHIS0EBCFB","","<img src=""img/set1/S3.jpg"" width=""540"" height = ""360"" style=""border:16px solid orange"">","null","","","","","","","","","",""
"null","","html-keyboard-response","372","274883","0.0-372.0","3K772S5NP9XLGH214UAIG9QU9BPEHP","A5P12YJP805RG","3ZXV7Q5FJBAKJ3TNMBBLYHIS0EBCFB","","","null","","","","","","","","","",""
"560.8000000119209","","image-keyboard-response","373","275445","0.0-373.0","3K772S5NP9XLGH214UAIG9QU9BPEHP","A5P12YJP805RG","3ZXV7Q5FJBAKJ3TNMBBLYHIS0EBCFB","","img/set1/S4.jpg","74","4","structured_load","74","structured_load,structured_normal,random,structured_incentive","1,2,2,3,4,2","1,4,3,2","true","","",""
"null","","html-keyboard-response","374","275801","0.0-374.0","3K772S5NP9XLGH214UAIG9QU9BPEHP","A5P12YJP805RG","3ZXV7Q5FJBAKJ3TNMBBLYHIS0EBCFB","","<img src=""img/set1/S4.jpg"" width=""540"" height = ""360"" style=""border:16px solid orange"">","null","","","","","","","","","",""
"null","","html-keyboard-response","375","276017","0.0-375.0","3K772S5NP9XLGH214UAIG9QU9BPEHP","A5P12YJP805RG","3ZXV7Q5FJBAKJ3TNMBBLYHIS0EBCFB","","","null","","","","","","","","","",""
"821.3999999761581","","image-keyboard-response","376","276839","0.0-376.0","3K772S5NP9XLGH214UAIG9QU9BPEHP","A5P12YJP805RG","3ZXV7Q5FJBAKJ3TNMBBLYHIS0EBCFB","","img/set1/S3.jpg","72","3","structured_load","72","structured_load,structured_normal,random,structured_incentive","1,2,2,3,4,2","1,4,3,2","true","","",""
"null","","html-keyboard-response","377","277200","0.0-377.0","3K772S5NP9XLGH214UAIG9QU9BPEHP","A5P12YJP805RG","3ZXV7Q5FJBAKJ3TNMBBLYHIS0EBCFB","","<img src=""img/set1/S3.jpg"" width=""540"" height = ""360"" style=""border:16px solid orange"">","null","","","","","","","","","",""
"null","","html-keyboard-response","378","277402","0.0-378.0","3K772S5NP9XLGH214UAIG9QU9BPEHP","A5P12YJP805RG","3ZXV7Q5FJBAKJ3TNMBBLYHIS0EBCFB","","","null","","","","","","","","","",""
"719.3000000119209","","image-keyboard-response","379","278124","0.0-379.0","3K772S5NP9XLGH214UAIG9QU9BPEHP","A5P12YJP805RG","3ZXV7Q5FJBAKJ3TNMBBLYHIS0EBCFB","","img/set1/S1.jpg","83","1","structured_load","83","structured_load,structured_normal,random,structured_incentive","1,2,2,3,4,2","1,4,3,2","true","","",""
"null","","html-keyboard-response","380","278484","0.0-380.0","3K772S5NP9XLGH214UAIG9QU9BPEHP","A5P12YJP805RG","3ZXV7Q5FJBAKJ3TNMBBLYHIS0EBCFB","","<img src=""img/set1/S1.jpg"" width=""540"" height = ""360"" style=""border:16px solid orange"">","null","","","","","","","","","",""
"null","","html-keyboard-response","381","278701","0.0-381.0","3K772S5NP9XLGH214UAIG9QU9BPEHP","A5P12YJP805RG","3ZXV7Q5FJBAKJ3TNMBBLYHIS0EBCFB","","","null","","","","","","","","","",""
"834.8000000119209","","image-keyboard-response","382","279538","0.0-382.0","3K772S5NP9XLGH214UAIG9QU9BPEHP","A5P12YJP805RG","3ZXV7Q5FJBAKJ3TNMBBLYHIS0EBCFB","","img/set1/S4.jpg","74","4","structured_load","74","structured_load,structured_normal,random,structured_incentive","1,2,2,3,4,2","1,4,3,2","true","","",""
"null","","html-keyboard-response","383","279897","0.0-383.0","3K772S5NP9XLGH214UAIG9QU9BPEHP","A5P12YJP805RG","3ZXV7Q5FJBAKJ3TNMBBLYHIS0EBCFB","","<img src=""img/set1/S4.jpg"" width=""540"" height = ""360"" style=""border:16px solid orange"">","null","","","","","","","","","",""
