"rt","url","trial_type","trial_index","time_elapsed","internal_node_id","assignmentID","mturkID","hitID","view_history","stimulus","key_press","state","test_part","correct_response","order_block","order_chunk","order_freq","correct","responses","question_order","bonus"
"27970.199999999255","consent.html","external-html","0","28075","0.0-0.0","3VA45EW49O9WOXUCWJATTY41VLJO1H","A5TWD5QD99GZY","3DZKABX2ZIR9F0FDMQGPG3LEN12CVN","","","","","","","","","","","","",""
"172669.30000000075","","instructions","1","200747","0.0-1.0","3VA45EW49O9WOXUCWJATTY41VLJO1H","A5TWD5QD99GZY","3DZKABX2ZIR9F0FDMQGPG3LEN12CVN","[{""page_index"":0,""viewing_time"":28067.10000000149},{""page_index"":1,""viewing_time"":9023},{""page_index"":2,""viewing_time"":94940.39999999851},{""page_index"":3,""viewing_time"":15863},{""page_index"":4,""viewing_time"":6327.700000001118},{""page_index"":5,""viewing_time"":8560.299999998882},{""page_index"":6,""viewing_time"":9887.200000001118}]","","","","","","","","","","","",""
"31845.300000000745","","instructions","2","232593","0.0-2.0","3VA45EW49O9WOXUCWJATTY41VLJO1H","A5TWD5QD99GZY","3DZKABX2ZIR9F0FDMQGPG3LEN12CVN","[{""page_index"":0,""viewing_time"":31845.199999999255}]","","","","","","","","","","","",""
"36126.39999999851","","instructions","3","268720","0.0-3.0","3VA45EW49O9WOXUCWJATTY41VLJO1H","A5TWD5QD99GZY","3DZKABX2ZIR9F0FDMQGPG3LEN12CVN","[{""page_index"":0,""viewing_time"":19726.5},{""page_index"":1,""viewing_time"":16399.699999999255}]","","","","","","","","","","","",""
"581.8000000007451","","image-keyboard-response","4","269303","0.0-4.0","3VA45EW49O9WOXUCWJATTY41VLJO1H","A5TWD5QD99GZY","3DZKABX2ZIR9F0FDMQGPG3LEN12CVN","","img/set1/S1.jpg","83","1","structured_load","83","structured_load,structured_incentive,random,structured_normal","3,4,2,1,2,3","2,1,4,3","true","","",""
"null","","html-keyboard-response","5","269670","0.0-5.0","3VA45EW49O9WOXUCWJATTY41VLJO1H","A5TWD5QD99GZY","3DZKABX2ZIR9F0FDMQGPG3LEN12CVN","","<img src=""img/set1/S1.jpg"" width=""540"" height = ""360"" style=""border:16px solid orange"">","null","","","","","","","","","",""
"null","","html-keyboard-response","6","269879","0.0-6.0","3VA45EW49O9WOXUCWJATTY41VLJO1H","A5TWD5QD99GZY","3DZKABX2ZIR9F0FDMQGPG3LEN12CVN","","","null","","","","","","","","","",""
"870.7999999988824","","image-keyboard-response","7","270751","0.0-7.0","3VA45EW49O9WOXUCWJATTY41VLJO1H","A5TWD5QD99GZY","3DZKABX2ZIR9F0FDMQGPG3LEN12CVN","","img/set1/S3.jpg","68","3","structured_load","72","structured_load,structured_incentive,random,structured_normal","3,4,2,1,2,3","2,1,4,3","false","","",""
"null","","html-keyboard-response","8","271104","0.0-8.0","3VA45EW49O9WOXUCWJATTY41VLJO1H","A5TWD5QD99GZY","3DZKABX2ZIR9F0FDMQGPG3LEN12CVN","","<img src=""img/set1/S3.jpg"" width=""540"" height = ""360"">","null","","","","","","","","","",""
"null","","html-keyboard-response","9","271314","0.0-9.0","3VA45EW49O9WOXUCWJATTY41VLJO1H","A5TWD5QD99GZY","3DZKABX2ZIR9F0FDMQGPG3LEN12CVN","","","null","","","","","","","","","",""
"899.4000000003725","","image-keyboard-response","10","272214","0.0-10.0","3VA45EW49O9WOXUCWJATTY41VLJO1H","A5TWD5QD99GZY","3DZKABX2ZIR9F0FDMQGPG3LEN12CVN","","img/set1/S4.jpg","72","4","structured_load","74","structured_load,structured_incentive,random,structured_normal","3,4,2,1,2,3","2,1,4,3","false","","",""
"null","","html-keyboard-response","11","272572","0.0-11.0","3VA45EW49O9WOXUCWJATTY41VLJO1H","A5TWD5QD99GZY","3DZKABX2ZIR9F0FDMQGPG3LEN12CVN","","<img src=""img/set1/S4.jpg"" width=""540"" height = ""360"">","null","","","","","","","","","",""
"null","","html-keyboard-response","12","272781","0.0-12.0","3VA45EW49O9WOXUCWJATTY41VLJO1H","A5TWD5QD99GZY","3DZKABX2ZIR9F0FDMQGPG3LEN12CVN","","","null","","","","","","","","","",""
"488.90000000037253","","image-keyboard-response","13","273271","0.0-13.0","3VA45EW49O9WOXUCWJATTY41VLJO1H","A5TWD5QD99GZY","3DZKABX2ZIR9F0FDMQGPG3LEN12CVN","","img/set1/S1.jpg","83","1","structured_load","83","structured_load,structured_incentive,random,structured_normal","3,4,2,1,2,3","2,1,4,3","true","","",""
"null","","html-keyboard-response","14","273623","0.0-14.0","3VA45EW49O9WOXUCWJATTY41VLJO1H","A5TWD5QD99GZY","3DZKABX2ZIR9F0FDMQGPG3LEN12CVN","","<img src=""img/set1/S1.jpg"" width=""540"" height = ""360"" style=""border:16px solid orange"">","null","","","","","","","","","",""
"null","","html-keyboard-response","15","273833","0.0-15.0","3VA45EW49O9WOXUCWJATTY41VLJO1H","A5TWD5QD99GZY","3DZKABX2ZIR9F0FDMQGPG3LEN12CVN","","","null","","","","","","","","","",""
"517.5999999996275","","image-keyboard-response","16","274351","0.0-16.0","3VA45EW49O9WOXUCWJATTY41VLJO1H","A5TWD5QD99GZY","3DZKABX2ZIR9F0FDMQGPG3LEN12CVN","","img/set1/S3.jpg","83","3","structured_load","72","structured_load,structured_incentive,random,structured_normal","3,4,2,1,2,3","2,1,4,3","false","","",""
"null","","html-keyboard-response","17","274707","0.0-17.0","3VA45EW49O9WOXUCWJATTY41VLJO1H","A5TWD5QD99GZY","3DZKABX2ZIR9F0FDMQGPG3LEN12CVN","","<img src=""img/set1/S3.jpg"" width=""540"" height = ""360"">","null","","","","","","","","","",""
"null","","html-keyboard-response","18","274917","0.0-18.0","3VA45EW49O9WOXUCWJATTY41VLJO1H","A5TWD5QD99GZY","3DZKABX2ZIR9F0FDMQGPG3LEN12CVN","","","null","","","","","","","","","",""
"537.1999999992549","","image-keyboard-response","19","275455","0.0-19.0","3VA45EW49O9WOXUCWJATTY41VLJO1H","A5TWD5QD99GZY","3DZKABX2ZIR9F0FDMQGPG3LEN12CVN","","img/set1/S4.jpg","83","4","structured_load","74","structured_load,structured_incentive,random,structured_normal","3,4,2,1,2,3","2,1,4,3","false","","",""
"null","","html-keyboard-response","20","275812","0.0-20.0","3VA45EW49O9WOXUCWJATTY41VLJO1H","A5TWD5QD99GZY","3DZKABX2ZIR9F0FDMQGPG3LEN12CVN","","<img src=""img/set1/S4.jpg"" width=""540"" height = ""360"">","null","","","","","","","","","",""
"null","","html-keyboard-response","21","276020","0.0-21.0","3VA45EW49O9WOXUCWJATTY41VLJO1H","A5TWD5QD99GZY","3DZKABX2ZIR9F0FDMQGPG3LEN12CVN","","","null","","","","","","","","","",""
"521.5999999996275","","image-keyboard-response","22","276542","0.0-22.0","3VA45EW49O9WOXUCWJATTY41VLJO1H","A5TWD5QD99GZY","3DZKABX2ZIR9F0FDMQGPG3LEN12CVN","","img/set1/S3.jpg","72","3","structured_load","72","structured_load,structured_incentive,random,structured_normal","3,4,2,1,2,3","2,1,4,3","true","","",""
"null","","html-keyboard-response","23","276908","0.0-23.0","3VA45EW49O9WOXUCWJATTY41VLJO1H","A5TWD5QD99GZY","3DZKABX2ZIR9F0FDMQGPG3LEN12CVN","","<img src=""img/set1/S3.jpg"" width=""540"" height = ""360"" style=""border:16px solid orange"">","null","","","","","","","","","",""
"null","","html-keyboard-response","24","277119","0.0-24.0","3VA45EW49O9WOXUCWJATTY41VLJO1H","A5TWD5QD99GZY","3DZKABX2ZIR9F0FDMQGPG3LEN12CVN","","","null","","","","","","","","","",""
"598.9000000003725","","image-keyboard-response","25","277719","0.0-25.0","3VA45EW49O9WOXUCWJATTY41VLJO1H","A5TWD5QD99GZY","3DZKABX2ZIR9F0FDMQGPG3LEN12CVN","","img/set1/S4.jpg","68","4","structured_load","74","structured_load,structured_incentive,random,structured_normal","3,4,2,1,2,3","2,1,4,3","false","","",""
"null","","html-keyboard-response","26","278079","0.0-26.0","3VA45EW49O9WOXUCWJATTY41VLJO1H","A5TWD5QD99GZY","3DZKABX2ZIR9F0FDMQGPG3LEN12CVN","","<img src=""img/set1/S4.jpg"" width=""540"" height = ""360"">","null","","","","","","","","","",""
"null","","html-keyboard-response","27","278294","0.0-27.0","3VA45EW49O9WOXUCWJATTY41VLJO1H","A5TWD5QD99GZY","3DZKABX2ZIR9F0FDMQGPG3LEN12CVN","","","null","","","","","","","","","",""
"591.8000000007451","","image-keyboard-response","28","278886","0.0-28.0","3VA45EW49O9WOXUCWJATTY41VLJO1H","A5TWD5QD99GZY","3DZKABX2ZIR9F0FDMQGPG3LEN12CVN","","img/set1/S2.jpg","74","2","structured_load","68","structured_load,structured_incentive,random,structured_normal","3,4,2,1,2,3","2,1,4,3","false","","",""
"null","","html-keyboard-response","29","279245","0.0-29.0","3VA45EW49O9WOXUCWJATTY41VLJO1H","A5TWD5QD99GZY","3DZKABX2ZIR9F0FDMQGPG3LEN12CVN","","<img src=""img/set1/S2.jpg"" width=""540"" height = ""360"">","null","","","","","","","","","",""
"null","","html-keyboard-response","30","279455","0.0-30.0","3VA45EW49O9WOXUCWJATTY41VLJO1H","A5TWD5QD99GZY","3DZKABX2ZIR9F0FDMQGPG3LEN12CVN","","","null","","","","","","","","","",""
"710.3999999985099","","image-keyboard-response","31","280166","0.0-31.0","3VA45EW49O9WOXUCWJATTY41VLJO1H","A5TWD5QD99GZY","3DZKABX2ZIR9F0FDMQGPG3LEN12CVN","","img/set1/S1.jpg","83","1","structured_load","83","structured_load,structured_incentive,random,structured_normal","3,4,2,1,2,3","2,1,4,3","true","","",""
"null","","html-keyboard-response","32","280532","0.0-32.0","3VA45EW49O9WOXUCWJATTY41VLJO1H","A5TWD5QD99GZY","3DZKABX2ZIR9F0FDMQGPG3LEN12CVN","","<img src=""img/set1/S1.jpg"" width=""540"" height = ""360"" style=""border:16px solid orange"">","null","","","","","","","","","",""
"null","","html-keyboard-response","33","280740","0.0-33.0","3VA45EW49O9WOXUCWJATTY41VLJO1H","A5TWD5QD99GZY","3DZKABX2ZIR9F0FDMQGPG3LEN12CVN","","","null","","","","","","","","","",""
"674.5","","image-keyboard-response","34","281415","0.0-34.0","3VA45EW49O9WOXUCWJATTY41VLJO1H","A5TWD5QD99GZY","3DZKABX2ZIR9F0FDMQGPG3LEN12CVN","","img/set1/S2.jpg","68","2","structured_load","68","structured_load,structured_incentive,random,structured_normal","3,4,2,1,2,3","2,1,4,3","true","","",""
"null","","html-keyboard-response","35","281779","0.0-35.0","3VA45EW49O9WOXUCWJATTY41VLJO1H","A5TWD5QD99GZY","3DZKABX2ZIR9F0FDMQGPG3LEN12CVN","","<img src=""img/set1/S2.jpg"" width=""540"" height = ""360"" style=""border:16px solid orange"">","null","","","","","","","","","",""
"null","","html-keyboard-response","36","281991","0.0-36.0","3VA45EW49O9WOXUCWJATTY41VLJO1H","A5TWD5QD99GZY","3DZKABX2ZIR9F0FDMQGPG3LEN12CVN","","","null","","","","","","","","","",""
"559.6000000014901","","image-keyboard-response","37","282551","0.0-37.0","3VA45EW49O9WOXUCWJATTY41VLJO1H","A5TWD5QD99GZY","3DZKABX2ZIR9F0FDMQGPG3LEN12CVN","","img/set1/S2.jpg","68","2","structured_load","68","structured_load,structured_incentive,random,structured_normal","3,4,2,1,2,3","2,1,4,3","true","","",""
"null","","html-keyboard-response","38","282909","0.0-38.0","3VA45EW49O9WOXUCWJATTY41VLJO1H","A5TWD5QD99GZY","3DZKABX2ZIR9F0FDMQGPG3LEN12CVN","","<img src=""img/set1/S2.jpg"" width=""540"" height = ""360"" style=""border:16px solid orange"">","null","","","","","","","","","",""
"null","","html-keyboard-response","39","283113","0.0-39.0","3VA45EW49O9WOXUCWJATTY41VLJO1H","A5TWD5QD99GZY","3DZKABX2ZIR9F0FDMQGPG3LEN12CVN","","","null","","","","","","","","","",""
"636.5999999996275","","image-keyboard-response","40","283750","0.0-40.0","3VA45EW49O9WOXUCWJATTY41VLJO1H","A5TWD5QD99GZY","3DZKABX2ZIR9F0FDMQGPG3LEN12CVN","","img/set1/S3.jpg","72","3","structured_load","72","structured_load,structured_incentive,random,structured_normal","3,4,2,1,2,3","2,1,4,3","true","","",""
"null","","html-keyboard-response","41","284103","0.0-41.0","3VA45EW49O9WOXUCWJATTY41VLJO1H","A5TWD5QD99GZY","3DZKABX2ZIR9F0FDMQGPG3LEN12CVN","","<img src=""img/set1/S3.jpg"" width=""540"" height = ""360"" style=""border:16px solid orange"">","null","","","","","","","","","",""
"null","","html-keyboard-response","42","284316","0.0-42.0","3VA45EW49O9WOXUCWJATTY41VLJO1H","A5TWD5QD99GZY","3DZKABX2ZIR9F0FDMQGPG3LEN12CVN","","","null","","","","","","","","","",""
"578.0999999996275","","image-keyboard-response","43","284895","0.0-43.0","3VA45EW49O9WOXUCWJATTY41VLJO1H","A5TWD5QD99GZY","3DZKABX2ZIR9F0FDMQGPG3LEN12CVN","","img/set1/S4.jpg","74","4","structured_load","74","structured_load,structured_incentive,random,structured_normal","3,4,2,1,2,3","2,1,4,3","true","","",""
"null","","html-keyboard-response","44","285253","0.0-44.0","3VA45EW49O9WOXUCWJATTY41VLJO1H","A5TWD5QD99GZY","3DZKABX2ZIR9F0FDMQGPG3LEN12CVN","","<img src=""img/set1/S4.jpg"" width=""540"" height = ""360"" style=""border:16px solid orange"">","null","","","","","","","","","",""
"null","","html-keyboard-response","45","285460","0.0-45.0","3VA45EW49O9WOXUCWJATTY41VLJO1H","A5TWD5QD99GZY","3DZKABX2ZIR9F0FDMQGPG3LEN12CVN","","","null","","","","","","","","","",""
"618","","image-keyboard-response","46","286078","0.0-46.0","3VA45EW49O9WOXUCWJATTY41VLJO1H","A5TWD5QD99GZY","3DZKABX2ZIR9F0FDMQGPG3LEN12CVN","","img/set1/S1.jpg","83","1","structured_load","83","structured_load,structured_incentive,random,structured_normal","3,4,2,1,2,3","2,1,4,3","true","","",""
"null","","html-keyboard-response","47","286441","0.0-47.0","3VA45EW49O9WOXUCWJATTY41VLJO1H","A5TWD5QD99GZY","3DZKABX2ZIR9F0FDMQGPG3LEN12CVN","","<img src=""img/set1/S1.jpg"" width=""540"" height = ""360"" style=""border:16px solid orange"">","null","","","","","","","","","",""
"null","","html-keyboard-response","48","286648","0.0-48.0","3VA45EW49O9WOXUCWJATTY41VLJO1H","A5TWD5QD99GZY","3DZKABX2ZIR9F0FDMQGPG3LEN12CVN","","","null","","","","","","","","","",""
"542.4000000003725","","image-keyboard-response","49","287190","0.0-49.0","3VA45EW49O9WOXUCWJATTY41VLJO1H","A5TWD5QD99GZY","3DZKABX2ZIR9F0FDMQGPG3LEN12CVN","","img/set1/S2.jpg","68","2","structured_load","68","structured_load,structured_incentive,random,structured_normal","3,4,2,1,2,3","2,1,4,3","true","","",""
"null","","html-keyboard-response","50","287553","0.0-50.0","3VA45EW49O9WOXUCWJATTY41VLJO1H","A5TWD5QD99GZY","3DZKABX2ZIR9F0FDMQGPG3LEN12CVN","","<img src=""img/set1/S2.jpg"" width=""540"" height = ""360"" style=""border:16px solid orange"">","null","","","","","","","","","",""
"null","","html-keyboard-response","51","287763","0.0-51.0","3VA45EW49O9WOXUCWJATTY41VLJO1H","A5TWD5QD99GZY","3DZKABX2ZIR9F0FDMQGPG3LEN12CVN","","","null","","","","","","","","","",""
"578.6000000014901","","image-keyboard-response","52","288342","0.0-52.0","3VA45EW49O9WOXUCWJATTY41VLJO1H","A5TWD5QD99GZY","3DZKABX2ZIR9F0FDMQGPG3LEN12CVN","","img/set1/S3.jpg","72","3","structured_load","72","structured_load,structured_incentive,random,structured_normal","3,4,2,1,2,3","2,1,4,3","true","","",""
"null","","html-keyboard-response","53","288704","0.0-53.0","3VA45EW49O9WOXUCWJATTY41VLJO1H","A5TWD5QD99GZY","3DZKABX2ZIR9F0FDMQGPG3LEN12CVN","","<img src=""img/set1/S3.jpg"" width=""540"" height = ""360"" style=""border:16px solid orange"">","null","","","","","","","","","",""
"null","","html-keyboard-response","54","288913","0.0-54.0","3VA45EW49O9WOXUCWJATTY41VLJO1H","A5TWD5QD99GZY","3DZKABX2ZIR9F0FDMQGPG3LEN12CVN","","","null","","","","","","","","","",""
"436","","image-keyboard-response","55","289350","0.0-55.0","3VA45EW49O9WOXUCWJATTY41VLJO1H","A5TWD5QD99GZY","3DZKABX2ZIR9F0FDMQGPG3LEN12CVN","","img/set1/S4.jpg","74","4","structured_load","74","structured_load,structured_incentive,random,structured_normal","3,4,2,1,2,3","2,1,4,3","true","","",""
"null","","html-keyboard-response","56","289706","0.0-56.0","3VA45EW49O9WOXUCWJATTY41VLJO1H","A5TWD5QD99GZY","3DZKABX2ZIR9F0FDMQGPG3LEN12CVN","","<img src=""img/set1/S4.jpg"" width=""540"" height = ""360"" style=""border:16px solid orange"">","null","","","","","","","","","",""
"null","","html-keyboard-response","57","289908","0.0-57.0","3VA45EW49O9WOXUCWJATTY41VLJO1H","A5TWD5QD99GZY","3DZKABX2ZIR9F0FDMQGPG3LEN12CVN","","","null","","","","","","","","","",""
"657.2999999988824","","image-keyboard-response","58","290566","0.0-58.0","3VA45EW49O9WOXUCWJATTY41VLJO1H","A5TWD5QD99GZY","3DZKABX2ZIR9F0FDMQGPG3LEN12CVN","","img/set1/S1.jpg","83","1","structured_load","83","structured_load,structured_incentive,random,structured_normal","3,4,2,1,2,3","2,1,4,3","true","","",""
"null","","html-keyboard-response","59","290918","0.0-59.0","3VA45EW49O9WOXUCWJATTY41VLJO1H","A5TWD5QD99GZY","3DZKABX2ZIR9F0FDMQGPG3LEN12CVN","","<img src=""img/set1/S1.jpg"" width=""540"" height = ""360"" style=""border:16px solid orange"">","null","","","","","","","","","",""
"null","","html-keyboard-response","60","291128","0.0-60.0","3VA45EW49O9WOXUCWJATTY41VLJO1H","A5TWD5QD99GZY","3DZKABX2ZIR9F0FDMQGPG3LEN12CVN","","","null","","","","","","","","","",""
"669","","image-keyboard-response","61","291798","0.0-61.0","3VA45EW49O9WOXUCWJATTY41VLJO1H","A5TWD5QD99GZY","3DZKABX2ZIR9F0FDMQGPG3LEN12CVN","","img/set1/S3.jpg","72","3","structured_load","72","structured_load,structured_incentive,random,structured_normal","3,4,2,1,2,3","2,1,4,3","true","","",""
"null","","html-keyboard-response","62","292158","0.0-62.0","3VA45EW49O9WOXUCWJATTY41VLJO1H","A5TWD5QD99GZY","3DZKABX2ZIR9F0FDMQGPG3LEN12CVN","","<img src=""img/set1/S3.jpg"" width=""540"" height = ""360"" style=""border:16px solid orange"">","null","","","","","","","","","",""
"null","","html-keyboard-response","63","292370","0.0-63.0","3VA45EW49O9WOXUCWJATTY41VLJO1H","A5TWD5QD99GZY","3DZKABX2ZIR9F0FDMQGPG3LEN12CVN","","","null","","","","","","","","","",""
"563.1999999992549","","image-keyboard-response","64","292934","0.0-64.0","3VA45EW49O9WOXUCWJATTY41VLJO1H","A5TWD5QD99GZY","3DZKABX2ZIR9F0FDMQGPG3LEN12CVN","","img/set1/S4.jpg","68","4","structured_load","74","structured_load,structured_incentive,random,structured_normal","3,4,2,1,2,3","2,1,4,3","false","","",""
"null","","html-keyboard-response","65","293293","0.0-65.0","3VA45EW49O9WOXUCWJATTY41VLJO1H","A5TWD5QD99GZY","3DZKABX2ZIR9F0FDMQGPG3LEN12CVN","","<img src=""img/set1/S4.jpg"" width=""540"" height = ""360"">","null","","","","","","","","","",""
"null","","html-keyboard-response","66","293502","0.0-66.0","3VA45EW49O9WOXUCWJATTY41VLJO1H","A5TWD5QD99GZY","3DZKABX2ZIR9F0FDMQGPG3LEN12CVN","","","null","","","","","","","","","",""
"518.9000000003725","","image-keyboard-response","67","294022","0.0-67.0","3VA45EW49O9WOXUCWJATTY41VLJO1H","A5TWD5QD99GZY","3DZKABX2ZIR9F0FDMQGPG3LEN12CVN","","img/set1/S1.jpg","83","1","structured_load","83","structured_load,structured_incentive,random,structured_normal","3,4,2,1,2,3","2,1,4,3","true","","",""
"null","","html-keyboard-response","68","294387","0.0-68.0","3VA45EW49O9WOXUCWJATTY41VLJO1H","A5TWD5QD99GZY","3DZKABX2ZIR9F0FDMQGPG3LEN12CVN","","<img src=""img/set1/S1.jpg"" width=""540"" height = ""360"" style=""border:16px solid orange"">","null","","","","","","","","","",""
"null","","html-keyboard-response","69","294603","0.0-69.0","3VA45EW49O9WOXUCWJATTY41VLJO1H","A5TWD5QD99GZY","3DZKABX2ZIR9F0FDMQGPG3LEN12CVN","","","null","","","","","","","","","",""
"617.5","","image-keyboard-response","70","295222","0.0-70.0","3VA45EW49O9WOXUCWJATTY41VLJO1H","A5TWD5QD99GZY","3DZKABX2ZIR9F0FDMQGPG3LEN12CVN","","img/set1/S3.jpg","72","3","structured_load","72","structured_load,structured_incentive,random,structured_normal","3,4,2,1,2,3","2,1,4,3","true","","",""
"null","","html-keyboard-response","71","295578","0.0-71.0","3VA45EW49O9WOXUCWJATTY41VLJO1H","A5TWD5QD99GZY","3DZKABX2ZIR9F0FDMQGPG3LEN12CVN","","<img src=""img/set1/S3.jpg"" width=""540"" height = ""360"" style=""border:16px solid orange"">","null","","","","","","","","","",""
"null","","html-keyboard-response","72","295788","0.0-72.0","3VA45EW49O9WOXUCWJATTY41VLJO1H","A5TWD5QD99GZY","3DZKABX2ZIR9F0FDMQGPG3LEN12CVN","","","null","","","","","","","","","",""
"481.19999999925494","","image-keyboard-response","73","296269","0.0-73.0","3VA45EW49O9WOXUCWJATTY41VLJO1H","A5TWD5QD99GZY","3DZKABX2ZIR9F0FDMQGPG3LEN12CVN","","img/set1/S4.jpg","74","4","structured_load","74","structured_load,structured_incentive,random,structured_normal","3,4,2,1,2,3","2,1,4,3","true","","",""
"null","","html-keyboard-response","74","296630","0.0-74.0","3VA45EW49O9WOXUCWJATTY41VLJO1H","A5TWD5QD99GZY","3DZKABX2ZIR9F0FDMQGPG3LEN12CVN","","<img src=""img/set1/S4.jpg"" width=""540"" height = ""360"" style=""border:16px solid orange"">","null","","","","","","","","","",""
"null","","html-keyboard-response","75","296834","0.0-75.0","3VA45EW49O9WOXUCWJATTY41VLJO1H","A5TWD5QD99GZY","3DZKABX2ZIR9F0FDMQGPG3LEN12CVN","","","null","","","","","","","","","",""
"627.6999999992549","","image-keyboard-response","76","297462","0.0-76.0","3VA45EW49O9WOXUCWJATTY41VLJO1H","A5TWD5QD99GZY","3DZKABX2ZIR9F0FDMQGPG3LEN12CVN","","img/set1/S3.jpg","72","3","structured_load","72","structured_load,structured_incentive,random,structured_normal","3,4,2,1,2,3","2,1,4,3","true","","",""
"null","","html-keyboard-response","77","297815","0.0-77.0","3VA45EW49O9WOXUCWJATTY41VLJO1H","A5TWD5QD99GZY","3DZKABX2ZIR9F0FDMQGPG3LEN12CVN","","<img src=""img/set1/S3.jpg"" width=""540"" height = ""360"" style=""border:16px solid orange"">","null","","","","","","","","","",""
"null","","html-keyboard-response","78","298024","0.0-78.0","3VA45EW49O9WOXUCWJATTY41VLJO1H","A5TWD5QD99GZY","3DZKABX2ZIR9F0FDMQGPG3LEN12CVN","","","null","","","","","","","","","",""
"701","","image-keyboard-response","79","298725","0.0-79.0","3VA45EW49O9WOXUCWJATTY41VLJO1H","A5TWD5QD99GZY","3DZKABX2ZIR9F0FDMQGPG3LEN12CVN","","img/set1/S4.jpg","74","4","structured_load","74","structured_load,structured_incentive,random,structured_normal","3,4,2,1,2,3","2,1,4,3","true","","",""
"null","","html-keyboard-response","80","299083","0.0-80.0","3VA45EW49O9WOXUCWJATTY41VLJO1H","A5TWD5QD99GZY","3DZKABX2ZIR9F0FDMQGPG3LEN12CVN","","<img src=""img/set1/S4.jpg"" width=""540"" height = ""360"" style=""border:16px solid orange"">","null","","","","","","","","","",""
"null","","html-keyboard-response","81","299290","0.0-81.0","3VA45EW49O9WOXUCWJATTY41VLJO1H","A5TWD5QD99GZY","3DZKABX2ZIR9F0FDMQGPG3LEN12CVN","","","null","","","","","","","","","",""
"554.6999999992549","","image-keyboard-response","82","299846","0.0-82.0","3VA45EW49O9WOXUCWJATTY41VLJO1H","A5TWD5QD99GZY","3DZKABX2ZIR9F0FDMQGPG3LEN12CVN","","img/set1/S1.jpg","83","1","structured_load","83","structured_load,structured_incentive,random,structured_normal","3,4,2,1,2,3","2,1,4,3","true","","",""
"null","","html-keyboard-response","83","300201","0.0-83.0","3VA45EW49O9WOXUCWJATTY41VLJO1H","A5TWD5QD99GZY","3DZKABX2ZIR9F0FDMQGPG3LEN12CVN","","<img src=""img/set1/S1.jpg"" width=""540"" height = ""360"" style=""border:16px solid orange"">","null","","","","","","","","","",""
"null","","html-keyboard-response","84","300411","0.0-84.0","3VA45EW49O9WOXUCWJATTY41VLJO1H","A5TWD5QD99GZY","3DZKABX2ZIR9F0FDMQGPG3LEN12CVN","","","null","","","","","","","","","",""
"513.4000000003725","","image-keyboard-response","85","300925","0.0-85.0","3VA45EW49O9WOXUCWJATTY41VLJO1H","A5TWD5QD99GZY","3DZKABX2ZIR9F0FDMQGPG3LEN12CVN","","img/set1/S1.jpg","83","1","structured_load","83","structured_load,structured_incentive,random,structured_normal","3,4,2,1,2,3","2,1,4,3","true","","",""
"null","","html-keyboard-response","86","301284","0.0-86.0","3VA45EW49O9WOXUCWJATTY41VLJO1H","A5TWD5QD99GZY","3DZKABX2ZIR9F0FDMQGPG3LEN12CVN","","<img src=""img/set1/S1.jpg"" width=""540"" height = ""360"" style=""border:16px solid orange"">","null","","","","","","","","","",""
"null","","html-keyboard-response","87","301492","0.0-87.0","3VA45EW49O9WOXUCWJATTY41VLJO1H","A5TWD5QD99GZY","3DZKABX2ZIR9F0FDMQGPG3LEN12CVN","","","null","","","","","","","","","",""
"537.3000000007451","","image-keyboard-response","88","302030","0.0-88.0","3VA45EW49O9WOXUCWJATTY41VLJO1H","A5TWD5QD99GZY","3DZKABX2ZIR9F0FDMQGPG3LEN12CVN","","img/set1/S3.jpg","72","3","structured_load","72","structured_load,structured_incentive,random,structured_normal","3,4,2,1,2,3","2,1,4,3","true","","",""
"null","","html-keyboard-response","89","302388","0.0-89.0","3VA45EW49O9WOXUCWJATTY41VLJO1H","A5TWD5QD99GZY","3DZKABX2ZIR9F0FDMQGPG3LEN12CVN","","<img src=""img/set1/S3.jpg"" width=""540"" height = ""360"" style=""border:16px solid orange"">","null","","","","","","","","","",""
"null","","html-keyboard-response","90","302591","0.0-90.0","3VA45EW49O9WOXUCWJATTY41VLJO1H","A5TWD5QD99GZY","3DZKABX2ZIR9F0FDMQGPG3LEN12CVN","","","null","","","","","","","","","",""
"582.2000000011176","","image-keyboard-response","91","303173","0.0-91.0","3VA45EW49O9WOXUCWJATTY41VLJO1H","A5TWD5QD99GZY","3DZKABX2ZIR9F0FDMQGPG3LEN12CVN","","img/set1/S4.jpg","74","4","structured_load","74","structured_load,structured_incentive,random,structured_normal","3,4,2,1,2,3","2,1,4,3","true","","",""
"null","","html-keyboard-response","92","303535","0.0-92.0","3VA45EW49O9WOXUCWJATTY41VLJO1H","A5TWD5QD99GZY","3DZKABX2ZIR9F0FDMQGPG3LEN12CVN","","<img src=""img/set1/S4.jpg"" width=""540"" height = ""360"" style=""border:16px solid orange"">","null","","","","","","","","","",""
"null","","html-keyboard-response","93","303746","0.0-93.0","3VA45EW49O9WOXUCWJATTY41VLJO1H","A5TWD5QD99GZY","3DZKABX2ZIR9F0FDMQGPG3LEN12CVN","","","null","","","","","","","","","",""
"538.2999999988824","","image-keyboard-response","94","304285","0.0-94.0","3VA45EW49O9WOXUCWJATTY41VLJO1H","A5TWD5QD99GZY","3DZKABX2ZIR9F0FDMQGPG3LEN12CVN","","img/set1/S2.jpg","68","2","structured_load","68","structured_load,structured_incentive,random,structured_normal","3,4,2,1,2,3","2,1,4,3","true","","",""
"null","","html-keyboard-response","95","304638","0.0-95.0","3VA45EW49O9WOXUCWJATTY41VLJO1H","A5TWD5QD99GZY","3DZKABX2ZIR9F0FDMQGPG3LEN12CVN","","<img src=""img/set1/S2.jpg"" width=""540"" height = ""360"" style=""border:16px solid orange"">","null","","","","","","","","","",""
"null","","html-keyboard-response","96","304848","0.0-96.0","3VA45EW49O9WOXUCWJATTY41VLJO1H","A5TWD5QD99GZY","3DZKABX2ZIR9F0FDMQGPG3LEN12CVN","","","null","","","","","","","","","",""
"501.6000000014901","","image-keyboard-response","97","305350","0.0-97.0","3VA45EW49O9WOXUCWJATTY41VLJO1H","A5TWD5QD99GZY","3DZKABX2ZIR9F0FDMQGPG3LEN12CVN","","img/set1/S1.jpg","83","1","structured_load","83","structured_load,structured_incentive,random,structured_normal","3,4,2,1,2,3","2,1,4,3","true","","",""
"null","","html-keyboard-response","98","305704","0.0-98.0","3VA45EW49O9WOXUCWJATTY41VLJO1H","A5TWD5QD99GZY","3DZKABX2ZIR9F0FDMQGPG3LEN12CVN","","<img src=""img/set1/S1.jpg"" width=""540"" height = ""360"" style=""border:16px solid orange"">","null","","","","","","","","","",""
"null","","html-keyboard-response","99","305913","0.0-99.0","3VA45EW49O9WOXUCWJATTY41VLJO1H","A5TWD5QD99GZY","3DZKABX2ZIR9F0FDMQGPG3LEN12CVN","","","null","","","","","","","","","",""
"476.2999999988824","","image-keyboard-response","100","306390","0.0-100.0","3VA45EW49O9WOXUCWJATTY41VLJO1H","A5TWD5QD99GZY","3DZKABX2ZIR9F0FDMQGPG3LEN12CVN","","img/set1/S2.jpg","68","2","structured_load","68","structured_load,structured_incentive,random,structured_normal","3,4,2,1,2,3","2,1,4,3","true","","",""
"null","","html-keyboard-response","101","306747","0.0-101.0","3VA45EW49O9WOXUCWJATTY41VLJO1H","A5TWD5QD99GZY","3DZKABX2ZIR9F0FDMQGPG3LEN12CVN","","<img src=""img/set1/S2.jpg"" width=""540"" height = ""360"" style=""border:16px solid orange"">","null","","","","","","","","","",""
"null","","html-keyboard-response","102","306954","0.0-102.0","3VA45EW49O9WOXUCWJATTY41VLJO1H","A5TWD5QD99GZY","3DZKABX2ZIR9F0FDMQGPG3LEN12CVN","","","null","","","","","","","","","",""
"490.7999999988824","","image-keyboard-response","103","307446","0.0-103.0","3VA45EW49O9WOXUCWJATTY41VLJO1H","A5TWD5QD99GZY","3DZKABX2ZIR9F0FDMQGPG3LEN12CVN","","img/set1/S3.jpg","72","3","structured_load","72","structured_load,structured_incentive,random,structured_normal","3,4,2,1,2,3","2,1,4,3","true","","",""
"null","","html-keyboard-response","104","307806","0.0-104.0","3VA45EW49O9WOXUCWJATTY41VLJO1H","A5TWD5QD99GZY","3DZKABX2ZIR9F0FDMQGPG3LEN12CVN","","<img src=""img/set1/S3.jpg"" width=""540"" height = ""360"" style=""border:16px solid orange"">","null","","","","","","","","","",""
"null","","html-keyboard-response","105","308016","0.0-105.0","3VA45EW49O9WOXUCWJATTY41VLJO1H","A5TWD5QD99GZY","3DZKABX2ZIR9F0FDMQGPG3LEN12CVN","","","null","","","","","","","","","",""
"500.7999999988824","","image-keyboard-response","106","308518","0.0-106.0","3VA45EW49O9WOXUCWJATTY41VLJO1H","A5TWD5QD99GZY","3DZKABX2ZIR9F0FDMQGPG3LEN12CVN","","img/set1/S4.jpg","74","4","structured_load","74","structured_load,structured_incentive,random,structured_normal","3,4,2,1,2,3","2,1,4,3","true","","",""
"null","","html-keyboard-response","107","308879","0.0-107.0","3VA45EW49O9WOXUCWJATTY41VLJO1H","A5TWD5QD99GZY","3DZKABX2ZIR9F0FDMQGPG3LEN12CVN","","<img src=""img/set1/S4.jpg"" width=""540"" height = ""360"" style=""border:16px solid orange"">","null","","","","","","","","","",""
"null","","html-keyboard-response","108","309085","0.0-108.0","3VA45EW49O9WOXUCWJATTY41VLJO1H","A5TWD5QD99GZY","3DZKABX2ZIR9F0FDMQGPG3LEN12CVN","","","null","","","","","","","","","",""
"496.59999999962747","","image-keyboard-response","109","309582","0.0-109.0","3VA45EW49O9WOXUCWJATTY41VLJO1H","A5TWD5QD99GZY","3DZKABX2ZIR9F0FDMQGPG3LEN12CVN","","img/set1/S3.jpg","74","3","structured_load","72","structured_load,structured_incentive,random,structured_normal","3,4,2,1,2,3","2,1,4,3","false","","",""
"null","","html-keyboard-response","110","309942","0.0-110.0","3VA45EW49O9WOXUCWJATTY41VLJO1H","A5TWD5QD99GZY","3DZKABX2ZIR9F0FDMQGPG3LEN12CVN","","<img src=""img/set1/S3.jpg"" width=""540"" height = ""360"">","null","","","","","","","","","",""
"null","","html-keyboard-response","111","310149","0.0-111.0","3VA45EW49O9WOXUCWJATTY41VLJO1H","A5TWD5QD99GZY","3DZKABX2ZIR9F0FDMQGPG3LEN12CVN","","","null","","","","","","","","","",""
"711.7999999988824","","image-keyboard-response","112","310862","0.0-112.0","3VA45EW49O9WOXUCWJATTY41VLJO1H","A5TWD5QD99GZY","3DZKABX2ZIR9F0FDMQGPG3LEN12CVN","","img/set1/S4.jpg","74","4","structured_load","74","structured_load,structured_incentive,random,structured_normal","3,4,2,1,2,3","2,1,4,3","true","","",""
"null","","html-keyboard-response","113","311225","0.0-113.0","3VA45EW49O9WOXUCWJATTY41VLJO1H","A5TWD5QD99GZY","3DZKABX2ZIR9F0FDMQGPG3LEN12CVN","","<img src=""img/set1/S4.jpg"" width=""540"" height = ""360"" style=""border:16px solid orange"">","null","","","","","","","","","",""
"null","","html-keyboard-response","114","311436","0.0-114.0","3VA45EW49O9WOXUCWJATTY41VLJO1H","A5TWD5QD99GZY","3DZKABX2ZIR9F0FDMQGPG3LEN12CVN","","","null","","","","","","","","","",""
"488.1000000014901","","image-keyboard-response","115","311925","0.0-115.0","3VA45EW49O9WOXUCWJATTY41VLJO1H","A5TWD5QD99GZY","3DZKABX2ZIR9F0FDMQGPG3LEN12CVN","","img/set1/S1.jpg","83","1","structured_load","83","structured_load,structured_incentive,random,structured_normal","3,4,2,1,2,3","2,1,4,3","true","","",""
"null","","html-keyboard-response","116","312279","0.0-116.0","3VA45EW49O9WOXUCWJATTY41VLJO1H","A5TWD5QD99GZY","3DZKABX2ZIR9F0FDMQGPG3LEN12CVN","","<img src=""img/set1/S1.jpg"" width=""540"" height = ""360"" style=""border:16px solid orange"">","null","","","","","","","","","",""
"null","","html-keyboard-response","117","312487","0.0-117.0","3VA45EW49O9WOXUCWJATTY41VLJO1H","A5TWD5QD99GZY","3DZKABX2ZIR9F0FDMQGPG3LEN12CVN","","","null","","","","","","","","","",""
"652.7000000011176","","image-keyboard-response","118","313141","0.0-118.0","3VA45EW49O9WOXUCWJATTY41VLJO1H","A5TWD5QD99GZY","3DZKABX2ZIR9F0FDMQGPG3LEN12CVN","","img/set1/S2.jpg","68","2","structured_load","68","structured_load,structured_incentive,random,structured_normal","3,4,2,1,2,3","2,1,4,3","true","","",""
"null","","html-keyboard-response","119","313495","0.0-119.0","3VA45EW49O9WOXUCWJATTY41VLJO1H","A5TWD5QD99GZY","3DZKABX2ZIR9F0FDMQGPG3LEN12CVN","","<img src=""img/set1/S2.jpg"" width=""540"" height = ""360"" style=""border:16px solid orange"">","null","","","","","","","","","",""
"null","","html-keyboard-response","120","313705","0.0-120.0","3VA45EW49O9WOXUCWJATTY41VLJO1H","A5TWD5QD99GZY","3DZKABX2ZIR9F0FDMQGPG3LEN12CVN","","","null","","","","","","","","","",""
"451.09999999962747","","image-keyboard-response","121","314157","0.0-121.0","3VA45EW49O9WOXUCWJATTY41VLJO1H","A5TWD5QD99GZY","3DZKABX2ZIR9F0FDMQGPG3LEN12CVN","","img/set1/S2.jpg","68","2","structured_load","68","structured_load,structured_incentive,random,structured_normal","3,4,2,1,2,3","2,1,4,3","true","","",""
"null","","html-keyboard-response","122","314515","0.0-122.0","3VA45EW49O9WOXUCWJATTY41VLJO1H","A5TWD5QD99GZY","3DZKABX2ZIR9F0FDMQGPG3LEN12CVN","","<img src=""img/set1/S2.jpg"" width=""540"" height = ""360"" style=""border:16px solid orange"">","null","","","","","","","","","",""
"null","","html-keyboard-response","123","314722","0.0-123.0","3VA45EW49O9WOXUCWJATTY41VLJO1H","A5TWD5QD99GZY","3DZKABX2ZIR9F0FDMQGPG3LEN12CVN","","","null","","","","","","","","","",""
"537.4000000003725","","image-keyboard-response","124","315261","0.0-124.0","3VA45EW49O9WOXUCWJATTY41VLJO1H","A5TWD5QD99GZY","3DZKABX2ZIR9F0FDMQGPG3LEN12CVN","","img/set1/S1.jpg","83","1","structured_load","83","structured_load,structured_incentive,random,structured_normal","3,4,2,1,2,3","2,1,4,3","true","","",""
"null","","html-keyboard-response","125","315614","0.0-125.0","3VA45EW49O9WOXUCWJATTY41VLJO1H","A5TWD5QD99GZY","3DZKABX2ZIR9F0FDMQGPG3LEN12CVN","","<img src=""img/set1/S1.jpg"" width=""540"" height = ""360"" style=""border:16px solid orange"">","null","","","","","","","","","",""
"null","","html-keyboard-response","126","315824","0.0-126.0","3VA45EW49O9WOXUCWJATTY41VLJO1H","A5TWD5QD99GZY","3DZKABX2ZIR9F0FDMQGPG3LEN12CVN","","","null","","","","","","","","","",""
"501.1000000014901","","image-keyboard-response","127","316325","0.0-127.0","3VA45EW49O9WOXUCWJATTY41VLJO1H","A5TWD5QD99GZY","3DZKABX2ZIR9F0FDMQGPG3LEN12CVN","","img/set1/S1.jpg","83","1","structured_load","83","structured_load,structured_incentive,random,structured_normal","3,4,2,1,2,3","2,1,4,3","true","","",""
"null","","html-keyboard-response","128","316681","0.0-128.0","3VA45EW49O9WOXUCWJATTY41VLJO1H","A5TWD5QD99GZY","3DZKABX2ZIR9F0FDMQGPG3LEN12CVN","","<img src=""img/set1/S1.jpg"" width=""540"" height = ""360"" style=""border:16px solid orange"">","null","","","","","","","","","",""
"null","","html-keyboard-response","129","316891","0.0-129.0","3VA45EW49O9WOXUCWJATTY41VLJO1H","A5TWD5QD99GZY","3DZKABX2ZIR9F0FDMQGPG3LEN12CVN","","","null","","","","","","","","","",""
"417.80000000074506","","image-keyboard-response","130","317309","0.0-130.0","3VA45EW49O9WOXUCWJATTY41VLJO1H","A5TWD5QD99GZY","3DZKABX2ZIR9F0FDMQGPG3LEN12CVN","","img/set1/S1.jpg","83","1","structured_load","83","structured_load,structured_incentive,random,structured_normal","3,4,2,1,2,3","2,1,4,3","true","","",""
"null","","html-keyboard-response","131","317665","0.0-131.0","3VA45EW49O9WOXUCWJATTY41VLJO1H","A5TWD5QD99GZY","3DZKABX2ZIR9F0FDMQGPG3LEN12CVN","","<img src=""img/set1/S1.jpg"" width=""540"" height = ""360"" style=""border:16px solid orange"">","null","","","","","","","","","",""
"null","","html-keyboard-response","132","317867","0.0-132.0","3VA45EW49O9WOXUCWJATTY41VLJO1H","A5TWD5QD99GZY","3DZKABX2ZIR9F0FDMQGPG3LEN12CVN","","","null","","","","","","","","","",""
"465.09999999962747","","image-keyboard-response","133","318333","0.0-133.0","3VA45EW49O9WOXUCWJATTY41VLJO1H","A5TWD5QD99GZY","3DZKABX2ZIR9F0FDMQGPG3LEN12CVN","","img/set1/S3.jpg","72","3","structured_load","72","structured_load,structured_incentive,random,structured_normal","3,4,2,1,2,3","2,1,4,3","true","","",""
"null","","html-keyboard-response","134","318699","0.0-134.0","3VA45EW49O9WOXUCWJATTY41VLJO1H","A5TWD5QD99GZY","3DZKABX2ZIR9F0FDMQGPG3LEN12CVN","","<img src=""img/set1/S3.jpg"" width=""540"" height = ""360"" style=""border:16px solid orange"">","null","","","","","","","","","",""
"null","","html-keyboard-response","135","318910","0.0-135.0","3VA45EW49O9WOXUCWJATTY41VLJO1H","A5TWD5QD99GZY","3DZKABX2ZIR9F0FDMQGPG3LEN12CVN","","","null","","","","","","","","","",""
"534.5","","image-keyboard-response","136","319445","0.0-136.0","3VA45EW49O9WOXUCWJATTY41VLJO1H","A5TWD5QD99GZY","3DZKABX2ZIR9F0FDMQGPG3LEN12CVN","","img/set1/S4.jpg","74","4","structured_load","74","structured_load,structured_incentive,random,structured_normal","3,4,2,1,2,3","2,1,4,3","true","","",""
"null","","html-keyboard-response","137","319801","0.0-137.0","3VA45EW49O9WOXUCWJATTY41VLJO1H","A5TWD5QD99GZY","3DZKABX2ZIR9F0FDMQGPG3LEN12CVN","","<img src=""img/set1/S4.jpg"" width=""540"" height = ""360"" style=""border:16px solid orange"">","null","","","","","","","","","",""
"null","","html-keyboard-response","138","320012","0.0-138.0","3VA45EW49O9WOXUCWJATTY41VLJO1H","A5TWD5QD99GZY","3DZKABX2ZIR9F0FDMQGPG3LEN12CVN","","","null","","","","","","","","","",""
"559.5999999996275","","image-keyboard-response","139","320573","0.0-139.0","3VA45EW49O9WOXUCWJATTY41VLJO1H","A5TWD5QD99GZY","3DZKABX2ZIR9F0FDMQGPG3LEN12CVN","","img/set1/S3.jpg","72","3","structured_load","72","structured_load,structured_incentive,random,structured_normal","3,4,2,1,2,3","2,1,4,3","true","","",""
"null","","html-keyboard-response","140","320939","0.0-140.0","3VA45EW49O9WOXUCWJATTY41VLJO1H","A5TWD5QD99GZY","3DZKABX2ZIR9F0FDMQGPG3LEN12CVN","","<img src=""img/set1/S3.jpg"" width=""540"" height = ""360"" style=""border:16px solid orange"">","null","","","","","","","","","",""
"null","","html-keyboard-response","141","321147","0.0-141.0","3VA45EW49O9WOXUCWJATTY41VLJO1H","A5TWD5QD99GZY","3DZKABX2ZIR9F0FDMQGPG3LEN12CVN","","","null","","","","","","","","","",""
"496.90000000037253","","image-keyboard-response","142","321644","0.0-142.0","3VA45EW49O9WOXUCWJATTY41VLJO1H","A5TWD5QD99GZY","3DZKABX2ZIR9F0FDMQGPG3LEN12CVN","","img/set1/S4.jpg","74","4","structured_load","74","structured_load,structured_incentive,random,structured_normal","3,4,2,1,2,3","2,1,4,3","true","","",""
"null","","html-keyboard-response","143","322005","0.0-143.0","3VA45EW49O9WOXUCWJATTY41VLJO1H","A5TWD5QD99GZY","3DZKABX2ZIR9F0FDMQGPG3LEN12CVN","","<img src=""img/set1/S4.jpg"" width=""540"" height = ""360"" style=""border:16px solid orange"">","null","","","","","","","","","",""
"null","","html-keyboard-response","144","322211","0.0-144.0","3VA45EW49O9WOXUCWJATTY41VLJO1H","A5TWD5QD99GZY","3DZKABX2ZIR9F0FDMQGPG3LEN12CVN","","","null","","","","","","","","","",""
"497","","image-keyboard-response","145","322708","0.0-145.0","3VA45EW49O9WOXUCWJATTY41VLJO1H","A5TWD5QD99GZY","3DZKABX2ZIR9F0FDMQGPG3LEN12CVN","","img/set1/S3.jpg","72","3","structured_load","72","structured_load,structured_incentive,random,structured_normal","3,4,2,1,2,3","2,1,4,3","true","","",""
"null","","html-keyboard-response","146","323068","0.0-146.0","3VA45EW49O9WOXUCWJATTY41VLJO1H","A5TWD5QD99GZY","3DZKABX2ZIR9F0FDMQGPG3LEN12CVN","","<img src=""img/set1/S3.jpg"" width=""540"" height = ""360"" style=""border:16px solid orange"">","null","","","","","","","","","",""
"null","","html-keyboard-response","147","323281","0.0-147.0","3VA45EW49O9WOXUCWJATTY41VLJO1H","A5TWD5QD99GZY","3DZKABX2ZIR9F0FDMQGPG3LEN12CVN","","","null","","","","","","","","","",""
"490.80000000074506","","image-keyboard-response","148","323772","0.0-148.0","3VA45EW49O9WOXUCWJATTY41VLJO1H","A5TWD5QD99GZY","3DZKABX2ZIR9F0FDMQGPG3LEN12CVN","","img/set1/S4.jpg","74","4","structured_load","74","structured_load,structured_incentive,random,structured_normal","3,4,2,1,2,3","2,1,4,3","true","","",""
"null","","html-keyboard-response","149","324138","0.0-149.0","3VA45EW49O9WOXUCWJATTY41VLJO1H","A5TWD5QD99GZY","3DZKABX2ZIR9F0FDMQGPG3LEN12CVN","","<img src=""img/set1/S4.jpg"" width=""540"" height = ""360"" style=""border:16px solid orange"">","null","","","","","","","","","",""
"null","","html-keyboard-response","150","324353","0.0-150.0","3VA45EW49O9WOXUCWJATTY41VLJO1H","A5TWD5QD99GZY","3DZKABX2ZIR9F0FDMQGPG3LEN12CVN","","","null","","","","","","","","","",""
"618.2999999988824","","image-keyboard-response","151","324972","0.0-151.0","3VA45EW49O9WOXUCWJATTY41VLJO1H","A5TWD5QD99GZY","3DZKABX2ZIR9F0FDMQGPG3LEN12CVN","","img/set1/S2.jpg","68","2","structured_load","68","structured_load,structured_incentive,random,structured_normal","3,4,2,1,2,3","2,1,4,3","true","","",""
"null","","html-keyboard-response","152","325326","0.0-152.0","3VA45EW49O9WOXUCWJATTY41VLJO1H","A5TWD5QD99GZY","3DZKABX2ZIR9F0FDMQGPG3LEN12CVN","","<img src=""img/set1/S2.jpg"" width=""540"" height = ""360"" style=""border:16px solid orange"">","null","","","","","","","","","",""
"null","","html-keyboard-response","153","325533","0.0-153.0","3VA45EW49O9WOXUCWJATTY41VLJO1H","A5TWD5QD99GZY","3DZKABX2ZIR9F0FDMQGPG3LEN12CVN","","","null","","","","","","","","","",""
"510.7999999988824","","image-keyboard-response","154","326044","0.0-154.0","3VA45EW49O9WOXUCWJATTY41VLJO1H","A5TWD5QD99GZY","3DZKABX2ZIR9F0FDMQGPG3LEN12CVN","","img/set1/S3.jpg","72","3","structured_load","72","structured_load,structured_incentive,random,structured_normal","3,4,2,1,2,3","2,1,4,3","true","","",""
"null","","html-keyboard-response","155","326400","0.0-155.0","3VA45EW49O9WOXUCWJATTY41VLJO1H","A5TWD5QD99GZY","3DZKABX2ZIR9F0FDMQGPG3LEN12CVN","","<img src=""img/set1/S3.jpg"" width=""540"" height = ""360"" style=""border:16px solid orange"">","null","","","","","","","","","",""
"null","","html-keyboard-response","156","326602","0.0-156.0","3VA45EW49O9WOXUCWJATTY41VLJO1H","A5TWD5QD99GZY","3DZKABX2ZIR9F0FDMQGPG3LEN12CVN","","","null","","","","","","","","","",""
"529.1999999992549","","image-keyboard-response","157","327132","0.0-157.0","3VA45EW49O9WOXUCWJATTY41VLJO1H","A5TWD5QD99GZY","3DZKABX2ZIR9F0FDMQGPG3LEN12CVN","","img/set1/S4.jpg","74","4","structured_load","74","structured_load,structured_incentive,random,structured_normal","3,4,2,1,2,3","2,1,4,3","true","","",""
"null","","html-keyboard-response","158","327493","0.0-158.0","3VA45EW49O9WOXUCWJATTY41VLJO1H","A5TWD5QD99GZY","3DZKABX2ZIR9F0FDMQGPG3LEN12CVN","","<img src=""img/set1/S4.jpg"" width=""540"" height = ""360"" style=""border:16px solid orange"">","null","","","","","","","","","",""
"null","","html-keyboard-response","159","327702","0.0-159.0","3VA45EW49O9WOXUCWJATTY41VLJO1H","A5TWD5QD99GZY","3DZKABX2ZIR9F0FDMQGPG3LEN12CVN","","","null","","","","","","","","","",""
"485.2999999988824","","image-keyboard-response","160","328188","0.0-160.0","3VA45EW49O9WOXUCWJATTY41VLJO1H","A5TWD5QD99GZY","3DZKABX2ZIR9F0FDMQGPG3LEN12CVN","","img/set1/S1.jpg","83","1","structured_load","83","structured_load,structured_incentive,random,structured_normal","3,4,2,1,2,3","2,1,4,3","true","","",""
"null","","html-keyboard-response","161","328542","0.0-161.0","3VA45EW49O9WOXUCWJATTY41VLJO1H","A5TWD5QD99GZY","3DZKABX2ZIR9F0FDMQGPG3LEN12CVN","","<img src=""img/set1/S1.jpg"" width=""540"" height = ""360"" style=""border:16px solid orange"">","null","","","","","","","","","",""
"null","","html-keyboard-response","162","328753","0.0-162.0","3VA45EW49O9WOXUCWJATTY41VLJO1H","A5TWD5QD99GZY","3DZKABX2ZIR9F0FDMQGPG3LEN12CVN","","","null","","","","","","","","","",""
"410.09999999962747","","image-keyboard-response","163","329164","0.0-163.0","3VA45EW49O9WOXUCWJATTY41VLJO1H","A5TWD5QD99GZY","3DZKABX2ZIR9F0FDMQGPG3LEN12CVN","","img/set1/S1.jpg","83","1","structured_load","83","structured_load,structured_incentive,random,structured_normal","3,4,2,1,2,3","2,1,4,3","true","","",""
"null","","html-keyboard-response","164","329529","0.0-164.0","3VA45EW49O9WOXUCWJATTY41VLJO1H","A5TWD5QD99GZY","3DZKABX2ZIR9F0FDMQGPG3LEN12CVN","","<img src=""img/set1/S1.jpg"" width=""540"" height = ""360"" style=""border:16px solid orange"">","null","","","","","","","","","",""
"null","","html-keyboard-response","165","329737","0.0-165.0","3VA45EW49O9WOXUCWJATTY41VLJO1H","A5TWD5QD99GZY","3DZKABX2ZIR9F0FDMQGPG3LEN12CVN","","","null","","","","","","","","","",""
"474","","image-keyboard-response","166","330212","0.0-166.0","3VA45EW49O9WOXUCWJATTY41VLJO1H","A5TWD5QD99GZY","3DZKABX2ZIR9F0FDMQGPG3LEN12CVN","","img/set1/S3.jpg","72","3","structured_load","72","structured_load,structured_incentive,random,structured_normal","3,4,2,1,2,3","2,1,4,3","true","","",""
"null","","html-keyboard-response","167","330578","0.0-167.0","3VA45EW49O9WOXUCWJATTY41VLJO1H","A5TWD5QD99GZY","3DZKABX2ZIR9F0FDMQGPG3LEN12CVN","","<img src=""img/set1/S3.jpg"" width=""540"" height = ""360"" style=""border:16px solid orange"">","null","","","","","","","","","",""
"null","","html-keyboard-response","168","330789","0.0-168.0","3VA45EW49O9WOXUCWJATTY41VLJO1H","A5TWD5QD99GZY","3DZKABX2ZIR9F0FDMQGPG3LEN12CVN","","","null","","","","","","","","","",""
"470.90000000037253","","image-keyboard-response","169","331261","0.0-169.0","3VA45EW49O9WOXUCWJATTY41VLJO1H","A5TWD5QD99GZY","3DZKABX2ZIR9F0FDMQGPG3LEN12CVN","","img/set1/S4.jpg","74","4","structured_load","74","structured_load,structured_incentive,random,structured_normal","3,4,2,1,2,3","2,1,4,3","true","","",""
"null","","html-keyboard-response","170","331613","0.0-170.0","3VA45EW49O9WOXUCWJATTY41VLJO1H","A5TWD5QD99GZY","3DZKABX2ZIR9F0FDMQGPG3LEN12CVN","","<img src=""img/set1/S4.jpg"" width=""540"" height = ""360"" style=""border:16px solid orange"">","null","","","","","","","","","",""
"null","","html-keyboard-response","171","331823","0.0-171.0","3VA45EW49O9WOXUCWJATTY41VLJO1H","A5TWD5QD99GZY","3DZKABX2ZIR9F0FDMQGPG3LEN12CVN","","","null","","","","","","","","","",""
"460.30000000074506","","image-keyboard-response","172","332284","0.0-172.0","3VA45EW49O9WOXUCWJATTY41VLJO1H","A5TWD5QD99GZY","3DZKABX2ZIR9F0FDMQGPG3LEN12CVN","","img/set1/S2.jpg","68","2","structured_load","68","structured_load,structured_incentive,random,structured_normal","3,4,2,1,2,3","2,1,4,3","true","","",""
"null","","html-keyboard-response","173","332647","0.0-173.0","3VA45EW49O9WOXUCWJATTY41VLJO1H","A5TWD5QD99GZY","3DZKABX2ZIR9F0FDMQGPG3LEN12CVN","","<img src=""img/set1/S2.jpg"" width=""540"" height = ""360"" style=""border:16px solid orange"">","null","","","","","","","","","",""
"null","","html-keyboard-response","174","332857","0.0-174.0","3VA45EW49O9WOXUCWJATTY41VLJO1H","A5TWD5QD99GZY","3DZKABX2ZIR9F0FDMQGPG3LEN12CVN","","","null","","","","","","","","","",""
"498.7999999988824","","image-keyboard-response","175","333357","0.0-175.0","3VA45EW49O9WOXUCWJATTY41VLJO1H","A5TWD5QD99GZY","3DZKABX2ZIR9F0FDMQGPG3LEN12CVN","","img/set1/S2.jpg","68","2","structured_load","68","structured_load,structured_incentive,random,structured_normal","3,4,2,1,2,3","2,1,4,3","true","","",""
"null","","html-keyboard-response","176","333717","0.0-176.0","3VA45EW49O9WOXUCWJATTY41VLJO1H","A5TWD5QD99GZY","3DZKABX2ZIR9F0FDMQGPG3LEN12CVN","","<img src=""img/set1/S2.jpg"" width=""540"" height = ""360"" style=""border:16px solid orange"">","null","","","","","","","","","",""
"null","","html-keyboard-response","177","333926","0.0-177.0","3VA45EW49O9WOXUCWJATTY41VLJO1H","A5TWD5QD99GZY","3DZKABX2ZIR9F0FDMQGPG3LEN12CVN","","","null","","","","","","","","","",""
"572.9000000003725","","image-keyboard-response","178","334500","0.0-178.0","3VA45EW49O9WOXUCWJATTY41VLJO1H","A5TWD5QD99GZY","3DZKABX2ZIR9F0FDMQGPG3LEN12CVN","","img/set1/S3.jpg","72","3","structured_load","72","structured_load,structured_incentive,random,structured_normal","3,4,2,1,2,3","2,1,4,3","true","","",""
"null","","html-keyboard-response","179","334865","0.0-179.0","3VA45EW49O9WOXUCWJATTY41VLJO1H","A5TWD5QD99GZY","3DZKABX2ZIR9F0FDMQGPG3LEN12CVN","","<img src=""img/set1/S3.jpg"" width=""540"" height = ""360"" style=""border:16px solid orange"">","null","","","","","","","","","",""
"null","","html-keyboard-response","180","335075","0.0-180.0","3VA45EW49O9WOXUCWJATTY41VLJO1H","A5TWD5QD99GZY","3DZKABX2ZIR9F0FDMQGPG3LEN12CVN","","","null","","","","","","","","","",""
"488.19999999925494","","image-keyboard-response","181","335564","0.0-181.0","3VA45EW49O9WOXUCWJATTY41VLJO1H","A5TWD5QD99GZY","3DZKABX2ZIR9F0FDMQGPG3LEN12CVN","","img/set1/S4.jpg","74","4","structured_load","74","structured_load,structured_incentive,random,structured_normal","3,4,2,1,2,3","2,1,4,3","true","","",""
"null","","html-keyboard-response","182","335920","0.0-182.0","3VA45EW49O9WOXUCWJATTY41VLJO1H","A5TWD5QD99GZY","3DZKABX2ZIR9F0FDMQGPG3LEN12CVN","","<img src=""img/set1/S4.jpg"" width=""540"" height = ""360"" style=""border:16px solid orange"">","null","","","","","","","","","",""
"null","","html-keyboard-response","183","336129","0.0-183.0","3VA45EW49O9WOXUCWJATTY41VLJO1H","A5TWD5QD99GZY","3DZKABX2ZIR9F0FDMQGPG3LEN12CVN","","","null","","","","","","","","","",""
"505.59999999962747","","image-keyboard-response","184","336636","0.0-184.0","3VA45EW49O9WOXUCWJATTY41VLJO1H","A5TWD5QD99GZY","3DZKABX2ZIR9F0FDMQGPG3LEN12CVN","","img/set1/S2.jpg","68","2","structured_load","68","structured_load,structured_incentive,random,structured_normal","3,4,2,1,2,3","2,1,4,3","true","","",""
"null","","html-keyboard-response","185","337002","0.0-185.0","3VA45EW49O9WOXUCWJATTY41VLJO1H","A5TWD5QD99GZY","3DZKABX2ZIR9F0FDMQGPG3LEN12CVN","","<img src=""img/set1/S2.jpg"" width=""540"" height = ""360"" style=""border:16px solid orange"">","null","","","","","","","","","",""
"null","","html-keyboard-response","186","337212","0.0-186.0","3VA45EW49O9WOXUCWJATTY41VLJO1H","A5TWD5QD99GZY","3DZKABX2ZIR9F0FDMQGPG3LEN12CVN","","","null","","","","","","","","","",""
"423.30000000074506","","image-keyboard-response","187","337636","0.0-187.0","3VA45EW49O9WOXUCWJATTY41VLJO1H","A5TWD5QD99GZY","3DZKABX2ZIR9F0FDMQGPG3LEN12CVN","","img/set1/S2.jpg","68","2","structured_load","68","structured_load,structured_incentive,random,structured_normal","3,4,2,1,2,3","2,1,4,3","true","","",""
"null","","html-keyboard-response","188","337994","0.0-188.0","3VA45EW49O9WOXUCWJATTY41VLJO1H","A5TWD5QD99GZY","3DZKABX2ZIR9F0FDMQGPG3LEN12CVN","","<img src=""img/set1/S2.jpg"" width=""540"" height = ""360"" style=""border:16px solid orange"">","null","","","","","","","","","",""
"null","","html-keyboard-response","189","338197","0.0-189.0","3VA45EW49O9WOXUCWJATTY41VLJO1H","A5TWD5QD99GZY","3DZKABX2ZIR9F0FDMQGPG3LEN12CVN","","","null","","","","","","","","","",""
"438.7000000011176","","image-keyboard-response","190","338636","0.0-190.0","3VA45EW49O9WOXUCWJATTY41VLJO1H","A5TWD5QD99GZY","3DZKABX2ZIR9F0FDMQGPG3LEN12CVN","","img/set1/S1.jpg","83","1","structured_load","83","structured_load,structured_incentive,random,structured_normal","3,4,2,1,2,3","2,1,4,3","true","","",""
"null","","html-keyboard-response","191","338988","0.0-191.0","3VA45EW49O9WOXUCWJATTY41VLJO1H","A5TWD5QD99GZY","3DZKABX2ZIR9F0FDMQGPG3LEN12CVN","","<img src=""img/set1/S1.jpg"" width=""540"" height = ""360"" style=""border:16px solid orange"">","null","","","","","","","","","",""
"null","","html-keyboard-response","192","339197","0.0-192.0","3VA45EW49O9WOXUCWJATTY41VLJO1H","A5TWD5QD99GZY","3DZKABX2ZIR9F0FDMQGPG3LEN12CVN","","","null","","","","","","","","","",""
"598.2999999988824","","image-keyboard-response","193","339796","0.0-193.0","3VA45EW49O9WOXUCWJATTY41VLJO1H","A5TWD5QD99GZY","3DZKABX2ZIR9F0FDMQGPG3LEN12CVN","","img/set1/S2.jpg","68","2","structured_load","68","structured_load,structured_incentive,random,structured_normal","3,4,2,1,2,3","2,1,4,3","true","","",""
"null","","html-keyboard-response","194","340156","0.0-194.0","3VA45EW49O9WOXUCWJATTY41VLJO1H","A5TWD5QD99GZY","3DZKABX2ZIR9F0FDMQGPG3LEN12CVN","","<img src=""img/set1/S2.jpg"" width=""540"" height = ""360"" style=""border:16px solid orange"">","null","","","","","","","","","",""
"null","","html-keyboard-response","195","340366","0.0-195.0","3VA45EW49O9WOXUCWJATTY41VLJO1H","A5TWD5QD99GZY","3DZKABX2ZIR9F0FDMQGPG3LEN12CVN","","","null","","","","","","","","","",""
"517.5","","image-keyboard-response","196","340884","0.0-196.0","3VA45EW49O9WOXUCWJATTY41VLJO1H","A5TWD5QD99GZY","3DZKABX2ZIR9F0FDMQGPG3LEN12CVN","","img/set1/S1.jpg","83","1","structured_load","83","structured_load,structured_incentive,random,structured_normal","3,4,2,1,2,3","2,1,4,3","true","","",""
"null","","html-keyboard-response","197","341241","0.0-197.0","3VA45EW49O9WOXUCWJATTY41VLJO1H","A5TWD5QD99GZY","3DZKABX2ZIR9F0FDMQGPG3LEN12CVN","","<img src=""img/set1/S1.jpg"" width=""540"" height = ""360"" style=""border:16px solid orange"">","null","","","","","","","","","",""
"null","","html-keyboard-response","198","341448","0.0-198.0","3VA45EW49O9WOXUCWJATTY41VLJO1H","A5TWD5QD99GZY","3DZKABX2ZIR9F0FDMQGPG3LEN12CVN","","","null","","","","","","","","","",""
"419.40000000037253","","image-keyboard-response","199","341868","0.0-199.0","3VA45EW49O9WOXUCWJATTY41VLJO1H","A5TWD5QD99GZY","3DZKABX2ZIR9F0FDMQGPG3LEN12CVN","","img/set1/S1.jpg","83","1","structured_load","83","structured_load,structured_incentive,random,structured_normal","3,4,2,1,2,3","2,1,4,3","true","","",""
"null","","html-keyboard-response","200","342227","0.0-200.0","3VA45EW49O9WOXUCWJATTY41VLJO1H","A5TWD5QD99GZY","3DZKABX2ZIR9F0FDMQGPG3LEN12CVN","","<img src=""img/set1/S1.jpg"" width=""540"" height = ""360"" style=""border:16px solid orange"">","null","","","","","","","","","",""
"null","","html-keyboard-response","201","342433","0.0-201.0","3VA45EW49O9WOXUCWJATTY41VLJO1H","A5TWD5QD99GZY","3DZKABX2ZIR9F0FDMQGPG3LEN12CVN","","","null","","","","","","","","","",""
"490.40000000037253","","image-keyboard-response","202","342924","0.0-202.0","3VA45EW49O9WOXUCWJATTY41VLJO1H","A5TWD5QD99GZY","3DZKABX2ZIR9F0FDMQGPG3LEN12CVN","","img/set1/S2.jpg","68","2","structured_load","68","structured_load,structured_incentive,random,structured_normal","3,4,2,1,2,3","2,1,4,3","true","","",""
"null","","html-keyboard-response","203","343285","0.0-203.0","3VA45EW49O9WOXUCWJATTY41VLJO1H","A5TWD5QD99GZY","3DZKABX2ZIR9F0FDMQGPG3LEN12CVN","","<img src=""img/set1/S2.jpg"" width=""540"" height = ""360"" style=""border:16px solid orange"">","null","","","","","","","","","",""
"null","","html-keyboard-response","204","343501","0.0-204.0","3VA45EW49O9WOXUCWJATTY41VLJO1H","A5TWD5QD99GZY","3DZKABX2ZIR9F0FDMQGPG3LEN12CVN","","","null","","","","","","","","","",""
"446.09999999962747","","image-keyboard-response","205","343947","0.0-205.0","3VA45EW49O9WOXUCWJATTY41VLJO1H","A5TWD5QD99GZY","3DZKABX2ZIR9F0FDMQGPG3LEN12CVN","","img/set1/S3.jpg","72","3","structured_load","72","structured_load,structured_incentive,random,structured_normal","3,4,2,1,2,3","2,1,4,3","true","","",""
"null","","html-keyboard-response","206","344309","0.0-206.0","3VA45EW49O9WOXUCWJATTY41VLJO1H","A5TWD5QD99GZY","3DZKABX2ZIR9F0FDMQGPG3LEN12CVN","","<img src=""img/set1/S3.jpg"" width=""540"" height = ""360"" style=""border:16px solid orange"">","null","","","","","","","","","",""
"null","","html-keyboard-response","207","344519","0.0-207.0","3VA45EW49O9WOXUCWJATTY41VLJO1H","A5TWD5QD99GZY","3DZKABX2ZIR9F0FDMQGPG3LEN12CVN","","","null","","","","","","","","","",""
"492.09999999962747","","image-keyboard-response","208","345011","0.0-208.0","3VA45EW49O9WOXUCWJATTY41VLJO1H","A5TWD5QD99GZY","3DZKABX2ZIR9F0FDMQGPG3LEN12CVN","","img/set1/S4.jpg","74","4","structured_load","74","structured_load,structured_incentive,random,structured_normal","3,4,2,1,2,3","2,1,4,3","true","","",""
"null","","html-keyboard-response","209","345377","0.0-209.0","3VA45EW49O9WOXUCWJATTY41VLJO1H","A5TWD5QD99GZY","3DZKABX2ZIR9F0FDMQGPG3LEN12CVN","","<img src=""img/set1/S4.jpg"" width=""540"" height = ""360"" style=""border:16px solid orange"">","null","","","","","","","","","",""
"null","","html-keyboard-response","210","345586","0.0-210.0","3VA45EW49O9WOXUCWJATTY41VLJO1H","A5TWD5QD99GZY","3DZKABX2ZIR9F0FDMQGPG3LEN12CVN","","","null","","","","","","","","","",""
"488.30000000074506","","image-keyboard-response","211","346075","0.0-211.0","3VA45EW49O9WOXUCWJATTY41VLJO1H","A5TWD5QD99GZY","3DZKABX2ZIR9F0FDMQGPG3LEN12CVN","","img/set1/S3.jpg","72","3","structured_load","72","structured_load,structured_incentive,random,structured_normal","3,4,2,1,2,3","2,1,4,3","true","","",""
"null","","html-keyboard-response","212","346427","0.0-212.0","3VA45EW49O9WOXUCWJATTY41VLJO1H","A5TWD5QD99GZY","3DZKABX2ZIR9F0FDMQGPG3LEN12CVN","","<img src=""img/set1/S3.jpg"" width=""540"" height = ""360"" style=""border:16px solid orange"">","null","","","","","","","","","",""
"null","","html-keyboard-response","213","346639","0.0-213.0","3VA45EW49O9WOXUCWJATTY41VLJO1H","A5TWD5QD99GZY","3DZKABX2ZIR9F0FDMQGPG3LEN12CVN","","","null","","","","","","","","","",""
"467.90000000037253","","image-keyboard-response","214","347107","0.0-214.0","3VA45EW49O9WOXUCWJATTY41VLJO1H","A5TWD5QD99GZY","3DZKABX2ZIR9F0FDMQGPG3LEN12CVN","","img/set1/S4.jpg","74","4","structured_load","74","structured_load,structured_incentive,random,structured_normal","3,4,2,1,2,3","2,1,4,3","true","","",""
"null","","html-keyboard-response","215","347461","0.0-215.0","3VA45EW49O9WOXUCWJATTY41VLJO1H","A5TWD5QD99GZY","3DZKABX2ZIR9F0FDMQGPG3LEN12CVN","","<img src=""img/set1/S4.jpg"" width=""540"" height = ""360"" style=""border:16px solid orange"">","null","","","","","","","","","",""
"null","","html-keyboard-response","216","347671","0.0-216.0","3VA45EW49O9WOXUCWJATTY41VLJO1H","A5TWD5QD99GZY","3DZKABX2ZIR9F0FDMQGPG3LEN12CVN","","","null","","","","","","","","","",""
"547.2999999988824","","image-keyboard-response","217","348219","0.0-217.0","3VA45EW49O9WOXUCWJATTY41VLJO1H","A5TWD5QD99GZY","3DZKABX2ZIR9F0FDMQGPG3LEN12CVN","","img/set1/S1.jpg","83","1","structured_load","83","structured_load,structured_incentive,random,structured_normal","3,4,2,1,2,3","2,1,4,3","true","","",""
"null","","html-keyboard-response","218","348584","0.0-218.0","3VA45EW49O9WOXUCWJATTY41VLJO1H","A5TWD5QD99GZY","3DZKABX2ZIR9F0FDMQGPG3LEN12CVN","","<img src=""img/set1/S1.jpg"" width=""540"" height = ""360"" style=""border:16px solid orange"">","null","","","","","","","","","",""
"null","","html-keyboard-response","219","348791","0.0-219.0","3VA45EW49O9WOXUCWJATTY41VLJO1H","A5TWD5QD99GZY","3DZKABX2ZIR9F0FDMQGPG3LEN12CVN","","","null","","","","","","","","","",""
"484.30000000074506","","image-keyboard-response","220","349276","0.0-220.0","3VA45EW49O9WOXUCWJATTY41VLJO1H","A5TWD5QD99GZY","3DZKABX2ZIR9F0FDMQGPG3LEN12CVN","","img/set1/S2.jpg","68","2","structured_load","68","structured_load,structured_incentive,random,structured_normal","3,4,2,1,2,3","2,1,4,3","true","","",""
"null","","html-keyboard-response","221","349634","0.0-221.0","3VA45EW49O9WOXUCWJATTY41VLJO1H","A5TWD5QD99GZY","3DZKABX2ZIR9F0FDMQGPG3LEN12CVN","","<img src=""img/set1/S2.jpg"" width=""540"" height = ""360"" style=""border:16px solid orange"">","null","","","","","","","","","",""
"null","","html-keyboard-response","222","349843","0.0-222.0","3VA45EW49O9WOXUCWJATTY41VLJO1H","A5TWD5QD99GZY","3DZKABX2ZIR9F0FDMQGPG3LEN12CVN","","","null","","","","","","","","","",""
"472","","image-keyboard-response","223","350316","0.0-223.0","3VA45EW49O9WOXUCWJATTY41VLJO1H","A5TWD5QD99GZY","3DZKABX2ZIR9F0FDMQGPG3LEN12CVN","","img/set1/S1.jpg","83","1","structured_load","83","structured_load,structured_incentive,random,structured_normal","3,4,2,1,2,3","2,1,4,3","true","","",""
"null","","html-keyboard-response","224","350682","0.0-224.0","3VA45EW49O9WOXUCWJATTY41VLJO1H","A5TWD5QD99GZY","3DZKABX2ZIR9F0FDMQGPG3LEN12CVN","","<img src=""img/set1/S1.jpg"" width=""540"" height = ""360"" style=""border:16px solid orange"">","null","","","","","","","","","",""
"null","","html-keyboard-response","225","350884","0.0-225.0","3VA45EW49O9WOXUCWJATTY41VLJO1H","A5TWD5QD99GZY","3DZKABX2ZIR9F0FDMQGPG3LEN12CVN","","","null","","","","","","","","","",""
"438","","image-keyboard-response","226","351323","0.0-226.0","3VA45EW49O9WOXUCWJATTY41VLJO1H","A5TWD5QD99GZY","3DZKABX2ZIR9F0FDMQGPG3LEN12CVN","","img/set1/S1.jpg","83","1","structured_load","83","structured_load,structured_incentive,random,structured_normal","3,4,2,1,2,3","2,1,4,3","true","","",""
"null","","html-keyboard-response","227","351684","0.0-227.0","3VA45EW49O9WOXUCWJATTY41VLJO1H","A5TWD5QD99GZY","3DZKABX2ZIR9F0FDMQGPG3LEN12CVN","","<img src=""img/set1/S1.jpg"" width=""540"" height = ""360"" style=""border:16px solid orange"">","null","","","","","","","","","",""
"null","","html-keyboard-response","228","351893","0.0-228.0","3VA45EW49O9WOXUCWJATTY41VLJO1H","A5TWD5QD99GZY","3DZKABX2ZIR9F0FDMQGPG3LEN12CVN","","","null","","","","","","","","","",""
"420.90000000037253","","image-keyboard-response","229","352315","0.0-229.0","3VA45EW49O9WOXUCWJATTY41VLJO1H","A5TWD5QD99GZY","3DZKABX2ZIR9F0FDMQGPG3LEN12CVN","","img/set1/S2.jpg","68","2","structured_load","68","structured_load,structured_incentive,random,structured_normal","3,4,2,1,2,3","2,1,4,3","true","","",""
"null","","html-keyboard-response","230","352666","0.0-230.0","3VA45EW49O9WOXUCWJATTY41VLJO1H","A5TWD5QD99GZY","3DZKABX2ZIR9F0FDMQGPG3LEN12CVN","","<img src=""img/set1/S2.jpg"" width=""540"" height = ""360"" style=""border:16px solid orange"">","null","","","","","","","","","",""
"null","","html-keyboard-response","231","352876","0.0-231.0","3VA45EW49O9WOXUCWJATTY41VLJO1H","A5TWD5QD99GZY","3DZKABX2ZIR9F0FDMQGPG3LEN12CVN","","","null","","","","","","","","","",""
"487","","image-keyboard-response","232","353363","0.0-232.0","3VA45EW49O9WOXUCWJATTY41VLJO1H","A5TWD5QD99GZY","3DZKABX2ZIR9F0FDMQGPG3LEN12CVN","","img/set1/S1.jpg","83","1","structured_load","83","structured_load,structured_incentive,random,structured_normal","3,4,2,1,2,3","2,1,4,3","true","","",""
"null","","html-keyboard-response","233","353719","0.0-233.0","3VA45EW49O9WOXUCWJATTY41VLJO1H","A5TWD5QD99GZY","3DZKABX2ZIR9F0FDMQGPG3LEN12CVN","","<img src=""img/set1/S1.jpg"" width=""540"" height = ""360"" style=""border:16px solid orange"">","null","","","","","","","","","",""
"null","","html-keyboard-response","234","353929","0.0-234.0","3VA45EW49O9WOXUCWJATTY41VLJO1H","A5TWD5QD99GZY","3DZKABX2ZIR9F0FDMQGPG3LEN12CVN","","","null","","","","","","","","","",""
"673.5","","image-keyboard-response","235","354603","0.0-235.0","3VA45EW49O9WOXUCWJATTY41VLJO1H","A5TWD5QD99GZY","3DZKABX2ZIR9F0FDMQGPG3LEN12CVN","","img/set1/S1.jpg","83","1","structured_load","83","structured_load,structured_incentive,random,structured_normal","3,4,2,1,2,3","2,1,4,3","true","","",""
"null","","html-keyboard-response","236","354968","0.0-236.0","3VA45EW49O9WOXUCWJATTY41VLJO1H","A5TWD5QD99GZY","3DZKABX2ZIR9F0FDMQGPG3LEN12CVN","","<img src=""img/set1/S1.jpg"" width=""540"" height = ""360"" style=""border:16px solid orange"">","null","","","","","","","","","",""
"null","","html-keyboard-response","237","355179","0.0-237.0","3VA45EW49O9WOXUCWJATTY41VLJO1H","A5TWD5QD99GZY","3DZKABX2ZIR9F0FDMQGPG3LEN12CVN","","","null","","","","","","","","","",""
"423.90000000037253","","image-keyboard-response","238","355603","0.0-238.0","3VA45EW49O9WOXUCWJATTY41VLJO1H","A5TWD5QD99GZY","3DZKABX2ZIR9F0FDMQGPG3LEN12CVN","","img/set1/S2.jpg","68","2","structured_load","68","structured_load,structured_incentive,random,structured_normal","3,4,2,1,2,3","2,1,4,3","true","","",""
"null","","html-keyboard-response","239","355968","0.0-239.0","3VA45EW49O9WOXUCWJATTY41VLJO1H","A5TWD5QD99GZY","3DZKABX2ZIR9F0FDMQGPG3LEN12CVN","","<img src=""img/set1/S2.jpg"" width=""540"" height = ""360"" style=""border:16px solid orange"">","null","","","","","","","","","",""
"null","","html-keyboard-response","240","356179","0.0-240.0","3VA45EW49O9WOXUCWJATTY41VLJO1H","A5TWD5QD99GZY","3DZKABX2ZIR9F0FDMQGPG3LEN12CVN","","","null","","","","","","","","","",""
"439.5","","image-keyboard-response","241","356619","0.0-241.0","3VA45EW49O9WOXUCWJATTY41VLJO1H","A5TWD5QD99GZY","3DZKABX2ZIR9F0FDMQGPG3LEN12CVN","","img/set1/S2.jpg","68","2","structured_load","68","structured_load,structured_incentive,random,structured_normal","3,4,2,1,2,3","2,1,4,3","true","","",""
"null","","html-keyboard-response","242","356988","0.0-242.0","3VA45EW49O9WOXUCWJATTY41VLJO1H","A5TWD5QD99GZY","3DZKABX2ZIR9F0FDMQGPG3LEN12CVN","","<img src=""img/set1/S2.jpg"" width=""540"" height = ""360"" style=""border:16px solid orange"">","null","","","","","","","","","",""
"null","","html-keyboard-response","243","357197","0.0-243.0","3VA45EW49O9WOXUCWJATTY41VLJO1H","A5TWD5QD99GZY","3DZKABX2ZIR9F0FDMQGPG3LEN12CVN","","","null","","","","","","","","","",""
"453.19999999925494","","image-keyboard-response","244","357651","0.0-244.0","3VA45EW49O9WOXUCWJATTY41VLJO1H","A5TWD5QD99GZY","3DZKABX2ZIR9F0FDMQGPG3LEN12CVN","","img/set1/S1.jpg","83","1","structured_load","83","structured_load,structured_incentive,random,structured_normal","3,4,2,1,2,3","2,1,4,3","true","","",""
"null","","html-keyboard-response","245","358007","0.0-245.0","3VA45EW49O9WOXUCWJATTY41VLJO1H","A5TWD5QD99GZY","3DZKABX2ZIR9F0FDMQGPG3LEN12CVN","","<img src=""img/set1/S1.jpg"" width=""540"" height = ""360"" style=""border:16px solid orange"">","null","","","","","","","","","",""
"null","","html-keyboard-response","246","358213","0.0-246.0","3VA45EW49O9WOXUCWJATTY41VLJO1H","A5TWD5QD99GZY","3DZKABX2ZIR9F0FDMQGPG3LEN12CVN","","","null","","","","","","","","","",""
"412.8999999985099","","image-keyboard-response","247","358626","0.0-247.0","3VA45EW49O9WOXUCWJATTY41VLJO1H","A5TWD5QD99GZY","3DZKABX2ZIR9F0FDMQGPG3LEN12CVN","","img/set1/S1.jpg","83","1","structured_load","83","structured_load,structured_incentive,random,structured_normal","3,4,2,1,2,3","2,1,4,3","true","","",""
"null","","html-keyboard-response","248","358987","0.0-248.0","3VA45EW49O9WOXUCWJATTY41VLJO1H","A5TWD5QD99GZY","3DZKABX2ZIR9F0FDMQGPG3LEN12CVN","","<img src=""img/set1/S1.jpg"" width=""540"" height = ""360"" style=""border:16px solid orange"">","null","","","","","","","","","",""
"null","","html-keyboard-response","249","359197","0.0-249.0","3VA45EW49O9WOXUCWJATTY41VLJO1H","A5TWD5QD99GZY","3DZKABX2ZIR9F0FDMQGPG3LEN12CVN","","","null","","","","","","","","","",""
"444.8999999985099","","image-keyboard-response","250","359642","0.0-250.0","3VA45EW49O9WOXUCWJATTY41VLJO1H","A5TWD5QD99GZY","3DZKABX2ZIR9F0FDMQGPG3LEN12CVN","","img/set1/S1.jpg","83","1","structured_load","83","structured_load,structured_incentive,random,structured_normal","3,4,2,1,2,3","2,1,4,3","true","","",""
"null","","html-keyboard-response","251","359999","0.0-251.0","3VA45EW49O9WOXUCWJATTY41VLJO1H","A5TWD5QD99GZY","3DZKABX2ZIR9F0FDMQGPG3LEN12CVN","","<img src=""img/set1/S1.jpg"" width=""540"" height = ""360"" style=""border:16px solid orange"">","null","","","","","","","","","",""
"null","","html-keyboard-response","252","360202","0.0-252.0","3VA45EW49O9WOXUCWJATTY41VLJO1H","A5TWD5QD99GZY","3DZKABX2ZIR9F0FDMQGPG3LEN12CVN","","","null","","","","","","","","","",""
"463.40000000037253","","image-keyboard-response","253","360666","0.0-253.0","3VA45EW49O9WOXUCWJATTY41VLJO1H","A5TWD5QD99GZY","3DZKABX2ZIR9F0FDMQGPG3LEN12CVN","","img/set1/S1.jpg","83","1","structured_load","83","structured_load,structured_incentive,random,structured_normal","3,4,2,1,2,3","2,1,4,3","true","","",""
"null","","html-keyboard-response","254","361029","0.0-254.0","3VA45EW49O9WOXUCWJATTY41VLJO1H","A5TWD5QD99GZY","3DZKABX2ZIR9F0FDMQGPG3LEN12CVN","","<img src=""img/set1/S1.jpg"" width=""540"" height = ""360"" style=""border:16px solid orange"">","null","","","","","","","","","",""
"null","","html-keyboard-response","255","361237","0.0-255.0","3VA45EW49O9WOXUCWJATTY41VLJO1H","A5TWD5QD99GZY","3DZKABX2ZIR9F0FDMQGPG3LEN12CVN","","","null","","","","","","","","","",""
"396.7999999988824","","image-keyboard-response","256","361634","0.0-256.0","3VA45EW49O9WOXUCWJATTY41VLJO1H","A5TWD5QD99GZY","3DZKABX2ZIR9F0FDMQGPG3LEN12CVN","","img/set1/S1.jpg","83","1","structured_load","83","structured_load,structured_incentive,random,structured_normal","3,4,2,1,2,3","2,1,4,3","true","","",""
"null","","html-keyboard-response","257","361994","0.0-257.0","3VA45EW49O9WOXUCWJATTY41VLJO1H","A5TWD5QD99GZY","3DZKABX2ZIR9F0FDMQGPG3LEN12CVN","","<img src=""img/set1/S1.jpg"" width=""540"" height = ""360"" style=""border:16px solid orange"">","null","","","","","","","","","",""
"null","","html-keyboard-response","258","362201","0.0-258.0","3VA45EW49O9WOXUCWJATTY41VLJO1H","A5TWD5QD99GZY","3DZKABX2ZIR9F0FDMQGPG3LEN12CVN","","","null","","","","","","","","","",""
"424.69999999925494","","image-keyboard-response","259","362626","0.0-259.0","3VA45EW49O9WOXUCWJATTY41VLJO1H","A5TWD5QD99GZY","3DZKABX2ZIR9F0FDMQGPG3LEN12CVN","","img/set1/S1.jpg","83","1","structured_load","83","structured_load,structured_incentive,random,structured_normal","3,4,2,1,2,3","2,1,4,3","true","","",""
"null","","html-keyboard-response","260","362989","0.0-260.0","3VA45EW49O9WOXUCWJATTY41VLJO1H","A5TWD5QD99GZY","3DZKABX2ZIR9F0FDMQGPG3LEN12CVN","","<img src=""img/set1/S1.jpg"" width=""540"" height = ""360"" style=""border:16px solid orange"">","null","","","","","","","","","",""
"null","","html-keyboard-response","261","363204","0.0-261.0","3VA45EW49O9WOXUCWJATTY41VLJO1H","A5TWD5QD99GZY","3DZKABX2ZIR9F0FDMQGPG3LEN12CVN","","","null","","","","","","","","","",""
"501.90000000037253","","image-keyboard-response","262","363707","0.0-262.0","3VA45EW49O9WOXUCWJATTY41VLJO1H","A5TWD5QD99GZY","3DZKABX2ZIR9F0FDMQGPG3LEN12CVN","","img/set1/S3.jpg","72","3","structured_load","72","structured_load,structured_incentive,random,structured_normal","3,4,2,1,2,3","2,1,4,3","true","","",""
"null","","html-keyboard-response","263","364061","0.0-263.0","3VA45EW49O9WOXUCWJATTY41VLJO1H","A5TWD5QD99GZY","3DZKABX2ZIR9F0FDMQGPG3LEN12CVN","","<img src=""img/set1/S3.jpg"" width=""540"" height = ""360"" style=""border:16px solid orange"">","null","","","","","","","","","",""
"null","","html-keyboard-response","264","364263","0.0-264.0","3VA45EW49O9WOXUCWJATTY41VLJO1H","A5TWD5QD99GZY","3DZKABX2ZIR9F0FDMQGPG3LEN12CVN","","","null","","","","","","","","","",""
"450.40000000037253","","image-keyboard-response","265","364714","0.0-265.0","3VA45EW49O9WOXUCWJATTY41VLJO1H","A5TWD5QD99GZY","3DZKABX2ZIR9F0FDMQGPG3LEN12CVN","","img/set1/S4.jpg","74","4","structured_load","74","structured_load,structured_incentive,random,structured_normal","3,4,2,1,2,3","2,1,4,3","true","","",""
"null","","html-keyboard-response","266","365078","0.0-266.0","3VA45EW49O9WOXUCWJATTY41VLJO1H","A5TWD5QD99GZY","3DZKABX2ZIR9F0FDMQGPG3LEN12CVN","","<img src=""img/set1/S4.jpg"" width=""540"" height = ""360"" style=""border:16px solid orange"">","null","","","","","","","","","",""
"null","","html-keyboard-response","267","365290","0.0-267.0","3VA45EW49O9WOXUCWJATTY41VLJO1H","A5TWD5QD99GZY","3DZKABX2ZIR9F0FDMQGPG3LEN12CVN","","","null","","","","","","","","","",""
"584.4000000003725","","image-keyboard-response","268","365875","0.0-268.0","3VA45EW49O9WOXUCWJATTY41VLJO1H","A5TWD5QD99GZY","3DZKABX2ZIR9F0FDMQGPG3LEN12CVN","","img/set1/S3.jpg","72","3","structured_load","72","structured_load,structured_incentive,random,structured_normal","3,4,2,1,2,3","2,1,4,3","true","","",""
"null","","html-keyboard-response","269","366233","0.0-269.0","3VA45EW49O9WOXUCWJATTY41VLJO1H","A5TWD5QD99GZY","3DZKABX2ZIR9F0FDMQGPG3LEN12CVN","","<img src=""img/set1/S3.jpg"" width=""540"" height = ""360"" style=""border:16px solid orange"">","null","","","","","","","","","",""
"null","","html-keyboard-response","270","366434","0.0-270.0","3VA45EW49O9WOXUCWJATTY41VLJO1H","A5TWD5QD99GZY","3DZKABX2ZIR9F0FDMQGPG3LEN12CVN","","","null","","","","","","","","","",""
"464","","image-keyboard-response","271","366899","0.0-271.0","3VA45EW49O9WOXUCWJATTY41VLJO1H","A5TWD5QD99GZY","3DZKABX2ZIR9F0FDMQGPG3LEN12CVN","","img/set1/S4.jpg","74","4","structured_load","74","structured_load,structured_incentive,random,structured_normal","3,4,2,1,2,3","2,1,4,3","true","","",""
"null","","html-keyboard-response","272","367253","0.0-272.0","3VA45EW49O9WOXUCWJATTY41VLJO1H","A5TWD5QD99GZY","3DZKABX2ZIR9F0FDMQGPG3LEN12CVN","","<img src=""img/set1/S4.jpg"" width=""540"" height = ""360"" style=""border:16px solid orange"">","null","","","","","","","","","",""
"null","","html-keyboard-response","273","367458","0.0-273.0","3VA45EW49O9WOXUCWJATTY41VLJO1H","A5TWD5QD99GZY","3DZKABX2ZIR9F0FDMQGPG3LEN12CVN","","","null","","","","","","","","","",""
"526.9000000003725","","image-keyboard-response","274","367986","0.0-274.0","3VA45EW49O9WOXUCWJATTY41VLJO1H","A5TWD5QD99GZY","3DZKABX2ZIR9F0FDMQGPG3LEN12CVN","","img/set1/S1.jpg","83","1","structured_load","83","structured_load,structured_incentive,random,structured_normal","3,4,2,1,2,3","2,1,4,3","true","","",""
"null","","html-keyboard-response","275","368345","0.0-275.0","3VA45EW49O9WOXUCWJATTY41VLJO1H","A5TWD5QD99GZY","3DZKABX2ZIR9F0FDMQGPG3LEN12CVN","","<img src=""img/set1/S1.jpg"" width=""540"" height = ""360"" style=""border:16px solid orange"">","null","","","","","","","","","",""
"null","","html-keyboard-response","276","368554","0.0-276.0","3VA45EW49O9WOXUCWJATTY41VLJO1H","A5TWD5QD99GZY","3DZKABX2ZIR9F0FDMQGPG3LEN12CVN","","","null","","","","","","","","","",""
"407.5","","image-keyboard-response","277","368962","0.0-277.0","3VA45EW49O9WOXUCWJATTY41VLJO1H","A5TWD5QD99GZY","3DZKABX2ZIR9F0FDMQGPG3LEN12CVN","","img/set1/S1.jpg","83","1","structured_load","83","structured_load,structured_incentive,random,structured_normal","3,4,2,1,2,3","2,1,4,3","true","","",""
"null","","html-keyboard-response","278","369316","0.0-278.0","3VA45EW49O9WOXUCWJATTY41VLJO1H","A5TWD5QD99GZY","3DZKABX2ZIR9F0FDMQGPG3LEN12CVN","","<img src=""img/set1/S1.jpg"" width=""540"" height = ""360"" style=""border:16px solid orange"">","null","","","","","","","","","",""
"null","","html-keyboard-response","279","369526","0.0-279.0","3VA45EW49O9WOXUCWJATTY41VLJO1H","A5TWD5QD99GZY","3DZKABX2ZIR9F0FDMQGPG3LEN12CVN","","","null","","","","","","","","","",""
"459.19999999925494","","image-keyboard-response","280","369986","0.0-280.0","3VA45EW49O9WOXUCWJATTY41VLJO1H","A5TWD5QD99GZY","3DZKABX2ZIR9F0FDMQGPG3LEN12CVN","","img/set1/S2.jpg","68","2","structured_load","68","structured_load,structured_incentive,random,structured_normal","3,4,2,1,2,3","2,1,4,3","true","","",""
"null","","html-keyboard-response","281","370347","0.0-281.0","3VA45EW49O9WOXUCWJATTY41VLJO1H","A5TWD5QD99GZY","3DZKABX2ZIR9F0FDMQGPG3LEN12CVN","","<img src=""img/set1/S2.jpg"" width=""540"" height = ""360"" style=""border:16px solid orange"">","null","","","","","","","","","",""
"null","","html-keyboard-response","282","370560","0.0-282.0","3VA45EW49O9WOXUCWJATTY41VLJO1H","A5TWD5QD99GZY","3DZKABX2ZIR9F0FDMQGPG3LEN12CVN","","","null","","","","","","","","","",""
"593.9000000003725","","image-keyboard-response","283","371155","0.0-283.0","3VA45EW49O9WOXUCWJATTY41VLJO1H","A5TWD5QD99GZY","3DZKABX2ZIR9F0FDMQGPG3LEN12CVN","","img/set1/S2.jpg","68","2","structured_load","68","structured_load,structured_incentive,random,structured_normal","3,4,2,1,2,3","2,1,4,3","true","","",""
"null","","html-keyboard-response","284","371519","0.0-284.0","3VA45EW49O9WOXUCWJATTY41VLJO1H","A5TWD5QD99GZY","3DZKABX2ZIR9F0FDMQGPG3LEN12CVN","","<img src=""img/set1/S2.jpg"" width=""540"" height = ""360"" style=""border:16px solid orange"">","null","","","","","","","","","",""
"null","","html-keyboard-response","285","371729","0.0-285.0","3VA45EW49O9WOXUCWJATTY41VLJO1H","A5TWD5QD99GZY","3DZKABX2ZIR9F0FDMQGPG3LEN12CVN","","","null","","","","","","","","","",""
"464.19999999925494","","image-keyboard-response","286","372194","0.0-286.0","3VA45EW49O9WOXUCWJATTY41VLJO1H","A5TWD5QD99GZY","3DZKABX2ZIR9F0FDMQGPG3LEN12CVN","","img/set1/S3.jpg","72","3","structured_load","72","structured_load,structured_incentive,random,structured_normal","3,4,2,1,2,3","2,1,4,3","true","","",""
"null","","html-keyboard-response","287","372554","0.0-287.0","3VA45EW49O9WOXUCWJATTY41VLJO1H","A5TWD5QD99GZY","3DZKABX2ZIR9F0FDMQGPG3LEN12CVN","","<img src=""img/set1/S3.jpg"" width=""540"" height = ""360"" style=""border:16px solid orange"">","null","","","","","","","","","",""
"null","","html-keyboard-response","288","372762","0.0-288.0","3VA45EW49O9WOXUCWJATTY41VLJO1H","A5TWD5QD99GZY","3DZKABX2ZIR9F0FDMQGPG3LEN12CVN","","","null","","","","","","","","","",""
"430.59999999962747","","image-keyboard-response","289","373194","0.0-289.0","3VA45EW49O9WOXUCWJATTY41VLJO1H","A5TWD5QD99GZY","3DZKABX2ZIR9F0FDMQGPG3LEN12CVN","","img/set1/S4.jpg","74","4","structured_load","74","structured_load,structured_incentive,random,structured_normal","3,4,2,1,2,3","2,1,4,3","true","","",""
"null","","html-keyboard-response","290","373553","0.0-290.0","3VA45EW49O9WOXUCWJATTY41VLJO1H","A5TWD5QD99GZY","3DZKABX2ZIR9F0FDMQGPG3LEN12CVN","","<img src=""img/set1/S4.jpg"" width=""540"" height = ""360"" style=""border:16px solid orange"">","null","","","","","","","","","",""
"null","","html-keyboard-response","291","373764","0.0-291.0","3VA45EW49O9WOXUCWJATTY41VLJO1H","A5TWD5QD99GZY","3DZKABX2ZIR9F0FDMQGPG3LEN12CVN","","","null","","","","","","","","","",""
"461.5","","image-keyboard-response","292","374226","0.0-292.0","3VA45EW49O9WOXUCWJATTY41VLJO1H","A5TWD5QD99GZY","3DZKABX2ZIR9F0FDMQGPG3LEN12CVN","","img/set1/S1.jpg","83","1","structured_load","83","structured_load,structured_incentive,random,structured_normal","3,4,2,1,2,3","2,1,4,3","true","","",""
"null","","html-keyboard-response","293","374588","0.0-293.0","3VA45EW49O9WOXUCWJATTY41VLJO1H","A5TWD5QD99GZY","3DZKABX2ZIR9F0FDMQGPG3LEN12CVN","","<img src=""img/set1/S1.jpg"" width=""540"" height = ""360"" style=""border:16px solid orange"">","null","","","","","","","","","",""
"null","","html-keyboard-response","294","374798","0.0-294.0","3VA45EW49O9WOXUCWJATTY41VLJO1H","A5TWD5QD99GZY","3DZKABX2ZIR9F0FDMQGPG3LEN12CVN","","","null","","","","","","","","","",""
"515","","image-keyboard-response","295","375314","0.0-295.0","3VA45EW49O9WOXUCWJATTY41VLJO1H","A5TWD5QD99GZY","3DZKABX2ZIR9F0FDMQGPG3LEN12CVN","","img/set1/S3.jpg","72","3","structured_load","72","structured_load,structured_incentive,random,structured_normal","3,4,2,1,2,3","2,1,4,3","true","","",""
"null","","html-keyboard-response","296","375672","0.0-296.0","3VA45EW49O9WOXUCWJATTY41VLJO1H","A5TWD5QD99GZY","3DZKABX2ZIR9F0FDMQGPG3LEN12CVN","","<img src=""img/set1/S3.jpg"" width=""540"" height = ""360"" style=""border:16px solid orange"">","null","","","","","","","","","",""
"null","","html-keyboard-response","297","375882","0.0-297.0","3VA45EW49O9WOXUCWJATTY41VLJO1H","A5TWD5QD99GZY","3DZKABX2ZIR9F0FDMQGPG3LEN12CVN","","","null","","","","","","","","","",""
"527.8000000007451","","image-keyboard-response","298","376410","0.0-298.0","3VA45EW49O9WOXUCWJATTY41VLJO1H","A5TWD5QD99GZY","3DZKABX2ZIR9F0FDMQGPG3LEN12CVN","","img/set1/S4.jpg","74","4","structured_load","74","structured_load,structured_incentive,random,structured_normal","3,4,2,1,2,3","2,1,4,3","true","","",""
"null","","html-keyboard-response","299","376769","0.0-299.0","3VA45EW49O9WOXUCWJATTY41VLJO1H","A5TWD5QD99GZY","3DZKABX2ZIR9F0FDMQGPG3LEN12CVN","","<img src=""img/set1/S4.jpg"" width=""540"" height = ""360"" style=""border:16px solid orange"">","null","","","","","","","","","",""
"null","","html-keyboard-response","300","376988","0.0-300.0","3VA45EW49O9WOXUCWJATTY41VLJO1H","A5TWD5QD99GZY","3DZKABX2ZIR9F0FDMQGPG3LEN12CVN","","","null","","","","","","","","","",""
"557.5","","image-keyboard-response","301","377546","0.0-301.0","3VA45EW49O9WOXUCWJATTY41VLJO1H","A5TWD5QD99GZY","3DZKABX2ZIR9F0FDMQGPG3LEN12CVN","","img/set1/S1.jpg","83","1","structured_load","83","structured_load,structured_incentive,random,structured_normal","3,4,2,1,2,3","2,1,4,3","true","","",""
"null","","html-keyboard-response","302","377907","0.0-302.0","3VA45EW49O9WOXUCWJATTY41VLJO1H","A5TWD5QD99GZY","3DZKABX2ZIR9F0FDMQGPG3LEN12CVN","","<img src=""img/set1/S1.jpg"" width=""540"" height = ""360"" style=""border:16px solid orange"">","null","","","","","","","","","",""
"null","","html-keyboard-response","303","378118","0.0-303.0","3VA45EW49O9WOXUCWJATTY41VLJO1H","A5TWD5QD99GZY","3DZKABX2ZIR9F0FDMQGPG3LEN12CVN","","","null","","","","","","","","","",""
"443.30000000074506","","image-keyboard-response","304","378562","0.0-304.0","3VA45EW49O9WOXUCWJATTY41VLJO1H","A5TWD5QD99GZY","3DZKABX2ZIR9F0FDMQGPG3LEN12CVN","","img/set1/S2.jpg","68","2","structured_load","68","structured_load,structured_incentive,random,structured_normal","3,4,2,1,2,3","2,1,4,3","true","","",""
"null","","html-keyboard-response","305","378926","0.0-305.0","3VA45EW49O9WOXUCWJATTY41VLJO1H","A5TWD5QD99GZY","3DZKABX2ZIR9F0FDMQGPG3LEN12CVN","","<img src=""img/set1/S2.jpg"" width=""540"" height = ""360"" style=""border:16px solid orange"">","null","","","","","","","","","",""
"null","","html-keyboard-response","306","379135","0.0-306.0","3VA45EW49O9WOXUCWJATTY41VLJO1H","A5TWD5QD99GZY","3DZKABX2ZIR9F0FDMQGPG3LEN12CVN","","","null","","","","","","","","","",""
"426.59999999962747","","image-keyboard-response","307","379562","0.0-307.0","3VA45EW49O9WOXUCWJATTY41VLJO1H","A5TWD5QD99GZY","3DZKABX2ZIR9F0FDMQGPG3LEN12CVN","","img/set1/S2.jpg","68","2","structured_load","68","structured_load,structured_incentive,random,structured_normal","3,4,2,1,2,3","2,1,4,3","true","","",""
"null","","html-keyboard-response","308","379914","0.0-308.0","3VA45EW49O9WOXUCWJATTY41VLJO1H","A5TWD5QD99GZY","3DZKABX2ZIR9F0FDMQGPG3LEN12CVN","","<img src=""img/set1/S2.jpg"" width=""540"" height = ""360"" style=""border:16px solid orange"">","null","","","","","","","","","",""
"null","","html-keyboard-response","309","380120","0.0-309.0","3VA45EW49O9WOXUCWJATTY41VLJO1H","A5TWD5QD99GZY","3DZKABX2ZIR9F0FDMQGPG3LEN12CVN","","","null","","","","","","","","","",""
"472.6000000014901","","image-keyboard-response","310","380593","0.0-310.0","3VA45EW49O9WOXUCWJATTY41VLJO1H","A5TWD5QD99GZY","3DZKABX2ZIR9F0FDMQGPG3LEN12CVN","","img/set1/S2.jpg","68","2","structured_load","68","structured_load,structured_incentive,random,structured_normal","3,4,2,1,2,3","2,1,4,3","true","","",""
"null","","html-keyboard-response","311","380946","0.0-311.0","3VA45EW49O9WOXUCWJATTY41VLJO1H","A5TWD5QD99GZY","3DZKABX2ZIR9F0FDMQGPG3LEN12CVN","","<img src=""img/set1/S2.jpg"" width=""540"" height = ""360"" style=""border:16px solid orange"">","null","","","","","","","","","",""
"null","","html-keyboard-response","312","381154","0.0-312.0","3VA45EW49O9WOXUCWJATTY41VLJO1H","A5TWD5QD99GZY","3DZKABX2ZIR9F0FDMQGPG3LEN12CVN","","","null","","","","","","","","","",""
"518.2999999988824","","image-keyboard-response","313","381673","0.0-313.0","3VA45EW49O9WOXUCWJATTY41VLJO1H","A5TWD5QD99GZY","3DZKABX2ZIR9F0FDMQGPG3LEN12CVN","","img/set1/S2.jpg","68","2","structured_load","68","structured_load,structured_incentive,random,structured_normal","3,4,2,1,2,3","2,1,4,3","true","","",""
"null","","html-keyboard-response","314","382029","0.0-314.0","3VA45EW49O9WOXUCWJATTY41VLJO1H","A5TWD5QD99GZY","3DZKABX2ZIR9F0FDMQGPG3LEN12CVN","","<img src=""img/set1/S2.jpg"" width=""540"" height = ""360"" style=""border:16px solid orange"">","null","","","","","","","","","",""
"null","","html-keyboard-response","315","382248","0.0-315.0","3VA45EW49O9WOXUCWJATTY41VLJO1H","A5TWD5QD99GZY","3DZKABX2ZIR9F0FDMQGPG3LEN12CVN","","","null","","","","","","","","","",""
"544.2999999988824","","image-keyboard-response","316","382793","0.0-316.0","3VA45EW49O9WOXUCWJATTY41VLJO1H","A5TWD5QD99GZY","3DZKABX2ZIR9F0FDMQGPG3LEN12CVN","","img/set1/S3.jpg","72","3","structured_load","72","structured_load,structured_incentive,random,structured_normal","3,4,2,1,2,3","2,1,4,3","true","","",""
"null","","html-keyboard-response","317","383148","0.0-317.0","3VA45EW49O9WOXUCWJATTY41VLJO1H","A5TWD5QD99GZY","3DZKABX2ZIR9F0FDMQGPG3LEN12CVN","","<img src=""img/set1/S3.jpg"" width=""540"" height = ""360"" style=""border:16px solid orange"">","null","","","","","","","","","",""
"null","","html-keyboard-response","318","383356","0.0-318.0","3VA45EW49O9WOXUCWJATTY41VLJO1H","A5TWD5QD99GZY","3DZKABX2ZIR9F0FDMQGPG3LEN12CVN","","","null","","","","","","","","","",""
"460.5","","image-keyboard-response","319","383817","0.0-319.0","3VA45EW49O9WOXUCWJATTY41VLJO1H","A5TWD5QD99GZY","3DZKABX2ZIR9F0FDMQGPG3LEN12CVN","","img/set1/S4.jpg","74","4","structured_load","74","structured_load,structured_incentive,random,structured_normal","3,4,2,1,2,3","2,1,4,3","true","","",""
"null","","html-keyboard-response","320","384170","0.0-320.0","3VA45EW49O9WOXUCWJATTY41VLJO1H","A5TWD5QD99GZY","3DZKABX2ZIR9F0FDMQGPG3LEN12CVN","","<img src=""img/set1/S4.jpg"" width=""540"" height = ""360"" style=""border:16px solid orange"">","null","","","","","","","","","",""
"null","","html-keyboard-response","321","384378","0.0-321.0","3VA45EW49O9WOXUCWJATTY41VLJO1H","A5TWD5QD99GZY","3DZKABX2ZIR9F0FDMQGPG3LEN12CVN","","","null","","","","","","","","","",""
"447.2000000011176","","image-keyboard-response","322","384826","0.0-322.0","3VA45EW49O9WOXUCWJATTY41VLJO1H","A5TWD5QD99GZY","3DZKABX2ZIR9F0FDMQGPG3LEN12CVN","","img/set1/S2.jpg","68","2","structured_load","68","structured_load,structured_incentive,random,structured_normal","3,4,2,1,2,3","2,1,4,3","true","","",""
"null","","html-keyboard-response","323","385190","0.0-323.0","3VA45EW49O9WOXUCWJATTY41VLJO1H","A5TWD5QD99GZY","3DZKABX2ZIR9F0FDMQGPG3LEN12CVN","","<img src=""img/set1/S2.jpg"" width=""540"" height = ""360"" style=""border:16px solid orange"">","null","","","","","","","","","",""
"null","","html-keyboard-response","324","385392","0.0-324.0","3VA45EW49O9WOXUCWJATTY41VLJO1H","A5TWD5QD99GZY","3DZKABX2ZIR9F0FDMQGPG3LEN12CVN","","","null","","","","","","","","","",""
"488.5","","image-keyboard-response","325","385881","0.0-325.0","3VA45EW49O9WOXUCWJATTY41VLJO1H","A5TWD5QD99GZY","3DZKABX2ZIR9F0FDMQGPG3LEN12CVN","","img/set1/S3.jpg","72","3","structured_load","72","structured_load,structured_incentive,random,structured_normal","3,4,2,1,2,3","2,1,4,3","true","","",""
"null","","html-keyboard-response","326","386235","0.0-326.0","3VA45EW49O9WOXUCWJATTY41VLJO1H","A5TWD5QD99GZY","3DZKABX2ZIR9F0FDMQGPG3LEN12CVN","","<img src=""img/set1/S3.jpg"" width=""540"" height = ""360"" style=""border:16px solid orange"">","null","","","","","","","","","",""
"null","","html-keyboard-response","327","386442","0.0-327.0","3VA45EW49O9WOXUCWJATTY41VLJO1H","A5TWD5QD99GZY","3DZKABX2ZIR9F0FDMQGPG3LEN12CVN","","","null","","","","","","","","","",""
"502.40000000037253","","image-keyboard-response","328","386945","0.0-328.0","3VA45EW49O9WOXUCWJATTY41VLJO1H","A5TWD5QD99GZY","3DZKABX2ZIR9F0FDMQGPG3LEN12CVN","","img/set1/S4.jpg","74","4","structured_load","74","structured_load,structured_incentive,random,structured_normal","3,4,2,1,2,3","2,1,4,3","true","","",""
"null","","html-keyboard-response","329","387300","0.0-329.0","3VA45EW49O9WOXUCWJATTY41VLJO1H","A5TWD5QD99GZY","3DZKABX2ZIR9F0FDMQGPG3LEN12CVN","","<img src=""img/set1/S4.jpg"" width=""540"" height = ""360"" style=""border:16px solid orange"">","null","","","","","","","","","",""
"null","","html-keyboard-response","330","387510","0.0-330.0","3VA45EW49O9WOXUCWJATTY41VLJO1H","A5TWD5QD99GZY","3DZKABX2ZIR9F0FDMQGPG3LEN12CVN","","","null","","","","","","","","","",""
"465.90000000037253","","image-keyboard-response","331","387977","0.0-331.0","3VA45EW49O9WOXUCWJATTY41VLJO1H","A5TWD5QD99GZY","3DZKABX2ZIR9F0FDMQGPG3LEN12CVN","","img/set1/S3.jpg","72","3","structured_load","72","structured_load,structured_incentive,random,structured_normal","3,4,2,1,2,3","2,1,4,3","true","","",""
"null","","html-keyboard-response","332","388330","0.0-332.0","3VA45EW49O9WOXUCWJATTY41VLJO1H","A5TWD5QD99GZY","3DZKABX2ZIR9F0FDMQGPG3LEN12CVN","","<img src=""img/set1/S3.jpg"" width=""540"" height = ""360"" style=""border:16px solid orange"">","null","","","","","","","","","",""
"null","","html-keyboard-response","333","388535","0.0-333.0","3VA45EW49O9WOXUCWJATTY41VLJO1H","A5TWD5QD99GZY","3DZKABX2ZIR9F0FDMQGPG3LEN12CVN","","","null","","","","","","","","","",""
"457.90000000037253","","image-keyboard-response","334","388993","0.0-334.0","3VA45EW49O9WOXUCWJATTY41VLJO1H","A5TWD5QD99GZY","3DZKABX2ZIR9F0FDMQGPG3LEN12CVN","","img/set1/S4.jpg","74","4","structured_load","74","structured_load,structured_incentive,random,structured_normal","3,4,2,1,2,3","2,1,4,3","true","","",""
"null","","html-keyboard-response","335","389353","0.0-335.0","3VA45EW49O9WOXUCWJATTY41VLJO1H","A5TWD5QD99GZY","3DZKABX2ZIR9F0FDMQGPG3LEN12CVN","","<img src=""img/set1/S4.jpg"" width=""540"" height = ""360"" style=""border:16px solid orange"">","null","","","","","","","","","",""
"null","","html-keyboard-response","336","389562","0.0-336.0","3VA45EW49O9WOXUCWJATTY41VLJO1H","A5TWD5QD99GZY","3DZKABX2ZIR9F0FDMQGPG3LEN12CVN","","","null","","","","","","","","","",""
"582.2000000011176","","image-keyboard-response","337","390145","0.0-337.0","3VA45EW49O9WOXUCWJATTY41VLJO1H","A5TWD5QD99GZY","3DZKABX2ZIR9F0FDMQGPG3LEN12CVN","","img/set1/S3.jpg","72","3","structured_load","72","structured_load,structured_incentive,random,structured_normal","3,4,2,1,2,3","2,1,4,3","true","","",""
"null","","html-keyboard-response","338","390506","0.0-338.0","3VA45EW49O9WOXUCWJATTY41VLJO1H","A5TWD5QD99GZY","3DZKABX2ZIR9F0FDMQGPG3LEN12CVN","","<img src=""img/set1/S3.jpg"" width=""540"" height = ""360"" style=""border:16px solid orange"">","null","","","","","","","","","",""
"null","","html-keyboard-response","339","390716","0.0-339.0","3VA45EW49O9WOXUCWJATTY41VLJO1H","A5TWD5QD99GZY","3DZKABX2ZIR9F0FDMQGPG3LEN12CVN","","","null","","","","","","","","","",""
"540.8000000007451","","image-keyboard-response","340","391257","0.0-340.0","3VA45EW49O9WOXUCWJATTY41VLJO1H","A5TWD5QD99GZY","3DZKABX2ZIR9F0FDMQGPG3LEN12CVN","","img/set1/S4.jpg","74","4","structured_load","74","structured_load,structured_incentive,random,structured_normal","3,4,2,1,2,3","2,1,4,3","true","","",""
"null","","html-keyboard-response","341","391623","0.0-341.0","3VA45EW49O9WOXUCWJATTY41VLJO1H","A5TWD5QD99GZY","3DZKABX2ZIR9F0FDMQGPG3LEN12CVN","","<img src=""img/set1/S4.jpg"" width=""540"" height = ""360"" style=""border:16px solid orange"">","null","","","","","","","","","",""
"null","","html-keyboard-response","342","391831","0.0-342.0","3VA45EW49O9WOXUCWJATTY41VLJO1H","A5TWD5QD99GZY","3DZKABX2ZIR9F0FDMQGPG3LEN12CVN","","","null","","","","","","","","","",""
"481.09999999962747","","image-keyboard-response","343","392313","0.0-343.0","3VA45EW49O9WOXUCWJATTY41VLJO1H","A5TWD5QD99GZY","3DZKABX2ZIR9F0FDMQGPG3LEN12CVN","","img/set1/S3.jpg","72","3","structured_load","72","structured_load,structured_incentive,random,structured_normal","3,4,2,1,2,3","2,1,4,3","true","","",""
"null","","html-keyboard-response","344","392672","0.0-344.0","3VA45EW49O9WOXUCWJATTY41VLJO1H","A5TWD5QD99GZY","3DZKABX2ZIR9F0FDMQGPG3LEN12CVN","","<img src=""img/set1/S3.jpg"" width=""540"" height = ""360"" style=""border:16px solid orange"">","null","","","","","","","","","",""
"null","","html-keyboard-response","345","392883","0.0-345.0","3VA45EW49O9WOXUCWJATTY41VLJO1H","A5TWD5QD99GZY","3DZKABX2ZIR9F0FDMQGPG3LEN12CVN","","","null","","","","","","","","","",""
"469.3999999985099","","image-keyboard-response","346","393353","0.0-346.0","3VA45EW49O9WOXUCWJATTY41VLJO1H","A5TWD5QD99GZY","3DZKABX2ZIR9F0FDMQGPG3LEN12CVN","","img/set1/S4.jpg","74","4","structured_load","74","structured_load,structured_incentive,random,structured_normal","3,4,2,1,2,3","2,1,4,3","true","","",""
"null","","html-keyboard-response","347","393707","0.0-347.0","3VA45EW49O9WOXUCWJATTY41VLJO1H","A5TWD5QD99GZY","3DZKABX2ZIR9F0FDMQGPG3LEN12CVN","","<img src=""img/set1/S4.jpg"" width=""540"" height = ""360"" style=""border:16px solid orange"">","null","","","","","","","","","",""
"null","","html-keyboard-response","348","393916","0.0-348.0","3VA45EW49O9WOXUCWJATTY41VLJO1H","A5TWD5QD99GZY","3DZKABX2ZIR9F0FDMQGPG3LEN12CVN","","","null","","","","","","","","","",""
"500.2999999988824","","image-keyboard-response","349","394417","0.0-349.0","3VA45EW49O9WOXUCWJATTY41VLJO1H","A5TWD5QD99GZY","3DZKABX2ZIR9F0FDMQGPG3LEN12CVN","","img/set1/S2.jpg","68","2","structured_load","68","structured_load,structured_incentive,random,structured_normal","3,4,2,1,2,3","2,1,4,3","true","","",""
"null","","html-keyboard-response","350","394778","0.0-350.0","3VA45EW49O9WOXUCWJATTY41VLJO1H","A5TWD5QD99GZY","3DZKABX2ZIR9F0FDMQGPG3LEN12CVN","","<img src=""img/set1/S2.jpg"" width=""540"" height = ""360"" style=""border:16px solid orange"">","null","","","","","","","","","",""
"null","","html-keyboard-response","351","394988","0.0-351.0","3VA45EW49O9WOXUCWJATTY41VLJO1H","A5TWD5QD99GZY","3DZKABX2ZIR9F0FDMQGPG3LEN12CVN","","","null","","","","","","","","","",""
"532.5","","image-keyboard-response","352","395521","0.0-352.0","3VA45EW49O9WOXUCWJATTY41VLJO1H","A5TWD5QD99GZY","3DZKABX2ZIR9F0FDMQGPG3LEN12CVN","","img/set1/S3.jpg","72","3","structured_load","72","structured_load,structured_incentive,random,structured_normal","3,4,2,1,2,3","2,1,4,3","true","","",""
"null","","html-keyboard-response","353","395876","0.0-353.0","3VA45EW49O9WOXUCWJATTY41VLJO1H","A5TWD5QD99GZY","3DZKABX2ZIR9F0FDMQGPG3LEN12CVN","","<img src=""img/set1/S3.jpg"" width=""540"" height = ""360"" style=""border:16px solid orange"">","null","","","","","","","","","",""
"null","","html-keyboard-response","354","396085","0.0-354.0","3VA45EW49O9WOXUCWJATTY41VLJO1H","A5TWD5QD99GZY","3DZKABX2ZIR9F0FDMQGPG3LEN12CVN","","","null","","","","","","","","","",""
"442.59999999962747","","image-keyboard-response","355","396529","0.0-355.0","3VA45EW49O9WOXUCWJATTY41VLJO1H","A5TWD5QD99GZY","3DZKABX2ZIR9F0FDMQGPG3LEN12CVN","","img/set1/S4.jpg","74","4","structured_load","74","structured_load,structured_incentive,random,structured_normal","3,4,2,1,2,3","2,1,4,3","true","","",""
"null","","html-keyboard-response","356","396894","0.0-356.0","3VA45EW49O9WOXUCWJATTY41VLJO1H","A5TWD5QD99GZY","3DZKABX2ZIR9F0FDMQGPG3LEN12CVN","","<img src=""img/set1/S4.jpg"" width=""540"" height = ""360"" style=""border:16px solid orange"">","null","","","","","","","","","",""
"null","","html-keyboard-response","357","397103","0.0-357.0","3VA45EW49O9WOXUCWJATTY41VLJO1H","A5TWD5QD99GZY","3DZKABX2ZIR9F0FDMQGPG3LEN12CVN","","","null","","","","","","","","","",""
"457.40000000037253","","image-keyboard-response","358","397561","0.0-358.0","3VA45EW49O9WOXUCWJATTY41VLJO1H","A5TWD5QD99GZY","3DZKABX2ZIR9F0FDMQGPG3LEN12CVN","","img/set1/S3.jpg","72","3","structured_load","72","structured_load,structured_incentive,random,structured_normal","3,4,2,1,2,3","2,1,4,3","true","","",""
"null","","html-keyboard-response","359","397927","0.0-359.0","3VA45EW49O9WOXUCWJATTY41VLJO1H","A5TWD5QD99GZY","3DZKABX2ZIR9F0FDMQGPG3LEN12CVN","","<img src=""img/set1/S3.jpg"" width=""540"" height = ""360"" style=""border:16px solid orange"">","null","","","","","","","","","",""
"null","","html-keyboard-response","360","398137","0.0-360.0","3VA45EW49O9WOXUCWJATTY41VLJO1H","A5TWD5QD99GZY","3DZKABX2ZIR9F0FDMQGPG3LEN12CVN","","","null","","","","","","","","","",""
"471.19999999925494","","image-keyboard-response","361","398609","0.0-361.0","3VA45EW49O9WOXUCWJATTY41VLJO1H","A5TWD5QD99GZY","3DZKABX2ZIR9F0FDMQGPG3LEN12CVN","","img/set1/S4.jpg","72","4","structured_load","74","structured_load,structured_incentive,random,structured_normal","3,4,2,1,2,3","2,1,4,3","false","","",""
"null","","html-keyboard-response","362","398964","0.0-362.0","3VA45EW49O9WOXUCWJATTY41VLJO1H","A5TWD5QD99GZY","3DZKABX2ZIR9F0FDMQGPG3LEN12CVN","","<img src=""img/set1/S4.jpg"" width=""540"" height = ""360"">","null","","","","","","","","","",""
"null","","html-keyboard-response","363","399172","0.0-363.0","3VA45EW49O9WOXUCWJATTY41VLJO1H","A5TWD5QD99GZY","3DZKABX2ZIR9F0FDMQGPG3LEN12CVN","","","null","","","","","","","","","",""
"6733.5","","survey-multi-choice","364","405907","0.0-364.0","3VA45EW49O9WOXUCWJATTY41VLJO1H","A5TWD5QD99GZY","3DZKABX2ZIR9F0FDMQGPG3LEN12CVN","","","","","","","","","","","{""Q0"":""Picture B""}","[0]",""
"16178.599999999627","","html-keyboard-response","365","422088","0.0-365.0","3VA45EW49O9WOXUCWJATTY41VLJO1H","A5TWD5QD99GZY","3DZKABX2ZIR9F0FDMQGPG3LEN12CVN","","<p class=""center-content"">Underfortunately, the answer you selected was incorrect. </p><p class=""center-content"">Please press any key to continue. </p>","68","","","","","","","","","",""
"17839.400000000373","","html-keyboard-response","366","439928","0.0-366.0","3VA45EW49O9WOXUCWJATTY41VLJO1H","A5TWD5QD99GZY","3DZKABX2ZIR9F0FDMQGPG3LEN12CVN","","<p class=""center-content"">You have completed a block! </p><p class=""center-content"">Press any key on the keyboard to continue, </p><p class=""center-content"">or wait for the automatic progression to the next block after one minute.</p>","68","","","","","","","","","",""
"13335.099999999627","","instructions","367","453263","0.0-367.0","3VA45EW49O9WOXUCWJATTY41VLJO1H","A5TWD5QD99GZY","3DZKABX2ZIR9F0FDMQGPG3LEN12CVN","[{""page_index"":0,""viewing_time"":13334.900000000373}]","","","","","","","","","","","",""
"28782.400000000373","","instructions","368","482046","0.0-368.0","3VA45EW49O9WOXUCWJATTY41VLJO1H","A5TWD5QD99GZY","3DZKABX2ZIR9F0FDMQGPG3LEN12CVN","[{""page_index"":0,""viewing_time"":11447.800000000745},{""page_index"":1,""viewing_time"":17334.5}]","","","","","","","","","","","",""
"478.40000000037253","","image-keyboard-response","369","482525","0.0-369.0","3VA45EW49O9WOXUCWJATTY41VLJO1H","A5TWD5QD99GZY","3DZKABX2ZIR9F0FDMQGPG3LEN12CVN","","img/set2/S3.jpg","83","3","structured_incentive","72","structured_load,structured_incentive,random,structured_normal","3,4,2,1,2,3","2,1,4,3","false","","",""
"null","","html-keyboard-response","370","482886","0.0-370.0","3VA45EW49O9WOXUCWJATTY41VLJO1H","A5TWD5QD99GZY","3DZKABX2ZIR9F0FDMQGPG3LEN12CVN","","<img src=""img/set2/S3.jpg"" width=""540"" height = ""360"">","null","","","","","","","","","",""
"null","","html-keyboard-response","371","483092","0.0-371.0","3VA45EW49O9WOXUCWJATTY41VLJO1H","A5TWD5QD99GZY","3DZKABX2ZIR9F0FDMQGPG3LEN12CVN","","","null","","","","","","","","","",""
"545.3000000007451","","image-keyboard-response","372","483638","0.0-372.0","3VA45EW49O9WOXUCWJATTY41VLJO1H","A5TWD5QD99GZY","3DZKABX2ZIR9F0FDMQGPG3LEN12CVN","","img/set2/S3.jpg","68","3","structured_incentive","72","structured_load,structured_incentive,random,structured_normal","3,4,2,1,2,3","2,1,4,3","false","","",""
"null","","html-keyboard-response","373","483997","0.0-373.0","3VA45EW49O9WOXUCWJATTY41VLJO1H","A5TWD5QD99GZY","3DZKABX2ZIR9F0FDMQGPG3LEN12CVN","","<img src=""img/set2/S3.jpg"" width=""540"" height = ""360"">","null","","","","","","","","","",""
"null","","html-keyboard-response","374","484204","0.0-374.0","3VA45EW49O9WOXUCWJATTY41VLJO1H","A5TWD5QD99GZY","3DZKABX2ZIR9F0FDMQGPG3LEN12CVN","","","null","","","","","","","","","",""
"488.6000000014901","","image-keyboard-response","375","484693","0.0-375.0","3VA45EW49O9WOXUCWJATTY41VLJO1H","A5TWD5QD99GZY","3DZKABX2ZIR9F0FDMQGPG3LEN12CVN","","img/set2/S4.jpg","83","4","structured_incentive","74","structured_load,structured_incentive,random,structured_normal","3,4,2,1,2,3","2,1,4,3","false","","",""
"null","","html-keyboard-response","376","485047","0.0-376.0","3VA45EW49O9WOXUCWJATTY41VLJO1H","A5TWD5QD99GZY","3DZKABX2ZIR9F0FDMQGPG3LEN12CVN","","<img src=""img/set2/S4.jpg"" width=""540"" height = ""360"">","null","","","","","","","","","",""
"null","","html-keyboard-response","377","485249","0.0-377.0","3VA45EW49O9WOXUCWJATTY41VLJO1H","A5TWD5QD99GZY","3DZKABX2ZIR9F0FDMQGPG3LEN12CVN","","","null","","","","","","","","","",""
"755.1999999992549","","image-keyboard-response","378","486005","0.0-378.0","3VA45EW49O9WOXUCWJATTY41VLJO1H","A5TWD5QD99GZY","3DZKABX2ZIR9F0FDMQGPG3LEN12CVN","","img/set2/S2.jpg","83","2","structured_incentive","68","structured_load,structured_incentive,random,structured_normal","3,4,2,1,2,3","2,1,4,3","false","","",""
"null","","html-keyboard-response","379","486364","0.0-379.0","3VA45EW49O9WOXUCWJATTY41VLJO1H","A5TWD5QD99GZY","3DZKABX2ZIR9F0FDMQGPG3LEN12CVN","","<img src=""img/set2/S2.jpg"" width=""540"" height = ""360"">","null","","","","","","","","","",""
"null","","html-keyboard-response","380","486574","0.0-380.0","3VA45EW49O9WOXUCWJATTY41VLJO1H","A5TWD5QD99GZY","3DZKABX2ZIR9F0FDMQGPG3LEN12CVN","","","null","","","","","","","","","",""
