"rt","url","trial_type","trial_index","time_elapsed","internal_node_id","assignmentID","mturkID","hitID","view_history","stimulus","key_press","state","test_part","correct_response","order_block","order_chunk","order_freq","correct","responses","question_order","bonus"
"24652.5","consent.html","external-html","0","24749","0.0-0.0","3RXPCZQMQQX8WKDE80XLOPVZ5281GU","A68J20100VW4W","3GVPRXWRPHGYHD0HW29VLS36FVC7I4","","","","","","","","","","","","",""
"76698.30000001192","","instructions","1","101440","0.0-1.0","3RXPCZQMQQX8WKDE80XLOPVZ5281GU","A68J20100VW4W","3GVPRXWRPHGYHD0HW29VLS36FVC7I4","[{""page_index"":0,""viewing_time"":5286.900000035763},{""page_index"":1,""viewing_time"":6590.099999964237},{""page_index"":2,""viewing_time"":8594},{""page_index"":3,""viewing_time"":24089.80000001192},{""page_index"":4,""viewing_time"":3803.699999988079},{""page_index"":5,""viewing_time"":17566.19999998808},{""page_index"":6,""viewing_time"":10766.400000035763}]","","","","","","","","","","","",""
"17683.30000001192","","instructions","2","119137","0.0-2.0","3RXPCZQMQQX8WKDE80XLOPVZ5281GU","A68J20100VW4W","3GVPRXWRPHGYHD0HW29VLS36FVC7I4","[{""page_index"":0,""viewing_time"":17683}]","","","","","","","","","","","",""
"6132.700000047684","","instructions","3","125271","0.0-3.0","3RXPCZQMQQX8WKDE80XLOPVZ5281GU","A68J20100VW4W","3GVPRXWRPHGYHD0HW29VLS36FVC7I4","[{""page_index"":0,""viewing_time"":6132.400000035763}]","","","","","","","","","","","",""
"null","","image-keyboard-response","4","127778","0.0-4.0","3RXPCZQMQQX8WKDE80XLOPVZ5281GU","A68J20100VW4W","3GVPRXWRPHGYHD0HW29VLS36FVC7I4","","img/set1/S4.jpg","null","4","structured_normal","74","structured_normal,structured_incentive,structured_load,random","1,2,4,2,2,3","1,3,4,2","false","","",""
"null","","html-keyboard-response","5","128141","0.0-5.0","3RXPCZQMQQX8WKDE80XLOPVZ5281GU","A68J20100VW4W","3GVPRXWRPHGYHD0HW29VLS36FVC7I4","","<img src=""img/set1/S4.jpg"" width=""540"" height = ""360"">","null","","","","","","","","","",""
"null","","html-keyboard-response","6","128355","0.0-6.0","3RXPCZQMQQX8WKDE80XLOPVZ5281GU","A68J20100VW4W","3GVPRXWRPHGYHD0HW29VLS36FVC7I4","","","null","","","","","","","","","",""
"null","","image-keyboard-response","7","130897","0.0-7.0","3RXPCZQMQQX8WKDE80XLOPVZ5281GU","A68J20100VW4W","3GVPRXWRPHGYHD0HW29VLS36FVC7I4","","img/set1/S1.jpg","null","1","structured_normal","83","structured_normal,structured_incentive,structured_load,random","1,2,4,2,2,3","1,3,4,2","false","","",""
"null","","html-keyboard-response","8","131251","0.0-8.0","3RXPCZQMQQX8WKDE80XLOPVZ5281GU","A68J20100VW4W","3GVPRXWRPHGYHD0HW29VLS36FVC7I4","","<img src=""img/set1/S1.jpg"" width=""540"" height = ""360"">","null","","","","","","","","","",""
"null","","html-keyboard-response","9","131477","0.0-9.0","3RXPCZQMQQX8WKDE80XLOPVZ5281GU","A68J20100VW4W","3GVPRXWRPHGYHD0HW29VLS36FVC7I4","","","null","","","","","","","","","",""
"1158.800000011921","","image-keyboard-response","10","132639","0.0-10.0","3RXPCZQMQQX8WKDE80XLOPVZ5281GU","A68J20100VW4W","3GVPRXWRPHGYHD0HW29VLS36FVC7I4","","img/set1/S4.jpg","72","4","structured_normal","74","structured_normal,structured_incentive,structured_load,random","1,2,4,2,2,3","1,3,4,2","false","","",""
"null","","html-keyboard-response","11","132997","0.0-11.0","3RXPCZQMQQX8WKDE80XLOPVZ5281GU","A68J20100VW4W","3GVPRXWRPHGYHD0HW29VLS36FVC7I4","","<img src=""img/set1/S4.jpg"" width=""540"" height = ""360"">","null","","","","","","","","","",""
"null","","html-keyboard-response","12","133204","0.0-12.0","3RXPCZQMQQX8WKDE80XLOPVZ5281GU","A68J20100VW4W","3GVPRXWRPHGYHD0HW29VLS36FVC7I4","","","null","","","","","","","","","",""
"null","","image-keyboard-response","13","135710","0.0-13.0","3RXPCZQMQQX8WKDE80XLOPVZ5281GU","A68J20100VW4W","3GVPRXWRPHGYHD0HW29VLS36FVC7I4","","img/set1/S2.jpg","null","2","structured_normal","68","structured_normal,structured_incentive,structured_load,random","1,2,4,2,2,3","1,3,4,2","false","","",""
"null","","html-keyboard-response","14","136079","0.0-14.0","3RXPCZQMQQX8WKDE80XLOPVZ5281GU","A68J20100VW4W","3GVPRXWRPHGYHD0HW29VLS36FVC7I4","","<img src=""img/set1/S2.jpg"" width=""540"" height = ""360"">","null","","","","","","","","","",""
"null","","html-keyboard-response","15","136288","0.0-15.0","3RXPCZQMQQX8WKDE80XLOPVZ5281GU","A68J20100VW4W","3GVPRXWRPHGYHD0HW29VLS36FVC7I4","","","null","","","","","","","","","",""
"null","","image-keyboard-response","16","138806","0.0-16.0","3RXPCZQMQQX8WKDE80XLOPVZ5281GU","A68J20100VW4W","3GVPRXWRPHGYHD0HW29VLS36FVC7I4","","img/set1/S3.jpg","null","3","structured_normal","72","structured_normal,structured_incentive,structured_load,random","1,2,4,2,2,3","1,3,4,2","false","","",""
"null","","html-keyboard-response","17","139166","0.0-17.0","3RXPCZQMQQX8WKDE80XLOPVZ5281GU","A68J20100VW4W","3GVPRXWRPHGYHD0HW29VLS36FVC7I4","","<img src=""img/set1/S3.jpg"" width=""540"" height = ""360"">","null","","","","","","","","","",""
"null","","html-keyboard-response","18","139370","0.0-18.0","3RXPCZQMQQX8WKDE80XLOPVZ5281GU","A68J20100VW4W","3GVPRXWRPHGYHD0HW29VLS36FVC7I4","","","null","","","","","","","","","",""
"1201.7000000476837","","image-keyboard-response","19","140576","0.0-19.0","3RXPCZQMQQX8WKDE80XLOPVZ5281GU","A68J20100VW4W","3GVPRXWRPHGYHD0HW29VLS36FVC7I4","","img/set1/S3.jpg","83","3","structured_normal","72","structured_normal,structured_incentive,structured_load,random","1,2,4,2,2,3","1,3,4,2","false","","",""
"null","","html-keyboard-response","20","140933","0.0-20.0","3RXPCZQMQQX8WKDE80XLOPVZ5281GU","A68J20100VW4W","3GVPRXWRPHGYHD0HW29VLS36FVC7I4","","<img src=""img/set1/S3.jpg"" width=""540"" height = ""360"">","null","","","","","","","","","",""
"null","","html-keyboard-response","21","141147","0.0-21.0","3RXPCZQMQQX8WKDE80XLOPVZ5281GU","A68J20100VW4W","3GVPRXWRPHGYHD0HW29VLS36FVC7I4","","","null","","","","","","","","","",""
"2322.800000011921","","image-keyboard-response","22","143473","0.0-22.0","3RXPCZQMQQX8WKDE80XLOPVZ5281GU","A68J20100VW4W","3GVPRXWRPHGYHD0HW29VLS36FVC7I4","","img/set1/S3.jpg","68","3","structured_normal","72","structured_normal,structured_incentive,structured_load,random","1,2,4,2,2,3","1,3,4,2","false","","",""
"null","","html-keyboard-response","23","143829","0.0-23.0","3RXPCZQMQQX8WKDE80XLOPVZ5281GU","A68J20100VW4W","3GVPRXWRPHGYHD0HW29VLS36FVC7I4","","<img src=""img/set1/S3.jpg"" width=""540"" height = ""360"">","null","","","","","","","","","",""
"null","","html-keyboard-response","24","144052","0.0-24.0","3RXPCZQMQQX8WKDE80XLOPVZ5281GU","A68J20100VW4W","3GVPRXWRPHGYHD0HW29VLS36FVC7I4","","","null","","","","","","","","","",""
"1352","","image-keyboard-response","25","145407","0.0-25.0","3RXPCZQMQQX8WKDE80XLOPVZ5281GU","A68J20100VW4W","3GVPRXWRPHGYHD0HW29VLS36FVC7I4","","img/set1/S3.jpg","68","3","structured_normal","72","structured_normal,structured_incentive,structured_load,random","1,2,4,2,2,3","1,3,4,2","false","","",""
"null","","html-keyboard-response","26","145804","0.0-26.0","3RXPCZQMQQX8WKDE80XLOPVZ5281GU","A68J20100VW4W","3GVPRXWRPHGYHD0HW29VLS36FVC7I4","","<img src=""img/set1/S3.jpg"" width=""540"" height = ""360"">","null","","","","","","","","","",""
"null","","html-keyboard-response","27","146013","0.0-27.0","3RXPCZQMQQX8WKDE80XLOPVZ5281GU","A68J20100VW4W","3GVPRXWRPHGYHD0HW29VLS36FVC7I4","","","null","","","","","","","","","",""
"993.5","","image-keyboard-response","28","147010","0.0-28.0","3RXPCZQMQQX8WKDE80XLOPVZ5281GU","A68J20100VW4W","3GVPRXWRPHGYHD0HW29VLS36FVC7I4","","img/set1/S4.jpg","72","4","structured_normal","74","structured_normal,structured_incentive,structured_load,random","1,2,4,2,2,3","1,3,4,2","false","","",""
"null","","html-keyboard-response","29","147370","0.0-29.0","3RXPCZQMQQX8WKDE80XLOPVZ5281GU","A68J20100VW4W","3GVPRXWRPHGYHD0HW29VLS36FVC7I4","","<img src=""img/set1/S4.jpg"" width=""540"" height = ""360"">","null","","","","","","","","","",""
"null","","html-keyboard-response","30","147585","0.0-30.0","3RXPCZQMQQX8WKDE80XLOPVZ5281GU","A68J20100VW4W","3GVPRXWRPHGYHD0HW29VLS36FVC7I4","","","null","","","","","","","","","",""
"1920.300000011921","","image-keyboard-response","31","149508","0.0-31.0","3RXPCZQMQQX8WKDE80XLOPVZ5281GU","A68J20100VW4W","3GVPRXWRPHGYHD0HW29VLS36FVC7I4","","img/set1/S1.jpg","74","1","structured_normal","83","structured_normal,structured_incentive,structured_load,random","1,2,4,2,2,3","1,3,4,2","false","","",""
"null","","html-keyboard-response","32","149871","0.0-32.0","3RXPCZQMQQX8WKDE80XLOPVZ5281GU","A68J20100VW4W","3GVPRXWRPHGYHD0HW29VLS36FVC7I4","","<img src=""img/set1/S1.jpg"" width=""540"" height = ""360"">","null","","","","","","","","","",""
"null","","html-keyboard-response","33","150084","0.0-33.0","3RXPCZQMQQX8WKDE80XLOPVZ5281GU","A68J20100VW4W","3GVPRXWRPHGYHD0HW29VLS36FVC7I4","","","null","","","","","","","","","",""
"null","","image-keyboard-response","34","152590","0.0-34.0","3RXPCZQMQQX8WKDE80XLOPVZ5281GU","A68J20100VW4W","3GVPRXWRPHGYHD0HW29VLS36FVC7I4","","img/set1/S2.jpg","null","2","structured_normal","68","structured_normal,structured_incentive,structured_load,random","1,2,4,2,2,3","1,3,4,2","false","","",""
"null","","html-keyboard-response","35","152961","0.0-35.0","3RXPCZQMQQX8WKDE80XLOPVZ5281GU","A68J20100VW4W","3GVPRXWRPHGYHD0HW29VLS36FVC7I4","","<img src=""img/set1/S2.jpg"" width=""540"" height = ""360"">","null","","","","","","","","","",""
"null","","html-keyboard-response","36","153164","0.0-36.0","3RXPCZQMQQX8WKDE80XLOPVZ5281GU","A68J20100VW4W","3GVPRXWRPHGYHD0HW29VLS36FVC7I4","","","null","","","","","","","","","",""
"1688.5","","image-keyboard-response","37","154856","0.0-37.0","3RXPCZQMQQX8WKDE80XLOPVZ5281GU","A68J20100VW4W","3GVPRXWRPHGYHD0HW29VLS36FVC7I4","","img/set1/S1.jpg","83","1","structured_normal","83","structured_normal,structured_incentive,structured_load,random","1,2,4,2,2,3","1,3,4,2","true","","",""
"null","","html-keyboard-response","38","155222","0.0-38.0","3RXPCZQMQQX8WKDE80XLOPVZ5281GU","A68J20100VW4W","3GVPRXWRPHGYHD0HW29VLS36FVC7I4","","<img src=""img/set1/S1.jpg"" width=""540"" height = ""360"" style=""border:16px solid orange"">","null","","","","","","","","","",""
"null","","html-keyboard-response","39","155435","0.0-39.0","3RXPCZQMQQX8WKDE80XLOPVZ5281GU","A68J20100VW4W","3GVPRXWRPHGYHD0HW29VLS36FVC7I4","","","null","","","","","","","","","",""
"1582.2999999523163","","image-keyboard-response","40","157020","0.0-40.0","3RXPCZQMQQX8WKDE80XLOPVZ5281GU","A68J20100VW4W","3GVPRXWRPHGYHD0HW29VLS36FVC7I4","","img/set1/S2.jpg","83","2","structured_normal","68","structured_normal,structured_incentive,structured_load,random","1,2,4,2,2,3","1,3,4,2","false","","",""
"null","","html-keyboard-response","41","157384","0.0-41.0","3RXPCZQMQQX8WKDE80XLOPVZ5281GU","A68J20100VW4W","3GVPRXWRPHGYHD0HW29VLS36FVC7I4","","<img src=""img/set1/S2.jpg"" width=""540"" height = ""360"">","null","","","","","","","","","",""
"null","","html-keyboard-response","42","157590","0.0-42.0","3RXPCZQMQQX8WKDE80XLOPVZ5281GU","A68J20100VW4W","3GVPRXWRPHGYHD0HW29VLS36FVC7I4","","","null","","","","","","","","","",""
"1036.699999988079","","image-keyboard-response","43","158631","0.0-43.0","3RXPCZQMQQX8WKDE80XLOPVZ5281GU","A68J20100VW4W","3GVPRXWRPHGYHD0HW29VLS36FVC7I4","","img/set1/S1.jpg","74","1","structured_normal","83","structured_normal,structured_incentive,structured_load,random","1,2,4,2,2,3","1,3,4,2","false","","",""
"null","","html-keyboard-response","44","158998","0.0-44.0","3RXPCZQMQQX8WKDE80XLOPVZ5281GU","A68J20100VW4W","3GVPRXWRPHGYHD0HW29VLS36FVC7I4","","<img src=""img/set1/S1.jpg"" width=""540"" height = ""360"">","null","","","","","","","","","",""
"null","","html-keyboard-response","45","159216","0.0-45.0","3RXPCZQMQQX8WKDE80XLOPVZ5281GU","A68J20100VW4W","3GVPRXWRPHGYHD0HW29VLS36FVC7I4","","","null","","","","","","","","","",""
"714.6999999880791","","image-keyboard-response","46","159935","0.0-46.0","3RXPCZQMQQX8WKDE80XLOPVZ5281GU","A68J20100VW4W","3GVPRXWRPHGYHD0HW29VLS36FVC7I4","","img/set1/S4.jpg","72","4","structured_normal","74","structured_normal,structured_incentive,structured_load,random","1,2,4,2,2,3","1,3,4,2","false","","",""
"null","","html-keyboard-response","47","160293","0.0-47.0","3RXPCZQMQQX8WKDE80XLOPVZ5281GU","A68J20100VW4W","3GVPRXWRPHGYHD0HW29VLS36FVC7I4","","<img src=""img/set1/S4.jpg"" width=""540"" height = ""360"">","null","","","","","","","","","",""
"null","","html-keyboard-response","48","160504","0.0-48.0","3RXPCZQMQQX8WKDE80XLOPVZ5281GU","A68J20100VW4W","3GVPRXWRPHGYHD0HW29VLS36FVC7I4","","","null","","","","","","","","","",""
"1049.4000000357628","","image-keyboard-response","49","161556","0.0-49.0","3RXPCZQMQQX8WKDE80XLOPVZ5281GU","A68J20100VW4W","3GVPRXWRPHGYHD0HW29VLS36FVC7I4","","img/set1/S1.jpg","68","1","structured_normal","83","structured_normal,structured_incentive,structured_load,random","1,2,4,2,2,3","1,3,4,2","false","","",""
"null","","html-keyboard-response","50","161910","0.0-50.0","3RXPCZQMQQX8WKDE80XLOPVZ5281GU","A68J20100VW4W","3GVPRXWRPHGYHD0HW29VLS36FVC7I4","","<img src=""img/set1/S1.jpg"" width=""540"" height = ""360"">","null","","","","","","","","","",""
"null","","html-keyboard-response","51","162123","0.0-51.0","3RXPCZQMQQX8WKDE80XLOPVZ5281GU","A68J20100VW4W","3GVPRXWRPHGYHD0HW29VLS36FVC7I4","","","null","","","","","","","","","",""
"949.3000000119209","","image-keyboard-response","52","163076","0.0-52.0","3RXPCZQMQQX8WKDE80XLOPVZ5281GU","A68J20100VW4W","3GVPRXWRPHGYHD0HW29VLS36FVC7I4","","img/set1/S2.jpg","83","2","structured_normal","68","structured_normal,structured_incentive,structured_load,random","1,2,4,2,2,3","1,3,4,2","false","","",""
"null","","html-keyboard-response","53","163443","0.0-53.0","3RXPCZQMQQX8WKDE80XLOPVZ5281GU","A68J20100VW4W","3GVPRXWRPHGYHD0HW29VLS36FVC7I4","","<img src=""img/set1/S2.jpg"" width=""540"" height = ""360"">","null","","","","","","","","","",""
"null","","html-keyboard-response","54","163653","0.0-54.0","3RXPCZQMQQX8WKDE80XLOPVZ5281GU","A68J20100VW4W","3GVPRXWRPHGYHD0HW29VLS36FVC7I4","","","null","","","","","","","","","",""
"1259.9000000357628","","image-keyboard-response","55","164916","0.0-55.0","3RXPCZQMQQX8WKDE80XLOPVZ5281GU","A68J20100VW4W","3GVPRXWRPHGYHD0HW29VLS36FVC7I4","","img/set1/S4.jpg","74","4","structured_normal","74","structured_normal,structured_incentive,structured_load,random","1,2,4,2,2,3","1,3,4,2","true","","",""
"null","","html-keyboard-response","56","165283","0.0-56.0","3RXPCZQMQQX8WKDE80XLOPVZ5281GU","A68J20100VW4W","3GVPRXWRPHGYHD0HW29VLS36FVC7I4","","<img src=""img/set1/S4.jpg"" width=""540"" height = ""360"" style=""border:16px solid orange"">","null","","","","","","","","","",""
"null","","html-keyboard-response","57","165501","0.0-57.0","3RXPCZQMQQX8WKDE80XLOPVZ5281GU","A68J20100VW4W","3GVPRXWRPHGYHD0HW29VLS36FVC7I4","","","null","","","","","","","","","",""
"1287.6000000238419","","image-keyboard-response","58","166792","0.0-58.0","3RXPCZQMQQX8WKDE80XLOPVZ5281GU","A68J20100VW4W","3GVPRXWRPHGYHD0HW29VLS36FVC7I4","","img/set1/S3.jpg","74","3","structured_normal","72","structured_normal,structured_incentive,structured_load,random","1,2,4,2,2,3","1,3,4,2","false","","",""
"null","","html-keyboard-response","59","167164","0.0-59.0","3RXPCZQMQQX8WKDE80XLOPVZ5281GU","A68J20100VW4W","3GVPRXWRPHGYHD0HW29VLS36FVC7I4","","<img src=""img/set1/S3.jpg"" width=""540"" height = ""360"">","null","","","","","","","","","",""
"null","","html-keyboard-response","60","167372","0.0-60.0","3RXPCZQMQQX8WKDE80XLOPVZ5281GU","A68J20100VW4W","3GVPRXWRPHGYHD0HW29VLS36FVC7I4","","","null","","","","","","","","","",""
"701.8000000119209","","image-keyboard-response","61","168076","0.0-61.0","3RXPCZQMQQX8WKDE80XLOPVZ5281GU","A68J20100VW4W","3GVPRXWRPHGYHD0HW29VLS36FVC7I4","","img/set1/S4.jpg","68","4","structured_normal","74","structured_normal,structured_incentive,structured_load,random","1,2,4,2,2,3","1,3,4,2","false","","",""
"null","","html-keyboard-response","62","168441","0.0-62.0","3RXPCZQMQQX8WKDE80XLOPVZ5281GU","A68J20100VW4W","3GVPRXWRPHGYHD0HW29VLS36FVC7I4","","<img src=""img/set1/S4.jpg"" width=""540"" height = ""360"">","null","","","","","","","","","",""
"null","","html-keyboard-response","63","168657","0.0-63.0","3RXPCZQMQQX8WKDE80XLOPVZ5281GU","A68J20100VW4W","3GVPRXWRPHGYHD0HW29VLS36FVC7I4","","","null","","","","","","","","","",""
"17.5","","image-keyboard-response","64","168679","0.0-64.0","3RXPCZQMQQX8WKDE80XLOPVZ5281GU","A68J20100VW4W","3GVPRXWRPHGYHD0HW29VLS36FVC7I4","","img/set1/S3.jpg","72","3","structured_normal","72","structured_normal,structured_incentive,structured_load,random","1,2,4,2,2,3","1,3,4,2","true","","",""
"null","","html-keyboard-response","65","169043","0.0-65.0","3RXPCZQMQQX8WKDE80XLOPVZ5281GU","A68J20100VW4W","3GVPRXWRPHGYHD0HW29VLS36FVC7I4","","<img src=""img/set1/S3.jpg"" width=""540"" height = ""360"" style=""border:16px solid orange"">","null","","","","","","","","","",""
"null","","html-keyboard-response","66","169252","0.0-66.0","3RXPCZQMQQX8WKDE80XLOPVZ5281GU","A68J20100VW4W","3GVPRXWRPHGYHD0HW29VLS36FVC7I4","","","null","","","","","","","","","",""
"879.2000000476837","","image-keyboard-response","67","170135","0.0-67.0","3RXPCZQMQQX8WKDE80XLOPVZ5281GU","A68J20100VW4W","3GVPRXWRPHGYHD0HW29VLS36FVC7I4","","img/set1/S1.jpg","72","1","structured_normal","83","structured_normal,structured_incentive,structured_load,random","1,2,4,2,2,3","1,3,4,2","false","","",""
"null","","html-keyboard-response","68","170503","0.0-68.0","3RXPCZQMQQX8WKDE80XLOPVZ5281GU","A68J20100VW4W","3GVPRXWRPHGYHD0HW29VLS36FVC7I4","","<img src=""img/set1/S1.jpg"" width=""540"" height = ""360"">","null","","","","","","","","","",""
"null","","html-keyboard-response","69","170710","0.0-69.0","3RXPCZQMQQX8WKDE80XLOPVZ5281GU","A68J20100VW4W","3GVPRXWRPHGYHD0HW29VLS36FVC7I4","","","null","","","","","","","","","",""
"743.8999999761581","","image-keyboard-response","70","171462","0.0-70.0","3RXPCZQMQQX8WKDE80XLOPVZ5281GU","A68J20100VW4W","3GVPRXWRPHGYHD0HW29VLS36FVC7I4","","img/set1/S2.jpg","68","2","structured_normal","68","structured_normal,structured_incentive,structured_load,random","1,2,4,2,2,3","1,3,4,2","true","","",""
"null","","html-keyboard-response","71","171821","0.0-71.0","3RXPCZQMQQX8WKDE80XLOPVZ5281GU","A68J20100VW4W","3GVPRXWRPHGYHD0HW29VLS36FVC7I4","","<img src=""img/set1/S2.jpg"" width=""540"" height = ""360"" style=""border:16px solid orange"">","null","","","","","","","","","",""
"null","","html-keyboard-response","72","172036","0.0-72.0","3RXPCZQMQQX8WKDE80XLOPVZ5281GU","A68J20100VW4W","3GVPRXWRPHGYHD0HW29VLS36FVC7I4","","","null","","","","","","","","","",""
"1415.3999999761581","","image-keyboard-response","73","173454","0.0-73.0","3RXPCZQMQQX8WKDE80XLOPVZ5281GU","A68J20100VW4W","3GVPRXWRPHGYHD0HW29VLS36FVC7I4","","img/set1/S1.jpg","74","1","structured_normal","83","structured_normal,structured_incentive,structured_load,random","1,2,4,2,2,3","1,3,4,2","false","","",""
"null","","html-keyboard-response","74","173809","0.0-74.0","3RXPCZQMQQX8WKDE80XLOPVZ5281GU","A68J20100VW4W","3GVPRXWRPHGYHD0HW29VLS36FVC7I4","","<img src=""img/set1/S1.jpg"" width=""540"" height = ""360"">","null","","","","","","","","","",""
"null","","html-keyboard-response","75","174019","0.0-75.0","3RXPCZQMQQX8WKDE80XLOPVZ5281GU","A68J20100VW4W","3GVPRXWRPHGYHD0HW29VLS36FVC7I4","","","null","","","","","","","","","",""
"759.5","","image-keyboard-response","76","174782","0.0-76.0","3RXPCZQMQQX8WKDE80XLOPVZ5281GU","A68J20100VW4W","3GVPRXWRPHGYHD0HW29VLS36FVC7I4","","img/set1/S2.jpg","83","2","structured_normal","68","structured_normal,structured_incentive,structured_load,random","1,2,4,2,2,3","1,3,4,2","false","","",""
"null","","html-keyboard-response","77","175152","0.0-77.0","3RXPCZQMQQX8WKDE80XLOPVZ5281GU","A68J20100VW4W","3GVPRXWRPHGYHD0HW29VLS36FVC7I4","","<img src=""img/set1/S2.jpg"" width=""540"" height = ""360"">","null","","","","","","","","","",""
"null","","html-keyboard-response","78","175368","0.0-78.0","3RXPCZQMQQX8WKDE80XLOPVZ5281GU","A68J20100VW4W","3GVPRXWRPHGYHD0HW29VLS36FVC7I4","","","null","","","","","","","","","",""
"795.1000000238419","","image-keyboard-response","79","176167","0.0-79.0","3RXPCZQMQQX8WKDE80XLOPVZ5281GU","A68J20100VW4W","3GVPRXWRPHGYHD0HW29VLS36FVC7I4","","img/set1/S1.jpg","72","1","structured_normal","83","structured_normal,structured_incentive,structured_load,random","1,2,4,2,2,3","1,3,4,2","false","","",""
"null","","html-keyboard-response","80","176521","0.0-80.0","3RXPCZQMQQX8WKDE80XLOPVZ5281GU","A68J20100VW4W","3GVPRXWRPHGYHD0HW29VLS36FVC7I4","","<img src=""img/set1/S1.jpg"" width=""540"" height = ""360"">","null","","","","","","","","","",""
"null","","html-keyboard-response","81","176728","0.0-81.0","3RXPCZQMQQX8WKDE80XLOPVZ5281GU","A68J20100VW4W","3GVPRXWRPHGYHD0HW29VLS36FVC7I4","","","null","","","","","","","","","",""
"1027","","image-keyboard-response","82","177758","0.0-82.0","3RXPCZQMQQX8WKDE80XLOPVZ5281GU","A68J20100VW4W","3GVPRXWRPHGYHD0HW29VLS36FVC7I4","","img/set1/S2.jpg","68","2","structured_normal","68","structured_normal,structured_incentive,structured_load,random","1,2,4,2,2,3","1,3,4,2","true","","",""
"null","","html-keyboard-response","83","178118","0.0-83.0","3RXPCZQMQQX8WKDE80XLOPVZ5281GU","A68J20100VW4W","3GVPRXWRPHGYHD0HW29VLS36FVC7I4","","<img src=""img/set1/S2.jpg"" width=""540"" height = ""360"" style=""border:16px solid orange"">","null","","","","","","","","","",""
"null","","html-keyboard-response","84","178335","0.0-84.0","3RXPCZQMQQX8WKDE80XLOPVZ5281GU","A68J20100VW4W","3GVPRXWRPHGYHD0HW29VLS36FVC7I4","","","null","","","","","","","","","",""
"1209.8999999761581","","image-keyboard-response","85","179547","0.0-85.0","3RXPCZQMQQX8WKDE80XLOPVZ5281GU","A68J20100VW4W","3GVPRXWRPHGYHD0HW29VLS36FVC7I4","","img/set1/S3.jpg","74","3","structured_normal","72","structured_normal,structured_incentive,structured_load,random","1,2,4,2,2,3","1,3,4,2","false","","",""
"null","","html-keyboard-response","86","179901","0.0-86.0","3RXPCZQMQQX8WKDE80XLOPVZ5281GU","A68J20100VW4W","3GVPRXWRPHGYHD0HW29VLS36FVC7I4","","<img src=""img/set1/S3.jpg"" width=""540"" height = ""360"">","null","","","","","","","","","",""
"null","","html-keyboard-response","87","180117","0.0-87.0","3RXPCZQMQQX8WKDE80XLOPVZ5281GU","A68J20100VW4W","3GVPRXWRPHGYHD0HW29VLS36FVC7I4","","","null","","","","","","","","","",""
"565","","image-keyboard-response","88","180686","0.0-88.0","3RXPCZQMQQX8WKDE80XLOPVZ5281GU","A68J20100VW4W","3GVPRXWRPHGYHD0HW29VLS36FVC7I4","","img/set1/S3.jpg","74","3","structured_normal","72","structured_normal,structured_incentive,structured_load,random","1,2,4,2,2,3","1,3,4,2","false","","",""
"null","","html-keyboard-response","89","181042","0.0-89.0","3RXPCZQMQQX8WKDE80XLOPVZ5281GU","A68J20100VW4W","3GVPRXWRPHGYHD0HW29VLS36FVC7I4","","<img src=""img/set1/S3.jpg"" width=""540"" height = ""360"">","null","","","","","","","","","",""
"null","","html-keyboard-response","90","181246","0.0-90.0","3RXPCZQMQQX8WKDE80XLOPVZ5281GU","A68J20100VW4W","3GVPRXWRPHGYHD0HW29VLS36FVC7I4","","","null","","","","","","","","","",""
"1004.5","","image-keyboard-response","91","182254","0.0-91.0","3RXPCZQMQQX8WKDE80XLOPVZ5281GU","A68J20100VW4W","3GVPRXWRPHGYHD0HW29VLS36FVC7I4","","img/set1/S3.jpg","83","3","structured_normal","72","structured_normal,structured_incentive,structured_load,random","1,2,4,2,2,3","1,3,4,2","false","","",""
"null","","html-keyboard-response","92","182611","0.0-92.0","3RXPCZQMQQX8WKDE80XLOPVZ5281GU","A68J20100VW4W","3GVPRXWRPHGYHD0HW29VLS36FVC7I4","","<img src=""img/set1/S3.jpg"" width=""540"" height = ""360"">","null","","","","","","","","","",""
"null","","html-keyboard-response","93","182820","0.0-93.0","3RXPCZQMQQX8WKDE80XLOPVZ5281GU","A68J20100VW4W","3GVPRXWRPHGYHD0HW29VLS36FVC7I4","","","null","","","","","","","","","",""
"2021.8999999761581","","image-keyboard-response","94","184846","0.0-94.0","3RXPCZQMQQX8WKDE80XLOPVZ5281GU","A68J20100VW4W","3GVPRXWRPHGYHD0HW29VLS36FVC7I4","","img/set1/S4.jpg","72","4","structured_normal","74","structured_normal,structured_incentive,structured_load,random","1,2,4,2,2,3","1,3,4,2","false","","",""
"null","","html-keyboard-response","95","185214","0.0-95.0","3RXPCZQMQQX8WKDE80XLOPVZ5281GU","A68J20100VW4W","3GVPRXWRPHGYHD0HW29VLS36FVC7I4","","<img src=""img/set1/S4.jpg"" width=""540"" height = ""360"">","null","","","","","","","","","",""
"null","","html-keyboard-response","96","185465","0.0-96.0","3RXPCZQMQQX8WKDE80XLOPVZ5281GU","A68J20100VW4W","3GVPRXWRPHGYHD0HW29VLS36FVC7I4","","","null","","","","","","","","","",""
"1356","","image-keyboard-response","97","186824","0.0-97.0","3RXPCZQMQQX8WKDE80XLOPVZ5281GU","A68J20100VW4W","3GVPRXWRPHGYHD0HW29VLS36FVC7I4","","img/set1/S1.jpg","68","1","structured_normal","83","structured_normal,structured_incentive,structured_load,random","1,2,4,2,2,3","1,3,4,2","false","","",""
"null","","html-keyboard-response","98","187192","0.0-98.0","3RXPCZQMQQX8WKDE80XLOPVZ5281GU","A68J20100VW4W","3GVPRXWRPHGYHD0HW29VLS36FVC7I4","","<img src=""img/set1/S1.jpg"" width=""540"" height = ""360"">","null","","","","","","","","","",""
"null","","html-keyboard-response","99","187403","0.0-99.0","3RXPCZQMQQX8WKDE80XLOPVZ5281GU","A68J20100VW4W","3GVPRXWRPHGYHD0HW29VLS36FVC7I4","","","null","","","","","","","","","",""
"863.7999999523163","","image-keyboard-response","100","188270","0.0-100.0","3RXPCZQMQQX8WKDE80XLOPVZ5281GU","A68J20100VW4W","3GVPRXWRPHGYHD0HW29VLS36FVC7I4","","img/set1/S2.jpg","83","2","structured_normal","68","structured_normal,structured_incentive,structured_load,random","1,2,4,2,2,3","1,3,4,2","false","","",""
"null","","html-keyboard-response","101","188637","0.0-101.0","3RXPCZQMQQX8WKDE80XLOPVZ5281GU","A68J20100VW4W","3GVPRXWRPHGYHD0HW29VLS36FVC7I4","","<img src=""img/set1/S2.jpg"" width=""540"" height = ""360"">","null","","","","","","","","","",""
"null","","html-keyboard-response","102","188852","0.0-102.0","3RXPCZQMQQX8WKDE80XLOPVZ5281GU","A68J20100VW4W","3GVPRXWRPHGYHD0HW29VLS36FVC7I4","","","null","","","","","","","","","",""
"998.6000000238419","","image-keyboard-response","103","189854","0.0-103.0","3RXPCZQMQQX8WKDE80XLOPVZ5281GU","A68J20100VW4W","3GVPRXWRPHGYHD0HW29VLS36FVC7I4","","img/set1/S4.jpg","72","4","structured_normal","74","structured_normal,structured_incentive,structured_load,random","1,2,4,2,2,3","1,3,4,2","false","","",""
"null","","html-keyboard-response","104","190211","0.0-104.0","3RXPCZQMQQX8WKDE80XLOPVZ5281GU","A68J20100VW4W","3GVPRXWRPHGYHD0HW29VLS36FVC7I4","","<img src=""img/set1/S4.jpg"" width=""540"" height = ""360"">","null","","","","","","","","","",""
"null","","html-keyboard-response","105","190416","0.0-105.0","3RXPCZQMQQX8WKDE80XLOPVZ5281GU","A68J20100VW4W","3GVPRXWRPHGYHD0HW29VLS36FVC7I4","","","null","","","","","","","","","",""
"1987.300000011921","","image-keyboard-response","106","192407","0.0-106.0","3RXPCZQMQQX8WKDE80XLOPVZ5281GU","A68J20100VW4W","3GVPRXWRPHGYHD0HW29VLS36FVC7I4","","img/set1/S4.jpg","68","4","structured_normal","74","structured_normal,structured_incentive,structured_load,random","1,2,4,2,2,3","1,3,4,2","false","","",""
"null","","html-keyboard-response","107","192763","0.0-107.0","3RXPCZQMQQX8WKDE80XLOPVZ5281GU","A68J20100VW4W","3GVPRXWRPHGYHD0HW29VLS36FVC7I4","","<img src=""img/set1/S4.jpg"" width=""540"" height = ""360"">","null","","","","","","","","","",""
"null","","html-keyboard-response","108","192969","0.0-108.0","3RXPCZQMQQX8WKDE80XLOPVZ5281GU","A68J20100VW4W","3GVPRXWRPHGYHD0HW29VLS36FVC7I4","","","null","","","","","","","","","",""
"593.6999999880791","","image-keyboard-response","109","193566","0.0-109.0","3RXPCZQMQQX8WKDE80XLOPVZ5281GU","A68J20100VW4W","3GVPRXWRPHGYHD0HW29VLS36FVC7I4","","img/set1/S4.jpg","74","4","structured_normal","74","structured_normal,structured_incentive,structured_load,random","1,2,4,2,2,3","1,3,4,2","true","","",""
"null","","html-keyboard-response","110","193931","0.0-110.0","3RXPCZQMQQX8WKDE80XLOPVZ5281GU","A68J20100VW4W","3GVPRXWRPHGYHD0HW29VLS36FVC7I4","","<img src=""img/set1/S4.jpg"" width=""540"" height = ""360"" style=""border:16px solid orange"">","null","","","","","","","","","",""
"null","","html-keyboard-response","111","194140","0.0-111.0","3RXPCZQMQQX8WKDE80XLOPVZ5281GU","A68J20100VW4W","3GVPRXWRPHGYHD0HW29VLS36FVC7I4","","","null","","","","","","","","","",""
"1696.300000011921","","image-keyboard-response","112","195839","0.0-112.0","3RXPCZQMQQX8WKDE80XLOPVZ5281GU","A68J20100VW4W","3GVPRXWRPHGYHD0HW29VLS36FVC7I4","","img/set1/S3.jpg","72","3","structured_normal","72","structured_normal,structured_incentive,structured_load,random","1,2,4,2,2,3","1,3,4,2","true","","",""
"null","","html-keyboard-response","113","196198","0.0-113.0","3RXPCZQMQQX8WKDE80XLOPVZ5281GU","A68J20100VW4W","3GVPRXWRPHGYHD0HW29VLS36FVC7I4","","<img src=""img/set1/S3.jpg"" width=""540"" height = ""360"" style=""border:16px solid orange"">","null","","","","","","","","","",""
"null","","html-keyboard-response","114","196402","0.0-114.0","3RXPCZQMQQX8WKDE80XLOPVZ5281GU","A68J20100VW4W","3GVPRXWRPHGYHD0HW29VLS36FVC7I4","","","null","","","","","","","","","",""
"1225.9000000357628","","image-keyboard-response","115","197632","0.0-115.0","3RXPCZQMQQX8WKDE80XLOPVZ5281GU","A68J20100VW4W","3GVPRXWRPHGYHD0HW29VLS36FVC7I4","","img/set1/S1.jpg","68","1","structured_normal","83","structured_normal,structured_incentive,structured_load,random","1,2,4,2,2,3","1,3,4,2","false","","",""
"null","","html-keyboard-response","116","197994","0.0-116.0","3RXPCZQMQQX8WKDE80XLOPVZ5281GU","A68J20100VW4W","3GVPRXWRPHGYHD0HW29VLS36FVC7I4","","<img src=""img/set1/S1.jpg"" width=""540"" height = ""360"">","null","","","","","","","","","",""
"null","","html-keyboard-response","117","198203","0.0-117.0","3RXPCZQMQQX8WKDE80XLOPVZ5281GU","A68J20100VW4W","3GVPRXWRPHGYHD0HW29VLS36FVC7I4","","","null","","","","","","","","","",""
"983.3000000119209","","image-keyboard-response","118","199190","0.0-118.0","3RXPCZQMQQX8WKDE80XLOPVZ5281GU","A68J20100VW4W","3GVPRXWRPHGYHD0HW29VLS36FVC7I4","","img/set1/S4.jpg","72","4","structured_normal","74","structured_normal,structured_incentive,structured_load,random","1,2,4,2,2,3","1,3,4,2","false","","",""
"null","","html-keyboard-response","119","199558","0.0-119.0","3RXPCZQMQQX8WKDE80XLOPVZ5281GU","A68J20100VW4W","3GVPRXWRPHGYHD0HW29VLS36FVC7I4","","<img src=""img/set1/S4.jpg"" width=""540"" height = ""360"">","null","","","","","","","","","",""
"null","","html-keyboard-response","120","199776","0.0-120.0","3RXPCZQMQQX8WKDE80XLOPVZ5281GU","A68J20100VW4W","3GVPRXWRPHGYHD0HW29VLS36FVC7I4","","","null","","","","","","","","","",""
"531.0999999642372","","image-keyboard-response","121","200310","0.0-121.0","3RXPCZQMQQX8WKDE80XLOPVZ5281GU","A68J20100VW4W","3GVPRXWRPHGYHD0HW29VLS36FVC7I4","","img/set1/S1.jpg","83","1","structured_normal","83","structured_normal,structured_incentive,structured_load,random","1,2,4,2,2,3","1,3,4,2","true","","",""
"null","","html-keyboard-response","122","200676","0.0-122.0","3RXPCZQMQQX8WKDE80XLOPVZ5281GU","A68J20100VW4W","3GVPRXWRPHGYHD0HW29VLS36FVC7I4","","<img src=""img/set1/S1.jpg"" width=""540"" height = ""360"" style=""border:16px solid orange"">","null","","","","","","","","","",""
"null","","html-keyboard-response","123","200885","0.0-123.0","3RXPCZQMQQX8WKDE80XLOPVZ5281GU","A68J20100VW4W","3GVPRXWRPHGYHD0HW29VLS36FVC7I4","","","null","","","","","","","","","",""
"1085.199999988079","","image-keyboard-response","124","201974","0.0-124.0","3RXPCZQMQQX8WKDE80XLOPVZ5281GU","A68J20100VW4W","3GVPRXWRPHGYHD0HW29VLS36FVC7I4","","img/set1/S4.jpg","74","4","structured_normal","74","structured_normal,structured_incentive,structured_load,random","1,2,4,2,2,3","1,3,4,2","true","","",""
"null","","html-keyboard-response","125","202341","0.0-125.0","3RXPCZQMQQX8WKDE80XLOPVZ5281GU","A68J20100VW4W","3GVPRXWRPHGYHD0HW29VLS36FVC7I4","","<img src=""img/set1/S4.jpg"" width=""540"" height = ""360"" style=""border:16px solid orange"">","null","","","","","","","","","",""
"null","","html-keyboard-response","126","202559","0.0-126.0","3RXPCZQMQQX8WKDE80XLOPVZ5281GU","A68J20100VW4W","3GVPRXWRPHGYHD0HW29VLS36FVC7I4","","","null","","","","","","","","","",""
"1196.800000011921","","image-keyboard-response","127","203760","0.0-127.0","3RXPCZQMQQX8WKDE80XLOPVZ5281GU","A68J20100VW4W","3GVPRXWRPHGYHD0HW29VLS36FVC7I4","","img/set1/S3.jpg","68","3","structured_normal","72","structured_normal,structured_incentive,structured_load,random","1,2,4,2,2,3","1,3,4,2","false","","",""
"null","","html-keyboard-response","128","204123","0.0-128.0","3RXPCZQMQQX8WKDE80XLOPVZ5281GU","A68J20100VW4W","3GVPRXWRPHGYHD0HW29VLS36FVC7I4","","<img src=""img/set1/S3.jpg"" width=""540"" height = ""360"">","null","","","","","","","","","",""
"null","","html-keyboard-response","129","204329","0.0-129.0","3RXPCZQMQQX8WKDE80XLOPVZ5281GU","A68J20100VW4W","3GVPRXWRPHGYHD0HW29VLS36FVC7I4","","","null","","","","","","","","","",""
"495.9000000357628","","image-keyboard-response","130","204827","0.0-130.0","3RXPCZQMQQX8WKDE80XLOPVZ5281GU","A68J20100VW4W","3GVPRXWRPHGYHD0HW29VLS36FVC7I4","","img/set1/S3.jpg","72","3","structured_normal","72","structured_normal,structured_incentive,structured_load,random","1,2,4,2,2,3","1,3,4,2","true","","",""
"null","","html-keyboard-response","131","205190","0.0-131.0","3RXPCZQMQQX8WKDE80XLOPVZ5281GU","A68J20100VW4W","3GVPRXWRPHGYHD0HW29VLS36FVC7I4","","<img src=""img/set1/S3.jpg"" width=""540"" height = ""360"" style=""border:16px solid orange"">","null","","","","","","","","","",""
"null","","html-keyboard-response","132","205402","0.0-132.0","3RXPCZQMQQX8WKDE80XLOPVZ5281GU","A68J20100VW4W","3GVPRXWRPHGYHD0HW29VLS36FVC7I4","","","null","","","","","","","","","",""
"1040.5","","image-keyboard-response","133","206446","0.0-133.0","3RXPCZQMQQX8WKDE80XLOPVZ5281GU","A68J20100VW4W","3GVPRXWRPHGYHD0HW29VLS36FVC7I4","","img/set1/S1.jpg","68","1","structured_normal","83","structured_normal,structured_incentive,structured_load,random","1,2,4,2,2,3","1,3,4,2","false","","",""
"null","","html-keyboard-response","134","206809","0.0-134.0","3RXPCZQMQQX8WKDE80XLOPVZ5281GU","A68J20100VW4W","3GVPRXWRPHGYHD0HW29VLS36FVC7I4","","<img src=""img/set1/S1.jpg"" width=""540"" height = ""360"">","null","","","","","","","","","",""
"null","","html-keyboard-response","135","207019","0.0-135.0","3RXPCZQMQQX8WKDE80XLOPVZ5281GU","A68J20100VW4W","3GVPRXWRPHGYHD0HW29VLS36FVC7I4","","","null","","","","","","","","","",""
"896","","image-keyboard-response","136","207919","0.0-136.0","3RXPCZQMQQX8WKDE80XLOPVZ5281GU","A68J20100VW4W","3GVPRXWRPHGYHD0HW29VLS36FVC7I4","","img/set1/S2.jpg","83","2","structured_normal","68","structured_normal,structured_incentive,structured_load,random","1,2,4,2,2,3","1,3,4,2","false","","",""
"null","","html-keyboard-response","137","208286","0.0-137.0","3RXPCZQMQQX8WKDE80XLOPVZ5281GU","A68J20100VW4W","3GVPRXWRPHGYHD0HW29VLS36FVC7I4","","<img src=""img/set1/S2.jpg"" width=""540"" height = ""360"">","null","","","","","","","","","",""
"null","","html-keyboard-response","138","208500","0.0-138.0","3RXPCZQMQQX8WKDE80XLOPVZ5281GU","A68J20100VW4W","3GVPRXWRPHGYHD0HW29VLS36FVC7I4","","","null","","","","","","","","","",""
"1214.199999988079","","image-keyboard-response","139","209718","0.0-139.0","3RXPCZQMQQX8WKDE80XLOPVZ5281GU","A68J20100VW4W","3GVPRXWRPHGYHD0HW29VLS36FVC7I4","","img/set1/S4.jpg","74","4","structured_normal","74","structured_normal,structured_incentive,structured_load,random","1,2,4,2,2,3","1,3,4,2","true","","",""
"null","","html-keyboard-response","140","210083","0.0-140.0","3RXPCZQMQQX8WKDE80XLOPVZ5281GU","A68J20100VW4W","3GVPRXWRPHGYHD0HW29VLS36FVC7I4","","<img src=""img/set1/S4.jpg"" width=""540"" height = ""360"" style=""border:16px solid orange"">","null","","","","","","","","","",""
"null","","html-keyboard-response","141","210300","0.0-141.0","3RXPCZQMQQX8WKDE80XLOPVZ5281GU","A68J20100VW4W","3GVPRXWRPHGYHD0HW29VLS36FVC7I4","","","null","","","","","","","","","",""
"1212.699999988079","","image-keyboard-response","142","211516","0.0-142.0","3RXPCZQMQQX8WKDE80XLOPVZ5281GU","A68J20100VW4W","3GVPRXWRPHGYHD0HW29VLS36FVC7I4","","img/set1/S4.jpg","74","4","structured_normal","74","structured_normal,structured_incentive,structured_load,random","1,2,4,2,2,3","1,3,4,2","true","","",""
"null","","html-keyboard-response","143","211884","0.0-143.0","3RXPCZQMQQX8WKDE80XLOPVZ5281GU","A68J20100VW4W","3GVPRXWRPHGYHD0HW29VLS36FVC7I4","","<img src=""img/set1/S4.jpg"" width=""540"" height = ""360"" style=""border:16px solid orange"">","null","","","","","","","","","",""
"null","","html-keyboard-response","144","212104","0.0-144.0","3RXPCZQMQQX8WKDE80XLOPVZ5281GU","A68J20100VW4W","3GVPRXWRPHGYHD0HW29VLS36FVC7I4","","","null","","","","","","","","","",""
"1627.6000000238419","","image-keyboard-response","145","213734","0.0-145.0","3RXPCZQMQQX8WKDE80XLOPVZ5281GU","A68J20100VW4W","3GVPRXWRPHGYHD0HW29VLS36FVC7I4","","img/set1/S3.jpg","72","3","structured_normal","72","structured_normal,structured_incentive,structured_load,random","1,2,4,2,2,3","1,3,4,2","true","","",""
"null","","html-keyboard-response","146","214101","0.0-146.0","3RXPCZQMQQX8WKDE80XLOPVZ5281GU","A68J20100VW4W","3GVPRXWRPHGYHD0HW29VLS36FVC7I4","","<img src=""img/set1/S3.jpg"" width=""540"" height = ""360"" style=""border:16px solid orange"">","null","","","","","","","","","",""
"null","","html-keyboard-response","147","214311","0.0-147.0","3RXPCZQMQQX8WKDE80XLOPVZ5281GU","A68J20100VW4W","3GVPRXWRPHGYHD0HW29VLS36FVC7I4","","","null","","","","","","","","","",""
"1025.7999999523163","","image-keyboard-response","148","215340","0.0-148.0","3RXPCZQMQQX8WKDE80XLOPVZ5281GU","A68J20100VW4W","3GVPRXWRPHGYHD0HW29VLS36FVC7I4","","img/set1/S2.jpg","83","2","structured_normal","68","structured_normal,structured_incentive,structured_load,random","1,2,4,2,2,3","1,3,4,2","false","","",""
"null","","html-keyboard-response","149","215711","0.0-149.0","3RXPCZQMQQX8WKDE80XLOPVZ5281GU","A68J20100VW4W","3GVPRXWRPHGYHD0HW29VLS36FVC7I4","","<img src=""img/set1/S2.jpg"" width=""540"" height = ""360"">","null","","","","","","","","","",""
"null","","html-keyboard-response","150","215918","0.0-150.0","3RXPCZQMQQX8WKDE80XLOPVZ5281GU","A68J20100VW4W","3GVPRXWRPHGYHD0HW29VLS36FVC7I4","","","null","","","","","","","","","",""
"907.5999999642372","","image-keyboard-response","151","216828","0.0-151.0","3RXPCZQMQQX8WKDE80XLOPVZ5281GU","A68J20100VW4W","3GVPRXWRPHGYHD0HW29VLS36FVC7I4","","img/set1/S3.jpg","72","3","structured_normal","72","structured_normal,structured_incentive,structured_load,random","1,2,4,2,2,3","1,3,4,2","true","","",""
"null","","html-keyboard-response","152","217196","0.0-152.0","3RXPCZQMQQX8WKDE80XLOPVZ5281GU","A68J20100VW4W","3GVPRXWRPHGYHD0HW29VLS36FVC7I4","","<img src=""img/set1/S3.jpg"" width=""540"" height = ""360"" style=""border:16px solid orange"">","null","","","","","","","","","",""
"null","","html-keyboard-response","153","217400","0.0-153.0","3RXPCZQMQQX8WKDE80XLOPVZ5281GU","A68J20100VW4W","3GVPRXWRPHGYHD0HW29VLS36FVC7I4","","","null","","","","","","","","","",""
"1050.699999988079","","image-keyboard-response","154","218454","0.0-154.0","3RXPCZQMQQX8WKDE80XLOPVZ5281GU","A68J20100VW4W","3GVPRXWRPHGYHD0HW29VLS36FVC7I4","","img/set1/S4.jpg","74","4","structured_normal","74","structured_normal,structured_incentive,structured_load,random","1,2,4,2,2,3","1,3,4,2","true","","",""
"null","","html-keyboard-response","155","218828","0.0-155.0","3RXPCZQMQQX8WKDE80XLOPVZ5281GU","A68J20100VW4W","3GVPRXWRPHGYHD0HW29VLS36FVC7I4","","<img src=""img/set1/S4.jpg"" width=""540"" height = ""360"" style=""border:16px solid orange"">","null","","","","","","","","","",""
"null","","html-keyboard-response","156","219039","0.0-156.0","3RXPCZQMQQX8WKDE80XLOPVZ5281GU","A68J20100VW4W","3GVPRXWRPHGYHD0HW29VLS36FVC7I4","","","null","","","","","","","","","",""
"994.6999999880791","","image-keyboard-response","157","220036","0.0-157.0","3RXPCZQMQQX8WKDE80XLOPVZ5281GU","A68J20100VW4W","3GVPRXWRPHGYHD0HW29VLS36FVC7I4","","img/set1/S3.jpg","72","3","structured_normal","72","structured_normal,structured_incentive,structured_load,random","1,2,4,2,2,3","1,3,4,2","true","","",""
"null","","html-keyboard-response","158","220406","0.0-158.0","3RXPCZQMQQX8WKDE80XLOPVZ5281GU","A68J20100VW4W","3GVPRXWRPHGYHD0HW29VLS36FVC7I4","","<img src=""img/set1/S3.jpg"" width=""540"" height = ""360"" style=""border:16px solid orange"">","null","","","","","","","","","",""
"null","","html-keyboard-response","159","220618","0.0-159.0","3RXPCZQMQQX8WKDE80XLOPVZ5281GU","A68J20100VW4W","3GVPRXWRPHGYHD0HW29VLS36FVC7I4","","","null","","","","","","","","","",""
"918.6999999880791","","image-keyboard-response","160","221539","0.0-160.0","3RXPCZQMQQX8WKDE80XLOPVZ5281GU","A68J20100VW4W","3GVPRXWRPHGYHD0HW29VLS36FVC7I4","","img/set1/S1.jpg","68","1","structured_normal","83","structured_normal,structured_incentive,structured_load,random","1,2,4,2,2,3","1,3,4,2","false","","",""
"null","","html-keyboard-response","161","221899","0.0-161.0","3RXPCZQMQQX8WKDE80XLOPVZ5281GU","A68J20100VW4W","3GVPRXWRPHGYHD0HW29VLS36FVC7I4","","<img src=""img/set1/S1.jpg"" width=""540"" height = ""360"">","null","","","","","","","","","",""
"null","","html-keyboard-response","162","222104","0.0-162.0","3RXPCZQMQQX8WKDE80XLOPVZ5281GU","A68J20100VW4W","3GVPRXWRPHGYHD0HW29VLS36FVC7I4","","","null","","","","","","","","","",""
"1042","","image-keyboard-response","163","223147","0.0-163.0","3RXPCZQMQQX8WKDE80XLOPVZ5281GU","A68J20100VW4W","3GVPRXWRPHGYHD0HW29VLS36FVC7I4","","img/set1/S2.jpg","68","2","structured_normal","68","structured_normal,structured_incentive,structured_load,random","1,2,4,2,2,3","1,3,4,2","true","","",""
"null","","html-keyboard-response","164","223507","0.0-164.0","3RXPCZQMQQX8WKDE80XLOPVZ5281GU","A68J20100VW4W","3GVPRXWRPHGYHD0HW29VLS36FVC7I4","","<img src=""img/set1/S2.jpg"" width=""540"" height = ""360"" style=""border:16px solid orange"">","null","","","","","","","","","",""
"null","","html-keyboard-response","165","223717","0.0-165.0","3RXPCZQMQQX8WKDE80XLOPVZ5281GU","A68J20100VW4W","3GVPRXWRPHGYHD0HW29VLS36FVC7I4","","","null","","","","","","","","","",""
"636.0999999642372","","image-keyboard-response","166","224356","0.0-166.0","3RXPCZQMQQX8WKDE80XLOPVZ5281GU","A68J20100VW4W","3GVPRXWRPHGYHD0HW29VLS36FVC7I4","","img/set1/S1.jpg","83","1","structured_normal","83","structured_normal,structured_incentive,structured_load,random","1,2,4,2,2,3","1,3,4,2","true","","",""
"null","","html-keyboard-response","167","224711","0.0-167.0","3RXPCZQMQQX8WKDE80XLOPVZ5281GU","A68J20100VW4W","3GVPRXWRPHGYHD0HW29VLS36FVC7I4","","<img src=""img/set1/S1.jpg"" width=""540"" height = ""360"" style=""border:16px solid orange"">","null","","","","","","","","","",""
"null","","html-keyboard-response","168","224917","0.0-168.0","3RXPCZQMQQX8WKDE80XLOPVZ5281GU","A68J20100VW4W","3GVPRXWRPHGYHD0HW29VLS36FVC7I4","","","null","","","","","","","","","",""
"757.8000000119209","","image-keyboard-response","169","225678","0.0-169.0","3RXPCZQMQQX8WKDE80XLOPVZ5281GU","A68J20100VW4W","3GVPRXWRPHGYHD0HW29VLS36FVC7I4","","img/set1/S2.jpg","68","2","structured_normal","68","structured_normal,structured_incentive,structured_load,random","1,2,4,2,2,3","1,3,4,2","true","","",""
"null","","html-keyboard-response","170","226043","0.0-170.0","3RXPCZQMQQX8WKDE80XLOPVZ5281GU","A68J20100VW4W","3GVPRXWRPHGYHD0HW29VLS36FVC7I4","","<img src=""img/set1/S2.jpg"" width=""540"" height = ""360"" style=""border:16px solid orange"">","null","","","","","","","","","",""
"null","","html-keyboard-response","171","226266","0.0-171.0","3RXPCZQMQQX8WKDE80XLOPVZ5281GU","A68J20100VW4W","3GVPRXWRPHGYHD0HW29VLS36FVC7I4","","","null","","","","","","","","","",""
"1057","","image-keyboard-response","172","227326","0.0-172.0","3RXPCZQMQQX8WKDE80XLOPVZ5281GU","A68J20100VW4W","3GVPRXWRPHGYHD0HW29VLS36FVC7I4","","img/set1/S4.jpg","74","4","structured_normal","74","structured_normal,structured_incentive,structured_load,random","1,2,4,2,2,3","1,3,4,2","true","","",""
"null","","html-keyboard-response","173","227685","0.0-173.0","3RXPCZQMQQX8WKDE80XLOPVZ5281GU","A68J20100VW4W","3GVPRXWRPHGYHD0HW29VLS36FVC7I4","","<img src=""img/set1/S4.jpg"" width=""540"" height = ""360"" style=""border:16px solid orange"">","null","","","","","","","","","",""
"null","","html-keyboard-response","174","227901","0.0-174.0","3RXPCZQMQQX8WKDE80XLOPVZ5281GU","A68J20100VW4W","3GVPRXWRPHGYHD0HW29VLS36FVC7I4","","","null","","","","","","","","","",""
"917.3000000119209","","image-keyboard-response","175","228823","0.0-175.0","3RXPCZQMQQX8WKDE80XLOPVZ5281GU","A68J20100VW4W","3GVPRXWRPHGYHD0HW29VLS36FVC7I4","","img/set1/S2.jpg","68","2","structured_normal","68","structured_normal,structured_incentive,structured_load,random","1,2,4,2,2,3","1,3,4,2","true","","",""
"null","","html-keyboard-response","176","229192","0.0-176.0","3RXPCZQMQQX8WKDE80XLOPVZ5281GU","A68J20100VW4W","3GVPRXWRPHGYHD0HW29VLS36FVC7I4","","<img src=""img/set1/S2.jpg"" width=""540"" height = ""360"" style=""border:16px solid orange"">","null","","","","","","","","","",""
"null","","html-keyboard-response","177","229401","0.0-177.0","3RXPCZQMQQX8WKDE80XLOPVZ5281GU","A68J20100VW4W","3GVPRXWRPHGYHD0HW29VLS36FVC7I4","","","null","","","","","","","","","",""
"1145.2999999523163","","image-keyboard-response","178","230550","0.0-178.0","3RXPCZQMQQX8WKDE80XLOPVZ5281GU","A68J20100VW4W","3GVPRXWRPHGYHD0HW29VLS36FVC7I4","","img/set1/S1.jpg","83","1","structured_normal","83","structured_normal,structured_incentive,structured_load,random","1,2,4,2,2,3","1,3,4,2","true","","",""
"null","","html-keyboard-response","179","230905","0.0-179.0","3RXPCZQMQQX8WKDE80XLOPVZ5281GU","A68J20100VW4W","3GVPRXWRPHGYHD0HW29VLS36FVC7I4","","<img src=""img/set1/S1.jpg"" width=""540"" height = ""360"" style=""border:16px solid orange"">","null","","","","","","","","","",""
"null","","html-keyboard-response","180","231112","0.0-180.0","3RXPCZQMQQX8WKDE80XLOPVZ5281GU","A68J20100VW4W","3GVPRXWRPHGYHD0HW29VLS36FVC7I4","","","null","","","","","","","","","",""
"1523.8999999761581","","image-keyboard-response","181","232638","0.0-181.0","3RXPCZQMQQX8WKDE80XLOPVZ5281GU","A68J20100VW4W","3GVPRXWRPHGYHD0HW29VLS36FVC7I4","","img/set1/S2.jpg","68","2","structured_normal","68","structured_normal,structured_incentive,structured_load,random","1,2,4,2,2,3","1,3,4,2","true","","",""
"null","","html-keyboard-response","182","232999","0.0-182.0","3RXPCZQMQQX8WKDE80XLOPVZ5281GU","A68J20100VW4W","3GVPRXWRPHGYHD0HW29VLS36FVC7I4","","<img src=""img/set1/S2.jpg"" width=""540"" height = ""360"" style=""border:16px solid orange"">","null","","","","","","","","","",""
"null","","html-keyboard-response","183","233202","0.0-183.0","3RXPCZQMQQX8WKDE80XLOPVZ5281GU","A68J20100VW4W","3GVPRXWRPHGYHD0HW29VLS36FVC7I4","","","null","","","","","","","","","",""
"1096.0999999642372","","image-keyboard-response","184","234302","0.0-184.0","3RXPCZQMQQX8WKDE80XLOPVZ5281GU","A68J20100VW4W","3GVPRXWRPHGYHD0HW29VLS36FVC7I4","","img/set1/S3.jpg","72","3","structured_normal","72","structured_normal,structured_incentive,structured_load,random","1,2,4,2,2,3","1,3,4,2","true","","",""
"null","","html-keyboard-response","185","234659","0.0-185.0","3RXPCZQMQQX8WKDE80XLOPVZ5281GU","A68J20100VW4W","3GVPRXWRPHGYHD0HW29VLS36FVC7I4","","<img src=""img/set1/S3.jpg"" width=""540"" height = ""360"" style=""border:16px solid orange"">","null","","","","","","","","","",""
"null","","html-keyboard-response","186","234948","0.0-186.0","3RXPCZQMQQX8WKDE80XLOPVZ5281GU","A68J20100VW4W","3GVPRXWRPHGYHD0HW29VLS36FVC7I4","","","null","","","","","","","","","",""
"783.0999999642372","","image-keyboard-response","187","235734","0.0-187.0","3RXPCZQMQQX8WKDE80XLOPVZ5281GU","A68J20100VW4W","3GVPRXWRPHGYHD0HW29VLS36FVC7I4","","img/set1/S2.jpg","68","2","structured_normal","68","structured_normal,structured_incentive,structured_load,random","1,2,4,2,2,3","1,3,4,2","true","","",""
"null","","html-keyboard-response","188","236088","0.0-188.0","3RXPCZQMQQX8WKDE80XLOPVZ5281GU","A68J20100VW4W","3GVPRXWRPHGYHD0HW29VLS36FVC7I4","","<img src=""img/set1/S2.jpg"" width=""540"" height = ""360"" style=""border:16px solid orange"">","null","","","","","","","","","",""
"null","","html-keyboard-response","189","236299","0.0-189.0","3RXPCZQMQQX8WKDE80XLOPVZ5281GU","A68J20100VW4W","3GVPRXWRPHGYHD0HW29VLS36FVC7I4","","","null","","","","","","","","","",""
"733.5","","image-keyboard-response","190","237035","0.0-190.0","3RXPCZQMQQX8WKDE80XLOPVZ5281GU","A68J20100VW4W","3GVPRXWRPHGYHD0HW29VLS36FVC7I4","","img/set1/S3.jpg","72","3","structured_normal","72","structured_normal,structured_incentive,structured_load,random","1,2,4,2,2,3","1,3,4,2","true","","",""
"null","","html-keyboard-response","191","237403","0.0-191.0","3RXPCZQMQQX8WKDE80XLOPVZ5281GU","A68J20100VW4W","3GVPRXWRPHGYHD0HW29VLS36FVC7I4","","<img src=""img/set1/S3.jpg"" width=""540"" height = ""360"" style=""border:16px solid orange"">","null","","","","","","","","","",""
"null","","html-keyboard-response","192","237622","0.0-192.0","3RXPCZQMQQX8WKDE80XLOPVZ5281GU","A68J20100VW4W","3GVPRXWRPHGYHD0HW29VLS36FVC7I4","","","null","","","","","","","","","",""
"626.0999999642372","","image-keyboard-response","193","238251","0.0-193.0","3RXPCZQMQQX8WKDE80XLOPVZ5281GU","A68J20100VW4W","3GVPRXWRPHGYHD0HW29VLS36FVC7I4","","img/set1/S3.jpg","72","3","structured_normal","72","structured_normal,structured_incentive,structured_load,random","1,2,4,2,2,3","1,3,4,2","true","","",""
"null","","html-keyboard-response","194","238608","0.0-194.0","3RXPCZQMQQX8WKDE80XLOPVZ5281GU","A68J20100VW4W","3GVPRXWRPHGYHD0HW29VLS36FVC7I4","","<img src=""img/set1/S3.jpg"" width=""540"" height = ""360"" style=""border:16px solid orange"">","null","","","","","","","","","",""
"null","","html-keyboard-response","195","238817","0.0-195.0","3RXPCZQMQQX8WKDE80XLOPVZ5281GU","A68J20100VW4W","3GVPRXWRPHGYHD0HW29VLS36FVC7I4","","","null","","","","","","","","","",""
"506.39999997615814","","image-keyboard-response","196","239328","0.0-196.0","3RXPCZQMQQX8WKDE80XLOPVZ5281GU","A68J20100VW4W","3GVPRXWRPHGYHD0HW29VLS36FVC7I4","","img/set1/S3.jpg","72","3","structured_normal","72","structured_normal,structured_incentive,structured_load,random","1,2,4,2,2,3","1,3,4,2","true","","",""
"null","","html-keyboard-response","197","239693","0.0-197.0","3RXPCZQMQQX8WKDE80XLOPVZ5281GU","A68J20100VW4W","3GVPRXWRPHGYHD0HW29VLS36FVC7I4","","<img src=""img/set1/S3.jpg"" width=""540"" height = ""360"" style=""border:16px solid orange"">","null","","","","","","","","","",""
"null","","html-keyboard-response","198","239900","0.0-198.0","3RXPCZQMQQX8WKDE80XLOPVZ5281GU","A68J20100VW4W","3GVPRXWRPHGYHD0HW29VLS36FVC7I4","","","null","","","","","","","","","",""
"853.5","","image-keyboard-response","199","240758","0.0-199.0","3RXPCZQMQQX8WKDE80XLOPVZ5281GU","A68J20100VW4W","3GVPRXWRPHGYHD0HW29VLS36FVC7I4","","img/set1/S1.jpg","83","1","structured_normal","83","structured_normal,structured_incentive,structured_load,random","1,2,4,2,2,3","1,3,4,2","true","","",""
"null","","html-keyboard-response","200","241114","0.0-200.0","3RXPCZQMQQX8WKDE80XLOPVZ5281GU","A68J20100VW4W","3GVPRXWRPHGYHD0HW29VLS36FVC7I4","","<img src=""img/set1/S1.jpg"" width=""540"" height = ""360"" style=""border:16px solid orange"">","null","","","","","","","","","",""
"null","","html-keyboard-response","201","241321","0.0-201.0","3RXPCZQMQQX8WKDE80XLOPVZ5281GU","A68J20100VW4W","3GVPRXWRPHGYHD0HW29VLS36FVC7I4","","","null","","","","","","","","","",""
"882","","image-keyboard-response","202","242206","0.0-202.0","3RXPCZQMQQX8WKDE80XLOPVZ5281GU","A68J20100VW4W","3GVPRXWRPHGYHD0HW29VLS36FVC7I4","","img/set1/S2.jpg","68","2","structured_normal","68","structured_normal,structured_incentive,structured_load,random","1,2,4,2,2,3","1,3,4,2","true","","",""
"null","","html-keyboard-response","203","242568","0.0-203.0","3RXPCZQMQQX8WKDE80XLOPVZ5281GU","A68J20100VW4W","3GVPRXWRPHGYHD0HW29VLS36FVC7I4","","<img src=""img/set1/S2.jpg"" width=""540"" height = ""360"" style=""border:16px solid orange"">","null","","","","","","","","","",""
"null","","html-keyboard-response","204","242788","0.0-204.0","3RXPCZQMQQX8WKDE80XLOPVZ5281GU","A68J20100VW4W","3GVPRXWRPHGYHD0HW29VLS36FVC7I4","","","null","","","","","","","","","",""
"655.1000000238419","","image-keyboard-response","205","243447","0.0-205.0","3RXPCZQMQQX8WKDE80XLOPVZ5281GU","A68J20100VW4W","3GVPRXWRPHGYHD0HW29VLS36FVC7I4","","img/set1/S3.jpg","72","3","structured_normal","72","structured_normal,structured_incentive,structured_load,random","1,2,4,2,2,3","1,3,4,2","true","","",""
"null","","html-keyboard-response","206","243803","0.0-206.0","3RXPCZQMQQX8WKDE80XLOPVZ5281GU","A68J20100VW4W","3GVPRXWRPHGYHD0HW29VLS36FVC7I4","","<img src=""img/set1/S3.jpg"" width=""540"" height = ""360"" style=""border:16px solid orange"">","null","","","","","","","","","",""
"null","","html-keyboard-response","207","244018","0.0-207.0","3RXPCZQMQQX8WKDE80XLOPVZ5281GU","A68J20100VW4W","3GVPRXWRPHGYHD0HW29VLS36FVC7I4","","","null","","","","","","","","","",""
"572.6000000238419","","image-keyboard-response","208","244606","0.0-208.0","3RXPCZQMQQX8WKDE80XLOPVZ5281GU","A68J20100VW4W","3GVPRXWRPHGYHD0HW29VLS36FVC7I4","","img/set1/S4.jpg","74","4","structured_normal","74","structured_normal,structured_incentive,structured_load,random","1,2,4,2,2,3","1,3,4,2","true","","",""
"null","","html-keyboard-response","209","244974","0.0-209.0","3RXPCZQMQQX8WKDE80XLOPVZ5281GU","A68J20100VW4W","3GVPRXWRPHGYHD0HW29VLS36FVC7I4","","<img src=""img/set1/S4.jpg"" width=""540"" height = ""360"" style=""border:16px solid orange"">","null","","","","","","","","","",""
"null","","html-keyboard-response","210","245191","0.0-210.0","3RXPCZQMQQX8WKDE80XLOPVZ5281GU","A68J20100VW4W","3GVPRXWRPHGYHD0HW29VLS36FVC7I4","","","null","","","","","","","","","",""
"887","","image-keyboard-response","211","246083","0.0-211.0","3RXPCZQMQQX8WKDE80XLOPVZ5281GU","A68J20100VW4W","3GVPRXWRPHGYHD0HW29VLS36FVC7I4","","img/set1/S1.jpg","83","1","structured_normal","83","structured_normal,structured_incentive,structured_load,random","1,2,4,2,2,3","1,3,4,2","true","","",""
"null","","html-keyboard-response","212","246486","0.0-212.0","3RXPCZQMQQX8WKDE80XLOPVZ5281GU","A68J20100VW4W","3GVPRXWRPHGYHD0HW29VLS36FVC7I4","","<img src=""img/set1/S1.jpg"" width=""540"" height = ""360"" style=""border:16px solid orange"">","null","","","","","","","","","",""
"null","","html-keyboard-response","213","246699","0.0-213.0","3RXPCZQMQQX8WKDE80XLOPVZ5281GU","A68J20100VW4W","3GVPRXWRPHGYHD0HW29VLS36FVC7I4","","","null","","","","","","","","","",""
"622","","image-keyboard-response","214","247325","0.0-214.0","3RXPCZQMQQX8WKDE80XLOPVZ5281GU","A68J20100VW4W","3GVPRXWRPHGYHD0HW29VLS36FVC7I4","","img/set1/S2.jpg","68","2","structured_normal","68","structured_normal,structured_incentive,structured_load,random","1,2,4,2,2,3","1,3,4,2","true","","",""
"null","","html-keyboard-response","215","247690","0.0-215.0","3RXPCZQMQQX8WKDE80XLOPVZ5281GU","A68J20100VW4W","3GVPRXWRPHGYHD0HW29VLS36FVC7I4","","<img src=""img/set1/S2.jpg"" width=""540"" height = ""360"" style=""border:16px solid orange"">","null","","","","","","","","","",""
"null","","html-keyboard-response","216","247901","0.0-216.0","3RXPCZQMQQX8WKDE80XLOPVZ5281GU","A68J20100VW4W","3GVPRXWRPHGYHD0HW29VLS36FVC7I4","","","null","","","","","","","","","",""
"517.5","","image-keyboard-response","217","248422","0.0-217.0","3RXPCZQMQQX8WKDE80XLOPVZ5281GU","A68J20100VW4W","3GVPRXWRPHGYHD0HW29VLS36FVC7I4","","img/set1/S3.jpg","72","3","structured_normal","72","structured_normal,structured_incentive,structured_load,random","1,2,4,2,2,3","1,3,4,2","true","","",""
"null","","html-keyboard-response","218","248787","0.0-218.0","3RXPCZQMQQX8WKDE80XLOPVZ5281GU","A68J20100VW4W","3GVPRXWRPHGYHD0HW29VLS36FVC7I4","","<img src=""img/set1/S3.jpg"" width=""540"" height = ""360"" style=""border:16px solid orange"">","null","","","","","","","","","",""
"null","","html-keyboard-response","219","249000","0.0-219.0","3RXPCZQMQQX8WKDE80XLOPVZ5281GU","A68J20100VW4W","3GVPRXWRPHGYHD0HW29VLS36FVC7I4","","","null","","","","","","","","","",""
"706.3999999761581","","image-keyboard-response","220","249710","0.0-220.0","3RXPCZQMQQX8WKDE80XLOPVZ5281GU","A68J20100VW4W","3GVPRXWRPHGYHD0HW29VLS36FVC7I4","","img/set1/S1.jpg","83","1","structured_normal","83","structured_normal,structured_incentive,structured_load,random","1,2,4,2,2,3","1,3,4,2","true","","",""
"null","","html-keyboard-response","221","250074","0.0-221.0","3RXPCZQMQQX8WKDE80XLOPVZ5281GU","A68J20100VW4W","3GVPRXWRPHGYHD0HW29VLS36FVC7I4","","<img src=""img/set1/S1.jpg"" width=""540"" height = ""360"" style=""border:16px solid orange"">","null","","","","","","","","","",""
"null","","html-keyboard-response","222","250283","0.0-222.0","3RXPCZQMQQX8WKDE80XLOPVZ5281GU","A68J20100VW4W","3GVPRXWRPHGYHD0HW29VLS36FVC7I4","","","null","","","","","","","","","",""
"1114.5","","image-keyboard-response","223","251401","0.0-223.0","3RXPCZQMQQX8WKDE80XLOPVZ5281GU","A68J20100VW4W","3GVPRXWRPHGYHD0HW29VLS36FVC7I4","","img/set1/S2.jpg","68","2","structured_normal","68","structured_normal,structured_incentive,structured_load,random","1,2,4,2,2,3","1,3,4,2","true","","",""
"null","","html-keyboard-response","224","251762","0.0-224.0","3RXPCZQMQQX8WKDE80XLOPVZ5281GU","A68J20100VW4W","3GVPRXWRPHGYHD0HW29VLS36FVC7I4","","<img src=""img/set1/S2.jpg"" width=""540"" height = ""360"" style=""border:16px solid orange"">","null","","","","","","","","","",""
"null","","html-keyboard-response","225","251966","0.0-225.0","3RXPCZQMQQX8WKDE80XLOPVZ5281GU","A68J20100VW4W","3GVPRXWRPHGYHD0HW29VLS36FVC7I4","","","null","","","","","","","","","",""
"870.3999999761581","","image-keyboard-response","226","252843","0.0-226.0","3RXPCZQMQQX8WKDE80XLOPVZ5281GU","A68J20100VW4W","3GVPRXWRPHGYHD0HW29VLS36FVC7I4","","img/set1/S1.jpg","83","1","structured_normal","83","structured_normal,structured_incentive,structured_load,random","1,2,4,2,2,3","1,3,4,2","true","","",""
"null","","html-keyboard-response","227","253207","0.0-227.0","3RXPCZQMQQX8WKDE80XLOPVZ5281GU","A68J20100VW4W","3GVPRXWRPHGYHD0HW29VLS36FVC7I4","","<img src=""img/set1/S1.jpg"" width=""540"" height = ""360"" style=""border:16px solid orange"">","null","","","","","","","","","",""
"null","","html-keyboard-response","228","253418","0.0-228.0","3RXPCZQMQQX8WKDE80XLOPVZ5281GU","A68J20100VW4W","3GVPRXWRPHGYHD0HW29VLS36FVC7I4","","","null","","","","","","","","","",""
"568.6999999880791","","image-keyboard-response","229","253992","0.0-229.0","3RXPCZQMQQX8WKDE80XLOPVZ5281GU","A68J20100VW4W","3GVPRXWRPHGYHD0HW29VLS36FVC7I4","","img/set1/S2.jpg","68","2","structured_normal","68","structured_normal,structured_incentive,structured_load,random","1,2,4,2,2,3","1,3,4,2","true","","",""
"null","","html-keyboard-response","230","254351","0.0-230.0","3RXPCZQMQQX8WKDE80XLOPVZ5281GU","A68J20100VW4W","3GVPRXWRPHGYHD0HW29VLS36FVC7I4","","<img src=""img/set1/S2.jpg"" width=""540"" height = ""360"" style=""border:16px solid orange"">","null","","","","","","","","","",""
"null","","html-keyboard-response","231","254556","0.0-231.0","3RXPCZQMQQX8WKDE80XLOPVZ5281GU","A68J20100VW4W","3GVPRXWRPHGYHD0HW29VLS36FVC7I4","","","null","","","","","","","","","",""
"727.1999999880791","","image-keyboard-response","232","255286","0.0-232.0","3RXPCZQMQQX8WKDE80XLOPVZ5281GU","A68J20100VW4W","3GVPRXWRPHGYHD0HW29VLS36FVC7I4","","img/set1/S1.jpg","83","1","structured_normal","83","structured_normal,structured_incentive,structured_load,random","1,2,4,2,2,3","1,3,4,2","true","","",""
"null","","html-keyboard-response","233","255648","0.0-233.0","3RXPCZQMQQX8WKDE80XLOPVZ5281GU","A68J20100VW4W","3GVPRXWRPHGYHD0HW29VLS36FVC7I4","","<img src=""img/set1/S1.jpg"" width=""540"" height = ""360"" style=""border:16px solid orange"">","null","","","","","","","","","",""
"null","","html-keyboard-response","234","255865","0.0-234.0","3RXPCZQMQQX8WKDE80XLOPVZ5281GU","A68J20100VW4W","3GVPRXWRPHGYHD0HW29VLS36FVC7I4","","","null","","","","","","","","","",""
"696.5","","image-keyboard-response","235","256566","0.0-235.0","3RXPCZQMQQX8WKDE80XLOPVZ5281GU","A68J20100VW4W","3GVPRXWRPHGYHD0HW29VLS36FVC7I4","","img/set1/S4.jpg","74","4","structured_normal","74","structured_normal,structured_incentive,structured_load,random","1,2,4,2,2,3","1,3,4,2","true","","",""
"null","","html-keyboard-response","236","256930","0.0-236.0","3RXPCZQMQQX8WKDE80XLOPVZ5281GU","A68J20100VW4W","3GVPRXWRPHGYHD0HW29VLS36FVC7I4","","<img src=""img/set1/S4.jpg"" width=""540"" height = ""360"" style=""border:16px solid orange"">","null","","","","","","","","","",""
"null","","html-keyboard-response","237","257139","0.0-237.0","3RXPCZQMQQX8WKDE80XLOPVZ5281GU","A68J20100VW4W","3GVPRXWRPHGYHD0HW29VLS36FVC7I4","","","null","","","","","","","","","",""
"687.2000000476837","","image-keyboard-response","238","257831","0.0-238.0","3RXPCZQMQQX8WKDE80XLOPVZ5281GU","A68J20100VW4W","3GVPRXWRPHGYHD0HW29VLS36FVC7I4","","img/set1/S1.jpg","83","1","structured_normal","83","structured_normal,structured_incentive,structured_load,random","1,2,4,2,2,3","1,3,4,2","true","","",""
"null","","html-keyboard-response","239","258199","0.0-239.0","3RXPCZQMQQX8WKDE80XLOPVZ5281GU","A68J20100VW4W","3GVPRXWRPHGYHD0HW29VLS36FVC7I4","","<img src=""img/set1/S1.jpg"" width=""540"" height = ""360"" style=""border:16px solid orange"">","null","","","","","","","","","",""
"null","","html-keyboard-response","240","258448","0.0-240.0","3RXPCZQMQQX8WKDE80XLOPVZ5281GU","A68J20100VW4W","3GVPRXWRPHGYHD0HW29VLS36FVC7I4","","","null","","","","","","","","","",""
"1088.699999988079","","image-keyboard-response","241","259539","0.0-241.0","3RXPCZQMQQX8WKDE80XLOPVZ5281GU","A68J20100VW4W","3GVPRXWRPHGYHD0HW29VLS36FVC7I4","","img/set1/S2.jpg","68","2","structured_normal","68","structured_normal,structured_incentive,structured_load,random","1,2,4,2,2,3","1,3,4,2","true","","",""
"null","","html-keyboard-response","242","259910","0.0-242.0","3RXPCZQMQQX8WKDE80XLOPVZ5281GU","A68J20100VW4W","3GVPRXWRPHGYHD0HW29VLS36FVC7I4","","<img src=""img/set1/S2.jpg"" width=""540"" height = ""360"" style=""border:16px solid orange"">","null","","","","","","","","","",""
"null","","html-keyboard-response","243","260122","0.0-243.0","3RXPCZQMQQX8WKDE80XLOPVZ5281GU","A68J20100VW4W","3GVPRXWRPHGYHD0HW29VLS36FVC7I4","","","null","","","","","","","","","",""
"835.1000000238419","","image-keyboard-response","244","260961","0.0-244.0","3RXPCZQMQQX8WKDE80XLOPVZ5281GU","A68J20100VW4W","3GVPRXWRPHGYHD0HW29VLS36FVC7I4","","img/set1/S1.jpg","83","1","structured_normal","83","structured_normal,structured_incentive,structured_load,random","1,2,4,2,2,3","1,3,4,2","true","","",""
"null","","html-keyboard-response","245","261333","0.0-245.0","3RXPCZQMQQX8WKDE80XLOPVZ5281GU","A68J20100VW4W","3GVPRXWRPHGYHD0HW29VLS36FVC7I4","","<img src=""img/set1/S1.jpg"" width=""540"" height = ""360"" style=""border:16px solid orange"">","null","","","","","","","","","",""
"null","","html-keyboard-response","246","261542","0.0-246.0","3RXPCZQMQQX8WKDE80XLOPVZ5281GU","A68J20100VW4W","3GVPRXWRPHGYHD0HW29VLS36FVC7I4","","","null","","","","","","","","","",""
"860.6999999880791","","image-keyboard-response","247","262406","0.0-247.0","3RXPCZQMQQX8WKDE80XLOPVZ5281GU","A68J20100VW4W","3GVPRXWRPHGYHD0HW29VLS36FVC7I4","","img/set1/S2.jpg","83","2","structured_normal","68","structured_normal,structured_incentive,structured_load,random","1,2,4,2,2,3","1,3,4,2","false","","",""
"null","","html-keyboard-response","248","262773","0.0-248.0","3RXPCZQMQQX8WKDE80XLOPVZ5281GU","A68J20100VW4W","3GVPRXWRPHGYHD0HW29VLS36FVC7I4","","<img src=""img/set1/S2.jpg"" width=""540"" height = ""360"">","null","","","","","","","","","",""
"null","","html-keyboard-response","249","262983","0.0-249.0","3RXPCZQMQQX8WKDE80XLOPVZ5281GU","A68J20100VW4W","3GVPRXWRPHGYHD0HW29VLS36FVC7I4","","","null","","","","","","","","","",""
"707.3000000119209","","image-keyboard-response","250","263694","0.0-250.0","3RXPCZQMQQX8WKDE80XLOPVZ5281GU","A68J20100VW4W","3GVPRXWRPHGYHD0HW29VLS36FVC7I4","","img/set1/S1.jpg","83","1","structured_normal","83","structured_normal,structured_incentive,structured_load,random","1,2,4,2,2,3","1,3,4,2","true","","",""
"null","","html-keyboard-response","251","264056","0.0-251.0","3RXPCZQMQQX8WKDE80XLOPVZ5281GU","A68J20100VW4W","3GVPRXWRPHGYHD0HW29VLS36FVC7I4","","<img src=""img/set1/S1.jpg"" width=""540"" height = ""360"" style=""border:16px solid orange"">","null","","","","","","","","","",""
"null","","html-keyboard-response","252","264267","0.0-252.0","3RXPCZQMQQX8WKDE80XLOPVZ5281GU","A68J20100VW4W","3GVPRXWRPHGYHD0HW29VLS36FVC7I4","","","null","","","","","","","","","",""
"909.0999999642372","","image-keyboard-response","253","265179","0.0-253.0","3RXPCZQMQQX8WKDE80XLOPVZ5281GU","A68J20100VW4W","3GVPRXWRPHGYHD0HW29VLS36FVC7I4","","img/set1/S4.jpg","74","4","structured_normal","74","structured_normal,structured_incentive,structured_load,random","1,2,4,2,2,3","1,3,4,2","true","","",""
"null","","html-keyboard-response","254","265539","0.0-254.0","3RXPCZQMQQX8WKDE80XLOPVZ5281GU","A68J20100VW4W","3GVPRXWRPHGYHD0HW29VLS36FVC7I4","","<img src=""img/set1/S4.jpg"" width=""540"" height = ""360"" style=""border:16px solid orange"">","null","","","","","","","","","",""
"null","","html-keyboard-response","255","265747","0.0-255.0","3RXPCZQMQQX8WKDE80XLOPVZ5281GU","A68J20100VW4W","3GVPRXWRPHGYHD0HW29VLS36FVC7I4","","","null","","","","","","","","","",""
"742.6000000238419","","image-keyboard-response","256","266492","0.0-256.0","3RXPCZQMQQX8WKDE80XLOPVZ5281GU","A68J20100VW4W","3GVPRXWRPHGYHD0HW29VLS36FVC7I4","","img/set1/S3.jpg","72","3","structured_normal","72","structured_normal,structured_incentive,structured_load,random","1,2,4,2,2,3","1,3,4,2","true","","",""
"null","","html-keyboard-response","257","266859","0.0-257.0","3RXPCZQMQQX8WKDE80XLOPVZ5281GU","A68J20100VW4W","3GVPRXWRPHGYHD0HW29VLS36FVC7I4","","<img src=""img/set1/S3.jpg"" width=""540"" height = ""360"" style=""border:16px solid orange"">","null","","","","","","","","","",""
"null","","html-keyboard-response","258","267068","0.0-258.0","3RXPCZQMQQX8WKDE80XLOPVZ5281GU","A68J20100VW4W","3GVPRXWRPHGYHD0HW29VLS36FVC7I4","","","null","","","","","","","","","",""
"558.6999999880791","","image-keyboard-response","259","267630","0.0-259.0","3RXPCZQMQQX8WKDE80XLOPVZ5281GU","A68J20100VW4W","3GVPRXWRPHGYHD0HW29VLS36FVC7I4","","img/set1/S3.jpg","72","3","structured_normal","72","structured_normal,structured_incentive,structured_load,random","1,2,4,2,2,3","1,3,4,2","true","","",""
"null","","html-keyboard-response","260","267990","0.0-260.0","3RXPCZQMQQX8WKDE80XLOPVZ5281GU","A68J20100VW4W","3GVPRXWRPHGYHD0HW29VLS36FVC7I4","","<img src=""img/set1/S3.jpg"" width=""540"" height = ""360"" style=""border:16px solid orange"">","null","","","","","","","","","",""
"null","","html-keyboard-response","261","268195","0.0-261.0","3RXPCZQMQQX8WKDE80XLOPVZ5281GU","A68J20100VW4W","3GVPRXWRPHGYHD0HW29VLS36FVC7I4","","","null","","","","","","","","","",""
"672.5","","image-keyboard-response","262","268871","0.0-262.0","3RXPCZQMQQX8WKDE80XLOPVZ5281GU","A68J20100VW4W","3GVPRXWRPHGYHD0HW29VLS36FVC7I4","","img/set1/S2.jpg","68","2","structured_normal","68","structured_normal,structured_incentive,structured_load,random","1,2,4,2,2,3","1,3,4,2","true","","",""
"null","","html-keyboard-response","263","269228","0.0-263.0","3RXPCZQMQQX8WKDE80XLOPVZ5281GU","A68J20100VW4W","3GVPRXWRPHGYHD0HW29VLS36FVC7I4","","<img src=""img/set1/S2.jpg"" width=""540"" height = ""360"" style=""border:16px solid orange"">","null","","","","","","","","","",""
"null","","html-keyboard-response","264","269464","0.0-264.0","3RXPCZQMQQX8WKDE80XLOPVZ5281GU","A68J20100VW4W","3GVPRXWRPHGYHD0HW29VLS36FVC7I4","","","null","","","","","","","","","",""
"674.1999999880791","","image-keyboard-response","265","270142","0.0-265.0","3RXPCZQMQQX8WKDE80XLOPVZ5281GU","A68J20100VW4W","3GVPRXWRPHGYHD0HW29VLS36FVC7I4","","img/set1/S3.jpg","72","3","structured_normal","72","structured_normal,structured_incentive,structured_load,random","1,2,4,2,2,3","1,3,4,2","true","","",""
"null","","html-keyboard-response","266","270498","0.0-266.0","3RXPCZQMQQX8WKDE80XLOPVZ5281GU","A68J20100VW4W","3GVPRXWRPHGYHD0HW29VLS36FVC7I4","","<img src=""img/set1/S3.jpg"" width=""540"" height = ""360"" style=""border:16px solid orange"">","null","","","","","","","","","",""
"null","","html-keyboard-response","267","270709","0.0-267.0","3RXPCZQMQQX8WKDE80XLOPVZ5281GU","A68J20100VW4W","3GVPRXWRPHGYHD0HW29VLS36FVC7I4","","","null","","","","","","","","","",""
"704.3000000119209","","image-keyboard-response","268","271418","0.0-268.0","3RXPCZQMQQX8WKDE80XLOPVZ5281GU","A68J20100VW4W","3GVPRXWRPHGYHD0HW29VLS36FVC7I4","","img/set1/S4.jpg","74","4","structured_normal","74","structured_normal,structured_incentive,structured_load,random","1,2,4,2,2,3","1,3,4,2","true","","",""
"null","","html-keyboard-response","269","271787","0.0-269.0","3RXPCZQMQQX8WKDE80XLOPVZ5281GU","A68J20100VW4W","3GVPRXWRPHGYHD0HW29VLS36FVC7I4","","<img src=""img/set1/S4.jpg"" width=""540"" height = ""360"" style=""border:16px solid orange"">","null","","","","","","","","","",""
"null","","html-keyboard-response","270","272006","0.0-270.0","3RXPCZQMQQX8WKDE80XLOPVZ5281GU","A68J20100VW4W","3GVPRXWRPHGYHD0HW29VLS36FVC7I4","","","null","","","","","","","","","",""
"690.3000000119209","","image-keyboard-response","271","272699","0.0-271.0","3RXPCZQMQQX8WKDE80XLOPVZ5281GU","A68J20100VW4W","3GVPRXWRPHGYHD0HW29VLS36FVC7I4","","img/set1/S1.jpg","83","1","structured_normal","83","structured_normal,structured_incentive,structured_load,random","1,2,4,2,2,3","1,3,4,2","true","","",""
"null","","html-keyboard-response","272","273064","0.0-272.0","3RXPCZQMQQX8WKDE80XLOPVZ5281GU","A68J20100VW4W","3GVPRXWRPHGYHD0HW29VLS36FVC7I4","","<img src=""img/set1/S1.jpg"" width=""540"" height = ""360"" style=""border:16px solid orange"">","null","","","","","","","","","",""
"null","","html-keyboard-response","273","273281","0.0-273.0","3RXPCZQMQQX8WKDE80XLOPVZ5281GU","A68J20100VW4W","3GVPRXWRPHGYHD0HW29VLS36FVC7I4","","","null","","","","","","","","","",""
"601.6999999880791","","image-keyboard-response","274","273887","0.0-274.0","3RXPCZQMQQX8WKDE80XLOPVZ5281GU","A68J20100VW4W","3GVPRXWRPHGYHD0HW29VLS36FVC7I4","","img/set1/S2.jpg","68","2","structured_normal","68","structured_normal,structured_incentive,structured_load,random","1,2,4,2,2,3","1,3,4,2","true","","",""
"null","","html-keyboard-response","275","274252","0.0-275.0","3RXPCZQMQQX8WKDE80XLOPVZ5281GU","A68J20100VW4W","3GVPRXWRPHGYHD0HW29VLS36FVC7I4","","<img src=""img/set1/S2.jpg"" width=""540"" height = ""360"" style=""border:16px solid orange"">","null","","","","","","","","","",""
"null","","html-keyboard-response","276","274464","0.0-276.0","3RXPCZQMQQX8WKDE80XLOPVZ5281GU","A68J20100VW4W","3GVPRXWRPHGYHD0HW29VLS36FVC7I4","","","null","","","","","","","","","",""
"1224.8999999761581","","image-keyboard-response","277","275692","0.0-277.0","3RXPCZQMQQX8WKDE80XLOPVZ5281GU","A68J20100VW4W","3GVPRXWRPHGYHD0HW29VLS36FVC7I4","","img/set1/S1.jpg","72","1","structured_normal","83","structured_normal,structured_incentive,structured_load,random","1,2,4,2,2,3","1,3,4,2","false","","",""
"null","","html-keyboard-response","278","276056","0.0-278.0","3RXPCZQMQQX8WKDE80XLOPVZ5281GU","A68J20100VW4W","3GVPRXWRPHGYHD0HW29VLS36FVC7I4","","<img src=""img/set1/S1.jpg"" width=""540"" height = ""360"">","null","","","","","","","","","",""
"null","","html-keyboard-response","279","276266","0.0-279.0","3RXPCZQMQQX8WKDE80XLOPVZ5281GU","A68J20100VW4W","3GVPRXWRPHGYHD0HW29VLS36FVC7I4","","","null","","","","","","","","","",""
"1087.7999999523163","","image-keyboard-response","280","277358","0.0-280.0","3RXPCZQMQQX8WKDE80XLOPVZ5281GU","A68J20100VW4W","3GVPRXWRPHGYHD0HW29VLS36FVC7I4","","img/set1/S2.jpg","68","2","structured_normal","68","structured_normal,structured_incentive,structured_load,random","1,2,4,2,2,3","1,3,4,2","true","","",""
"null","","html-keyboard-response","281","277726","0.0-281.0","3RXPCZQMQQX8WKDE80XLOPVZ5281GU","A68J20100VW4W","3GVPRXWRPHGYHD0HW29VLS36FVC7I4","","<img src=""img/set1/S2.jpg"" width=""540"" height = ""360"" style=""border:16px solid orange"">","null","","","","","","","","","",""
"null","","html-keyboard-response","282","277933","0.0-282.0","3RXPCZQMQQX8WKDE80XLOPVZ5281GU","A68J20100VW4W","3GVPRXWRPHGYHD0HW29VLS36FVC7I4","","","null","","","","","","","","","",""
"534.5","","image-keyboard-response","283","278470","0.0-283.0","3RXPCZQMQQX8WKDE80XLOPVZ5281GU","A68J20100VW4W","3GVPRXWRPHGYHD0HW29VLS36FVC7I4","","img/set1/S1.jpg","83","1","structured_normal","83","structured_normal,structured_incentive,structured_load,random","1,2,4,2,2,3","1,3,4,2","true","","",""
"null","","html-keyboard-response","284","278826","0.0-284.0","3RXPCZQMQQX8WKDE80XLOPVZ5281GU","A68J20100VW4W","3GVPRXWRPHGYHD0HW29VLS36FVC7I4","","<img src=""img/set1/S1.jpg"" width=""540"" height = ""360"" style=""border:16px solid orange"">","null","","","","","","","","","",""
"null","","html-keyboard-response","285","279032","0.0-285.0","3RXPCZQMQQX8WKDE80XLOPVZ5281GU","A68J20100VW4W","3GVPRXWRPHGYHD0HW29VLS36FVC7I4","","","null","","","","","","","","","",""
"914","","image-keyboard-response","286","279950","0.0-286.0","3RXPCZQMQQX8WKDE80XLOPVZ5281GU","A68J20100VW4W","3GVPRXWRPHGYHD0HW29VLS36FVC7I4","","img/set1/S2.jpg","68","2","structured_normal","68","structured_normal,structured_incentive,structured_load,random","1,2,4,2,2,3","1,3,4,2","true","","",""
"null","","html-keyboard-response","287","280304","0.0-287.0","3RXPCZQMQQX8WKDE80XLOPVZ5281GU","A68J20100VW4W","3GVPRXWRPHGYHD0HW29VLS36FVC7I4","","<img src=""img/set1/S2.jpg"" width=""540"" height = ""360"" style=""border:16px solid orange"">","null","","","","","","","","","",""
"null","","html-keyboard-response","288","280510","0.0-288.0","3RXPCZQMQQX8WKDE80XLOPVZ5281GU","A68J20100VW4W","3GVPRXWRPHGYHD0HW29VLS36FVC7I4","","","null","","","","","","","","","",""
"740.1000000238419","","image-keyboard-response","289","281253","0.0-289.0","3RXPCZQMQQX8WKDE80XLOPVZ5281GU","A68J20100VW4W","3GVPRXWRPHGYHD0HW29VLS36FVC7I4","","img/set1/S3.jpg","72","3","structured_normal","72","structured_normal,structured_incentive,structured_load,random","1,2,4,2,2,3","1,3,4,2","true","","",""
"null","","html-keyboard-response","290","281622","0.0-290.0","3RXPCZQMQQX8WKDE80XLOPVZ5281GU","A68J20100VW4W","3GVPRXWRPHGYHD0HW29VLS36FVC7I4","","<img src=""img/set1/S3.jpg"" width=""540"" height = ""360"" style=""border:16px solid orange"">","null","","","","","","","","","",""
"null","","html-keyboard-response","291","281838","0.0-291.0","3RXPCZQMQQX8WKDE80XLOPVZ5281GU","A68J20100VW4W","3GVPRXWRPHGYHD0HW29VLS36FVC7I4","","","null","","","","","","","","","",""
"556.7000000476837","","image-keyboard-response","292","282399","0.0-292.0","3RXPCZQMQQX8WKDE80XLOPVZ5281GU","A68J20100VW4W","3GVPRXWRPHGYHD0HW29VLS36FVC7I4","","img/set1/S3.jpg","72","3","structured_normal","72","structured_normal,structured_incentive,structured_load,random","1,2,4,2,2,3","1,3,4,2","true","","",""
"null","","html-keyboard-response","293","282756","0.0-293.0","3RXPCZQMQQX8WKDE80XLOPVZ5281GU","A68J20100VW4W","3GVPRXWRPHGYHD0HW29VLS36FVC7I4","","<img src=""img/set1/S3.jpg"" width=""540"" height = ""360"" style=""border:16px solid orange"">","null","","","","","","","","","",""
"null","","html-keyboard-response","294","282967","0.0-294.0","3RXPCZQMQQX8WKDE80XLOPVZ5281GU","A68J20100VW4W","3GVPRXWRPHGYHD0HW29VLS36FVC7I4","","","null","","","","","","","","","",""
"642.5999999642372","","image-keyboard-response","295","283613","0.0-295.0","3RXPCZQMQQX8WKDE80XLOPVZ5281GU","A68J20100VW4W","3GVPRXWRPHGYHD0HW29VLS36FVC7I4","","img/set1/S4.jpg","74","4","structured_normal","74","structured_normal,structured_incentive,structured_load,random","1,2,4,2,2,3","1,3,4,2","true","","",""
"null","","html-keyboard-response","296","283977","0.0-296.0","3RXPCZQMQQX8WKDE80XLOPVZ5281GU","A68J20100VW4W","3GVPRXWRPHGYHD0HW29VLS36FVC7I4","","<img src=""img/set1/S4.jpg"" width=""540"" height = ""360"" style=""border:16px solid orange"">","null","","","","","","","","","",""
"null","","html-keyboard-response","297","284189","0.0-297.0","3RXPCZQMQQX8WKDE80XLOPVZ5281GU","A68J20100VW4W","3GVPRXWRPHGYHD0HW29VLS36FVC7I4","","","null","","","","","","","","","",""
"849.8000000119209","","image-keyboard-response","298","285046","0.0-298.0","3RXPCZQMQQX8WKDE80XLOPVZ5281GU","A68J20100VW4W","3GVPRXWRPHGYHD0HW29VLS36FVC7I4","","img/set1/S3.jpg","72","3","structured_normal","72","structured_normal,structured_incentive,structured_load,random","1,2,4,2,2,3","1,3,4,2","true","","",""
"null","","html-keyboard-response","299","285444","0.0-299.0","3RXPCZQMQQX8WKDE80XLOPVZ5281GU","A68J20100VW4W","3GVPRXWRPHGYHD0HW29VLS36FVC7I4","","<img src=""img/set1/S3.jpg"" width=""540"" height = ""360"" style=""border:16px solid orange"">","null","","","","","","","","","",""
"null","","html-keyboard-response","300","285660","0.0-300.0","3RXPCZQMQQX8WKDE80XLOPVZ5281GU","A68J20100VW4W","3GVPRXWRPHGYHD0HW29VLS36FVC7I4","","","null","","","","","","","","","",""
"710.8999999761581","","image-keyboard-response","301","286375","0.0-301.0","3RXPCZQMQQX8WKDE80XLOPVZ5281GU","A68J20100VW4W","3GVPRXWRPHGYHD0HW29VLS36FVC7I4","","img/set1/S1.jpg","83","1","structured_normal","83","structured_normal,structured_incentive,structured_load,random","1,2,4,2,2,3","1,3,4,2","true","","",""
"null","","html-keyboard-response","302","286741","0.0-302.0","3RXPCZQMQQX8WKDE80XLOPVZ5281GU","A68J20100VW4W","3GVPRXWRPHGYHD0HW29VLS36FVC7I4","","<img src=""img/set1/S1.jpg"" width=""540"" height = ""360"" style=""border:16px solid orange"">","null","","","","","","","","","",""
"null","","html-keyboard-response","303","286953","0.0-303.0","3RXPCZQMQQX8WKDE80XLOPVZ5281GU","A68J20100VW4W","3GVPRXWRPHGYHD0HW29VLS36FVC7I4","","","null","","","","","","","","","",""
"711","","image-keyboard-response","304","287667","0.0-304.0","3RXPCZQMQQX8WKDE80XLOPVZ5281GU","A68J20100VW4W","3GVPRXWRPHGYHD0HW29VLS36FVC7I4","","img/set1/S2.jpg","68","2","structured_normal","68","structured_normal,structured_incentive,structured_load,random","1,2,4,2,2,3","1,3,4,2","true","","",""
"null","","html-keyboard-response","305","288030","0.0-305.0","3RXPCZQMQQX8WKDE80XLOPVZ5281GU","A68J20100VW4W","3GVPRXWRPHGYHD0HW29VLS36FVC7I4","","<img src=""img/set1/S2.jpg"" width=""540"" height = ""360"" style=""border:16px solid orange"">","null","","","","","","","","","",""
"null","","html-keyboard-response","306","288248","0.0-306.0","3RXPCZQMQQX8WKDE80XLOPVZ5281GU","A68J20100VW4W","3GVPRXWRPHGYHD0HW29VLS36FVC7I4","","","null","","","","","","","","","",""
"848.8000000119209","","image-keyboard-response","307","289100","0.0-307.0","3RXPCZQMQQX8WKDE80XLOPVZ5281GU","A68J20100VW4W","3GVPRXWRPHGYHD0HW29VLS36FVC7I4","","img/set1/S1.jpg","83","1","structured_normal","83","structured_normal,structured_incentive,structured_load,random","1,2,4,2,2,3","1,3,4,2","true","","",""
"null","","html-keyboard-response","308","289456","0.0-308.0","3RXPCZQMQQX8WKDE80XLOPVZ5281GU","A68J20100VW4W","3GVPRXWRPHGYHD0HW29VLS36FVC7I4","","<img src=""img/set1/S1.jpg"" width=""540"" height = ""360"" style=""border:16px solid orange"">","null","","","","","","","","","",""
"null","","html-keyboard-response","309","289666","0.0-309.0","3RXPCZQMQQX8WKDE80XLOPVZ5281GU","A68J20100VW4W","3GVPRXWRPHGYHD0HW29VLS36FVC7I4","","","null","","","","","","","","","",""
"622.5","","image-keyboard-response","310","290291","0.0-310.0","3RXPCZQMQQX8WKDE80XLOPVZ5281GU","A68J20100VW4W","3GVPRXWRPHGYHD0HW29VLS36FVC7I4","","img/set1/S4.jpg","74","4","structured_normal","74","structured_normal,structured_incentive,structured_load,random","1,2,4,2,2,3","1,3,4,2","true","","",""
"null","","html-keyboard-response","311","290656","0.0-311.0","3RXPCZQMQQX8WKDE80XLOPVZ5281GU","A68J20100VW4W","3GVPRXWRPHGYHD0HW29VLS36FVC7I4","","<img src=""img/set1/S4.jpg"" width=""540"" height = ""360"" style=""border:16px solid orange"">","null","","","","","","","","","",""
"null","","html-keyboard-response","312","290861","0.0-312.0","3RXPCZQMQQX8WKDE80XLOPVZ5281GU","A68J20100VW4W","3GVPRXWRPHGYHD0HW29VLS36FVC7I4","","","null","","","","","","","","","",""
"701.1000000238419","","image-keyboard-response","313","291566","0.0-313.0","3RXPCZQMQQX8WKDE80XLOPVZ5281GU","A68J20100VW4W","3GVPRXWRPHGYHD0HW29VLS36FVC7I4","","img/set1/S3.jpg","72","3","structured_normal","72","structured_normal,structured_incentive,structured_load,random","1,2,4,2,2,3","1,3,4,2","true","","",""
"null","","html-keyboard-response","314","291929","0.0-314.0","3RXPCZQMQQX8WKDE80XLOPVZ5281GU","A68J20100VW4W","3GVPRXWRPHGYHD0HW29VLS36FVC7I4","","<img src=""img/set1/S3.jpg"" width=""540"" height = ""360"" style=""border:16px solid orange"">","null","","","","","","","","","",""
"null","","html-keyboard-response","315","292136","0.0-315.0","3RXPCZQMQQX8WKDE80XLOPVZ5281GU","A68J20100VW4W","3GVPRXWRPHGYHD0HW29VLS36FVC7I4","","","null","","","","","","","","","",""
"490.10000002384186","","image-keyboard-response","316","292638","0.0-316.0","3RXPCZQMQQX8WKDE80XLOPVZ5281GU","A68J20100VW4W","3GVPRXWRPHGYHD0HW29VLS36FVC7I4","","img/set1/S3.jpg","72","3","structured_normal","72","structured_normal,structured_incentive,structured_load,random","1,2,4,2,2,3","1,3,4,2","true","","",""
"null","","html-keyboard-response","317","293034","0.0-317.0","3RXPCZQMQQX8WKDE80XLOPVZ5281GU","A68J20100VW4W","3GVPRXWRPHGYHD0HW29VLS36FVC7I4","","<img src=""img/set1/S3.jpg"" width=""540"" height = ""360"" style=""border:16px solid orange"">","null","","","","","","","","","",""
"null","","html-keyboard-response","318","293247","0.0-318.0","3RXPCZQMQQX8WKDE80XLOPVZ5281GU","A68J20100VW4W","3GVPRXWRPHGYHD0HW29VLS36FVC7I4","","","null","","","","","","","","","",""
"716.1000000238419","","image-keyboard-response","319","293966","0.0-319.0","3RXPCZQMQQX8WKDE80XLOPVZ5281GU","A68J20100VW4W","3GVPRXWRPHGYHD0HW29VLS36FVC7I4","","img/set1/S1.jpg","83","1","structured_normal","83","structured_normal,structured_incentive,structured_load,random","1,2,4,2,2,3","1,3,4,2","true","","",""
"null","","html-keyboard-response","320","294326","0.0-320.0","3RXPCZQMQQX8WKDE80XLOPVZ5281GU","A68J20100VW4W","3GVPRXWRPHGYHD0HW29VLS36FVC7I4","","<img src=""img/set1/S1.jpg"" width=""540"" height = ""360"" style=""border:16px solid orange"">","null","","","","","","","","","",""
"null","","html-keyboard-response","321","294533","0.0-321.0","3RXPCZQMQQX8WKDE80XLOPVZ5281GU","A68J20100VW4W","3GVPRXWRPHGYHD0HW29VLS36FVC7I4","","","null","","","","","","","","","",""
"459.39999997615814","","image-keyboard-response","322","294996","0.0-322.0","3RXPCZQMQQX8WKDE80XLOPVZ5281GU","A68J20100VW4W","3GVPRXWRPHGYHD0HW29VLS36FVC7I4","","img/set1/S2.jpg","68","2","structured_normal","68","structured_normal,structured_incentive,structured_load,random","1,2,4,2,2,3","1,3,4,2","true","","",""
"null","","html-keyboard-response","323","295349","0.0-323.0","3RXPCZQMQQX8WKDE80XLOPVZ5281GU","A68J20100VW4W","3GVPRXWRPHGYHD0HW29VLS36FVC7I4","","<img src=""img/set1/S2.jpg"" width=""540"" height = ""360"" style=""border:16px solid orange"">","null","","","","","","","","","",""
"null","","html-keyboard-response","324","295558","0.0-324.0","3RXPCZQMQQX8WKDE80XLOPVZ5281GU","A68J20100VW4W","3GVPRXWRPHGYHD0HW29VLS36FVC7I4","","","null","","","","","","","","","",""
"404.7000000476837","","image-keyboard-response","325","295968","0.0-325.0","3RXPCZQMQQX8WKDE80XLOPVZ5281GU","A68J20100VW4W","3GVPRXWRPHGYHD0HW29VLS36FVC7I4","","img/set1/S3.jpg","72","3","structured_normal","72","structured_normal,structured_incentive,structured_load,random","1,2,4,2,2,3","1,3,4,2","true","","",""
"null","","html-keyboard-response","326","296326","0.0-326.0","3RXPCZQMQQX8WKDE80XLOPVZ5281GU","A68J20100VW4W","3GVPRXWRPHGYHD0HW29VLS36FVC7I4","","<img src=""img/set1/S3.jpg"" width=""540"" height = ""360"" style=""border:16px solid orange"">","null","","","","","","","","","",""
"null","","html-keyboard-response","327","296532","0.0-327.0","3RXPCZQMQQX8WKDE80XLOPVZ5281GU","A68J20100VW4W","3GVPRXWRPHGYHD0HW29VLS36FVC7I4","","","null","","","","","","","","","",""
"405.60000002384186","","image-keyboard-response","328","296940","0.0-328.0","3RXPCZQMQQX8WKDE80XLOPVZ5281GU","A68J20100VW4W","3GVPRXWRPHGYHD0HW29VLS36FVC7I4","","img/set1/S4.jpg","74","4","structured_normal","74","structured_normal,structured_incentive,structured_load,random","1,2,4,2,2,3","1,3,4,2","true","","",""
"null","","html-keyboard-response","329","297308","0.0-329.0","3RXPCZQMQQX8WKDE80XLOPVZ5281GU","A68J20100VW4W","3GVPRXWRPHGYHD0HW29VLS36FVC7I4","","<img src=""img/set1/S4.jpg"" width=""540"" height = ""360"" style=""border:16px solid orange"">","null","","","","","","","","","",""
"null","","html-keyboard-response","330","297515","0.0-330.0","3RXPCZQMQQX8WKDE80XLOPVZ5281GU","A68J20100VW4W","3GVPRXWRPHGYHD0HW29VLS36FVC7I4","","","null","","","","","","","","","",""
"630.8999999761581","","image-keyboard-response","331","298148","0.0-331.0","3RXPCZQMQQX8WKDE80XLOPVZ5281GU","A68J20100VW4W","3GVPRXWRPHGYHD0HW29VLS36FVC7I4","","img/set1/S1.jpg","83","1","structured_normal","83","structured_normal,structured_incentive,structured_load,random","1,2,4,2,2,3","1,3,4,2","true","","",""
"null","","html-keyboard-response","332","298509","0.0-332.0","3RXPCZQMQQX8WKDE80XLOPVZ5281GU","A68J20100VW4W","3GVPRXWRPHGYHD0HW29VLS36FVC7I4","","<img src=""img/set1/S1.jpg"" width=""540"" height = ""360"" style=""border:16px solid orange"">","null","","","","","","","","","",""
"null","","html-keyboard-response","333","298725","0.0-333.0","3RXPCZQMQQX8WKDE80XLOPVZ5281GU","A68J20100VW4W","3GVPRXWRPHGYHD0HW29VLS36FVC7I4","","","null","","","","","","","","","",""
"661.8000000119209","","image-keyboard-response","334","299392","0.0-334.0","3RXPCZQMQQX8WKDE80XLOPVZ5281GU","A68J20100VW4W","3GVPRXWRPHGYHD0HW29VLS36FVC7I4","","img/set1/S4.jpg","74","4","structured_normal","74","structured_normal,structured_incentive,structured_load,random","1,2,4,2,2,3","1,3,4,2","true","","",""
"null","","html-keyboard-response","335","299755","0.0-335.0","3RXPCZQMQQX8WKDE80XLOPVZ5281GU","A68J20100VW4W","3GVPRXWRPHGYHD0HW29VLS36FVC7I4","","<img src=""img/set1/S4.jpg"" width=""540"" height = ""360"" style=""border:16px solid orange"">","null","","","","","","","","","",""
"null","","html-keyboard-response","336","299972","0.0-336.0","3RXPCZQMQQX8WKDE80XLOPVZ5281GU","A68J20100VW4W","3GVPRXWRPHGYHD0HW29VLS36FVC7I4","","","null","","","","","","","","","",""
"564.9000000357628","","image-keyboard-response","337","300540","0.0-337.0","3RXPCZQMQQX8WKDE80XLOPVZ5281GU","A68J20100VW4W","3GVPRXWRPHGYHD0HW29VLS36FVC7I4","","img/set1/S2.jpg","68","2","structured_normal","68","structured_normal,structured_incentive,structured_load,random","1,2,4,2,2,3","1,3,4,2","true","","",""
"null","","html-keyboard-response","338","300900","0.0-338.0","3RXPCZQMQQX8WKDE80XLOPVZ5281GU","A68J20100VW4W","3GVPRXWRPHGYHD0HW29VLS36FVC7I4","","<img src=""img/set1/S2.jpg"" width=""540"" height = ""360"" style=""border:16px solid orange"">","null","","","","","","","","","",""
"null","","html-keyboard-response","339","301117","0.0-339.0","3RXPCZQMQQX8WKDE80XLOPVZ5281GU","A68J20100VW4W","3GVPRXWRPHGYHD0HW29VLS36FVC7I4","","","null","","","","","","","","","",""
"743.7000000476837","","image-keyboard-response","340","301863","0.0-340.0","3RXPCZQMQQX8WKDE80XLOPVZ5281GU","A68J20100VW4W","3GVPRXWRPHGYHD0HW29VLS36FVC7I4","","img/set1/S4.jpg","74","4","structured_normal","74","structured_normal,structured_incentive,structured_load,random","1,2,4,2,2,3","1,3,4,2","true","","",""
"null","","html-keyboard-response","341","302225","0.0-341.0","3RXPCZQMQQX8WKDE80XLOPVZ5281GU","A68J20100VW4W","3GVPRXWRPHGYHD0HW29VLS36FVC7I4","","<img src=""img/set1/S4.jpg"" width=""540"" height = ""360"" style=""border:16px solid orange"">","null","","","","","","","","","",""
"null","","html-keyboard-response","342","302448","0.0-342.0","3RXPCZQMQQX8WKDE80XLOPVZ5281GU","A68J20100VW4W","3GVPRXWRPHGYHD0HW29VLS36FVC7I4","","","null","","","","","","","","","",""
"546.6999999880791","","image-keyboard-response","343","302999","0.0-343.0","3RXPCZQMQQX8WKDE80XLOPVZ5281GU","A68J20100VW4W","3GVPRXWRPHGYHD0HW29VLS36FVC7I4","","img/set1/S4.jpg","74","4","structured_normal","74","structured_normal,structured_incentive,structured_load,random","1,2,4,2,2,3","1,3,4,2","true","","",""
"null","","html-keyboard-response","344","303356","0.0-344.0","3RXPCZQMQQX8WKDE80XLOPVZ5281GU","A68J20100VW4W","3GVPRXWRPHGYHD0HW29VLS36FVC7I4","","<img src=""img/set1/S4.jpg"" width=""540"" height = ""360"" style=""border:16px solid orange"">","null","","","","","","","","","",""
"null","","html-keyboard-response","345","303574","0.0-345.0","3RXPCZQMQQX8WKDE80XLOPVZ5281GU","A68J20100VW4W","3GVPRXWRPHGYHD0HW29VLS36FVC7I4","","","null","","","","","","","","","",""
"710.3000000119209","","image-keyboard-response","346","304287","0.0-346.0","3RXPCZQMQQX8WKDE80XLOPVZ5281GU","A68J20100VW4W","3GVPRXWRPHGYHD0HW29VLS36FVC7I4","","img/set1/S3.jpg","72","3","structured_normal","72","structured_normal,structured_incentive,structured_load,random","1,2,4,2,2,3","1,3,4,2","true","","",""
"null","","html-keyboard-response","347","304659","0.0-347.0","3RXPCZQMQQX8WKDE80XLOPVZ5281GU","A68J20100VW4W","3GVPRXWRPHGYHD0HW29VLS36FVC7I4","","<img src=""img/set1/S3.jpg"" width=""540"" height = ""360"" style=""border:16px solid orange"">","null","","","","","","","","","",""
"null","","html-keyboard-response","348","304866","0.0-348.0","3RXPCZQMQQX8WKDE80XLOPVZ5281GU","A68J20100VW4W","3GVPRXWRPHGYHD0HW29VLS36FVC7I4","","","null","","","","","","","","","",""
"1136.5999999642372","","image-keyboard-response","349","306006","0.0-349.0","3RXPCZQMQQX8WKDE80XLOPVZ5281GU","A68J20100VW4W","3GVPRXWRPHGYHD0HW29VLS36FVC7I4","","img/set1/S2.jpg","68","2","structured_normal","68","structured_normal,structured_incentive,structured_load,random","1,2,4,2,2,3","1,3,4,2","true","","",""
"null","","html-keyboard-response","350","306364","0.0-350.0","3RXPCZQMQQX8WKDE80XLOPVZ5281GU","A68J20100VW4W","3GVPRXWRPHGYHD0HW29VLS36FVC7I4","","<img src=""img/set1/S2.jpg"" width=""540"" height = ""360"" style=""border:16px solid orange"">","null","","","","","","","","","",""
"null","","html-keyboard-response","351","306582","0.0-351.0","3RXPCZQMQQX8WKDE80XLOPVZ5281GU","A68J20100VW4W","3GVPRXWRPHGYHD0HW29VLS36FVC7I4","","","null","","","","","","","","","",""
"795.1999999880791","","image-keyboard-response","352","307380","0.0-352.0","3RXPCZQMQQX8WKDE80XLOPVZ5281GU","A68J20100VW4W","3GVPRXWRPHGYHD0HW29VLS36FVC7I4","","img/set1/S1.jpg","83","1","structured_normal","83","structured_normal,structured_incentive,structured_load,random","1,2,4,2,2,3","1,3,4,2","true","","",""
"null","","html-keyboard-response","353","307748","0.0-353.0","3RXPCZQMQQX8WKDE80XLOPVZ5281GU","A68J20100VW4W","3GVPRXWRPHGYHD0HW29VLS36FVC7I4","","<img src=""img/set1/S1.jpg"" width=""540"" height = ""360"" style=""border:16px solid orange"">","null","","","","","","","","","",""
"null","","html-keyboard-response","354","307965","0.0-354.0","3RXPCZQMQQX8WKDE80XLOPVZ5281GU","A68J20100VW4W","3GVPRXWRPHGYHD0HW29VLS36FVC7I4","","","null","","","","","","","","","",""
"679","","image-keyboard-response","355","308649","0.0-355.0","3RXPCZQMQQX8WKDE80XLOPVZ5281GU","A68J20100VW4W","3GVPRXWRPHGYHD0HW29VLS36FVC7I4","","img/set1/S4.jpg","74","4","structured_normal","74","structured_normal,structured_incentive,structured_load,random","1,2,4,2,2,3","1,3,4,2","true","","",""
"null","","html-keyboard-response","356","309010","0.0-356.0","3RXPCZQMQQX8WKDE80XLOPVZ5281GU","A68J20100VW4W","3GVPRXWRPHGYHD0HW29VLS36FVC7I4","","<img src=""img/set1/S4.jpg"" width=""540"" height = ""360"" style=""border:16px solid orange"">","null","","","","","","","","","",""
"null","","html-keyboard-response","357","309228","0.0-357.0","3RXPCZQMQQX8WKDE80XLOPVZ5281GU","A68J20100VW4W","3GVPRXWRPHGYHD0HW29VLS36FVC7I4","","","null","","","","","","","","","",""
"647.6000000238419","","image-keyboard-response","358","309879","0.0-358.0","3RXPCZQMQQX8WKDE80XLOPVZ5281GU","A68J20100VW4W","3GVPRXWRPHGYHD0HW29VLS36FVC7I4","","img/set1/S4.jpg","74","4","structured_normal","74","structured_normal,structured_incentive,structured_load,random","1,2,4,2,2,3","1,3,4,2","true","","",""
"null","","html-keyboard-response","359","310237","0.0-359.0","3RXPCZQMQQX8WKDE80XLOPVZ5281GU","A68J20100VW4W","3GVPRXWRPHGYHD0HW29VLS36FVC7I4","","<img src=""img/set1/S4.jpg"" width=""540"" height = ""360"" style=""border:16px solid orange"">","null","","","","","","","","","",""
"null","","html-keyboard-response","360","310449","0.0-360.0","3RXPCZQMQQX8WKDE80XLOPVZ5281GU","A68J20100VW4W","3GVPRXWRPHGYHD0HW29VLS36FVC7I4","","","null","","","","","","","","","",""
"691","","image-keyboard-response","361","311142","0.0-361.0","3RXPCZQMQQX8WKDE80XLOPVZ5281GU","A68J20100VW4W","3GVPRXWRPHGYHD0HW29VLS36FVC7I4","","img/set1/S2.jpg","68","2","structured_normal","68","structured_normal,structured_incentive,structured_load,random","1,2,4,2,2,3","1,3,4,2","true","","",""
"null","","html-keyboard-response","362","311504","0.0-362.0","3RXPCZQMQQX8WKDE80XLOPVZ5281GU","A68J20100VW4W","3GVPRXWRPHGYHD0HW29VLS36FVC7I4","","<img src=""img/set1/S2.jpg"" width=""540"" height = ""360"" style=""border:16px solid orange"">","null","","","","","","","","","",""
"null","","html-keyboard-response","363","311715","0.0-363.0","3RXPCZQMQQX8WKDE80XLOPVZ5281GU","A68J20100VW4W","3GVPRXWRPHGYHD0HW29VLS36FVC7I4","","","null","","","","","","","","","",""
"773.7999999523163","","image-keyboard-response","364","312492","0.0-364.0","3RXPCZQMQQX8WKDE80XLOPVZ5281GU","A68J20100VW4W","3GVPRXWRPHGYHD0HW29VLS36FVC7I4","","img/set1/S4.jpg","74","4","structured_normal","74","structured_normal,structured_incentive,structured_load,random","1,2,4,2,2,3","1,3,4,2","true","","",""
"null","","html-keyboard-response","365","312860","0.0-365.0","3RXPCZQMQQX8WKDE80XLOPVZ5281GU","A68J20100VW4W","3GVPRXWRPHGYHD0HW29VLS36FVC7I4","","<img src=""img/set1/S4.jpg"" width=""540"" height = ""360"" style=""border:16px solid orange"">","null","","","","","","","","","",""
"null","","html-keyboard-response","366","313067","0.0-366.0","3RXPCZQMQQX8WKDE80XLOPVZ5281GU","A68J20100VW4W","3GVPRXWRPHGYHD0HW29VLS36FVC7I4","","","null","","","","","","","","","",""
"888.6000000238419","","image-keyboard-response","367","313976","0.0-367.0","3RXPCZQMQQX8WKDE80XLOPVZ5281GU","A68J20100VW4W","3GVPRXWRPHGYHD0HW29VLS36FVC7I4","","img/set1/S3.jpg","72","3","structured_normal","72","structured_normal,structured_incentive,structured_load,random","1,2,4,2,2,3","1,3,4,2","true","","",""
"null","","html-keyboard-response","368","314345","0.0-368.0","3RXPCZQMQQX8WKDE80XLOPVZ5281GU","A68J20100VW4W","3GVPRXWRPHGYHD0HW29VLS36FVC7I4","","<img src=""img/set1/S3.jpg"" width=""540"" height = ""360"" style=""border:16px solid orange"">","null","","","","","","","","","",""
"null","","html-keyboard-response","369","314551","0.0-369.0","3RXPCZQMQQX8WKDE80XLOPVZ5281GU","A68J20100VW4W","3GVPRXWRPHGYHD0HW29VLS36FVC7I4","","","null","","","","","","","","","",""
"537.5999999642372","","image-keyboard-response","370","315092","0.0-370.0","3RXPCZQMQQX8WKDE80XLOPVZ5281GU","A68J20100VW4W","3GVPRXWRPHGYHD0HW29VLS36FVC7I4","","img/set1/S3.jpg","72","3","structured_normal","72","structured_normal,structured_incentive,structured_load,random","1,2,4,2,2,3","1,3,4,2","true","","",""
"null","","html-keyboard-response","371","315458","0.0-371.0","3RXPCZQMQQX8WKDE80XLOPVZ5281GU","A68J20100VW4W","3GVPRXWRPHGYHD0HW29VLS36FVC7I4","","<img src=""img/set1/S3.jpg"" width=""540"" height = ""360"" style=""border:16px solid orange"">","null","","","","","","","","","",""
"null","","html-keyboard-response","372","315665","0.0-372.0","3RXPCZQMQQX8WKDE80XLOPVZ5281GU","A68J20100VW4W","3GVPRXWRPHGYHD0HW29VLS36FVC7I4","","","null","","","","","","","","","",""
"712.5","","image-keyboard-response","373","316380","0.0-373.0","3RXPCZQMQQX8WKDE80XLOPVZ5281GU","A68J20100VW4W","3GVPRXWRPHGYHD0HW29VLS36FVC7I4","","img/set1/S4.jpg","74","4","structured_normal","74","structured_normal,structured_incentive,structured_load,random","1,2,4,2,2,3","1,3,4,2","true","","",""
"null","","html-keyboard-response","374","316739","0.0-374.0","3RXPCZQMQQX8WKDE80XLOPVZ5281GU","A68J20100VW4W","3GVPRXWRPHGYHD0HW29VLS36FVC7I4","","<img src=""img/set1/S4.jpg"" width=""540"" height = ""360"" style=""border:16px solid orange"">","null","","","","","","","","","",""
"null","","html-keyboard-response","375","316949","0.0-375.0","3RXPCZQMQQX8WKDE80XLOPVZ5281GU","A68J20100VW4W","3GVPRXWRPHGYHD0HW29VLS36FVC7I4","","","null","","","","","","","","","",""
"661.3000000119209","","image-keyboard-response","376","317614","0.0-376.0","3RXPCZQMQQX8WKDE80XLOPVZ5281GU","A68J20100VW4W","3GVPRXWRPHGYHD0HW29VLS36FVC7I4","","img/set1/S1.jpg","83","1","structured_normal","83","structured_normal,structured_incentive,structured_load,random","1,2,4,2,2,3","1,3,4,2","true","","",""
"null","","html-keyboard-response","377","317982","0.0-377.0","3RXPCZQMQQX8WKDE80XLOPVZ5281GU","A68J20100VW4W","3GVPRXWRPHGYHD0HW29VLS36FVC7I4","","<img src=""img/set1/S1.jpg"" width=""540"" height = ""360"" style=""border:16px solid orange"">","null","","","","","","","","","",""
"null","","html-keyboard-response","378","318208","0.0-378.0","3RXPCZQMQQX8WKDE80XLOPVZ5281GU","A68J20100VW4W","3GVPRXWRPHGYHD0HW29VLS36FVC7I4","","","null","","","","","","","","","",""
"754.6000000238419","","image-keyboard-response","379","318967","0.0-379.0","3RXPCZQMQQX8WKDE80XLOPVZ5281GU","A68J20100VW4W","3GVPRXWRPHGYHD0HW29VLS36FVC7I4","","img/set1/S4.jpg","74","4","structured_normal","74","structured_normal,structured_incentive,structured_load,random","1,2,4,2,2,3","1,3,4,2","true","","",""
"null","","html-keyboard-response","380","319329","0.0-380.0","3RXPCZQMQQX8WKDE80XLOPVZ5281GU","A68J20100VW4W","3GVPRXWRPHGYHD0HW29VLS36FVC7I4","","<img src=""img/set1/S4.jpg"" width=""540"" height = ""360"" style=""border:16px solid orange"">","null","","","","","","","","","",""
"null","","html-keyboard-response","381","319534","0.0-381.0","3RXPCZQMQQX8WKDE80XLOPVZ5281GU","A68J20100VW4W","3GVPRXWRPHGYHD0HW29VLS36FVC7I4","","","null","","","","","","","","","",""
"580.6000000238419","","image-keyboard-response","382","320119","0.0-382.0","3RXPCZQMQQX8WKDE80XLOPVZ5281GU","A68J20100VW4W","3GVPRXWRPHGYHD0HW29VLS36FVC7I4","","img/set1/S4.jpg","74","4","structured_normal","74","structured_normal,structured_incentive,structured_load,random","1,2,4,2,2,3","1,3,4,2","true","","",""
"null","","html-keyboard-response","383","320483","0.0-383.0","3RXPCZQMQQX8WKDE80XLOPVZ5281GU","A68J20100VW4W","3GVPRXWRPHGYHD0HW29VLS36FVC7I4","","<img src=""img/set1/S4.jpg"" width=""540"" height = ""360"" style=""border:16px solid orange"">","null","","","","","","","","","",""
"null","","html-keyboard-response","384","320692","0.0-384.0","3RXPCZQMQQX8WKDE80XLOPVZ5281GU","A68J20100VW4W","3GVPRXWRPHGYHD0HW29VLS36FVC7I4","","","null","","","","","","","","","",""
