"rt","url","trial_type","trial_index","time_elapsed","internal_node_id","assignmentID","mturkID","hitID","view_history","stimulus","key_press","state","test_part","correct_response","order_block","order_chunk","order_freq","correct","responses","question_order","bonus"
"1993","consent.html","external-html","0","2046","0.0-0.0","369J354OFEW336EBE692JLMGDDO6GX","A7P3R1AIA4TVV","3GVPRXWRPHGYHD0HW29VLS36FVC7I4","","","","","","","","","","","","",""
"40046.59999999404","","instructions","1","42094","0.0-1.0","369J354OFEW336EBE692JLMGDDO6GX","A7P3R1AIA4TVV","3GVPRXWRPHGYHD0HW29VLS36FVC7I4","[{""page_index"":0,""viewing_time"":3166.5},{""page_index"":1,""viewing_time"":5071.699999988079},{""page_index"":2,""viewing_time"":7096.0999999940395},{""page_index"":3,""viewing_time"":4463.9000000059605},{""page_index"":4,""viewing_time"":3816},{""page_index"":5,""viewing_time"":10592},{""page_index"":6,""viewing_time"":5840}]","","","","","","","","","","","",""
"6791","","instructions","2","48885","0.0-2.0","369J354OFEW336EBE692JLMGDDO6GX","A7P3R1AIA4TVV","3GVPRXWRPHGYHD0HW29VLS36FVC7I4","[{""page_index"":0,""viewing_time"":6790.9000000059605}]","","","","","","","","","","","",""
"5920.0999999940395","","instructions","3","54806","0.0-3.0","369J354OFEW336EBE692JLMGDDO6GX","A7P3R1AIA4TVV","3GVPRXWRPHGYHD0HW29VLS36FVC7I4","[{""page_index"":0,""viewing_time"":5920}]","","","","","","","","","","","",""
"1262.4000000059605","","image-keyboard-response","4","56069","0.0-4.0","369J354OFEW336EBE692JLMGDDO6GX","A7P3R1AIA4TVV","3GVPRXWRPHGYHD0HW29VLS36FVC7I4","","img/set1/S1.jpg","74","1","structured_normal","83","structured_normal,structured_incentive,structured_load,random","2,3,1,2,4,2","4,3,1,2","false","","",""
"null","","html-keyboard-response","5","56421","0.0-5.0","369J354OFEW336EBE692JLMGDDO6GX","A7P3R1AIA4TVV","3GVPRXWRPHGYHD0HW29VLS36FVC7I4","","<img src=""img/set1/S1.jpg"" width=""540"" height = ""360"">","null","","","","","","","","","",""
"null","","html-keyboard-response","6","56622","0.0-6.0","369J354OFEW336EBE692JLMGDDO6GX","A7P3R1AIA4TVV","3GVPRXWRPHGYHD0HW29VLS36FVC7I4","","","null","","","","","","","","","",""
"null","","image-keyboard-response","7","59125","0.0-7.0","369J354OFEW336EBE692JLMGDDO6GX","A7P3R1AIA4TVV","3GVPRXWRPHGYHD0HW29VLS36FVC7I4","","img/set1/S2.jpg","null","2","structured_normal","68","structured_normal,structured_incentive,structured_load,random","2,3,1,2,4,2","4,3,1,2","false","","",""
"null","","html-keyboard-response","8","59476","0.0-8.0","369J354OFEW336EBE692JLMGDDO6GX","A7P3R1AIA4TVV","3GVPRXWRPHGYHD0HW29VLS36FVC7I4","","<img src=""img/set1/S2.jpg"" width=""540"" height = ""360"">","null","","","","","","","","","",""
"null","","html-keyboard-response","9","59678","0.0-9.0","369J354OFEW336EBE692JLMGDDO6GX","A7P3R1AIA4TVV","3GVPRXWRPHGYHD0HW29VLS36FVC7I4","","","null","","","","","","","","","",""
"22.69999998807907","","image-keyboard-response","10","59701","0.0-10.0","369J354OFEW336EBE692JLMGDDO6GX","A7P3R1AIA4TVV","3GVPRXWRPHGYHD0HW29VLS36FVC7I4","","img/set1/S4.jpg","83","4","structured_normal","74","structured_normal,structured_incentive,structured_load,random","2,3,1,2,4,2","4,3,1,2","false","","",""
"null","","html-keyboard-response","11","60052","0.0-11.0","369J354OFEW336EBE692JLMGDDO6GX","A7P3R1AIA4TVV","3GVPRXWRPHGYHD0HW29VLS36FVC7I4","","<img src=""img/set1/S4.jpg"" width=""540"" height = ""360"">","null","","","","","","","","","",""
"null","","html-keyboard-response","12","60254","0.0-12.0","369J354OFEW336EBE692JLMGDDO6GX","A7P3R1AIA4TVV","3GVPRXWRPHGYHD0HW29VLS36FVC7I4","","","null","","","","","","","","","",""
"583","","image-keyboard-response","13","60837","0.0-13.0","369J354OFEW336EBE692JLMGDDO6GX","A7P3R1AIA4TVV","3GVPRXWRPHGYHD0HW29VLS36FVC7I4","","img/set1/S3.jpg","68","3","structured_normal","72","structured_normal,structured_incentive,structured_load,random","2,3,1,2,4,2","4,3,1,2","false","","",""
"null","","html-keyboard-response","14","61188","0.0-14.0","369J354OFEW336EBE692JLMGDDO6GX","A7P3R1AIA4TVV","3GVPRXWRPHGYHD0HW29VLS36FVC7I4","","<img src=""img/set1/S3.jpg"" width=""540"" height = ""360"">","null","","","","","","","","","",""
"null","","html-keyboard-response","15","61390","0.0-15.0","369J354OFEW336EBE692JLMGDDO6GX","A7P3R1AIA4TVV","3GVPRXWRPHGYHD0HW29VLS36FVC7I4","","","null","","","","","","","","","",""
"614.5","","image-keyboard-response","16","62005","0.0-16.0","369J354OFEW336EBE692JLMGDDO6GX","A7P3R1AIA4TVV","3GVPRXWRPHGYHD0HW29VLS36FVC7I4","","img/set1/S1.jpg","74","1","structured_normal","83","structured_normal,structured_incentive,structured_load,random","2,3,1,2,4,2","4,3,1,2","false","","",""
"null","","html-keyboard-response","17","62356","0.0-17.0","369J354OFEW336EBE692JLMGDDO6GX","A7P3R1AIA4TVV","3GVPRXWRPHGYHD0HW29VLS36FVC7I4","","<img src=""img/set1/S1.jpg"" width=""540"" height = ""360"">","null","","","","","","","","","",""
"null","","html-keyboard-response","18","62557","0.0-18.0","369J354OFEW336EBE692JLMGDDO6GX","A7P3R1AIA4TVV","3GVPRXWRPHGYHD0HW29VLS36FVC7I4","","","null","","","","","","","","","",""
"null","","image-keyboard-response","19","65059","0.0-19.0","369J354OFEW336EBE692JLMGDDO6GX","A7P3R1AIA4TVV","3GVPRXWRPHGYHD0HW29VLS36FVC7I4","","img/set1/S2.jpg","null","2","structured_normal","68","structured_normal,structured_incentive,structured_load,random","2,3,1,2,4,2","4,3,1,2","false","","",""
"null","","html-keyboard-response","20","65410","0.0-20.0","369J354OFEW336EBE692JLMGDDO6GX","A7P3R1AIA4TVV","3GVPRXWRPHGYHD0HW29VLS36FVC7I4","","<img src=""img/set1/S2.jpg"" width=""540"" height = ""360"">","null","","","","","","","","","",""
"null","","html-keyboard-response","21","65612","0.0-21.0","369J354OFEW336EBE692JLMGDDO6GX","A7P3R1AIA4TVV","3GVPRXWRPHGYHD0HW29VLS36FVC7I4","","","null","","","","","","","","","",""
"1768.0999999940395","","image-keyboard-response","22","67381","0.0-22.0","369J354OFEW336EBE692JLMGDDO6GX","A7P3R1AIA4TVV","3GVPRXWRPHGYHD0HW29VLS36FVC7I4","","img/set1/S3.jpg","74","3","structured_normal","72","structured_normal,structured_incentive,structured_load,random","2,3,1,2,4,2","4,3,1,2","false","","",""
"null","","html-keyboard-response","23","67733","0.0-23.0","369J354OFEW336EBE692JLMGDDO6GX","A7P3R1AIA4TVV","3GVPRXWRPHGYHD0HW29VLS36FVC7I4","","<img src=""img/set1/S3.jpg"" width=""540"" height = ""360"">","null","","","","","","","","","",""
"null","","html-keyboard-response","24","67935","0.0-24.0","369J354OFEW336EBE692JLMGDDO6GX","A7P3R1AIA4TVV","3GVPRXWRPHGYHD0HW29VLS36FVC7I4","","","null","","","","","","","","","",""
"1237.3999999761581","","image-keyboard-response","25","69173","0.0-25.0","369J354OFEW336EBE692JLMGDDO6GX","A7P3R1AIA4TVV","3GVPRXWRPHGYHD0HW29VLS36FVC7I4","","img/set1/S2.jpg","72","2","structured_normal","68","structured_normal,structured_incentive,structured_load,random","2,3,1,2,4,2","4,3,1,2","false","","",""
"null","","html-keyboard-response","26","69524","0.0-26.0","369J354OFEW336EBE692JLMGDDO6GX","A7P3R1AIA4TVV","3GVPRXWRPHGYHD0HW29VLS36FVC7I4","","<img src=""img/set1/S2.jpg"" width=""540"" height = ""360"">","null","","","","","","","","","",""
"null","","html-keyboard-response","27","69726","0.0-27.0","369J354OFEW336EBE692JLMGDDO6GX","A7P3R1AIA4TVV","3GVPRXWRPHGYHD0HW29VLS36FVC7I4","","","null","","","","","","","","","",""
"1735","","image-keyboard-response","28","71461","0.0-28.0","369J354OFEW336EBE692JLMGDDO6GX","A7P3R1AIA4TVV","3GVPRXWRPHGYHD0HW29VLS36FVC7I4","","img/set1/S3.jpg","72","3","structured_normal","72","structured_normal,structured_incentive,structured_load,random","2,3,1,2,4,2","4,3,1,2","true","","",""
"null","","html-keyboard-response","29","71813","0.0-29.0","369J354OFEW336EBE692JLMGDDO6GX","A7P3R1AIA4TVV","3GVPRXWRPHGYHD0HW29VLS36FVC7I4","","<img src=""img/set1/S3.jpg"" width=""540"" height = ""360"" style=""border:16px solid orange"">","null","","","","","","","","","",""
"null","","html-keyboard-response","30","72014","0.0-30.0","369J354OFEW336EBE692JLMGDDO6GX","A7P3R1AIA4TVV","3GVPRXWRPHGYHD0HW29VLS36FVC7I4","","","null","","","","","","","","","",""
"822.9000000059605","","image-keyboard-response","31","72837","0.0-31.0","369J354OFEW336EBE692JLMGDDO6GX","A7P3R1AIA4TVV","3GVPRXWRPHGYHD0HW29VLS36FVC7I4","","img/set1/S1.jpg","72","1","structured_normal","83","structured_normal,structured_incentive,structured_load,random","2,3,1,2,4,2","4,3,1,2","false","","",""
"null","","html-keyboard-response","32","73189","0.0-32.0","369J354OFEW336EBE692JLMGDDO6GX","A7P3R1AIA4TVV","3GVPRXWRPHGYHD0HW29VLS36FVC7I4","","<img src=""img/set1/S1.jpg"" width=""540"" height = ""360"">","null","","","","","","","","","",""
"null","","html-keyboard-response","33","73390","0.0-33.0","369J354OFEW336EBE692JLMGDDO6GX","A7P3R1AIA4TVV","3GVPRXWRPHGYHD0HW29VLS36FVC7I4","","","null","","","","","","","","","",""
"614.1999999880791","","image-keyboard-response","34","74005","0.0-34.0","369J354OFEW336EBE692JLMGDDO6GX","A7P3R1AIA4TVV","3GVPRXWRPHGYHD0HW29VLS36FVC7I4","","img/set1/S4.jpg","72","4","structured_normal","74","structured_normal,structured_incentive,structured_load,random","2,3,1,2,4,2","4,3,1,2","false","","",""
"null","","html-keyboard-response","35","74356","0.0-35.0","369J354OFEW336EBE692JLMGDDO6GX","A7P3R1AIA4TVV","3GVPRXWRPHGYHD0HW29VLS36FVC7I4","","<img src=""img/set1/S4.jpg"" width=""540"" height = ""360"">","null","","","","","","","","","",""
"null","","html-keyboard-response","36","74558","0.0-36.0","369J354OFEW336EBE692JLMGDDO6GX","A7P3R1AIA4TVV","3GVPRXWRPHGYHD0HW29VLS36FVC7I4","","","null","","","","","","","","","",""
"758.1999999880791","","image-keyboard-response","37","75317","0.0-37.0","369J354OFEW336EBE692JLMGDDO6GX","A7P3R1AIA4TVV","3GVPRXWRPHGYHD0HW29VLS36FVC7I4","","img/set1/S2.jpg","72","2","structured_normal","68","structured_normal,structured_incentive,structured_load,random","2,3,1,2,4,2","4,3,1,2","false","","",""
"null","","html-keyboard-response","38","75669","0.0-38.0","369J354OFEW336EBE692JLMGDDO6GX","A7P3R1AIA4TVV","3GVPRXWRPHGYHD0HW29VLS36FVC7I4","","<img src=""img/set1/S2.jpg"" width=""540"" height = ""360"">","null","","","","","","","","","",""
"null","","html-keyboard-response","39","75870","0.0-39.0","369J354OFEW336EBE692JLMGDDO6GX","A7P3R1AIA4TVV","3GVPRXWRPHGYHD0HW29VLS36FVC7I4","","","null","","","","","","","","","",""
"1318.199999988079","","image-keyboard-response","40","77189","0.0-40.0","369J354OFEW336EBE692JLMGDDO6GX","A7P3R1AIA4TVV","3GVPRXWRPHGYHD0HW29VLS36FVC7I4","","img/set1/S3.jpg","72","3","structured_normal","72","structured_normal,structured_incentive,structured_load,random","2,3,1,2,4,2","4,3,1,2","true","","",""
"null","","html-keyboard-response","41","77541","0.0-41.0","369J354OFEW336EBE692JLMGDDO6GX","A7P3R1AIA4TVV","3GVPRXWRPHGYHD0HW29VLS36FVC7I4","","<img src=""img/set1/S3.jpg"" width=""540"" height = ""360"" style=""border:16px solid orange"">","null","","","","","","","","","",""
"null","","html-keyboard-response","42","77742","0.0-42.0","369J354OFEW336EBE692JLMGDDO6GX","A7P3R1AIA4TVV","3GVPRXWRPHGYHD0HW29VLS36FVC7I4","","","null","","","","","","","","","",""
"1142.300000011921","","image-keyboard-response","43","78885","0.0-43.0","369J354OFEW336EBE692JLMGDDO6GX","A7P3R1AIA4TVV","3GVPRXWRPHGYHD0HW29VLS36FVC7I4","","img/set1/S2.jpg","68","2","structured_normal","68","structured_normal,structured_incentive,structured_load,random","2,3,1,2,4,2","4,3,1,2","true","","",""
"null","","html-keyboard-response","44","79237","0.0-44.0","369J354OFEW336EBE692JLMGDDO6GX","A7P3R1AIA4TVV","3GVPRXWRPHGYHD0HW29VLS36FVC7I4","","<img src=""img/set1/S2.jpg"" width=""540"" height = ""360"" style=""border:16px solid orange"">","null","","","","","","","","","",""
"null","","html-keyboard-response","45","79438","0.0-45.0","369J354OFEW336EBE692JLMGDDO6GX","A7P3R1AIA4TVV","3GVPRXWRPHGYHD0HW29VLS36FVC7I4","","","null","","","","","","","","","",""
"1270.7999999821186","","image-keyboard-response","46","80709","0.0-46.0","369J354OFEW336EBE692JLMGDDO6GX","A7P3R1AIA4TVV","3GVPRXWRPHGYHD0HW29VLS36FVC7I4","","img/set1/S4.jpg","83","4","structured_normal","74","structured_normal,structured_incentive,structured_load,random","2,3,1,2,4,2","4,3,1,2","false","","",""
"null","","html-keyboard-response","47","81060","0.0-47.0","369J354OFEW336EBE692JLMGDDO6GX","A7P3R1AIA4TVV","3GVPRXWRPHGYHD0HW29VLS36FVC7I4","","<img src=""img/set1/S4.jpg"" width=""540"" height = ""360"">","null","","","","","","","","","",""
"null","","html-keyboard-response","48","81261","0.0-48.0","369J354OFEW336EBE692JLMGDDO6GX","A7P3R1AIA4TVV","3GVPRXWRPHGYHD0HW29VLS36FVC7I4","","","null","","","","","","","","","",""
"903.3999999761581","","image-keyboard-response","49","82165","0.0-49.0","369J354OFEW336EBE692JLMGDDO6GX","A7P3R1AIA4TVV","3GVPRXWRPHGYHD0HW29VLS36FVC7I4","","img/set1/S2.jpg","72","2","structured_normal","68","structured_normal,structured_incentive,structured_load,random","2,3,1,2,4,2","4,3,1,2","false","","",""
"null","","html-keyboard-response","50","82517","0.0-50.0","369J354OFEW336EBE692JLMGDDO6GX","A7P3R1AIA4TVV","3GVPRXWRPHGYHD0HW29VLS36FVC7I4","","<img src=""img/set1/S2.jpg"" width=""540"" height = ""360"">","null","","","","","","","","","",""
"null","","html-keyboard-response","51","82719","0.0-51.0","369J354OFEW336EBE692JLMGDDO6GX","A7P3R1AIA4TVV","3GVPRXWRPHGYHD0HW29VLS36FVC7I4","","","null","","","","","","","","","",""
"645.2000000178814","","image-keyboard-response","52","83365","0.0-52.0","369J354OFEW336EBE692JLMGDDO6GX","A7P3R1AIA4TVV","3GVPRXWRPHGYHD0HW29VLS36FVC7I4","","img/set1/S3.jpg","72","3","structured_normal","72","structured_normal,structured_incentive,structured_load,random","2,3,1,2,4,2","4,3,1,2","true","","",""
"null","","html-keyboard-response","53","83716","0.0-53.0","369J354OFEW336EBE692JLMGDDO6GX","A7P3R1AIA4TVV","3GVPRXWRPHGYHD0HW29VLS36FVC7I4","","<img src=""img/set1/S3.jpg"" width=""540"" height = ""360"" style=""border:16px solid orange"">","null","","","","","","","","","",""
"null","","html-keyboard-response","54","83918","0.0-54.0","369J354OFEW336EBE692JLMGDDO6GX","A7P3R1AIA4TVV","3GVPRXWRPHGYHD0HW29VLS36FVC7I4","","","null","","","","","","","","","",""
"950.8000000119209","","image-keyboard-response","55","84869","0.0-55.0","369J354OFEW336EBE692JLMGDDO6GX","A7P3R1AIA4TVV","3GVPRXWRPHGYHD0HW29VLS36FVC7I4","","img/set1/S2.jpg","68","2","structured_normal","68","structured_normal,structured_incentive,structured_load,random","2,3,1,2,4,2","4,3,1,2","true","","",""
"null","","html-keyboard-response","56","85221","0.0-56.0","369J354OFEW336EBE692JLMGDDO6GX","A7P3R1AIA4TVV","3GVPRXWRPHGYHD0HW29VLS36FVC7I4","","<img src=""img/set1/S2.jpg"" width=""540"" height = ""360"" style=""border:16px solid orange"">","null","","","","","","","","","",""
"null","","html-keyboard-response","57","85422","0.0-57.0","369J354OFEW336EBE692JLMGDDO6GX","A7P3R1AIA4TVV","3GVPRXWRPHGYHD0HW29VLS36FVC7I4","","","null","","","","","","","","","",""
"1270.4000000059605","","image-keyboard-response","58","86693","0.0-58.0","369J354OFEW336EBE692JLMGDDO6GX","A7P3R1AIA4TVV","3GVPRXWRPHGYHD0HW29VLS36FVC7I4","","img/set1/S4.jpg","83","4","structured_normal","74","structured_normal,structured_incentive,structured_load,random","2,3,1,2,4,2","4,3,1,2","false","","",""
"null","","html-keyboard-response","59","87045","0.0-59.0","369J354OFEW336EBE692JLMGDDO6GX","A7P3R1AIA4TVV","3GVPRXWRPHGYHD0HW29VLS36FVC7I4","","<img src=""img/set1/S4.jpg"" width=""540"" height = ""360"">","null","","","","","","","","","",""
"null","","html-keyboard-response","60","87246","0.0-60.0","369J354OFEW336EBE692JLMGDDO6GX","A7P3R1AIA4TVV","3GVPRXWRPHGYHD0HW29VLS36FVC7I4","","","null","","","","","","","","","",""
"774.5999999940395","","image-keyboard-response","61","88021","0.0-61.0","369J354OFEW336EBE692JLMGDDO6GX","A7P3R1AIA4TVV","3GVPRXWRPHGYHD0HW29VLS36FVC7I4","","img/set1/S2.jpg","68","2","structured_normal","68","structured_normal,structured_incentive,structured_load,random","2,3,1,2,4,2","4,3,1,2","true","","",""
"null","","html-keyboard-response","62","88372","0.0-62.0","369J354OFEW336EBE692JLMGDDO6GX","A7P3R1AIA4TVV","3GVPRXWRPHGYHD0HW29VLS36FVC7I4","","<img src=""img/set1/S2.jpg"" width=""540"" height = ""360"" style=""border:16px solid orange"">","null","","","","","","","","","",""
"null","","html-keyboard-response","63","88574","0.0-63.0","369J354OFEW336EBE692JLMGDDO6GX","A7P3R1AIA4TVV","3GVPRXWRPHGYHD0HW29VLS36FVC7I4","","","null","","","","","","","","","",""
"614.5999999940395","","image-keyboard-response","64","89189","0.0-64.0","369J354OFEW336EBE692JLMGDDO6GX","A7P3R1AIA4TVV","3GVPRXWRPHGYHD0HW29VLS36FVC7I4","","img/set1/S3.jpg","72","3","structured_normal","72","structured_normal,structured_incentive,structured_load,random","2,3,1,2,4,2","4,3,1,2","true","","",""
"null","","html-keyboard-response","65","89540","0.0-65.0","369J354OFEW336EBE692JLMGDDO6GX","A7P3R1AIA4TVV","3GVPRXWRPHGYHD0HW29VLS36FVC7I4","","<img src=""img/set1/S3.jpg"" width=""540"" height = ""360"" style=""border:16px solid orange"">","null","","","","","","","","","",""
"null","","html-keyboard-response","66","89741","0.0-66.0","369J354OFEW336EBE692JLMGDDO6GX","A7P3R1AIA4TVV","3GVPRXWRPHGYHD0HW29VLS36FVC7I4","","","null","","","","","","","","","",""
"503.40000000596046","","image-keyboard-response","67","90245","0.0-67.0","369J354OFEW336EBE692JLMGDDO6GX","A7P3R1AIA4TVV","3GVPRXWRPHGYHD0HW29VLS36FVC7I4","","img/set1/S1.jpg","74","1","structured_normal","83","structured_normal,structured_incentive,structured_load,random","2,3,1,2,4,2","4,3,1,2","false","","",""
"null","","html-keyboard-response","68","90596","0.0-68.0","369J354OFEW336EBE692JLMGDDO6GX","A7P3R1AIA4TVV","3GVPRXWRPHGYHD0HW29VLS36FVC7I4","","<img src=""img/set1/S1.jpg"" width=""540"" height = ""360"">","null","","","","","","","","","",""
"null","","html-keyboard-response","69","90797","0.0-69.0","369J354OFEW336EBE692JLMGDDO6GX","A7P3R1AIA4TVV","3GVPRXWRPHGYHD0HW29VLS36FVC7I4","","","null","","","","","","","","","",""
"838.5","","image-keyboard-response","70","91637","0.0-70.0","369J354OFEW336EBE692JLMGDDO6GX","A7P3R1AIA4TVV","3GVPRXWRPHGYHD0HW29VLS36FVC7I4","","img/set1/S4.jpg","74","4","structured_normal","74","structured_normal,structured_incentive,structured_load,random","2,3,1,2,4,2","4,3,1,2","true","","",""
"null","","html-keyboard-response","71","91989","0.0-71.0","369J354OFEW336EBE692JLMGDDO6GX","A7P3R1AIA4TVV","3GVPRXWRPHGYHD0HW29VLS36FVC7I4","","<img src=""img/set1/S4.jpg"" width=""540"" height = ""360"" style=""border:16px solid orange"">","null","","","","","","","","","",""
"null","","html-keyboard-response","72","92190","0.0-72.0","369J354OFEW336EBE692JLMGDDO6GX","A7P3R1AIA4TVV","3GVPRXWRPHGYHD0HW29VLS36FVC7I4","","","null","","","","","","","","","",""
"1126.2999999821186","","image-keyboard-response","73","93317","0.0-73.0","369J354OFEW336EBE692JLMGDDO6GX","A7P3R1AIA4TVV","3GVPRXWRPHGYHD0HW29VLS36FVC7I4","","img/set1/S2.jpg","68","2","structured_normal","68","structured_normal,structured_incentive,structured_load,random","2,3,1,2,4,2","4,3,1,2","true","","",""
"null","","html-keyboard-response","74","93668","0.0-74.0","369J354OFEW336EBE692JLMGDDO6GX","A7P3R1AIA4TVV","3GVPRXWRPHGYHD0HW29VLS36FVC7I4","","<img src=""img/set1/S2.jpg"" width=""540"" height = ""360"" style=""border:16px solid orange"">","null","","","","","","","","","",""
"null","","html-keyboard-response","75","93870","0.0-75.0","369J354OFEW336EBE692JLMGDDO6GX","A7P3R1AIA4TVV","3GVPRXWRPHGYHD0HW29VLS36FVC7I4","","","null","","","","","","","","","",""
"1062.699999988079","","image-keyboard-response","76","94933","0.0-76.0","369J354OFEW336EBE692JLMGDDO6GX","A7P3R1AIA4TVV","3GVPRXWRPHGYHD0HW29VLS36FVC7I4","","img/set1/S4.jpg","74","4","structured_normal","74","structured_normal,structured_incentive,structured_load,random","2,3,1,2,4,2","4,3,1,2","true","","",""
"null","","html-keyboard-response","77","95284","0.0-77.0","369J354OFEW336EBE692JLMGDDO6GX","A7P3R1AIA4TVV","3GVPRXWRPHGYHD0HW29VLS36FVC7I4","","<img src=""img/set1/S4.jpg"" width=""540"" height = ""360"" style=""border:16px solid orange"">","null","","","","","","","","","",""
"null","","html-keyboard-response","78","95486","0.0-78.0","369J354OFEW336EBE692JLMGDDO6GX","A7P3R1AIA4TVV","3GVPRXWRPHGYHD0HW29VLS36FVC7I4","","","null","","","","","","","","","",""
"983.1999999880791","","image-keyboard-response","79","96469","0.0-79.0","369J354OFEW336EBE692JLMGDDO6GX","A7P3R1AIA4TVV","3GVPRXWRPHGYHD0HW29VLS36FVC7I4","","img/set1/S4.jpg","74","4","structured_normal","74","structured_normal,structured_incentive,structured_load,random","2,3,1,2,4,2","4,3,1,2","true","","",""
"null","","html-keyboard-response","80","96821","0.0-80.0","369J354OFEW336EBE692JLMGDDO6GX","A7P3R1AIA4TVV","3GVPRXWRPHGYHD0HW29VLS36FVC7I4","","<img src=""img/set1/S4.jpg"" width=""540"" height = ""360"" style=""border:16px solid orange"">","null","","","","","","","","","",""
"null","","html-keyboard-response","81","97023","0.0-81.0","369J354OFEW336EBE692JLMGDDO6GX","A7P3R1AIA4TVV","3GVPRXWRPHGYHD0HW29VLS36FVC7I4","","","null","","","","","","","","","",""
"869.5999999940395","","image-keyboard-response","82","97893","0.0-82.0","369J354OFEW336EBE692JLMGDDO6GX","A7P3R1AIA4TVV","3GVPRXWRPHGYHD0HW29VLS36FVC7I4","","img/set1/S2.jpg","68","2","structured_normal","68","structured_normal,structured_incentive,structured_load,random","2,3,1,2,4,2","4,3,1,2","true","","",""
"null","","html-keyboard-response","83","98244","0.0-83.0","369J354OFEW336EBE692JLMGDDO6GX","A7P3R1AIA4TVV","3GVPRXWRPHGYHD0HW29VLS36FVC7I4","","<img src=""img/set1/S2.jpg"" width=""540"" height = ""360"" style=""border:16px solid orange"">","null","","","","","","","","","",""
"null","","html-keyboard-response","84","98446","0.0-84.0","369J354OFEW336EBE692JLMGDDO6GX","A7P3R1AIA4TVV","3GVPRXWRPHGYHD0HW29VLS36FVC7I4","","","null","","","","","","","","","",""
"614.6999999880791","","image-keyboard-response","85","99061","0.0-85.0","369J354OFEW336EBE692JLMGDDO6GX","A7P3R1AIA4TVV","3GVPRXWRPHGYHD0HW29VLS36FVC7I4","","img/set1/S3.jpg","72","3","structured_normal","72","structured_normal,structured_incentive,structured_load,random","2,3,1,2,4,2","4,3,1,2","true","","",""
"null","","html-keyboard-response","86","99412","0.0-86.0","369J354OFEW336EBE692JLMGDDO6GX","A7P3R1AIA4TVV","3GVPRXWRPHGYHD0HW29VLS36FVC7I4","","<img src=""img/set1/S3.jpg"" width=""540"" height = ""360"" style=""border:16px solid orange"">","null","","","","","","","","","",""
"null","","html-keyboard-response","87","99614","0.0-87.0","369J354OFEW336EBE692JLMGDDO6GX","A7P3R1AIA4TVV","3GVPRXWRPHGYHD0HW29VLS36FVC7I4","","","null","","","","","","","","","",""
"726.5","","image-keyboard-response","88","100341","0.0-88.0","369J354OFEW336EBE692JLMGDDO6GX","A7P3R1AIA4TVV","3GVPRXWRPHGYHD0HW29VLS36FVC7I4","","img/set1/S2.jpg","68","2","structured_normal","68","structured_normal,structured_incentive,structured_load,random","2,3,1,2,4,2","4,3,1,2","true","","",""
"null","","html-keyboard-response","89","100692","0.0-89.0","369J354OFEW336EBE692JLMGDDO6GX","A7P3R1AIA4TVV","3GVPRXWRPHGYHD0HW29VLS36FVC7I4","","<img src=""img/set1/S2.jpg"" width=""540"" height = ""360"" style=""border:16px solid orange"">","null","","","","","","","","","",""
"null","","html-keyboard-response","90","100894","0.0-90.0","369J354OFEW336EBE692JLMGDDO6GX","A7P3R1AIA4TVV","3GVPRXWRPHGYHD0HW29VLS36FVC7I4","","","null","","","","","","","","","",""
"1334.8999999761581","","image-keyboard-response","91","102229","0.0-91.0","369J354OFEW336EBE692JLMGDDO6GX","A7P3R1AIA4TVV","3GVPRXWRPHGYHD0HW29VLS36FVC7I4","","img/set1/S3.jpg","72","3","structured_normal","72","structured_normal,structured_incentive,structured_load,random","2,3,1,2,4,2","4,3,1,2","true","","",""
"null","","html-keyboard-response","92","102581","0.0-92.0","369J354OFEW336EBE692JLMGDDO6GX","A7P3R1AIA4TVV","3GVPRXWRPHGYHD0HW29VLS36FVC7I4","","<img src=""img/set1/S3.jpg"" width=""540"" height = ""360"" style=""border:16px solid orange"">","null","","","","","","","","","",""
"null","","html-keyboard-response","93","102783","0.0-93.0","369J354OFEW336EBE692JLMGDDO6GX","A7P3R1AIA4TVV","3GVPRXWRPHGYHD0HW29VLS36FVC7I4","","","null","","","","","","","","","",""
"965.6999999880791","","image-keyboard-response","94","103749","0.0-94.0","369J354OFEW336EBE692JLMGDDO6GX","A7P3R1AIA4TVV","3GVPRXWRPHGYHD0HW29VLS36FVC7I4","","img/set1/S1.jpg","83","1","structured_normal","83","structured_normal,structured_incentive,structured_load,random","2,3,1,2,4,2","4,3,1,2","true","","",""
"null","","html-keyboard-response","95","104101","0.0-95.0","369J354OFEW336EBE692JLMGDDO6GX","A7P3R1AIA4TVV","3GVPRXWRPHGYHD0HW29VLS36FVC7I4","","<img src=""img/set1/S1.jpg"" width=""540"" height = ""360"" style=""border:16px solid orange"">","null","","","","","","","","","",""
"null","","html-keyboard-response","96","104303","0.0-96.0","369J354OFEW336EBE692JLMGDDO6GX","A7P3R1AIA4TVV","3GVPRXWRPHGYHD0HW29VLS36FVC7I4","","","null","","","","","","","","","",""
"933.5999999940395","","image-keyboard-response","97","105237","0.0-97.0","369J354OFEW336EBE692JLMGDDO6GX","A7P3R1AIA4TVV","3GVPRXWRPHGYHD0HW29VLS36FVC7I4","","img/set1/S3.jpg","72","3","structured_normal","72","structured_normal,structured_incentive,structured_load,random","2,3,1,2,4,2","4,3,1,2","true","","",""
"null","","html-keyboard-response","98","105589","0.0-98.0","369J354OFEW336EBE692JLMGDDO6GX","A7P3R1AIA4TVV","3GVPRXWRPHGYHD0HW29VLS36FVC7I4","","<img src=""img/set1/S3.jpg"" width=""540"" height = ""360"" style=""border:16px solid orange"">","null","","","","","","","","","",""
"null","","html-keyboard-response","99","105791","0.0-99.0","369J354OFEW336EBE692JLMGDDO6GX","A7P3R1AIA4TVV","3GVPRXWRPHGYHD0HW29VLS36FVC7I4","","","null","","","","","","","","","",""
"853.5","","image-keyboard-response","100","106645","0.0-100.0","369J354OFEW336EBE692JLMGDDO6GX","A7P3R1AIA4TVV","3GVPRXWRPHGYHD0HW29VLS36FVC7I4","","img/set1/S4.jpg","74","4","structured_normal","74","structured_normal,structured_incentive,structured_load,random","2,3,1,2,4,2","4,3,1,2","true","","",""
"null","","html-keyboard-response","101","106996","0.0-101.0","369J354OFEW336EBE692JLMGDDO6GX","A7P3R1AIA4TVV","3GVPRXWRPHGYHD0HW29VLS36FVC7I4","","<img src=""img/set1/S4.jpg"" width=""540"" height = ""360"" style=""border:16px solid orange"">","null","","","","","","","","","",""
"null","","html-keyboard-response","102","107197","0.0-102.0","369J354OFEW336EBE692JLMGDDO6GX","A7P3R1AIA4TVV","3GVPRXWRPHGYHD0HW29VLS36FVC7I4","","","null","","","","","","","","","",""
"1015.1999999880791","","image-keyboard-response","103","108213","0.0-103.0","369J354OFEW336EBE692JLMGDDO6GX","A7P3R1AIA4TVV","3GVPRXWRPHGYHD0HW29VLS36FVC7I4","","img/set1/S2.jpg","68","2","structured_normal","68","structured_normal,structured_incentive,structured_load,random","2,3,1,2,4,2","4,3,1,2","true","","",""
"null","","html-keyboard-response","104","108564","0.0-104.0","369J354OFEW336EBE692JLMGDDO6GX","A7P3R1AIA4TVV","3GVPRXWRPHGYHD0HW29VLS36FVC7I4","","<img src=""img/set1/S2.jpg"" width=""540"" height = ""360"" style=""border:16px solid orange"">","null","","","","","","","","","",""
"null","","html-keyboard-response","105","108765","0.0-105.0","369J354OFEW336EBE692JLMGDDO6GX","A7P3R1AIA4TVV","3GVPRXWRPHGYHD0HW29VLS36FVC7I4","","","null","","","","","","","","","",""
"695.1999999880791","","image-keyboard-response","106","109461","0.0-106.0","369J354OFEW336EBE692JLMGDDO6GX","A7P3R1AIA4TVV","3GVPRXWRPHGYHD0HW29VLS36FVC7I4","","img/set1/S3.jpg","72","3","structured_normal","72","structured_normal,structured_incentive,structured_load,random","2,3,1,2,4,2","4,3,1,2","true","","",""
"null","","html-keyboard-response","107","109813","0.0-107.0","369J354OFEW336EBE692JLMGDDO6GX","A7P3R1AIA4TVV","3GVPRXWRPHGYHD0HW29VLS36FVC7I4","","<img src=""img/set1/S3.jpg"" width=""540"" height = ""360"" style=""border:16px solid orange"">","null","","","","","","","","","",""
"null","","html-keyboard-response","108","110014","0.0-108.0","369J354OFEW336EBE692JLMGDDO6GX","A7P3R1AIA4TVV","3GVPRXWRPHGYHD0HW29VLS36FVC7I4","","","null","","","","","","","","","",""
"742.5","","image-keyboard-response","109","110757","0.0-109.0","369J354OFEW336EBE692JLMGDDO6GX","A7P3R1AIA4TVV","3GVPRXWRPHGYHD0HW29VLS36FVC7I4","","img/set1/S1.jpg","74","1","structured_normal","83","structured_normal,structured_incentive,structured_load,random","2,3,1,2,4,2","4,3,1,2","false","","",""
"null","","html-keyboard-response","110","111108","0.0-110.0","369J354OFEW336EBE692JLMGDDO6GX","A7P3R1AIA4TVV","3GVPRXWRPHGYHD0HW29VLS36FVC7I4","","<img src=""img/set1/S1.jpg"" width=""540"" height = ""360"">","null","","","","","","","","","",""
"null","","html-keyboard-response","111","111310","0.0-111.0","369J354OFEW336EBE692JLMGDDO6GX","A7P3R1AIA4TVV","3GVPRXWRPHGYHD0HW29VLS36FVC7I4","","","null","","","","","","","","","",""
"839","","image-keyboard-response","112","112150","0.0-112.0","369J354OFEW336EBE692JLMGDDO6GX","A7P3R1AIA4TVV","3GVPRXWRPHGYHD0HW29VLS36FVC7I4","","img/set1/S1.jpg","83","1","structured_normal","83","structured_normal,structured_incentive,structured_load,random","2,3,1,2,4,2","4,3,1,2","true","","",""
"null","","html-keyboard-response","113","112501","0.0-113.0","369J354OFEW336EBE692JLMGDDO6GX","A7P3R1AIA4TVV","3GVPRXWRPHGYHD0HW29VLS36FVC7I4","","<img src=""img/set1/S1.jpg"" width=""540"" height = ""360"" style=""border:16px solid orange"">","null","","","","","","","","","",""
"null","","html-keyboard-response","114","112703","0.0-114.0","369J354OFEW336EBE692JLMGDDO6GX","A7P3R1AIA4TVV","3GVPRXWRPHGYHD0HW29VLS36FVC7I4","","","null","","","","","","","","","",""
"1061.300000011921","","image-keyboard-response","115","113765","0.0-115.0","369J354OFEW336EBE692JLMGDDO6GX","A7P3R1AIA4TVV","3GVPRXWRPHGYHD0HW29VLS36FVC7I4","","img/set1/S2.jpg","72","2","structured_normal","68","structured_normal,structured_incentive,structured_load,random","2,3,1,2,4,2","4,3,1,2","false","","",""
"null","","html-keyboard-response","116","114116","0.0-116.0","369J354OFEW336EBE692JLMGDDO6GX","A7P3R1AIA4TVV","3GVPRXWRPHGYHD0HW29VLS36FVC7I4","","<img src=""img/set1/S2.jpg"" width=""540"" height = ""360"">","null","","","","","","","","","",""
"null","","html-keyboard-response","117","114317","0.0-117.0","369J354OFEW336EBE692JLMGDDO6GX","A7P3R1AIA4TVV","3GVPRXWRPHGYHD0HW29VLS36FVC7I4","","","null","","","","","","","","","",""
"646.9000000059605","","image-keyboard-response","118","114965","0.0-118.0","369J354OFEW336EBE692JLMGDDO6GX","A7P3R1AIA4TVV","3GVPRXWRPHGYHD0HW29VLS36FVC7I4","","img/set1/S3.jpg","72","3","structured_normal","72","structured_normal,structured_incentive,structured_load,random","2,3,1,2,4,2","4,3,1,2","true","","",""
"null","","html-keyboard-response","119","115317","0.0-119.0","369J354OFEW336EBE692JLMGDDO6GX","A7P3R1AIA4TVV","3GVPRXWRPHGYHD0HW29VLS36FVC7I4","","<img src=""img/set1/S3.jpg"" width=""540"" height = ""360"" style=""border:16px solid orange"">","null","","","","","","","","","",""
"null","","html-keyboard-response","120","115519","0.0-120.0","369J354OFEW336EBE692JLMGDDO6GX","A7P3R1AIA4TVV","3GVPRXWRPHGYHD0HW29VLS36FVC7I4","","","null","","","","","","","","","",""
"1157.5999999940395","","image-keyboard-response","121","116677","0.0-121.0","369J354OFEW336EBE692JLMGDDO6GX","A7P3R1AIA4TVV","3GVPRXWRPHGYHD0HW29VLS36FVC7I4","","img/set1/S4.jpg","74","4","structured_normal","74","structured_normal,structured_incentive,structured_load,random","2,3,1,2,4,2","4,3,1,2","true","","",""
"null","","html-keyboard-response","122","117029","0.0-122.0","369J354OFEW336EBE692JLMGDDO6GX","A7P3R1AIA4TVV","3GVPRXWRPHGYHD0HW29VLS36FVC7I4","","<img src=""img/set1/S4.jpg"" width=""540"" height = ""360"" style=""border:16px solid orange"">","null","","","","","","","","","",""
"null","","html-keyboard-response","123","117230","0.0-123.0","369J354OFEW336EBE692JLMGDDO6GX","A7P3R1AIA4TVV","3GVPRXWRPHGYHD0HW29VLS36FVC7I4","","","null","","","","","","","","","",""
"838.2999999821186","","image-keyboard-response","124","118069","0.0-124.0","369J354OFEW336EBE692JLMGDDO6GX","A7P3R1AIA4TVV","3GVPRXWRPHGYHD0HW29VLS36FVC7I4","","img/set1/S1.jpg","83","1","structured_normal","83","structured_normal,structured_incentive,structured_load,random","2,3,1,2,4,2","4,3,1,2","true","","",""
"null","","html-keyboard-response","125","118421","0.0-125.0","369J354OFEW336EBE692JLMGDDO6GX","A7P3R1AIA4TVV","3GVPRXWRPHGYHD0HW29VLS36FVC7I4","","<img src=""img/set1/S1.jpg"" width=""540"" height = ""360"" style=""border:16px solid orange"">","null","","","","","","","","","",""
"null","","html-keyboard-response","126","118622","0.0-126.0","369J354OFEW336EBE692JLMGDDO6GX","A7P3R1AIA4TVV","3GVPRXWRPHGYHD0HW29VLS36FVC7I4","","","null","","","","","","","","","",""
"1478.199999988079","","image-keyboard-response","127","120100","0.0-127.0","369J354OFEW336EBE692JLMGDDO6GX","A7P3R1AIA4TVV","3GVPRXWRPHGYHD0HW29VLS36FVC7I4","","img/set1/S4.jpg","68","4","structured_normal","74","structured_normal,structured_incentive,structured_load,random","2,3,1,2,4,2","4,3,1,2","false","","",""
"null","","html-keyboard-response","128","120451","0.0-128.0","369J354OFEW336EBE692JLMGDDO6GX","A7P3R1AIA4TVV","3GVPRXWRPHGYHD0HW29VLS36FVC7I4","","<img src=""img/set1/S4.jpg"" width=""540"" height = ""360"">","null","","","","","","","","","",""
"null","","html-keyboard-response","129","120653","0.0-129.0","369J354OFEW336EBE692JLMGDDO6GX","A7P3R1AIA4TVV","3GVPRXWRPHGYHD0HW29VLS36FVC7I4","","","null","","","","","","","","","",""
"1046.7999999821186","","image-keyboard-response","130","121700","0.0-130.0","369J354OFEW336EBE692JLMGDDO6GX","A7P3R1AIA4TVV","3GVPRXWRPHGYHD0HW29VLS36FVC7I4","","img/set1/S1.jpg","83","1","structured_normal","83","structured_normal,structured_incentive,structured_load,random","2,3,1,2,4,2","4,3,1,2","true","","",""
"null","","html-keyboard-response","131","122051","0.0-131.0","369J354OFEW336EBE692JLMGDDO6GX","A7P3R1AIA4TVV","3GVPRXWRPHGYHD0HW29VLS36FVC7I4","","<img src=""img/set1/S1.jpg"" width=""540"" height = ""360"" style=""border:16px solid orange"">","null","","","","","","","","","",""
"null","","html-keyboard-response","132","122253","0.0-132.0","369J354OFEW336EBE692JLMGDDO6GX","A7P3R1AIA4TVV","3GVPRXWRPHGYHD0HW29VLS36FVC7I4","","","null","","","","","","","","","",""
"758.1999999880791","","image-keyboard-response","133","123012","0.0-133.0","369J354OFEW336EBE692JLMGDDO6GX","A7P3R1AIA4TVV","3GVPRXWRPHGYHD0HW29VLS36FVC7I4","","img/set1/S2.jpg","68","2","structured_normal","68","structured_normal,structured_incentive,structured_load,random","2,3,1,2,4,2","4,3,1,2","true","","",""
"null","","html-keyboard-response","134","123364","0.0-134.0","369J354OFEW336EBE692JLMGDDO6GX","A7P3R1AIA4TVV","3GVPRXWRPHGYHD0HW29VLS36FVC7I4","","<img src=""img/set1/S2.jpg"" width=""540"" height = ""360"" style=""border:16px solid orange"">","null","","","","","","","","","",""
"null","","html-keyboard-response","135","123565","0.0-135.0","369J354OFEW336EBE692JLMGDDO6GX","A7P3R1AIA4TVV","3GVPRXWRPHGYHD0HW29VLS36FVC7I4","","","null","","","","","","","","","",""
"550.0999999940395","","image-keyboard-response","136","124116","0.0-136.0","369J354OFEW336EBE692JLMGDDO6GX","A7P3R1AIA4TVV","3GVPRXWRPHGYHD0HW29VLS36FVC7I4","","img/set1/S3.jpg","72","3","structured_normal","72","structured_normal,structured_incentive,structured_load,random","2,3,1,2,4,2","4,3,1,2","true","","",""
"null","","html-keyboard-response","137","124467","0.0-137.0","369J354OFEW336EBE692JLMGDDO6GX","A7P3R1AIA4TVV","3GVPRXWRPHGYHD0HW29VLS36FVC7I4","","<img src=""img/set1/S3.jpg"" width=""540"" height = ""360"" style=""border:16px solid orange"">","null","","","","","","","","","",""
"null","","html-keyboard-response","138","124668","0.0-138.0","369J354OFEW336EBE692JLMGDDO6GX","A7P3R1AIA4TVV","3GVPRXWRPHGYHD0HW29VLS36FVC7I4","","","null","","","","","","","","","",""
"1095.199999988079","","image-keyboard-response","139","125764","0.0-139.0","369J354OFEW336EBE692JLMGDDO6GX","A7P3R1AIA4TVV","3GVPRXWRPHGYHD0HW29VLS36FVC7I4","","img/set1/S1.jpg","83","1","structured_normal","83","structured_normal,structured_incentive,structured_load,random","2,3,1,2,4,2","4,3,1,2","true","","",""
"null","","html-keyboard-response","140","126116","0.0-140.0","369J354OFEW336EBE692JLMGDDO6GX","A7P3R1AIA4TVV","3GVPRXWRPHGYHD0HW29VLS36FVC7I4","","<img src=""img/set1/S1.jpg"" width=""540"" height = ""360"" style=""border:16px solid orange"">","null","","","","","","","","","",""
"null","","html-keyboard-response","141","126318","0.0-141.0","369J354OFEW336EBE692JLMGDDO6GX","A7P3R1AIA4TVV","3GVPRXWRPHGYHD0HW29VLS36FVC7I4","","","null","","","","","","","","","",""
"1541.199999988079","","image-keyboard-response","142","127860","0.0-142.0","369J354OFEW336EBE692JLMGDDO6GX","A7P3R1AIA4TVV","3GVPRXWRPHGYHD0HW29VLS36FVC7I4","","img/set1/S2.jpg","74","2","structured_normal","68","structured_normal,structured_incentive,structured_load,random","2,3,1,2,4,2","4,3,1,2","false","","",""
"null","","html-keyboard-response","143","128211","0.0-143.0","369J354OFEW336EBE692JLMGDDO6GX","A7P3R1AIA4TVV","3GVPRXWRPHGYHD0HW29VLS36FVC7I4","","<img src=""img/set1/S2.jpg"" width=""540"" height = ""360"">","null","","","","","","","","","",""
"null","","html-keyboard-response","144","128413","0.0-144.0","369J354OFEW336EBE692JLMGDDO6GX","A7P3R1AIA4TVV","3GVPRXWRPHGYHD0HW29VLS36FVC7I4","","","null","","","","","","","","","",""
"838.8000000119209","","image-keyboard-response","145","129252","0.0-145.0","369J354OFEW336EBE692JLMGDDO6GX","A7P3R1AIA4TVV","3GVPRXWRPHGYHD0HW29VLS36FVC7I4","","img/set1/S4.jpg","74","4","structured_normal","74","structured_normal,structured_incentive,structured_load,random","2,3,1,2,4,2","4,3,1,2","true","","",""
"null","","html-keyboard-response","146","129604","0.0-146.0","369J354OFEW336EBE692JLMGDDO6GX","A7P3R1AIA4TVV","3GVPRXWRPHGYHD0HW29VLS36FVC7I4","","<img src=""img/set1/S4.jpg"" width=""540"" height = ""360"" style=""border:16px solid orange"">","null","","","","","","","","","",""
"null","","html-keyboard-response","147","129804","0.0-147.0","369J354OFEW336EBE692JLMGDDO6GX","A7P3R1AIA4TVV","3GVPRXWRPHGYHD0HW29VLS36FVC7I4","","","null","","","","","","","","","",""
"1670.9000000059605","","image-keyboard-response","148","131476","0.0-148.0","369J354OFEW336EBE692JLMGDDO6GX","A7P3R1AIA4TVV","3GVPRXWRPHGYHD0HW29VLS36FVC7I4","","img/set1/S3.jpg","68","3","structured_normal","72","structured_normal,structured_incentive,structured_load,random","2,3,1,2,4,2","4,3,1,2","false","","",""
"null","","html-keyboard-response","149","131827","0.0-149.0","369J354OFEW336EBE692JLMGDDO6GX","A7P3R1AIA4TVV","3GVPRXWRPHGYHD0HW29VLS36FVC7I4","","<img src=""img/set1/S3.jpg"" width=""540"" height = ""360"">","null","","","","","","","","","",""
"null","","html-keyboard-response","150","132028","0.0-150.0","369J354OFEW336EBE692JLMGDDO6GX","A7P3R1AIA4TVV","3GVPRXWRPHGYHD0HW29VLS36FVC7I4","","","null","","","","","","","","","",""
"375.09999999403954","","image-keyboard-response","151","132404","0.0-151.0","369J354OFEW336EBE692JLMGDDO6GX","A7P3R1AIA4TVV","3GVPRXWRPHGYHD0HW29VLS36FVC7I4","","img/set1/S3.jpg","72","3","structured_normal","72","structured_normal,structured_incentive,structured_load,random","2,3,1,2,4,2","4,3,1,2","true","","",""
"null","","html-keyboard-response","152","132756","0.0-152.0","369J354OFEW336EBE692JLMGDDO6GX","A7P3R1AIA4TVV","3GVPRXWRPHGYHD0HW29VLS36FVC7I4","","<img src=""img/set1/S3.jpg"" width=""540"" height = ""360"" style=""border:16px solid orange"">","null","","","","","","","","","",""
"null","","html-keyboard-response","153","132957","0.0-153.0","369J354OFEW336EBE692JLMGDDO6GX","A7P3R1AIA4TVV","3GVPRXWRPHGYHD0HW29VLS36FVC7I4","","","null","","","","","","","","","",""
"757.9000000059605","","image-keyboard-response","154","133716","0.0-154.0","369J354OFEW336EBE692JLMGDDO6GX","A7P3R1AIA4TVV","3GVPRXWRPHGYHD0HW29VLS36FVC7I4","","img/set1/S4.jpg","74","4","structured_normal","74","structured_normal,structured_incentive,structured_load,random","2,3,1,2,4,2","4,3,1,2","true","","",""
"null","","html-keyboard-response","155","134068","0.0-155.0","369J354OFEW336EBE692JLMGDDO6GX","A7P3R1AIA4TVV","3GVPRXWRPHGYHD0HW29VLS36FVC7I4","","<img src=""img/set1/S4.jpg"" width=""540"" height = ""360"" style=""border:16px solid orange"">","null","","","","","","","","","",""
"null","","html-keyboard-response","156","134269","0.0-156.0","369J354OFEW336EBE692JLMGDDO6GX","A7P3R1AIA4TVV","3GVPRXWRPHGYHD0HW29VLS36FVC7I4","","","null","","","","","","","","","",""
"1286.199999988079","","image-keyboard-response","157","135556","0.0-157.0","369J354OFEW336EBE692JLMGDDO6GX","A7P3R1AIA4TVV","3GVPRXWRPHGYHD0HW29VLS36FVC7I4","","img/set1/S1.jpg","83","1","structured_normal","83","structured_normal,structured_incentive,structured_load,random","2,3,1,2,4,2","4,3,1,2","true","","",""
"null","","html-keyboard-response","158","135907","0.0-158.0","369J354OFEW336EBE692JLMGDDO6GX","A7P3R1AIA4TVV","3GVPRXWRPHGYHD0HW29VLS36FVC7I4","","<img src=""img/set1/S1.jpg"" width=""540"" height = ""360"" style=""border:16px solid orange"">","null","","","","","","","","","",""
"null","","html-keyboard-response","159","136109","0.0-159.0","369J354OFEW336EBE692JLMGDDO6GX","A7P3R1AIA4TVV","3GVPRXWRPHGYHD0HW29VLS36FVC7I4","","","null","","","","","","","","","",""
"614.0999999940395","","image-keyboard-response","160","136724","0.0-160.0","369J354OFEW336EBE692JLMGDDO6GX","A7P3R1AIA4TVV","3GVPRXWRPHGYHD0HW29VLS36FVC7I4","","img/set1/S1.jpg","83","1","structured_normal","83","structured_normal,structured_incentive,structured_load,random","2,3,1,2,4,2","4,3,1,2","true","","",""
"null","","html-keyboard-response","161","137075","0.0-161.0","369J354OFEW336EBE692JLMGDDO6GX","A7P3R1AIA4TVV","3GVPRXWRPHGYHD0HW29VLS36FVC7I4","","<img src=""img/set1/S1.jpg"" width=""540"" height = ""360"" style=""border:16px solid orange"">","null","","","","","","","","","",""
"null","","html-keyboard-response","162","137275","0.0-162.0","369J354OFEW336EBE692JLMGDDO6GX","A7P3R1AIA4TVV","3GVPRXWRPHGYHD0HW29VLS36FVC7I4","","","null","","","","","","","","","",""
"809","","image-keyboard-response","163","138085","0.0-163.0","369J354OFEW336EBE692JLMGDDO6GX","A7P3R1AIA4TVV","3GVPRXWRPHGYHD0HW29VLS36FVC7I4","","img/set1/S2.jpg","68","2","structured_normal","68","structured_normal,structured_incentive,structured_load,random","2,3,1,2,4,2","4,3,1,2","true","","",""
"null","","html-keyboard-response","164","138437","0.0-164.0","369J354OFEW336EBE692JLMGDDO6GX","A7P3R1AIA4TVV","3GVPRXWRPHGYHD0HW29VLS36FVC7I4","","<img src=""img/set1/S2.jpg"" width=""540"" height = ""360"" style=""border:16px solid orange"">","null","","","","","","","","","",""
"null","","html-keyboard-response","165","138638","0.0-165.0","369J354OFEW336EBE692JLMGDDO6GX","A7P3R1AIA4TVV","3GVPRXWRPHGYHD0HW29VLS36FVC7I4","","","null","","","","","","","","","",""
"1957.800000011921","","image-keyboard-response","166","140596","0.0-166.0","369J354OFEW336EBE692JLMGDDO6GX","A7P3R1AIA4TVV","3GVPRXWRPHGYHD0HW29VLS36FVC7I4","","img/set1/S3.jpg","72","3","structured_normal","72","structured_normal,structured_incentive,structured_load,random","2,3,1,2,4,2","4,3,1,2","true","","",""
"null","","html-keyboard-response","167","140947","0.0-167.0","369J354OFEW336EBE692JLMGDDO6GX","A7P3R1AIA4TVV","3GVPRXWRPHGYHD0HW29VLS36FVC7I4","","<img src=""img/set1/S3.jpg"" width=""540"" height = ""360"" style=""border:16px solid orange"">","null","","","","","","","","","",""
"null","","html-keyboard-response","168","141149","0.0-168.0","369J354OFEW336EBE692JLMGDDO6GX","A7P3R1AIA4TVV","3GVPRXWRPHGYHD0HW29VLS36FVC7I4","","","null","","","","","","","","","",""
"438.5","","image-keyboard-response","169","141588","0.0-169.0","369J354OFEW336EBE692JLMGDDO6GX","A7P3R1AIA4TVV","3GVPRXWRPHGYHD0HW29VLS36FVC7I4","","img/set1/S3.jpg","72","3","structured_normal","72","structured_normal,structured_incentive,structured_load,random","2,3,1,2,4,2","4,3,1,2","true","","",""
"null","","html-keyboard-response","170","141940","0.0-170.0","369J354OFEW336EBE692JLMGDDO6GX","A7P3R1AIA4TVV","3GVPRXWRPHGYHD0HW29VLS36FVC7I4","","<img src=""img/set1/S3.jpg"" width=""540"" height = ""360"" style=""border:16px solid orange"">","null","","","","","","","","","",""
"null","","html-keyboard-response","171","142141","0.0-171.0","369J354OFEW336EBE692JLMGDDO6GX","A7P3R1AIA4TVV","3GVPRXWRPHGYHD0HW29VLS36FVC7I4","","","null","","","","","","","","","",""
"853.9000000059605","","image-keyboard-response","172","142996","0.0-172.0","369J354OFEW336EBE692JLMGDDO6GX","A7P3R1AIA4TVV","3GVPRXWRPHGYHD0HW29VLS36FVC7I4","","img/set1/S2.jpg","68","2","structured_normal","68","structured_normal,structured_incentive,structured_load,random","2,3,1,2,4,2","4,3,1,2","true","","",""
"null","","html-keyboard-response","173","143347","0.0-173.0","369J354OFEW336EBE692JLMGDDO6GX","A7P3R1AIA4TVV","3GVPRXWRPHGYHD0HW29VLS36FVC7I4","","<img src=""img/set1/S2.jpg"" width=""540"" height = ""360"" style=""border:16px solid orange"">","null","","","","","","","","","",""
"null","","html-keyboard-response","174","143548","0.0-174.0","369J354OFEW336EBE692JLMGDDO6GX","A7P3R1AIA4TVV","3GVPRXWRPHGYHD0HW29VLS36FVC7I4","","","null","","","","","","","","","",""
"759.2999999821186","","image-keyboard-response","175","144308","0.0-175.0","369J354OFEW336EBE692JLMGDDO6GX","A7P3R1AIA4TVV","3GVPRXWRPHGYHD0HW29VLS36FVC7I4","","img/set1/S3.jpg","74","3","structured_normal","72","structured_normal,structured_incentive,structured_load,random","2,3,1,2,4,2","4,3,1,2","false","","",""
"null","","html-keyboard-response","176","144660","0.0-176.0","369J354OFEW336EBE692JLMGDDO6GX","A7P3R1AIA4TVV","3GVPRXWRPHGYHD0HW29VLS36FVC7I4","","<img src=""img/set1/S3.jpg"" width=""540"" height = ""360"">","null","","","","","","","","","",""
"null","","html-keyboard-response","177","144862","0.0-177.0","369J354OFEW336EBE692JLMGDDO6GX","A7P3R1AIA4TVV","3GVPRXWRPHGYHD0HW29VLS36FVC7I4","","","null","","","","","","","","","",""
"949.6999999880791","","image-keyboard-response","178","145812","0.0-178.0","369J354OFEW336EBE692JLMGDDO6GX","A7P3R1AIA4TVV","3GVPRXWRPHGYHD0HW29VLS36FVC7I4","","img/set1/S1.jpg","83","1","structured_normal","83","structured_normal,structured_incentive,structured_load,random","2,3,1,2,4,2","4,3,1,2","true","","",""
"null","","html-keyboard-response","179","146164","0.0-179.0","369J354OFEW336EBE692JLMGDDO6GX","A7P3R1AIA4TVV","3GVPRXWRPHGYHD0HW29VLS36FVC7I4","","<img src=""img/set1/S1.jpg"" width=""540"" height = ""360"" style=""border:16px solid orange"">","null","","","","","","","","","",""
"null","","html-keyboard-response","180","146365","0.0-180.0","369J354OFEW336EBE692JLMGDDO6GX","A7P3R1AIA4TVV","3GVPRXWRPHGYHD0HW29VLS36FVC7I4","","","null","","","","","","","","","",""
"406.5","","image-keyboard-response","181","146772","0.0-181.0","369J354OFEW336EBE692JLMGDDO6GX","A7P3R1AIA4TVV","3GVPRXWRPHGYHD0HW29VLS36FVC7I4","","img/set1/S1.jpg","83","1","structured_normal","83","structured_normal,structured_incentive,structured_load,random","2,3,1,2,4,2","4,3,1,2","true","","",""
"null","","html-keyboard-response","182","147123","0.0-182.0","369J354OFEW336EBE692JLMGDDO6GX","A7P3R1AIA4TVV","3GVPRXWRPHGYHD0HW29VLS36FVC7I4","","<img src=""img/set1/S1.jpg"" width=""540"" height = ""360"" style=""border:16px solid orange"">","null","","","","","","","","","",""
"null","","html-keyboard-response","183","147324","0.0-183.0","369J354OFEW336EBE692JLMGDDO6GX","A7P3R1AIA4TVV","3GVPRXWRPHGYHD0HW29VLS36FVC7I4","","","null","","","","","","","","","",""
"727.5999999940395","","image-keyboard-response","184","148052","0.0-184.0","369J354OFEW336EBE692JLMGDDO6GX","A7P3R1AIA4TVV","3GVPRXWRPHGYHD0HW29VLS36FVC7I4","","img/set1/S4.jpg","74","4","structured_normal","74","structured_normal,structured_incentive,structured_load,random","2,3,1,2,4,2","4,3,1,2","true","","",""
"null","","html-keyboard-response","185","148404","0.0-185.0","369J354OFEW336EBE692JLMGDDO6GX","A7P3R1AIA4TVV","3GVPRXWRPHGYHD0HW29VLS36FVC7I4","","<img src=""img/set1/S4.jpg"" width=""540"" height = ""360"" style=""border:16px solid orange"">","null","","","","","","","","","",""
"null","","html-keyboard-response","186","148605","0.0-186.0","369J354OFEW336EBE692JLMGDDO6GX","A7P3R1AIA4TVV","3GVPRXWRPHGYHD0HW29VLS36FVC7I4","","","null","","","","","","","","","",""
"886.6999999880791","","image-keyboard-response","187","149492","0.0-187.0","369J354OFEW336EBE692JLMGDDO6GX","A7P3R1AIA4TVV","3GVPRXWRPHGYHD0HW29VLS36FVC7I4","","img/set1/S2.jpg","68","2","structured_normal","68","structured_normal,structured_incentive,structured_load,random","2,3,1,2,4,2","4,3,1,2","true","","",""
"null","","html-keyboard-response","188","149844","0.0-188.0","369J354OFEW336EBE692JLMGDDO6GX","A7P3R1AIA4TVV","3GVPRXWRPHGYHD0HW29VLS36FVC7I4","","<img src=""img/set1/S2.jpg"" width=""540"" height = ""360"" style=""border:16px solid orange"">","null","","","","","","","","","",""
"null","","html-keyboard-response","189","150045","0.0-189.0","369J354OFEW336EBE692JLMGDDO6GX","A7P3R1AIA4TVV","3GVPRXWRPHGYHD0HW29VLS36FVC7I4","","","null","","","","","","","","","",""
"934.5999999940395","","image-keyboard-response","190","150980","0.0-190.0","369J354OFEW336EBE692JLMGDDO6GX","A7P3R1AIA4TVV","3GVPRXWRPHGYHD0HW29VLS36FVC7I4","","img/set1/S3.jpg","72","3","structured_normal","72","structured_normal,structured_incentive,structured_load,random","2,3,1,2,4,2","4,3,1,2","true","","",""
"null","","html-keyboard-response","191","151332","0.0-191.0","369J354OFEW336EBE692JLMGDDO6GX","A7P3R1AIA4TVV","3GVPRXWRPHGYHD0HW29VLS36FVC7I4","","<img src=""img/set1/S3.jpg"" width=""540"" height = ""360"" style=""border:16px solid orange"">","null","","","","","","","","","",""
"null","","html-keyboard-response","192","151533","0.0-192.0","369J354OFEW336EBE692JLMGDDO6GX","A7P3R1AIA4TVV","3GVPRXWRPHGYHD0HW29VLS36FVC7I4","","","null","","","","","","","","","",""
"934.2999999821186","","image-keyboard-response","193","152468","0.0-193.0","369J354OFEW336EBE692JLMGDDO6GX","A7P3R1AIA4TVV","3GVPRXWRPHGYHD0HW29VLS36FVC7I4","","img/set1/S1.jpg","83","1","structured_normal","83","structured_normal,structured_incentive,structured_load,random","2,3,1,2,4,2","4,3,1,2","true","","",""
"null","","html-keyboard-response","194","152819","0.0-194.0","369J354OFEW336EBE692JLMGDDO6GX","A7P3R1AIA4TVV","3GVPRXWRPHGYHD0HW29VLS36FVC7I4","","<img src=""img/set1/S1.jpg"" width=""540"" height = ""360"" style=""border:16px solid orange"">","null","","","","","","","","","",""
"null","","html-keyboard-response","195","153021","0.0-195.0","369J354OFEW336EBE692JLMGDDO6GX","A7P3R1AIA4TVV","3GVPRXWRPHGYHD0HW29VLS36FVC7I4","","","null","","","","","","","","","",""
"854.9000000059605","","image-keyboard-response","196","153876","0.0-196.0","369J354OFEW336EBE692JLMGDDO6GX","A7P3R1AIA4TVV","3GVPRXWRPHGYHD0HW29VLS36FVC7I4","","img/set1/S2.jpg","68","2","structured_normal","68","structured_normal,structured_incentive,structured_load,random","2,3,1,2,4,2","4,3,1,2","true","","",""
"null","","html-keyboard-response","197","154227","0.0-197.0","369J354OFEW336EBE692JLMGDDO6GX","A7P3R1AIA4TVV","3GVPRXWRPHGYHD0HW29VLS36FVC7I4","","<img src=""img/set1/S2.jpg"" width=""540"" height = ""360"" style=""border:16px solid orange"">","null","","","","","","","","","",""
"null","","html-keyboard-response","198","154428","0.0-198.0","369J354OFEW336EBE692JLMGDDO6GX","A7P3R1AIA4TVV","3GVPRXWRPHGYHD0HW29VLS36FVC7I4","","","null","","","","","","","","","",""
"983","","image-keyboard-response","199","155412","0.0-199.0","369J354OFEW336EBE692JLMGDDO6GX","A7P3R1AIA4TVV","3GVPRXWRPHGYHD0HW29VLS36FVC7I4","","img/set1/S3.jpg","72","3","structured_normal","72","structured_normal,structured_incentive,structured_load,random","2,3,1,2,4,2","4,3,1,2","true","","",""
"null","","html-keyboard-response","200","155764","0.0-200.0","369J354OFEW336EBE692JLMGDDO6GX","A7P3R1AIA4TVV","3GVPRXWRPHGYHD0HW29VLS36FVC7I4","","<img src=""img/set1/S3.jpg"" width=""540"" height = ""360"" style=""border:16px solid orange"">","null","","","","","","","","","",""
"null","","html-keyboard-response","201","155965","0.0-201.0","369J354OFEW336EBE692JLMGDDO6GX","A7P3R1AIA4TVV","3GVPRXWRPHGYHD0HW29VLS36FVC7I4","","","null","","","","","","","","","",""
"790.1999999880791","","image-keyboard-response","202","156756","0.0-202.0","369J354OFEW336EBE692JLMGDDO6GX","A7P3R1AIA4TVV","3GVPRXWRPHGYHD0HW29VLS36FVC7I4","","img/set1/S4.jpg","74","4","structured_normal","74","structured_normal,structured_incentive,structured_load,random","2,3,1,2,4,2","4,3,1,2","true","","",""
"null","","html-keyboard-response","203","157107","0.0-203.0","369J354OFEW336EBE692JLMGDDO6GX","A7P3R1AIA4TVV","3GVPRXWRPHGYHD0HW29VLS36FVC7I4","","<img src=""img/set1/S4.jpg"" width=""540"" height = ""360"" style=""border:16px solid orange"">","null","","","","","","","","","",""
"null","","html-keyboard-response","204","157308","0.0-204.0","369J354OFEW336EBE692JLMGDDO6GX","A7P3R1AIA4TVV","3GVPRXWRPHGYHD0HW29VLS36FVC7I4","","","null","","","","","","","","","",""
"839","","image-keyboard-response","205","158148","0.0-205.0","369J354OFEW336EBE692JLMGDDO6GX","A7P3R1AIA4TVV","3GVPRXWRPHGYHD0HW29VLS36FVC7I4","","img/set1/S2.jpg","68","2","structured_normal","68","structured_normal,structured_incentive,structured_load,random","2,3,1,2,4,2","4,3,1,2","true","","",""
"null","","html-keyboard-response","206","158500","0.0-206.0","369J354OFEW336EBE692JLMGDDO6GX","A7P3R1AIA4TVV","3GVPRXWRPHGYHD0HW29VLS36FVC7I4","","<img src=""img/set1/S2.jpg"" width=""540"" height = ""360"" style=""border:16px solid orange"">","null","","","","","","","","","",""
"null","","html-keyboard-response","207","158702","0.0-207.0","369J354OFEW336EBE692JLMGDDO6GX","A7P3R1AIA4TVV","3GVPRXWRPHGYHD0HW29VLS36FVC7I4","","","null","","","","","","","","","",""
"1045.5999999940395","","image-keyboard-response","208","159748","0.0-208.0","369J354OFEW336EBE692JLMGDDO6GX","A7P3R1AIA4TVV","3GVPRXWRPHGYHD0HW29VLS36FVC7I4","","img/set1/S4.jpg","74","4","structured_normal","74","structured_normal,structured_incentive,structured_load,random","2,3,1,2,4,2","4,3,1,2","true","","",""
"null","","html-keyboard-response","209","160099","0.0-209.0","369J354OFEW336EBE692JLMGDDO6GX","A7P3R1AIA4TVV","3GVPRXWRPHGYHD0HW29VLS36FVC7I4","","<img src=""img/set1/S4.jpg"" width=""540"" height = ""360"" style=""border:16px solid orange"">","null","","","","","","","","","",""
"null","","html-keyboard-response","210","160301","0.0-210.0","369J354OFEW336EBE692JLMGDDO6GX","A7P3R1AIA4TVV","3GVPRXWRPHGYHD0HW29VLS36FVC7I4","","","null","","","","","","","","","",""
"998.6999999880791","","image-keyboard-response","211","161300","0.0-211.0","369J354OFEW336EBE692JLMGDDO6GX","A7P3R1AIA4TVV","3GVPRXWRPHGYHD0HW29VLS36FVC7I4","","img/set1/S1.jpg","83","1","structured_normal","83","structured_normal,structured_incentive,structured_load,random","2,3,1,2,4,2","4,3,1,2","true","","",""
"null","","html-keyboard-response","212","161652","0.0-212.0","369J354OFEW336EBE692JLMGDDO6GX","A7P3R1AIA4TVV","3GVPRXWRPHGYHD0HW29VLS36FVC7I4","","<img src=""img/set1/S1.jpg"" width=""540"" height = ""360"" style=""border:16px solid orange"">","null","","","","","","","","","",""
"null","","html-keyboard-response","213","161854","0.0-213.0","369J354OFEW336EBE692JLMGDDO6GX","A7P3R1AIA4TVV","3GVPRXWRPHGYHD0HW29VLS36FVC7I4","","","null","","","","","","","","","",""
"789.6999999880791","","image-keyboard-response","214","162644","0.0-214.0","369J354OFEW336EBE692JLMGDDO6GX","A7P3R1AIA4TVV","3GVPRXWRPHGYHD0HW29VLS36FVC7I4","","img/set1/S4.jpg","74","4","structured_normal","74","structured_normal,structured_incentive,structured_load,random","2,3,1,2,4,2","4,3,1,2","true","","",""
"null","","html-keyboard-response","215","162995","0.0-215.0","369J354OFEW336EBE692JLMGDDO6GX","A7P3R1AIA4TVV","3GVPRXWRPHGYHD0HW29VLS36FVC7I4","","<img src=""img/set1/S4.jpg"" width=""540"" height = ""360"" style=""border:16px solid orange"">","null","","","","","","","","","",""
"null","","html-keyboard-response","216","163197","0.0-216.0","369J354OFEW336EBE692JLMGDDO6GX","A7P3R1AIA4TVV","3GVPRXWRPHGYHD0HW29VLS36FVC7I4","","","null","","","","","","","","","",""
"1510.8999999761581","","image-keyboard-response","217","164708","0.0-217.0","369J354OFEW336EBE692JLMGDDO6GX","A7P3R1AIA4TVV","3GVPRXWRPHGYHD0HW29VLS36FVC7I4","","img/set1/S1.jpg","83","1","structured_normal","83","structured_normal,structured_incentive,structured_load,random","2,3,1,2,4,2","4,3,1,2","true","","",""
"null","","html-keyboard-response","218","165059","0.0-218.0","369J354OFEW336EBE692JLMGDDO6GX","A7P3R1AIA4TVV","3GVPRXWRPHGYHD0HW29VLS36FVC7I4","","<img src=""img/set1/S1.jpg"" width=""540"" height = ""360"" style=""border:16px solid orange"">","null","","","","","","","","","",""
"null","","html-keyboard-response","219","165261","0.0-219.0","369J354OFEW336EBE692JLMGDDO6GX","A7P3R1AIA4TVV","3GVPRXWRPHGYHD0HW29VLS36FVC7I4","","","null","","","","","","","","","",""
"470.7999999821186","","image-keyboard-response","220","165732","0.0-220.0","369J354OFEW336EBE692JLMGDDO6GX","A7P3R1AIA4TVV","3GVPRXWRPHGYHD0HW29VLS36FVC7I4","","img/set1/S1.jpg","83","1","structured_normal","83","structured_normal,structured_incentive,structured_load,random","2,3,1,2,4,2","4,3,1,2","true","","",""
"null","","html-keyboard-response","221","166084","0.0-221.0","369J354OFEW336EBE692JLMGDDO6GX","A7P3R1AIA4TVV","3GVPRXWRPHGYHD0HW29VLS36FVC7I4","","<img src=""img/set1/S1.jpg"" width=""540"" height = ""360"" style=""border:16px solid orange"">","null","","","","","","","","","",""
"null","","html-keyboard-response","222","166285","0.0-222.0","369J354OFEW336EBE692JLMGDDO6GX","A7P3R1AIA4TVV","3GVPRXWRPHGYHD0HW29VLS36FVC7I4","","","null","","","","","","","","","",""
"870.1999999880791","","image-keyboard-response","223","167156","0.0-223.0","369J354OFEW336EBE692JLMGDDO6GX","A7P3R1AIA4TVV","3GVPRXWRPHGYHD0HW29VLS36FVC7I4","","img/set1/S2.jpg","83","2","structured_normal","68","structured_normal,structured_incentive,structured_load,random","2,3,1,2,4,2","4,3,1,2","false","","",""
"null","","html-keyboard-response","224","167508","0.0-224.0","369J354OFEW336EBE692JLMGDDO6GX","A7P3R1AIA4TVV","3GVPRXWRPHGYHD0HW29VLS36FVC7I4","","<img src=""img/set1/S2.jpg"" width=""540"" height = ""360"">","null","","","","","","","","","",""
"null","","html-keyboard-response","225","167709","0.0-225.0","369J354OFEW336EBE692JLMGDDO6GX","A7P3R1AIA4TVV","3GVPRXWRPHGYHD0HW29VLS36FVC7I4","","","null","","","","","","","","","",""
"854.7000000178814","","image-keyboard-response","226","168564","0.0-226.0","369J354OFEW336EBE692JLMGDDO6GX","A7P3R1AIA4TVV","3GVPRXWRPHGYHD0HW29VLS36FVC7I4","","img/set1/S3.jpg","74","3","structured_normal","72","structured_normal,structured_incentive,structured_load,random","2,3,1,2,4,2","4,3,1,2","false","","",""
"null","","html-keyboard-response","227","168914","0.0-227.0","369J354OFEW336EBE692JLMGDDO6GX","A7P3R1AIA4TVV","3GVPRXWRPHGYHD0HW29VLS36FVC7I4","","<img src=""img/set1/S3.jpg"" width=""540"" height = ""360"">","null","","","","","","","","","",""
"null","","html-keyboard-response","228","169116","0.0-228.0","369J354OFEW336EBE692JLMGDDO6GX","A7P3R1AIA4TVV","3GVPRXWRPHGYHD0HW29VLS36FVC7I4","","","null","","","","","","","","","",""
"631.9000000059605","","image-keyboard-response","229","169748","0.0-229.0","369J354OFEW336EBE692JLMGDDO6GX","A7P3R1AIA4TVV","3GVPRXWRPHGYHD0HW29VLS36FVC7I4","","img/set1/S4.jpg","74","4","structured_normal","74","structured_normal,structured_incentive,structured_load,random","2,3,1,2,4,2","4,3,1,2","true","","",""
"null","","html-keyboard-response","230","170099","0.0-230.0","369J354OFEW336EBE692JLMGDDO6GX","A7P3R1AIA4TVV","3GVPRXWRPHGYHD0HW29VLS36FVC7I4","","<img src=""img/set1/S4.jpg"" width=""540"" height = ""360"" style=""border:16px solid orange"">","null","","","","","","","","","",""
"null","","html-keyboard-response","231","170301","0.0-231.0","369J354OFEW336EBE692JLMGDDO6GX","A7P3R1AIA4TVV","3GVPRXWRPHGYHD0HW29VLS36FVC7I4","","","null","","","","","","","","","",""
"1894.8999999761581","","image-keyboard-response","232","172196","0.0-232.0","369J354OFEW336EBE692JLMGDDO6GX","A7P3R1AIA4TVV","3GVPRXWRPHGYHD0HW29VLS36FVC7I4","","img/set1/S3.jpg","72","3","structured_normal","72","structured_normal,structured_incentive,structured_load,random","2,3,1,2,4,2","4,3,1,2","true","","",""
"null","","html-keyboard-response","233","172548","0.0-233.0","369J354OFEW336EBE692JLMGDDO6GX","A7P3R1AIA4TVV","3GVPRXWRPHGYHD0HW29VLS36FVC7I4","","<img src=""img/set1/S3.jpg"" width=""540"" height = ""360"" style=""border:16px solid orange"">","null","","","","","","","","","",""
"null","","html-keyboard-response","234","172750","0.0-234.0","369J354OFEW336EBE692JLMGDDO6GX","A7P3R1AIA4TVV","3GVPRXWRPHGYHD0HW29VLS36FVC7I4","","","null","","","","","","","","","",""
"517.3999999761581","","image-keyboard-response","235","173268","0.0-235.0","369J354OFEW336EBE692JLMGDDO6GX","A7P3R1AIA4TVV","3GVPRXWRPHGYHD0HW29VLS36FVC7I4","","img/set1/S3.jpg","72","3","structured_normal","72","structured_normal,structured_incentive,structured_load,random","2,3,1,2,4,2","4,3,1,2","true","","",""
"null","","html-keyboard-response","236","173619","0.0-236.0","369J354OFEW336EBE692JLMGDDO6GX","A7P3R1AIA4TVV","3GVPRXWRPHGYHD0HW29VLS36FVC7I4","","<img src=""img/set1/S3.jpg"" width=""540"" height = ""360"" style=""border:16px solid orange"">","null","","","","","","","","","",""
"null","","html-keyboard-response","237","173820","0.0-237.0","369J354OFEW336EBE692JLMGDDO6GX","A7P3R1AIA4TVV","3GVPRXWRPHGYHD0HW29VLS36FVC7I4","","","null","","","","","","","","","",""
"743","","image-keyboard-response","238","174564","0.0-238.0","369J354OFEW336EBE692JLMGDDO6GX","A7P3R1AIA4TVV","3GVPRXWRPHGYHD0HW29VLS36FVC7I4","","img/set1/S2.jpg","68","2","structured_normal","68","structured_normal,structured_incentive,structured_load,random","2,3,1,2,4,2","4,3,1,2","true","","",""
"null","","html-keyboard-response","239","174916","0.0-239.0","369J354OFEW336EBE692JLMGDDO6GX","A7P3R1AIA4TVV","3GVPRXWRPHGYHD0HW29VLS36FVC7I4","","<img src=""img/set1/S2.jpg"" width=""540"" height = ""360"" style=""border:16px solid orange"">","null","","","","","","","","","",""
"null","","html-keyboard-response","240","175117","0.0-240.0","369J354OFEW336EBE692JLMGDDO6GX","A7P3R1AIA4TVV","3GVPRXWRPHGYHD0HW29VLS36FVC7I4","","","null","","","","","","","","","",""
"790.2999999821186","","image-keyboard-response","241","175908","0.0-241.0","369J354OFEW336EBE692JLMGDDO6GX","A7P3R1AIA4TVV","3GVPRXWRPHGYHD0HW29VLS36FVC7I4","","img/set1/S4.jpg","74","4","structured_normal","74","structured_normal,structured_incentive,structured_load,random","2,3,1,2,4,2","4,3,1,2","true","","",""
"null","","html-keyboard-response","242","176260","0.0-242.0","369J354OFEW336EBE692JLMGDDO6GX","A7P3R1AIA4TVV","3GVPRXWRPHGYHD0HW29VLS36FVC7I4","","<img src=""img/set1/S4.jpg"" width=""540"" height = ""360"" style=""border:16px solid orange"">","null","","","","","","","","","",""
"null","","html-keyboard-response","243","176462","0.0-243.0","369J354OFEW336EBE692JLMGDDO6GX","A7P3R1AIA4TVV","3GVPRXWRPHGYHD0HW29VLS36FVC7I4","","","null","","","","","","","","","",""
"661.3999999761581","","image-keyboard-response","244","177124","0.0-244.0","369J354OFEW336EBE692JLMGDDO6GX","A7P3R1AIA4TVV","3GVPRXWRPHGYHD0HW29VLS36FVC7I4","","img/set1/S1.jpg","83","1","structured_normal","83","structured_normal,structured_incentive,structured_load,random","2,3,1,2,4,2","4,3,1,2","true","","",""
"null","","html-keyboard-response","245","177476","0.0-245.0","369J354OFEW336EBE692JLMGDDO6GX","A7P3R1AIA4TVV","3GVPRXWRPHGYHD0HW29VLS36FVC7I4","","<img src=""img/set1/S1.jpg"" width=""540"" height = ""360"" style=""border:16px solid orange"">","null","","","","","","","","","",""
"null","","html-keyboard-response","246","177677","0.0-246.0","369J354OFEW336EBE692JLMGDDO6GX","A7P3R1AIA4TVV","3GVPRXWRPHGYHD0HW29VLS36FVC7I4","","","null","","","","","","","","","",""
"566.6999999880791","","image-keyboard-response","247","178244","0.0-247.0","369J354OFEW336EBE692JLMGDDO6GX","A7P3R1AIA4TVV","3GVPRXWRPHGYHD0HW29VLS36FVC7I4","","img/set1/S1.jpg","83","1","structured_normal","83","structured_normal,structured_incentive,structured_load,random","2,3,1,2,4,2","4,3,1,2","true","","",""
"null","","html-keyboard-response","248","178595","0.0-248.0","369J354OFEW336EBE692JLMGDDO6GX","A7P3R1AIA4TVV","3GVPRXWRPHGYHD0HW29VLS36FVC7I4","","<img src=""img/set1/S1.jpg"" width=""540"" height = ""360"" style=""border:16px solid orange"">","null","","","","","","","","","",""
"null","","html-keyboard-response","249","178796","0.0-249.0","369J354OFEW336EBE692JLMGDDO6GX","A7P3R1AIA4TVV","3GVPRXWRPHGYHD0HW29VLS36FVC7I4","","","null","","","","","","","","","",""
"823.3000000119209","","image-keyboard-response","250","179620","0.0-250.0","369J354OFEW336EBE692JLMGDDO6GX","A7P3R1AIA4TVV","3GVPRXWRPHGYHD0HW29VLS36FVC7I4","","img/set1/S4.jpg","74","4","structured_normal","74","structured_normal,structured_incentive,structured_load,random","2,3,1,2,4,2","4,3,1,2","true","","",""
"null","","html-keyboard-response","251","179971","0.0-251.0","369J354OFEW336EBE692JLMGDDO6GX","A7P3R1AIA4TVV","3GVPRXWRPHGYHD0HW29VLS36FVC7I4","","<img src=""img/set1/S4.jpg"" width=""540"" height = ""360"" style=""border:16px solid orange"">","null","","","","","","","","","",""
"null","","html-keyboard-response","252","180174","0.0-252.0","369J354OFEW336EBE692JLMGDDO6GX","A7P3R1AIA4TVV","3GVPRXWRPHGYHD0HW29VLS36FVC7I4","","","null","","","","","","","","","",""
"566.0999999940395","","image-keyboard-response","253","180740","0.0-253.0","369J354OFEW336EBE692JLMGDDO6GX","A7P3R1AIA4TVV","3GVPRXWRPHGYHD0HW29VLS36FVC7I4","","img/set1/S4.jpg","74","4","structured_normal","74","structured_normal,structured_incentive,structured_load,random","2,3,1,2,4,2","4,3,1,2","true","","",""
"null","","html-keyboard-response","254","181092","0.0-254.0","369J354OFEW336EBE692JLMGDDO6GX","A7P3R1AIA4TVV","3GVPRXWRPHGYHD0HW29VLS36FVC7I4","","<img src=""img/set1/S4.jpg"" width=""540"" height = ""360"" style=""border:16px solid orange"">","null","","","","","","","","","",""
"null","","html-keyboard-response","255","181293","0.0-255.0","369J354OFEW336EBE692JLMGDDO6GX","A7P3R1AIA4TVV","3GVPRXWRPHGYHD0HW29VLS36FVC7I4","","","null","","","","","","","","","",""
"471","","image-keyboard-response","256","181764","0.0-256.0","369J354OFEW336EBE692JLMGDDO6GX","A7P3R1AIA4TVV","3GVPRXWRPHGYHD0HW29VLS36FVC7I4","","img/set1/S4.jpg","74","4","structured_normal","74","structured_normal,structured_incentive,structured_load,random","2,3,1,2,4,2","4,3,1,2","true","","",""
"null","","html-keyboard-response","257","182116","0.0-257.0","369J354OFEW336EBE692JLMGDDO6GX","A7P3R1AIA4TVV","3GVPRXWRPHGYHD0HW29VLS36FVC7I4","","<img src=""img/set1/S4.jpg"" width=""540"" height = ""360"" style=""border:16px solid orange"">","null","","","","","","","","","",""
"null","","html-keyboard-response","258","182318","0.0-258.0","369J354OFEW336EBE692JLMGDDO6GX","A7P3R1AIA4TVV","3GVPRXWRPHGYHD0HW29VLS36FVC7I4","","","null","","","","","","","","","",""
"725.6999999880791","","image-keyboard-response","259","183044","0.0-259.0","369J354OFEW336EBE692JLMGDDO6GX","A7P3R1AIA4TVV","3GVPRXWRPHGYHD0HW29VLS36FVC7I4","","img/set1/S2.jpg","68","2","structured_normal","68","structured_normal,structured_incentive,structured_load,random","2,3,1,2,4,2","4,3,1,2","true","","",""
"null","","html-keyboard-response","260","183396","0.0-260.0","369J354OFEW336EBE692JLMGDDO6GX","A7P3R1AIA4TVV","3GVPRXWRPHGYHD0HW29VLS36FVC7I4","","<img src=""img/set1/S2.jpg"" width=""540"" height = ""360"" style=""border:16px solid orange"">","null","","","","","","","","","",""
"null","","html-keyboard-response","261","183597","0.0-261.0","369J354OFEW336EBE692JLMGDDO6GX","A7P3R1AIA4TVV","3GVPRXWRPHGYHD0HW29VLS36FVC7I4","","","null","","","","","","","","","",""
"918.8999999761581","","image-keyboard-response","262","184516","0.0-262.0","369J354OFEW336EBE692JLMGDDO6GX","A7P3R1AIA4TVV","3GVPRXWRPHGYHD0HW29VLS36FVC7I4","","img/set1/S3.jpg","72","3","structured_normal","72","structured_normal,structured_incentive,structured_load,random","2,3,1,2,4,2","4,3,1,2","true","","",""
"null","","html-keyboard-response","263","184868","0.0-263.0","369J354OFEW336EBE692JLMGDDO6GX","A7P3R1AIA4TVV","3GVPRXWRPHGYHD0HW29VLS36FVC7I4","","<img src=""img/set1/S3.jpg"" width=""540"" height = ""360"" style=""border:16px solid orange"">","null","","","","","","","","","",""
"null","","html-keyboard-response","264","185069","0.0-264.0","369J354OFEW336EBE692JLMGDDO6GX","A7P3R1AIA4TVV","3GVPRXWRPHGYHD0HW29VLS36FVC7I4","","","null","","","","","","","","","",""
"614.1999999880791","","image-keyboard-response","265","185684","0.0-265.0","369J354OFEW336EBE692JLMGDDO6GX","A7P3R1AIA4TVV","3GVPRXWRPHGYHD0HW29VLS36FVC7I4","","img/set1/S1.jpg","83","1","structured_normal","83","structured_normal,structured_incentive,structured_load,random","2,3,1,2,4,2","4,3,1,2","true","","",""
"null","","html-keyboard-response","266","186035","0.0-266.0","369J354OFEW336EBE692JLMGDDO6GX","A7P3R1AIA4TVV","3GVPRXWRPHGYHD0HW29VLS36FVC7I4","","<img src=""img/set1/S1.jpg"" width=""540"" height = ""360"" style=""border:16px solid orange"">","null","","","","","","","","","",""
"null","","html-keyboard-response","267","186236","0.0-267.0","369J354OFEW336EBE692JLMGDDO6GX","A7P3R1AIA4TVV","3GVPRXWRPHGYHD0HW29VLS36FVC7I4","","","null","","","","","","","","","",""
"1896.5","","image-keyboard-response","268","188133","0.0-268.0","369J354OFEW336EBE692JLMGDDO6GX","A7P3R1AIA4TVV","3GVPRXWRPHGYHD0HW29VLS36FVC7I4","","img/set1/S4.jpg","74","4","structured_normal","74","structured_normal,structured_incentive,structured_load,random","2,3,1,2,4,2","4,3,1,2","true","","",""
"null","","html-keyboard-response","269","188484","0.0-269.0","369J354OFEW336EBE692JLMGDDO6GX","A7P3R1AIA4TVV","3GVPRXWRPHGYHD0HW29VLS36FVC7I4","","<img src=""img/set1/S4.jpg"" width=""540"" height = ""360"" style=""border:16px solid orange"">","null","","","","","","","","","",""
"null","","html-keyboard-response","270","188686","0.0-270.0","369J354OFEW336EBE692JLMGDDO6GX","A7P3R1AIA4TVV","3GVPRXWRPHGYHD0HW29VLS36FVC7I4","","","null","","","","","","","","","",""
"1782.199999988079","","image-keyboard-response","271","190468","0.0-271.0","369J354OFEW336EBE692JLMGDDO6GX","A7P3R1AIA4TVV","3GVPRXWRPHGYHD0HW29VLS36FVC7I4","","img/set1/S2.jpg","68","2","structured_normal","68","structured_normal,structured_incentive,structured_load,random","2,3,1,2,4,2","4,3,1,2","true","","",""
"null","","html-keyboard-response","272","190819","0.0-272.0","369J354OFEW336EBE692JLMGDDO6GX","A7P3R1AIA4TVV","3GVPRXWRPHGYHD0HW29VLS36FVC7I4","","<img src=""img/set1/S2.jpg"" width=""540"" height = ""360"" style=""border:16px solid orange"">","null","","","","","","","","","",""
"null","","html-keyboard-response","273","191021","0.0-273.0","369J354OFEW336EBE692JLMGDDO6GX","A7P3R1AIA4TVV","3GVPRXWRPHGYHD0HW29VLS36FVC7I4","","","null","","","","","","","","","",""
"662.7000000178814","","image-keyboard-response","274","191685","0.0-274.0","369J354OFEW336EBE692JLMGDDO6GX","A7P3R1AIA4TVV","3GVPRXWRPHGYHD0HW29VLS36FVC7I4","","img/set1/S3.jpg","72","3","structured_normal","72","structured_normal,structured_incentive,structured_load,random","2,3,1,2,4,2","4,3,1,2","true","","",""
"null","","html-keyboard-response","275","192036","0.0-275.0","369J354OFEW336EBE692JLMGDDO6GX","A7P3R1AIA4TVV","3GVPRXWRPHGYHD0HW29VLS36FVC7I4","","<img src=""img/set1/S3.jpg"" width=""540"" height = ""360"" style=""border:16px solid orange"">","null","","","","","","","","","",""
"null","","html-keyboard-response","276","192237","0.0-276.0","369J354OFEW336EBE692JLMGDDO6GX","A7P3R1AIA4TVV","3GVPRXWRPHGYHD0HW29VLS36FVC7I4","","","null","","","","","","","","","",""
"695.1999999880791","","image-keyboard-response","277","192932","0.0-277.0","369J354OFEW336EBE692JLMGDDO6GX","A7P3R1AIA4TVV","3GVPRXWRPHGYHD0HW29VLS36FVC7I4","","img/set1/S2.jpg","68","2","structured_normal","68","structured_normal,structured_incentive,structured_load,random","2,3,1,2,4,2","4,3,1,2","true","","",""
"null","","html-keyboard-response","278","193284","0.0-278.0","369J354OFEW336EBE692JLMGDDO6GX","A7P3R1AIA4TVV","3GVPRXWRPHGYHD0HW29VLS36FVC7I4","","<img src=""img/set1/S2.jpg"" width=""540"" height = ""360"" style=""border:16px solid orange"">","null","","","","","","","","","",""
"null","","html-keyboard-response","279","193486","0.0-279.0","369J354OFEW336EBE692JLMGDDO6GX","A7P3R1AIA4TVV","3GVPRXWRPHGYHD0HW29VLS36FVC7I4","","","null","","","","","","","","","",""
"1094.0999999940395","","image-keyboard-response","280","194580","0.0-280.0","369J354OFEW336EBE692JLMGDDO6GX","A7P3R1AIA4TVV","3GVPRXWRPHGYHD0HW29VLS36FVC7I4","","img/set1/S4.jpg","74","4","structured_normal","74","structured_normal,structured_incentive,structured_load,random","2,3,1,2,4,2","4,3,1,2","true","","",""
"null","","html-keyboard-response","281","194932","0.0-281.0","369J354OFEW336EBE692JLMGDDO6GX","A7P3R1AIA4TVV","3GVPRXWRPHGYHD0HW29VLS36FVC7I4","","<img src=""img/set1/S4.jpg"" width=""540"" height = ""360"" style=""border:16px solid orange"">","null","","","","","","","","","",""
"null","","html-keyboard-response","282","195134","0.0-282.0","369J354OFEW336EBE692JLMGDDO6GX","A7P3R1AIA4TVV","3GVPRXWRPHGYHD0HW29VLS36FVC7I4","","","null","","","","","","","","","",""
"422","","image-keyboard-response","283","195556","0.0-283.0","369J354OFEW336EBE692JLMGDDO6GX","A7P3R1AIA4TVV","3GVPRXWRPHGYHD0HW29VLS36FVC7I4","","img/set1/S1.jpg","83","1","structured_normal","83","structured_normal,structured_incentive,structured_load,random","2,3,1,2,4,2","4,3,1,2","true","","",""
"null","","html-keyboard-response","284","195909","0.0-284.0","369J354OFEW336EBE692JLMGDDO6GX","A7P3R1AIA4TVV","3GVPRXWRPHGYHD0HW29VLS36FVC7I4","","<img src=""img/set1/S1.jpg"" width=""540"" height = ""360"" style=""border:16px solid orange"">","null","","","","","","","","","",""
"null","","html-keyboard-response","285","196111","0.0-285.0","369J354OFEW336EBE692JLMGDDO6GX","A7P3R1AIA4TVV","3GVPRXWRPHGYHD0HW29VLS36FVC7I4","","","null","","","","","","","","","",""
"645.3999999761581","","image-keyboard-response","286","196756","0.0-286.0","369J354OFEW336EBE692JLMGDDO6GX","A7P3R1AIA4TVV","3GVPRXWRPHGYHD0HW29VLS36FVC7I4","","img/set1/S4.jpg","74","4","structured_normal","74","structured_normal,structured_incentive,structured_load,random","2,3,1,2,4,2","4,3,1,2","true","","",""
"null","","html-keyboard-response","287","197108","0.0-287.0","369J354OFEW336EBE692JLMGDDO6GX","A7P3R1AIA4TVV","3GVPRXWRPHGYHD0HW29VLS36FVC7I4","","<img src=""img/set1/S4.jpg"" width=""540"" height = ""360"" style=""border:16px solid orange"">","null","","","","","","","","","",""
"null","","html-keyboard-response","288","197310","0.0-288.0","369J354OFEW336EBE692JLMGDDO6GX","A7P3R1AIA4TVV","3GVPRXWRPHGYHD0HW29VLS36FVC7I4","","","null","","","","","","","","","",""
"1749.8999999761581","","image-keyboard-response","289","199060","0.0-289.0","369J354OFEW336EBE692JLMGDDO6GX","A7P3R1AIA4TVV","3GVPRXWRPHGYHD0HW29VLS36FVC7I4","","img/set1/S2.jpg","68","2","structured_normal","68","structured_normal,structured_incentive,structured_load,random","2,3,1,2,4,2","4,3,1,2","true","","",""
"null","","html-keyboard-response","290","199413","0.0-290.0","369J354OFEW336EBE692JLMGDDO6GX","A7P3R1AIA4TVV","3GVPRXWRPHGYHD0HW29VLS36FVC7I4","","<img src=""img/set1/S2.jpg"" width=""540"" height = ""360"" style=""border:16px solid orange"">","null","","","","","","","","","",""
"null","","html-keyboard-response","291","199614","0.0-291.0","369J354OFEW336EBE692JLMGDDO6GX","A7P3R1AIA4TVV","3GVPRXWRPHGYHD0HW29VLS36FVC7I4","","","null","","","","","","","","","",""
"630.2000000178814","","image-keyboard-response","292","200245","0.0-292.0","369J354OFEW336EBE692JLMGDDO6GX","A7P3R1AIA4TVV","3GVPRXWRPHGYHD0HW29VLS36FVC7I4","","img/set1/S3.jpg","72","3","structured_normal","72","structured_normal,structured_incentive,structured_load,random","2,3,1,2,4,2","4,3,1,2","true","","",""
"null","","html-keyboard-response","293","200596","0.0-293.0","369J354OFEW336EBE692JLMGDDO6GX","A7P3R1AIA4TVV","3GVPRXWRPHGYHD0HW29VLS36FVC7I4","","<img src=""img/set1/S3.jpg"" width=""540"" height = ""360"" style=""border:16px solid orange"">","null","","","","","","","","","",""
"null","","html-keyboard-response","294","200797","0.0-294.0","369J354OFEW336EBE692JLMGDDO6GX","A7P3R1AIA4TVV","3GVPRXWRPHGYHD0HW29VLS36FVC7I4","","","null","","","","","","","","","",""
"758.5999999940395","","image-keyboard-response","295","201556","0.0-295.0","369J354OFEW336EBE692JLMGDDO6GX","A7P3R1AIA4TVV","3GVPRXWRPHGYHD0HW29VLS36FVC7I4","","img/set1/S1.jpg","83","1","structured_normal","83","structured_normal,structured_incentive,structured_load,random","2,3,1,2,4,2","4,3,1,2","true","","",""
"null","","html-keyboard-response","296","201907","0.0-296.0","369J354OFEW336EBE692JLMGDDO6GX","A7P3R1AIA4TVV","3GVPRXWRPHGYHD0HW29VLS36FVC7I4","","<img src=""img/set1/S1.jpg"" width=""540"" height = ""360"" style=""border:16px solid orange"">","null","","","","","","","","","",""
"null","","html-keyboard-response","297","202109","0.0-297.0","369J354OFEW336EBE692JLMGDDO6GX","A7P3R1AIA4TVV","3GVPRXWRPHGYHD0HW29VLS36FVC7I4","","","null","","","","","","","","","",""
"983","","image-keyboard-response","298","203093","0.0-298.0","369J354OFEW336EBE692JLMGDDO6GX","A7P3R1AIA4TVV","3GVPRXWRPHGYHD0HW29VLS36FVC7I4","","img/set1/S2.jpg","72","2","structured_normal","68","structured_normal,structured_incentive,structured_load,random","2,3,1,2,4,2","4,3,1,2","false","","",""
"null","","html-keyboard-response","299","203444","0.0-299.0","369J354OFEW336EBE692JLMGDDO6GX","A7P3R1AIA4TVV","3GVPRXWRPHGYHD0HW29VLS36FVC7I4","","<img src=""img/set1/S2.jpg"" width=""540"" height = ""360"">","null","","","","","","","","","",""
"null","","html-keyboard-response","300","203645","0.0-300.0","369J354OFEW336EBE692JLMGDDO6GX","A7P3R1AIA4TVV","3GVPRXWRPHGYHD0HW29VLS36FVC7I4","","","null","","","","","","","","","",""
"710.4000000059605","","image-keyboard-response","301","204356","0.0-301.0","369J354OFEW336EBE692JLMGDDO6GX","A7P3R1AIA4TVV","3GVPRXWRPHGYHD0HW29VLS36FVC7I4","","img/set1/S4.jpg","74","4","structured_normal","74","structured_normal,structured_incentive,structured_load,random","2,3,1,2,4,2","4,3,1,2","true","","",""
"null","","html-keyboard-response","302","204707","0.0-302.0","369J354OFEW336EBE692JLMGDDO6GX","A7P3R1AIA4TVV","3GVPRXWRPHGYHD0HW29VLS36FVC7I4","","<img src=""img/set1/S4.jpg"" width=""540"" height = ""360"" style=""border:16px solid orange"">","null","","","","","","","","","",""
"null","","html-keyboard-response","303","204909","0.0-303.0","369J354OFEW336EBE692JLMGDDO6GX","A7P3R1AIA4TVV","3GVPRXWRPHGYHD0HW29VLS36FVC7I4","","","null","","","","","","","","","",""
"1046.800000011921","","image-keyboard-response","304","205956","0.0-304.0","369J354OFEW336EBE692JLMGDDO6GX","A7P3R1AIA4TVV","3GVPRXWRPHGYHD0HW29VLS36FVC7I4","","img/set1/S2.jpg","68","2","structured_normal","68","structured_normal,structured_incentive,structured_load,random","2,3,1,2,4,2","4,3,1,2","true","","",""
"null","","html-keyboard-response","305","206308","0.0-305.0","369J354OFEW336EBE692JLMGDDO6GX","A7P3R1AIA4TVV","3GVPRXWRPHGYHD0HW29VLS36FVC7I4","","<img src=""img/set1/S2.jpg"" width=""540"" height = ""360"" style=""border:16px solid orange"">","null","","","","","","","","","",""
"null","","html-keyboard-response","306","206509","0.0-306.0","369J354OFEW336EBE692JLMGDDO6GX","A7P3R1AIA4TVV","3GVPRXWRPHGYHD0HW29VLS36FVC7I4","","","null","","","","","","","","","",""
"1302.800000011921","","image-keyboard-response","307","207812","0.0-307.0","369J354OFEW336EBE692JLMGDDO6GX","A7P3R1AIA4TVV","3GVPRXWRPHGYHD0HW29VLS36FVC7I4","","img/set1/S3.jpg","72","3","structured_normal","72","structured_normal,structured_incentive,structured_load,random","2,3,1,2,4,2","4,3,1,2","true","","",""
"null","","html-keyboard-response","308","208164","0.0-308.0","369J354OFEW336EBE692JLMGDDO6GX","A7P3R1AIA4TVV","3GVPRXWRPHGYHD0HW29VLS36FVC7I4","","<img src=""img/set1/S3.jpg"" width=""540"" height = ""360"" style=""border:16px solid orange"">","null","","","","","","","","","",""
"null","","html-keyboard-response","309","208366","0.0-309.0","369J354OFEW336EBE692JLMGDDO6GX","A7P3R1AIA4TVV","3GVPRXWRPHGYHD0HW29VLS36FVC7I4","","","null","","","","","","","","","",""
"null","","image-keyboard-response","310","210867","0.0-310.0","369J354OFEW336EBE692JLMGDDO6GX","A7P3R1AIA4TVV","3GVPRXWRPHGYHD0HW29VLS36FVC7I4","","img/set1/S2.jpg","null","2","structured_normal","68","structured_normal,structured_incentive,structured_load,random","2,3,1,2,4,2","4,3,1,2","false","","",""
"null","","html-keyboard-response","311","211218","0.0-311.0","369J354OFEW336EBE692JLMGDDO6GX","A7P3R1AIA4TVV","3GVPRXWRPHGYHD0HW29VLS36FVC7I4","","<img src=""img/set1/S2.jpg"" width=""540"" height = ""360"">","null","","","","","","","","","",""
"null","","html-keyboard-response","312","211419","0.0-312.0","369J354OFEW336EBE692JLMGDDO6GX","A7P3R1AIA4TVV","3GVPRXWRPHGYHD0HW29VLS36FVC7I4","","","null","","","","","","","","","",""
"232.90000000596046","","image-keyboard-response","313","211652","0.0-313.0","369J354OFEW336EBE692JLMGDDO6GX","A7P3R1AIA4TVV","3GVPRXWRPHGYHD0HW29VLS36FVC7I4","","img/set1/S3.jpg","68","3","structured_normal","72","structured_normal,structured_incentive,structured_load,random","2,3,1,2,4,2","4,3,1,2","false","","",""
"null","","html-keyboard-response","314","212004","0.0-314.0","369J354OFEW336EBE692JLMGDDO6GX","A7P3R1AIA4TVV","3GVPRXWRPHGYHD0HW29VLS36FVC7I4","","<img src=""img/set1/S3.jpg"" width=""540"" height = ""360"">","null","","","","","","","","","",""
"null","","html-keyboard-response","315","212205","0.0-315.0","369J354OFEW336EBE692JLMGDDO6GX","A7P3R1AIA4TVV","3GVPRXWRPHGYHD0HW29VLS36FVC7I4","","","null","","","","","","","","","",""
"71","","image-keyboard-response","316","212276","0.0-316.0","369J354OFEW336EBE692JLMGDDO6GX","A7P3R1AIA4TVV","3GVPRXWRPHGYHD0HW29VLS36FVC7I4","","img/set1/S1.jpg","74","1","structured_normal","83","structured_normal,structured_incentive,structured_load,random","2,3,1,2,4,2","4,3,1,2","false","","",""
"null","","html-keyboard-response","317","212629","0.0-317.0","369J354OFEW336EBE692JLMGDDO6GX","A7P3R1AIA4TVV","3GVPRXWRPHGYHD0HW29VLS36FVC7I4","","<img src=""img/set1/S1.jpg"" width=""540"" height = ""360"">","null","","","","","","","","","",""
"null","","html-keyboard-response","318","212830","0.0-318.0","369J354OFEW336EBE692JLMGDDO6GX","A7P3R1AIA4TVV","3GVPRXWRPHGYHD0HW29VLS36FVC7I4","","","null","","","","","","","","","",""
"1381.9000000059605","","image-keyboard-response","319","214212","0.0-319.0","369J354OFEW336EBE692JLMGDDO6GX","A7P3R1AIA4TVV","3GVPRXWRPHGYHD0HW29VLS36FVC7I4","","img/set1/S3.jpg","72","3","structured_normal","72","structured_normal,structured_incentive,structured_load,random","2,3,1,2,4,2","4,3,1,2","true","","",""
"null","","html-keyboard-response","320","214563","0.0-320.0","369J354OFEW336EBE692JLMGDDO6GX","A7P3R1AIA4TVV","3GVPRXWRPHGYHD0HW29VLS36FVC7I4","","<img src=""img/set1/S3.jpg"" width=""540"" height = ""360"" style=""border:16px solid orange"">","null","","","","","","","","","",""
"null","","html-keyboard-response","321","214766","0.0-321.0","369J354OFEW336EBE692JLMGDDO6GX","A7P3R1AIA4TVV","3GVPRXWRPHGYHD0HW29VLS36FVC7I4","","","null","","","","","","","","","",""
"758.1999999880791","","image-keyboard-response","322","215524","0.0-322.0","369J354OFEW336EBE692JLMGDDO6GX","A7P3R1AIA4TVV","3GVPRXWRPHGYHD0HW29VLS36FVC7I4","","img/set1/S1.jpg","83","1","structured_normal","83","structured_normal,structured_incentive,structured_load,random","2,3,1,2,4,2","4,3,1,2","true","","",""
"null","","html-keyboard-response","323","215876","0.0-323.0","369J354OFEW336EBE692JLMGDDO6GX","A7P3R1AIA4TVV","3GVPRXWRPHGYHD0HW29VLS36FVC7I4","","<img src=""img/set1/S1.jpg"" width=""540"" height = ""360"" style=""border:16px solid orange"">","null","","","","","","","","","",""
"null","","html-keyboard-response","324","216077","0.0-324.0","369J354OFEW336EBE692JLMGDDO6GX","A7P3R1AIA4TVV","3GVPRXWRPHGYHD0HW29VLS36FVC7I4","","","null","","","","","","","","","",""
"1478.4000000059605","","image-keyboard-response","325","217556","0.0-325.0","369J354OFEW336EBE692JLMGDDO6GX","A7P3R1AIA4TVV","3GVPRXWRPHGYHD0HW29VLS36FVC7I4","","img/set1/S1.jpg","83","1","structured_normal","83","structured_normal,structured_incentive,structured_load,random","2,3,1,2,4,2","4,3,1,2","true","","",""
"null","","html-keyboard-response","326","217907","0.0-326.0","369J354OFEW336EBE692JLMGDDO6GX","A7P3R1AIA4TVV","3GVPRXWRPHGYHD0HW29VLS36FVC7I4","","<img src=""img/set1/S1.jpg"" width=""540"" height = ""360"" style=""border:16px solid orange"">","null","","","","","","","","","",""
"null","","html-keyboard-response","327","218109","0.0-327.0","369J354OFEW336EBE692JLMGDDO6GX","A7P3R1AIA4TVV","3GVPRXWRPHGYHD0HW29VLS36FVC7I4","","","null","","","","","","","","","",""
"1062.800000011921","","image-keyboard-response","328","219172","0.0-328.0","369J354OFEW336EBE692JLMGDDO6GX","A7P3R1AIA4TVV","3GVPRXWRPHGYHD0HW29VLS36FVC7I4","","img/set1/S4.jpg","74","4","structured_normal","74","structured_normal,structured_incentive,structured_load,random","2,3,1,2,4,2","4,3,1,2","true","","",""
"null","","html-keyboard-response","329","219523","0.0-329.0","369J354OFEW336EBE692JLMGDDO6GX","A7P3R1AIA4TVV","3GVPRXWRPHGYHD0HW29VLS36FVC7I4","","<img src=""img/set1/S4.jpg"" width=""540"" height = ""360"" style=""border:16px solid orange"">","null","","","","","","","","","",""
"null","","html-keyboard-response","330","219725","0.0-330.0","369J354OFEW336EBE692JLMGDDO6GX","A7P3R1AIA4TVV","3GVPRXWRPHGYHD0HW29VLS36FVC7I4","","","null","","","","","","","","","",""
"2007.5","","image-keyboard-response","331","221732","0.0-331.0","369J354OFEW336EBE692JLMGDDO6GX","A7P3R1AIA4TVV","3GVPRXWRPHGYHD0HW29VLS36FVC7I4","","img/set1/S2.jpg","68","2","structured_normal","68","structured_normal,structured_incentive,structured_load,random","2,3,1,2,4,2","4,3,1,2","true","","",""
"null","","html-keyboard-response","332","222083","0.0-332.0","369J354OFEW336EBE692JLMGDDO6GX","A7P3R1AIA4TVV","3GVPRXWRPHGYHD0HW29VLS36FVC7I4","","<img src=""img/set1/S2.jpg"" width=""540"" height = ""360"" style=""border:16px solid orange"">","null","","","","","","","","","",""
"null","","html-keyboard-response","333","222285","0.0-333.0","369J354OFEW336EBE692JLMGDDO6GX","A7P3R1AIA4TVV","3GVPRXWRPHGYHD0HW29VLS36FVC7I4","","","null","","","","","","","","","",""
"1847.199999988079","","image-keyboard-response","334","224132","0.0-334.0","369J354OFEW336EBE692JLMGDDO6GX","A7P3R1AIA4TVV","3GVPRXWRPHGYHD0HW29VLS36FVC7I4","","img/set1/S4.jpg","74","4","structured_normal","74","structured_normal,structured_incentive,structured_load,random","2,3,1,2,4,2","4,3,1,2","true","","",""
"null","","html-keyboard-response","335","224484","0.0-335.0","369J354OFEW336EBE692JLMGDDO6GX","A7P3R1AIA4TVV","3GVPRXWRPHGYHD0HW29VLS36FVC7I4","","<img src=""img/set1/S4.jpg"" width=""540"" height = ""360"" style=""border:16px solid orange"">","null","","","","","","","","","",""
"null","","html-keyboard-response","336","224685","0.0-336.0","369J354OFEW336EBE692JLMGDDO6GX","A7P3R1AIA4TVV","3GVPRXWRPHGYHD0HW29VLS36FVC7I4","","","null","","","","","","","","","",""
"1575.3999999761581","","image-keyboard-response","337","226260","0.0-337.0","369J354OFEW336EBE692JLMGDDO6GX","A7P3R1AIA4TVV","3GVPRXWRPHGYHD0HW29VLS36FVC7I4","","img/set1/S1.jpg","83","1","structured_normal","83","structured_normal,structured_incentive,structured_load,random","2,3,1,2,4,2","4,3,1,2","true","","",""
"null","","html-keyboard-response","338","226612","0.0-338.0","369J354OFEW336EBE692JLMGDDO6GX","A7P3R1AIA4TVV","3GVPRXWRPHGYHD0HW29VLS36FVC7I4","","<img src=""img/set1/S1.jpg"" width=""540"" height = ""360"" style=""border:16px solid orange"">","null","","","","","","","","","",""
"null","","html-keyboard-response","339","226814","0.0-339.0","369J354OFEW336EBE692JLMGDDO6GX","A7P3R1AIA4TVV","3GVPRXWRPHGYHD0HW29VLS36FVC7I4","","","null","","","","","","","","","",""
"1062.800000011921","","image-keyboard-response","340","227877","0.0-340.0","369J354OFEW336EBE692JLMGDDO6GX","A7P3R1AIA4TVV","3GVPRXWRPHGYHD0HW29VLS36FVC7I4","","img/set1/S4.jpg","74","4","structured_normal","74","structured_normal,structured_incentive,structured_load,random","2,3,1,2,4,2","4,3,1,2","true","","",""
"null","","html-keyboard-response","341","228229","0.0-341.0","369J354OFEW336EBE692JLMGDDO6GX","A7P3R1AIA4TVV","3GVPRXWRPHGYHD0HW29VLS36FVC7I4","","<img src=""img/set1/S4.jpg"" width=""540"" height = ""360"" style=""border:16px solid orange"">","null","","","","","","","","","",""
"null","","html-keyboard-response","342","228430","0.0-342.0","369J354OFEW336EBE692JLMGDDO6GX","A7P3R1AIA4TVV","3GVPRXWRPHGYHD0HW29VLS36FVC7I4","","","null","","","","","","","","","",""
"502.90000000596046","","image-keyboard-response","343","228933","0.0-343.0","369J354OFEW336EBE692JLMGDDO6GX","A7P3R1AIA4TVV","3GVPRXWRPHGYHD0HW29VLS36FVC7I4","","img/set1/S4.jpg","74","4","structured_normal","74","structured_normal,structured_incentive,structured_load,random","2,3,1,2,4,2","4,3,1,2","true","","",""
"null","","html-keyboard-response","344","229285","0.0-344.0","369J354OFEW336EBE692JLMGDDO6GX","A7P3R1AIA4TVV","3GVPRXWRPHGYHD0HW29VLS36FVC7I4","","<img src=""img/set1/S4.jpg"" width=""540"" height = ""360"" style=""border:16px solid orange"">","null","","","","","","","","","",""
"null","","html-keyboard-response","345","229486","0.0-345.0","369J354OFEW336EBE692JLMGDDO6GX","A7P3R1AIA4TVV","3GVPRXWRPHGYHD0HW29VLS36FVC7I4","","","null","","","","","","","","","",""
"805.6999999880791","","image-keyboard-response","346","230292","0.0-346.0","369J354OFEW336EBE692JLMGDDO6GX","A7P3R1AIA4TVV","3GVPRXWRPHGYHD0HW29VLS36FVC7I4","","img/set1/S2.jpg","68","2","structured_normal","68","structured_normal,structured_incentive,structured_load,random","2,3,1,2,4,2","4,3,1,2","true","","",""
"null","","html-keyboard-response","347","230644","0.0-347.0","369J354OFEW336EBE692JLMGDDO6GX","A7P3R1AIA4TVV","3GVPRXWRPHGYHD0HW29VLS36FVC7I4","","<img src=""img/set1/S2.jpg"" width=""540"" height = ""360"" style=""border:16px solid orange"">","null","","","","","","","","","",""
"null","","html-keyboard-response","348","230845","0.0-348.0","369J354OFEW336EBE692JLMGDDO6GX","A7P3R1AIA4TVV","3GVPRXWRPHGYHD0HW29VLS36FVC7I4","","","null","","","","","","","","","",""
"758.2999999821186","","image-keyboard-response","349","231604","0.0-349.0","369J354OFEW336EBE692JLMGDDO6GX","A7P3R1AIA4TVV","3GVPRXWRPHGYHD0HW29VLS36FVC7I4","","img/set1/S3.jpg","72","3","structured_normal","72","structured_normal,structured_incentive,structured_load,random","2,3,1,2,4,2","4,3,1,2","true","","",""
"null","","html-keyboard-response","350","231955","0.0-350.0","369J354OFEW336EBE692JLMGDDO6GX","A7P3R1AIA4TVV","3GVPRXWRPHGYHD0HW29VLS36FVC7I4","","<img src=""img/set1/S3.jpg"" width=""540"" height = ""360"" style=""border:16px solid orange"">","null","","","","","","","","","",""
"null","","html-keyboard-response","351","232156","0.0-351.0","369J354OFEW336EBE692JLMGDDO6GX","A7P3R1AIA4TVV","3GVPRXWRPHGYHD0HW29VLS36FVC7I4","","","null","","","","","","","","","",""
"1559.699999988079","","image-keyboard-response","352","233716","0.0-352.0","369J354OFEW336EBE692JLMGDDO6GX","A7P3R1AIA4TVV","3GVPRXWRPHGYHD0HW29VLS36FVC7I4","","img/set1/S2.jpg","68","2","structured_normal","68","structured_normal,structured_incentive,structured_load,random","2,3,1,2,4,2","4,3,1,2","true","","",""
"null","","html-keyboard-response","353","234068","0.0-353.0","369J354OFEW336EBE692JLMGDDO6GX","A7P3R1AIA4TVV","3GVPRXWRPHGYHD0HW29VLS36FVC7I4","","<img src=""img/set1/S2.jpg"" width=""540"" height = ""360"" style=""border:16px solid orange"">","null","","","","","","","","","",""
"null","","html-keyboard-response","354","234268","0.0-354.0","369J354OFEW336EBE692JLMGDDO6GX","A7P3R1AIA4TVV","3GVPRXWRPHGYHD0HW29VLS36FVC7I4","","","null","","","","","","","","","",""
"1047.5999999940395","","image-keyboard-response","355","235316","0.0-355.0","369J354OFEW336EBE692JLMGDDO6GX","A7P3R1AIA4TVV","3GVPRXWRPHGYHD0HW29VLS36FVC7I4","","img/set1/S3.jpg","72","3","structured_normal","72","structured_normal,structured_incentive,structured_load,random","2,3,1,2,4,2","4,3,1,2","true","","",""
"null","","html-keyboard-response","356","235667","0.0-356.0","369J354OFEW336EBE692JLMGDDO6GX","A7P3R1AIA4TVV","3GVPRXWRPHGYHD0HW29VLS36FVC7I4","","<img src=""img/set1/S3.jpg"" width=""540"" height = ""360"" style=""border:16px solid orange"">","null","","","","","","","","","",""
"null","","html-keyboard-response","357","235868","0.0-357.0","369J354OFEW336EBE692JLMGDDO6GX","A7P3R1AIA4TVV","3GVPRXWRPHGYHD0HW29VLS36FVC7I4","","","null","","","","","","","","","",""
"696.4000000059605","","image-keyboard-response","358","236565","0.0-358.0","369J354OFEW336EBE692JLMGDDO6GX","A7P3R1AIA4TVV","3GVPRXWRPHGYHD0HW29VLS36FVC7I4","","img/set1/S2.jpg","68","2","structured_normal","68","structured_normal,structured_incentive,structured_load,random","2,3,1,2,4,2","4,3,1,2","true","","",""
"null","","html-keyboard-response","359","236917","0.0-359.0","369J354OFEW336EBE692JLMGDDO6GX","A7P3R1AIA4TVV","3GVPRXWRPHGYHD0HW29VLS36FVC7I4","","<img src=""img/set1/S2.jpg"" width=""540"" height = ""360"" style=""border:16px solid orange"">","null","","","","","","","","","",""
"null","","html-keyboard-response","360","237118","0.0-360.0","369J354OFEW336EBE692JLMGDDO6GX","A7P3R1AIA4TVV","3GVPRXWRPHGYHD0HW29VLS36FVC7I4","","","null","","","","","","","","","",""
"1590","","image-keyboard-response","361","238708","0.0-361.0","369J354OFEW336EBE692JLMGDDO6GX","A7P3R1AIA4TVV","3GVPRXWRPHGYHD0HW29VLS36FVC7I4","","img/set1/S3.jpg","72","3","structured_normal","72","structured_normal,structured_incentive,structured_load,random","2,3,1,2,4,2","4,3,1,2","true","","",""
"null","","html-keyboard-response","362","239060","0.0-362.0","369J354OFEW336EBE692JLMGDDO6GX","A7P3R1AIA4TVV","3GVPRXWRPHGYHD0HW29VLS36FVC7I4","","<img src=""img/set1/S3.jpg"" width=""540"" height = ""360"" style=""border:16px solid orange"">","null","","","","","","","","","",""
"null","","html-keyboard-response","363","239262","0.0-363.0","369J354OFEW336EBE692JLMGDDO6GX","A7P3R1AIA4TVV","3GVPRXWRPHGYHD0HW29VLS36FVC7I4","","","null","","","","","","","","","",""
"630","","image-keyboard-response","364","239892","0.0-364.0","369J354OFEW336EBE692JLMGDDO6GX","A7P3R1AIA4TVV","3GVPRXWRPHGYHD0HW29VLS36FVC7I4","","img/set1/S1.jpg","83","1","structured_normal","83","structured_normal,structured_incentive,structured_load,random","2,3,1,2,4,2","4,3,1,2","true","","",""
"null","","html-keyboard-response","365","240244","0.0-365.0","369J354OFEW336EBE692JLMGDDO6GX","A7P3R1AIA4TVV","3GVPRXWRPHGYHD0HW29VLS36FVC7I4","","<img src=""img/set1/S1.jpg"" width=""540"" height = ""360"" style=""border:16px solid orange"">","null","","","","","","","","","",""
"null","","html-keyboard-response","366","240445","0.0-366.0","369J354OFEW336EBE692JLMGDDO6GX","A7P3R1AIA4TVV","3GVPRXWRPHGYHD0HW29VLS36FVC7I4","","","null","","","","","","","","","",""
"678.7999999821186","","image-keyboard-response","367","241124","0.0-367.0","369J354OFEW336EBE692JLMGDDO6GX","A7P3R1AIA4TVV","3GVPRXWRPHGYHD0HW29VLS36FVC7I4","","img/set1/S4.jpg","74","4","structured_normal","74","structured_normal,structured_incentive,structured_load,random","2,3,1,2,4,2","4,3,1,2","true","","",""
"null","","html-keyboard-response","368","241476","0.0-368.0","369J354OFEW336EBE692JLMGDDO6GX","A7P3R1AIA4TVV","3GVPRXWRPHGYHD0HW29VLS36FVC7I4","","<img src=""img/set1/S4.jpg"" width=""540"" height = ""360"" style=""border:16px solid orange"">","null","","","","","","","","","",""
"null","","html-keyboard-response","369","241677","0.0-369.0","369J354OFEW336EBE692JLMGDDO6GX","A7P3R1AIA4TVV","3GVPRXWRPHGYHD0HW29VLS36FVC7I4","","","null","","","","","","","","","",""
"1430.5999999940395","","image-keyboard-response","370","243108","0.0-370.0","369J354OFEW336EBE692JLMGDDO6GX","A7P3R1AIA4TVV","3GVPRXWRPHGYHD0HW29VLS36FVC7I4","","img/set1/S2.jpg","68","2","structured_normal","68","structured_normal,structured_incentive,structured_load,random","2,3,1,2,4,2","4,3,1,2","true","","",""
"null","","html-keyboard-response","371","243459","0.0-371.0","369J354OFEW336EBE692JLMGDDO6GX","A7P3R1AIA4TVV","3GVPRXWRPHGYHD0HW29VLS36FVC7I4","","<img src=""img/set1/S2.jpg"" width=""540"" height = ""360"" style=""border:16px solid orange"">","null","","","","","","","","","",""
"null","","html-keyboard-response","372","243660","0.0-372.0","369J354OFEW336EBE692JLMGDDO6GX","A7P3R1AIA4TVV","3GVPRXWRPHGYHD0HW29VLS36FVC7I4","","","null","","","","","","","","","",""
"856.6999999880791","","image-keyboard-response","373","244517","0.0-373.0","369J354OFEW336EBE692JLMGDDO6GX","A7P3R1AIA4TVV","3GVPRXWRPHGYHD0HW29VLS36FVC7I4","","img/set1/S3.jpg","72","3","structured_normal","72","structured_normal,structured_incentive,structured_load,random","2,3,1,2,4,2","4,3,1,2","true","","",""
"null","","html-keyboard-response","374","244868","0.0-374.0","369J354OFEW336EBE692JLMGDDO6GX","A7P3R1AIA4TVV","3GVPRXWRPHGYHD0HW29VLS36FVC7I4","","<img src=""img/set1/S3.jpg"" width=""540"" height = ""360"" style=""border:16px solid orange"">","null","","","","","","","","","",""
"null","","html-keyboard-response","375","245070","0.0-375.0","369J354OFEW336EBE692JLMGDDO6GX","A7P3R1AIA4TVV","3GVPRXWRPHGYHD0HW29VLS36FVC7I4","","","null","","","","","","","","","",""
"1189.300000011921","","image-keyboard-response","376","246260","0.0-376.0","369J354OFEW336EBE692JLMGDDO6GX","A7P3R1AIA4TVV","3GVPRXWRPHGYHD0HW29VLS36FVC7I4","","img/set1/S2.jpg","68","2","structured_normal","68","structured_normal,structured_incentive,structured_load,random","2,3,1,2,4,2","4,3,1,2","true","","",""
"null","","html-keyboard-response","377","246612","0.0-377.0","369J354OFEW336EBE692JLMGDDO6GX","A7P3R1AIA4TVV","3GVPRXWRPHGYHD0HW29VLS36FVC7I4","","<img src=""img/set1/S2.jpg"" width=""540"" height = ""360"" style=""border:16px solid orange"">","null","","","","","","","","","",""
"null","","html-keyboard-response","378","246814","0.0-378.0","369J354OFEW336EBE692JLMGDDO6GX","A7P3R1AIA4TVV","3GVPRXWRPHGYHD0HW29VLS36FVC7I4","","","null","","","","","","","","","",""
"1269.699999988079","","image-keyboard-response","379","248084","0.0-379.0","369J354OFEW336EBE692JLMGDDO6GX","A7P3R1AIA4TVV","3GVPRXWRPHGYHD0HW29VLS36FVC7I4","","img/set1/S3.jpg","72","3","structured_normal","72","structured_normal,structured_incentive,structured_load,random","2,3,1,2,4,2","4,3,1,2","true","","",""
"null","","html-keyboard-response","380","248435","0.0-380.0","369J354OFEW336EBE692JLMGDDO6GX","A7P3R1AIA4TVV","3GVPRXWRPHGYHD0HW29VLS36FVC7I4","","<img src=""img/set1/S3.jpg"" width=""540"" height = ""360"" style=""border:16px solid orange"">","null","","","","","","","","","",""
"null","","html-keyboard-response","381","248636","0.0-381.0","369J354OFEW336EBE692JLMGDDO6GX","A7P3R1AIA4TVV","3GVPRXWRPHGYHD0HW29VLS36FVC7I4","","","null","","","","","","","","","",""
"2104","","image-keyboard-response","382","250740","0.0-382.0","369J354OFEW336EBE692JLMGDDO6GX","A7P3R1AIA4TVV","3GVPRXWRPHGYHD0HW29VLS36FVC7I4","","img/set1/S4.jpg","68","4","structured_normal","74","structured_normal,structured_incentive,structured_load,random","2,3,1,2,4,2","4,3,1,2","false","","",""
"null","","html-keyboard-response","383","251092","0.0-383.0","369J354OFEW336EBE692JLMGDDO6GX","A7P3R1AIA4TVV","3GVPRXWRPHGYHD0HW29VLS36FVC7I4","","<img src=""img/set1/S4.jpg"" width=""540"" height = ""360"">","null","","","","","","","","","",""
