"rt","url","trial_type","trial_index","time_elapsed","internal_node_id","assignmentID","mturkID","hitID","view_history","stimulus","key_press","state","test_part","correct_response","order_block","order_chunk","order_freq","correct","responses","question_order","bonus"
"31824.80000001192","consent.html","external-html","0","31926","0.0-0.0","35GCEFQ6I6A4X4MYLWZTXPQ2ECFZ38","ABKPEX0E9W2HW","3ZXV7Q5FJBAKJ3TNMBBLYHIS0EBCFB","","","","","","","","","","","","",""
"138267.39999997616","","instructions","1","170195","0.0-1.0","35GCEFQ6I6A4X4MYLWZTXPQ2ECFZ38","ABKPEX0E9W2HW","3ZXV7Q5FJBAKJ3TNMBBLYHIS0EBCFB","[{""page_index"":0,""viewing_time"":4163.5},{""page_index"":1,""viewing_time"":3678.699999988079},{""page_index"":2,""viewing_time"":3885.699999988079},{""page_index"":3,""viewing_time"":16323.5},{""page_index"":4,""viewing_time"":4386.100000023842},{""page_index"":5,""viewing_time"":94841.69999998808},{""page_index"":6,""viewing_time"":10987.600000023842}]","","","","","","","","","","","",""
"9709","","instructions","2","179905","0.0-2.0","35GCEFQ6I6A4X4MYLWZTXPQ2ECFZ38","ABKPEX0E9W2HW","3ZXV7Q5FJBAKJ3TNMBBLYHIS0EBCFB","[{""page_index"":0,""viewing_time"":9708.800000011921}]","","","","","","","","","","","",""
"253567","","instructions","3","433473","0.0-3.0","35GCEFQ6I6A4X4MYLWZTXPQ2ECFZ38","ABKPEX0E9W2HW","3ZXV7Q5FJBAKJ3TNMBBLYHIS0EBCFB","[{""page_index"":0,""viewing_time"":9971.699999988079},{""page_index"":1,""viewing_time"":243594.69999998808}]","","","","","","","","","","","",""
"2091.199999988079","","image-keyboard-response","4","435567","0.0-4.0","35GCEFQ6I6A4X4MYLWZTXPQ2ECFZ38","ABKPEX0E9W2HW","3ZXV7Q5FJBAKJ3TNMBBLYHIS0EBCFB","","img/set1/S1.jpg","68","1","structured_incentive","83","structured_incentive,structured_normal,structured_load,random","2,3,1,2,4,2","3,4,2,1","false","","",""
"null","","html-keyboard-response","5","435919","0.0-5.0","35GCEFQ6I6A4X4MYLWZTXPQ2ECFZ38","ABKPEX0E9W2HW","3ZXV7Q5FJBAKJ3TNMBBLYHIS0EBCFB","","<img src=""img/set1/S1.jpg"" width=""540"" height = ""360"">","null","","","","","","","","","",""
"null","","html-keyboard-response","6","436121","0.0-6.0","35GCEFQ6I6A4X4MYLWZTXPQ2ECFZ38","ABKPEX0E9W2HW","3ZXV7Q5FJBAKJ3TNMBBLYHIS0EBCFB","","","null","","","","","","","","","",""
"1576.800000011921","","image-keyboard-response","7","437699","0.0-7.0","35GCEFQ6I6A4X4MYLWZTXPQ2ECFZ38","ABKPEX0E9W2HW","3ZXV7Q5FJBAKJ3TNMBBLYHIS0EBCFB","","img/set1/S4.jpg","83","4","structured_incentive","74","structured_incentive,structured_normal,structured_load,random","2,3,1,2,4,2","3,4,2,1","false","","",""
"null","","html-keyboard-response","8","438050","0.0-8.0","35GCEFQ6I6A4X4MYLWZTXPQ2ECFZ38","ABKPEX0E9W2HW","3ZXV7Q5FJBAKJ3TNMBBLYHIS0EBCFB","","<img src=""img/set1/S4.jpg"" width=""540"" height = ""360"">","null","","","","","","","","","",""
"null","","html-keyboard-response","9","438252","0.0-9.0","35GCEFQ6I6A4X4MYLWZTXPQ2ECFZ38","ABKPEX0E9W2HW","3ZXV7Q5FJBAKJ3TNMBBLYHIS0EBCFB","","","null","","","","","","","","","",""
"null","","image-keyboard-response","10","440754","0.0-10.0","35GCEFQ6I6A4X4MYLWZTXPQ2ECFZ38","ABKPEX0E9W2HW","3ZXV7Q5FJBAKJ3TNMBBLYHIS0EBCFB","","img/set1/S1.jpg","null","1","structured_incentive","83","structured_incentive,structured_normal,structured_load,random","2,3,1,2,4,2","3,4,2,1","false","","",""
"null","","html-keyboard-response","11","441106","0.0-11.0","35GCEFQ6I6A4X4MYLWZTXPQ2ECFZ38","ABKPEX0E9W2HW","3ZXV7Q5FJBAKJ3TNMBBLYHIS0EBCFB","","<img src=""img/set1/S1.jpg"" width=""540"" height = ""360"">","null","","","","","","","","","",""
"null","","html-keyboard-response","12","441308","0.0-12.0","35GCEFQ6I6A4X4MYLWZTXPQ2ECFZ38","ABKPEX0E9W2HW","3ZXV7Q5FJBAKJ3TNMBBLYHIS0EBCFB","","","null","","","","","","","","","",""
"1123.5","","image-keyboard-response","13","442432","0.0-13.0","35GCEFQ6I6A4X4MYLWZTXPQ2ECFZ38","ABKPEX0E9W2HW","3ZXV7Q5FJBAKJ3TNMBBLYHIS0EBCFB","","img/set1/S4.jpg","83","4","structured_incentive","74","structured_incentive,structured_normal,structured_load,random","2,3,1,2,4,2","3,4,2,1","false","","",""
"null","","html-keyboard-response","14","442784","0.0-14.0","35GCEFQ6I6A4X4MYLWZTXPQ2ECFZ38","ABKPEX0E9W2HW","3ZXV7Q5FJBAKJ3TNMBBLYHIS0EBCFB","","<img src=""img/set1/S4.jpg"" width=""540"" height = ""360"">","null","","","","","","","","","",""
"null","","html-keyboard-response","15","442985","0.0-15.0","35GCEFQ6I6A4X4MYLWZTXPQ2ECFZ38","ABKPEX0E9W2HW","3ZXV7Q5FJBAKJ3TNMBBLYHIS0EBCFB","","","null","","","","","","","","","",""
"null","","image-keyboard-response","16","445486","0.0-16.0","35GCEFQ6I6A4X4MYLWZTXPQ2ECFZ38","ABKPEX0E9W2HW","3ZXV7Q5FJBAKJ3TNMBBLYHIS0EBCFB","","img/set1/S1.jpg","null","1","structured_incentive","83","structured_incentive,structured_normal,structured_load,random","2,3,1,2,4,2","3,4,2,1","false","","",""
"null","","html-keyboard-response","17","445839","0.0-17.0","35GCEFQ6I6A4X4MYLWZTXPQ2ECFZ38","ABKPEX0E9W2HW","3ZXV7Q5FJBAKJ3TNMBBLYHIS0EBCFB","","<img src=""img/set1/S1.jpg"" width=""540"" height = ""360"">","null","","","","","","","","","",""
"null","","html-keyboard-response","18","446040","0.0-18.0","35GCEFQ6I6A4X4MYLWZTXPQ2ECFZ38","ABKPEX0E9W2HW","3ZXV7Q5FJBAKJ3TNMBBLYHIS0EBCFB","","","null","","","","","","","","","",""
"1195.9000000357628","","image-keyboard-response","19","447237","0.0-19.0","35GCEFQ6I6A4X4MYLWZTXPQ2ECFZ38","ABKPEX0E9W2HW","3ZXV7Q5FJBAKJ3TNMBBLYHIS0EBCFB","","img/set1/S1.jpg","74","1","structured_incentive","83","structured_incentive,structured_normal,structured_load,random","2,3,1,2,4,2","3,4,2,1","false","","",""
"null","","html-keyboard-response","20","447588","0.0-20.0","35GCEFQ6I6A4X4MYLWZTXPQ2ECFZ38","ABKPEX0E9W2HW","3ZXV7Q5FJBAKJ3TNMBBLYHIS0EBCFB","","<img src=""img/set1/S1.jpg"" width=""540"" height = ""360"">","null","","","","","","","","","",""
"null","","html-keyboard-response","21","447790","0.0-21.0","35GCEFQ6I6A4X4MYLWZTXPQ2ECFZ38","ABKPEX0E9W2HW","3ZXV7Q5FJBAKJ3TNMBBLYHIS0EBCFB","","","null","","","","","","","","","",""
"765.8999999761581","","image-keyboard-response","22","448557","0.0-22.0","35GCEFQ6I6A4X4MYLWZTXPQ2ECFZ38","ABKPEX0E9W2HW","3ZXV7Q5FJBAKJ3TNMBBLYHIS0EBCFB","","img/set1/S1.jpg","74","1","structured_incentive","83","structured_incentive,structured_normal,structured_load,random","2,3,1,2,4,2","3,4,2,1","false","","",""
"null","","html-keyboard-response","23","448909","0.0-23.0","35GCEFQ6I6A4X4MYLWZTXPQ2ECFZ38","ABKPEX0E9W2HW","3ZXV7Q5FJBAKJ3TNMBBLYHIS0EBCFB","","<img src=""img/set1/S1.jpg"" width=""540"" height = ""360"">","null","","","","","","","","","",""
"null","","html-keyboard-response","24","449110","0.0-24.0","35GCEFQ6I6A4X4MYLWZTXPQ2ECFZ38","ABKPEX0E9W2HW","3ZXV7Q5FJBAKJ3TNMBBLYHIS0EBCFB","","","null","","","","","","","","","",""
"1144.5","","image-keyboard-response","25","450256","0.0-25.0","35GCEFQ6I6A4X4MYLWZTXPQ2ECFZ38","ABKPEX0E9W2HW","3ZXV7Q5FJBAKJ3TNMBBLYHIS0EBCFB","","img/set1/S4.jpg","72","4","structured_incentive","74","structured_incentive,structured_normal,structured_load,random","2,3,1,2,4,2","3,4,2,1","false","","",""
"null","","html-keyboard-response","26","450607","0.0-26.0","35GCEFQ6I6A4X4MYLWZTXPQ2ECFZ38","ABKPEX0E9W2HW","3ZXV7Q5FJBAKJ3TNMBBLYHIS0EBCFB","","<img src=""img/set1/S4.jpg"" width=""540"" height = ""360"">","null","","","","","","","","","",""
"null","","html-keyboard-response","27","450808","0.0-27.0","35GCEFQ6I6A4X4MYLWZTXPQ2ECFZ38","ABKPEX0E9W2HW","3ZXV7Q5FJBAKJ3TNMBBLYHIS0EBCFB","","","null","","","","","","","","","",""
"1706.4000000357628","","image-keyboard-response","28","452516","0.0-28.0","35GCEFQ6I6A4X4MYLWZTXPQ2ECFZ38","ABKPEX0E9W2HW","3ZXV7Q5FJBAKJ3TNMBBLYHIS0EBCFB","","img/set1/S2.jpg","72","2","structured_incentive","68","structured_incentive,structured_normal,structured_load,random","2,3,1,2,4,2","3,4,2,1","false","","",""
"null","","html-keyboard-response","29","452868","0.0-29.0","35GCEFQ6I6A4X4MYLWZTXPQ2ECFZ38","ABKPEX0E9W2HW","3ZXV7Q5FJBAKJ3TNMBBLYHIS0EBCFB","","<img src=""img/set1/S2.jpg"" width=""540"" height = ""360"">","null","","","","","","","","","",""
"null","","html-keyboard-response","30","453069","0.0-30.0","35GCEFQ6I6A4X4MYLWZTXPQ2ECFZ38","ABKPEX0E9W2HW","3ZXV7Q5FJBAKJ3TNMBBLYHIS0EBCFB","","","null","","","","","","","","","",""
"1699.300000011921","","image-keyboard-response","31","454770","0.0-31.0","35GCEFQ6I6A4X4MYLWZTXPQ2ECFZ38","ABKPEX0E9W2HW","3ZXV7Q5FJBAKJ3TNMBBLYHIS0EBCFB","","img/set1/S3.jpg","68","3","structured_incentive","72","structured_incentive,structured_normal,structured_load,random","2,3,1,2,4,2","3,4,2,1","false","","",""
"null","","html-keyboard-response","32","455122","0.0-32.0","35GCEFQ6I6A4X4MYLWZTXPQ2ECFZ38","ABKPEX0E9W2HW","3ZXV7Q5FJBAKJ3TNMBBLYHIS0EBCFB","","<img src=""img/set1/S3.jpg"" width=""540"" height = ""360"">","null","","","","","","","","","",""
"null","","html-keyboard-response","33","455323","0.0-33.0","35GCEFQ6I6A4X4MYLWZTXPQ2ECFZ38","ABKPEX0E9W2HW","3ZXV7Q5FJBAKJ3TNMBBLYHIS0EBCFB","","","null","","","","","","","","","",""
"null","","image-keyboard-response","34","457825","0.0-34.0","35GCEFQ6I6A4X4MYLWZTXPQ2ECFZ38","ABKPEX0E9W2HW","3ZXV7Q5FJBAKJ3TNMBBLYHIS0EBCFB","","img/set1/S4.jpg","null","4","structured_incentive","74","structured_incentive,structured_normal,structured_load,random","2,3,1,2,4,2","3,4,2,1","false","","",""
"null","","html-keyboard-response","35","458176","0.0-35.0","35GCEFQ6I6A4X4MYLWZTXPQ2ECFZ38","ABKPEX0E9W2HW","3ZXV7Q5FJBAKJ3TNMBBLYHIS0EBCFB","","<img src=""img/set1/S4.jpg"" width=""540"" height = ""360"">","null","","","","","","","","","",""
"null","","html-keyboard-response","36","458379","0.0-36.0","35GCEFQ6I6A4X4MYLWZTXPQ2ECFZ38","ABKPEX0E9W2HW","3ZXV7Q5FJBAKJ3TNMBBLYHIS0EBCFB","","","null","","","","","","","","","",""
"null","","image-keyboard-response","37","460880","0.0-37.0","35GCEFQ6I6A4X4MYLWZTXPQ2ECFZ38","ABKPEX0E9W2HW","3ZXV7Q5FJBAKJ3TNMBBLYHIS0EBCFB","","img/set1/S1.jpg","null","1","structured_incentive","83","structured_incentive,structured_normal,structured_load,random","2,3,1,2,4,2","3,4,2,1","false","","",""
"null","","html-keyboard-response","38","461231","0.0-38.0","35GCEFQ6I6A4X4MYLWZTXPQ2ECFZ38","ABKPEX0E9W2HW","3ZXV7Q5FJBAKJ3TNMBBLYHIS0EBCFB","","<img src=""img/set1/S1.jpg"" width=""540"" height = ""360"">","null","","","","","","","","","",""
"null","","html-keyboard-response","39","461433","0.0-39.0","35GCEFQ6I6A4X4MYLWZTXPQ2ECFZ38","ABKPEX0E9W2HW","3ZXV7Q5FJBAKJ3TNMBBLYHIS0EBCFB","","","null","","","","","","","","","",""
"827","","image-keyboard-response","40","462261","0.0-40.0","35GCEFQ6I6A4X4MYLWZTXPQ2ECFZ38","ABKPEX0E9W2HW","3ZXV7Q5FJBAKJ3TNMBBLYHIS0EBCFB","","img/set1/S1.jpg","68","1","structured_incentive","83","structured_incentive,structured_normal,structured_load,random","2,3,1,2,4,2","3,4,2,1","false","","",""
"null","","html-keyboard-response","41","462612","0.0-41.0","35GCEFQ6I6A4X4MYLWZTXPQ2ECFZ38","ABKPEX0E9W2HW","3ZXV7Q5FJBAKJ3TNMBBLYHIS0EBCFB","","<img src=""img/set1/S1.jpg"" width=""540"" height = ""360"">","null","","","","","","","","","",""
"null","","html-keyboard-response","42","462813","0.0-42.0","35GCEFQ6I6A4X4MYLWZTXPQ2ECFZ38","ABKPEX0E9W2HW","3ZXV7Q5FJBAKJ3TNMBBLYHIS0EBCFB","","","null","","","","","","","","","",""
"1276.1000000238419","","image-keyboard-response","43","464090","0.0-43.0","35GCEFQ6I6A4X4MYLWZTXPQ2ECFZ38","ABKPEX0E9W2HW","3ZXV7Q5FJBAKJ3TNMBBLYHIS0EBCFB","","img/set1/S4.jpg","74","4","structured_incentive","74","structured_incentive,structured_normal,structured_load,random","2,3,1,2,4,2","3,4,2,1","true","","",""
"null","","html-keyboard-response","44","464442","0.0-44.0","35GCEFQ6I6A4X4MYLWZTXPQ2ECFZ38","ABKPEX0E9W2HW","3ZXV7Q5FJBAKJ3TNMBBLYHIS0EBCFB","","<img src=""img/set1/S4.jpg"" width=""540"" height = ""360"" style=""border:16px solid Violet"">","null","","","","","","","","","",""
"null","","html-keyboard-response","45","464643","0.0-45.0","35GCEFQ6I6A4X4MYLWZTXPQ2ECFZ38","ABKPEX0E9W2HW","3ZXV7Q5FJBAKJ3TNMBBLYHIS0EBCFB","","","null","","","","","","","","","",""
"1256.2000000476837","","image-keyboard-response","46","465900","0.0-46.0","35GCEFQ6I6A4X4MYLWZTXPQ2ECFZ38","ABKPEX0E9W2HW","3ZXV7Q5FJBAKJ3TNMBBLYHIS0EBCFB","","img/set1/S3.jpg","72","3","structured_incentive","72","structured_incentive,structured_normal,structured_load,random","2,3,1,2,4,2","3,4,2,1","true","","",""
"null","","html-keyboard-response","47","466251","0.0-47.0","35GCEFQ6I6A4X4MYLWZTXPQ2ECFZ38","ABKPEX0E9W2HW","3ZXV7Q5FJBAKJ3TNMBBLYHIS0EBCFB","","<img src=""img/set1/S3.jpg"" width=""540"" height = ""360"" style=""border:16px solid orange"">","null","","","","","","","","","",""
"null","","html-keyboard-response","48","466453","0.0-48.0","35GCEFQ6I6A4X4MYLWZTXPQ2ECFZ38","ABKPEX0E9W2HW","3ZXV7Q5FJBAKJ3TNMBBLYHIS0EBCFB","","","null","","","","","","","","","",""
"822.6999999880791","","image-keyboard-response","49","467276","0.0-49.0","35GCEFQ6I6A4X4MYLWZTXPQ2ECFZ38","ABKPEX0E9W2HW","3ZXV7Q5FJBAKJ3TNMBBLYHIS0EBCFB","","img/set1/S2.jpg","74","2","structured_incentive","68","structured_incentive,structured_normal,structured_load,random","2,3,1,2,4,2","3,4,2,1","false","","",""
"null","","html-keyboard-response","50","467628","0.0-50.0","35GCEFQ6I6A4X4MYLWZTXPQ2ECFZ38","ABKPEX0E9W2HW","3ZXV7Q5FJBAKJ3TNMBBLYHIS0EBCFB","","<img src=""img/set1/S2.jpg"" width=""540"" height = ""360"">","null","","","","","","","","","",""
"null","","html-keyboard-response","51","467830","0.0-51.0","35GCEFQ6I6A4X4MYLWZTXPQ2ECFZ38","ABKPEX0E9W2HW","3ZXV7Q5FJBAKJ3TNMBBLYHIS0EBCFB","","","null","","","","","","","","","",""
"663.1999999880791","","image-keyboard-response","52","468494","0.0-52.0","35GCEFQ6I6A4X4MYLWZTXPQ2ECFZ38","ABKPEX0E9W2HW","3ZXV7Q5FJBAKJ3TNMBBLYHIS0EBCFB","","img/set1/S3.jpg","83","3","structured_incentive","72","structured_incentive,structured_normal,structured_load,random","2,3,1,2,4,2","3,4,2,1","false","","",""
"null","","html-keyboard-response","53","468846","0.0-53.0","35GCEFQ6I6A4X4MYLWZTXPQ2ECFZ38","ABKPEX0E9W2HW","3ZXV7Q5FJBAKJ3TNMBBLYHIS0EBCFB","","<img src=""img/set1/S3.jpg"" width=""540"" height = ""360"">","null","","","","","","","","","",""
"null","","html-keyboard-response","54","469048","0.0-54.0","35GCEFQ6I6A4X4MYLWZTXPQ2ECFZ38","ABKPEX0E9W2HW","3ZXV7Q5FJBAKJ3TNMBBLYHIS0EBCFB","","","null","","","","","","","","","",""
"1017.9000000357628","","image-keyboard-response","55","470066","0.0-55.0","35GCEFQ6I6A4X4MYLWZTXPQ2ECFZ38","ABKPEX0E9W2HW","3ZXV7Q5FJBAKJ3TNMBBLYHIS0EBCFB","","img/set1/S1.jpg","72","1","structured_incentive","83","structured_incentive,structured_normal,structured_load,random","2,3,1,2,4,2","3,4,2,1","false","","",""
"null","","html-keyboard-response","56","470418","0.0-56.0","35GCEFQ6I6A4X4MYLWZTXPQ2ECFZ38","ABKPEX0E9W2HW","3ZXV7Q5FJBAKJ3TNMBBLYHIS0EBCFB","","<img src=""img/set1/S1.jpg"" width=""540"" height = ""360"">","null","","","","","","","","","",""
"null","","html-keyboard-response","57","470620","0.0-57.0","35GCEFQ6I6A4X4MYLWZTXPQ2ECFZ38","ABKPEX0E9W2HW","3ZXV7Q5FJBAKJ3TNMBBLYHIS0EBCFB","","","null","","","","","","","","","",""
"1111.199999988079","","image-keyboard-response","58","471732","0.0-58.0","35GCEFQ6I6A4X4MYLWZTXPQ2ECFZ38","ABKPEX0E9W2HW","3ZXV7Q5FJBAKJ3TNMBBLYHIS0EBCFB","","img/set1/S2.jpg","83","2","structured_incentive","68","structured_incentive,structured_normal,structured_load,random","2,3,1,2,4,2","3,4,2,1","false","","",""
"null","","html-keyboard-response","59","472084","0.0-59.0","35GCEFQ6I6A4X4MYLWZTXPQ2ECFZ38","ABKPEX0E9W2HW","3ZXV7Q5FJBAKJ3TNMBBLYHIS0EBCFB","","<img src=""img/set1/S2.jpg"" width=""540"" height = ""360"">","null","","","","","","","","","",""
"null","","html-keyboard-response","60","472285","0.0-60.0","35GCEFQ6I6A4X4MYLWZTXPQ2ECFZ38","ABKPEX0E9W2HW","3ZXV7Q5FJBAKJ3TNMBBLYHIS0EBCFB","","","null","","","","","","","","","",""
"1193.699999988079","","image-keyboard-response","61","473480","0.0-61.0","35GCEFQ6I6A4X4MYLWZTXPQ2ECFZ38","ABKPEX0E9W2HW","3ZXV7Q5FJBAKJ3TNMBBLYHIS0EBCFB","","img/set1/S3.jpg","72","3","structured_incentive","72","structured_incentive,structured_normal,structured_load,random","2,3,1,2,4,2","3,4,2,1","true","","",""
"null","","html-keyboard-response","62","473832","0.0-62.0","35GCEFQ6I6A4X4MYLWZTXPQ2ECFZ38","ABKPEX0E9W2HW","3ZXV7Q5FJBAKJ3TNMBBLYHIS0EBCFB","","<img src=""img/set1/S3.jpg"" width=""540"" height = ""360"" style=""border:16px solid orange"">","null","","","","","","","","","",""
"null","","html-keyboard-response","63","474033","0.0-63.0","35GCEFQ6I6A4X4MYLWZTXPQ2ECFZ38","ABKPEX0E9W2HW","3ZXV7Q5FJBAKJ3TNMBBLYHIS0EBCFB","","","null","","","","","","","","","",""
"1274.699999988079","","image-keyboard-response","64","475309","0.0-64.0","35GCEFQ6I6A4X4MYLWZTXPQ2ECFZ38","ABKPEX0E9W2HW","3ZXV7Q5FJBAKJ3TNMBBLYHIS0EBCFB","","img/set1/S2.jpg","68","2","structured_incentive","68","structured_incentive,structured_normal,structured_load,random","2,3,1,2,4,2","3,4,2,1","true","","",""
"null","","html-keyboard-response","65","475661","0.0-65.0","35GCEFQ6I6A4X4MYLWZTXPQ2ECFZ38","ABKPEX0E9W2HW","3ZXV7Q5FJBAKJ3TNMBBLYHIS0EBCFB","","<img src=""img/set1/S2.jpg"" width=""540"" height = ""360"" style=""border:16px solid orange"">","null","","","","","","","","","",""
"null","","html-keyboard-response","66","475862","0.0-66.0","35GCEFQ6I6A4X4MYLWZTXPQ2ECFZ38","ABKPEX0E9W2HW","3ZXV7Q5FJBAKJ3TNMBBLYHIS0EBCFB","","","null","","","","","","","","","",""
"946.3999999761581","","image-keyboard-response","67","476809","0.0-67.0","35GCEFQ6I6A4X4MYLWZTXPQ2ECFZ38","ABKPEX0E9W2HW","3ZXV7Q5FJBAKJ3TNMBBLYHIS0EBCFB","","img/set1/S4.jpg","74","4","structured_incentive","74","structured_incentive,structured_normal,structured_load,random","2,3,1,2,4,2","3,4,2,1","true","","",""
"null","","html-keyboard-response","68","477161","0.0-68.0","35GCEFQ6I6A4X4MYLWZTXPQ2ECFZ38","ABKPEX0E9W2HW","3ZXV7Q5FJBAKJ3TNMBBLYHIS0EBCFB","","<img src=""img/set1/S4.jpg"" width=""540"" height = ""360"" style=""border:16px solid Violet"">","null","","","","","","","","","",""
"null","","html-keyboard-response","69","477362","0.0-69.0","35GCEFQ6I6A4X4MYLWZTXPQ2ECFZ38","ABKPEX0E9W2HW","3ZXV7Q5FJBAKJ3TNMBBLYHIS0EBCFB","","","null","","","","","","","","","",""
"1041.300000011921","","image-keyboard-response","70","478405","0.0-70.0","35GCEFQ6I6A4X4MYLWZTXPQ2ECFZ38","ABKPEX0E9W2HW","3ZXV7Q5FJBAKJ3TNMBBLYHIS0EBCFB","","img/set1/S2.jpg","68","2","structured_incentive","68","structured_incentive,structured_normal,structured_load,random","2,3,1,2,4,2","3,4,2,1","true","","",""
"null","","html-keyboard-response","71","478757","0.0-71.0","35GCEFQ6I6A4X4MYLWZTXPQ2ECFZ38","ABKPEX0E9W2HW","3ZXV7Q5FJBAKJ3TNMBBLYHIS0EBCFB","","<img src=""img/set1/S2.jpg"" width=""540"" height = ""360"" style=""border:16px solid orange"">","null","","","","","","","","","",""
"null","","html-keyboard-response","72","478959","0.0-72.0","35GCEFQ6I6A4X4MYLWZTXPQ2ECFZ38","ABKPEX0E9W2HW","3ZXV7Q5FJBAKJ3TNMBBLYHIS0EBCFB","","","null","","","","","","","","","",""
"1321.2000000476837","","image-keyboard-response","73","480281","0.0-73.0","35GCEFQ6I6A4X4MYLWZTXPQ2ECFZ38","ABKPEX0E9W2HW","3ZXV7Q5FJBAKJ3TNMBBLYHIS0EBCFB","","img/set1/S3.jpg","72","3","structured_incentive","72","structured_incentive,structured_normal,structured_load,random","2,3,1,2,4,2","3,4,2,1","true","","",""
"null","","html-keyboard-response","74","480634","0.0-74.0","35GCEFQ6I6A4X4MYLWZTXPQ2ECFZ38","ABKPEX0E9W2HW","3ZXV7Q5FJBAKJ3TNMBBLYHIS0EBCFB","","<img src=""img/set1/S3.jpg"" width=""540"" height = ""360"" style=""border:16px solid orange"">","null","","","","","","","","","",""
"null","","html-keyboard-response","75","480835","0.0-75.0","35GCEFQ6I6A4X4MYLWZTXPQ2ECFZ38","ABKPEX0E9W2HW","3ZXV7Q5FJBAKJ3TNMBBLYHIS0EBCFB","","","null","","","","","","","","","",""
"893","","image-keyboard-response","76","481729","0.0-76.0","35GCEFQ6I6A4X4MYLWZTXPQ2ECFZ38","ABKPEX0E9W2HW","3ZXV7Q5FJBAKJ3TNMBBLYHIS0EBCFB","","img/set1/S4.jpg","74","4","structured_incentive","74","structured_incentive,structured_normal,structured_load,random","2,3,1,2,4,2","3,4,2,1","true","","",""
"null","","html-keyboard-response","77","482080","0.0-77.0","35GCEFQ6I6A4X4MYLWZTXPQ2ECFZ38","ABKPEX0E9W2HW","3ZXV7Q5FJBAKJ3TNMBBLYHIS0EBCFB","","<img src=""img/set1/S4.jpg"" width=""540"" height = ""360"" style=""border:16px solid Violet"">","null","","","","","","","","","",""
"null","","html-keyboard-response","78","482281","0.0-78.0","35GCEFQ6I6A4X4MYLWZTXPQ2ECFZ38","ABKPEX0E9W2HW","3ZXV7Q5FJBAKJ3TNMBBLYHIS0EBCFB","","","null","","","","","","","","","",""
"786.5","","image-keyboard-response","79","483069","0.0-79.0","35GCEFQ6I6A4X4MYLWZTXPQ2ECFZ38","ABKPEX0E9W2HW","3ZXV7Q5FJBAKJ3TNMBBLYHIS0EBCFB","","img/set1/S4.jpg","74","4","structured_incentive","74","structured_incentive,structured_normal,structured_load,random","2,3,1,2,4,2","3,4,2,1","true","","",""
"null","","html-keyboard-response","80","483420","0.0-80.0","35GCEFQ6I6A4X4MYLWZTXPQ2ECFZ38","ABKPEX0E9W2HW","3ZXV7Q5FJBAKJ3TNMBBLYHIS0EBCFB","","<img src=""img/set1/S4.jpg"" width=""540"" height = ""360"" style=""border:16px solid Violet"">","null","","","","","","","","","",""
"null","","html-keyboard-response","81","483622","0.0-81.0","35GCEFQ6I6A4X4MYLWZTXPQ2ECFZ38","ABKPEX0E9W2HW","3ZXV7Q5FJBAKJ3TNMBBLYHIS0EBCFB","","","null","","","","","","","","","",""
"1910","","image-keyboard-response","82","485533","0.0-82.0","35GCEFQ6I6A4X4MYLWZTXPQ2ECFZ38","ABKPEX0E9W2HW","3ZXV7Q5FJBAKJ3TNMBBLYHIS0EBCFB","","img/set1/S2.jpg","72","2","structured_incentive","68","structured_incentive,structured_normal,structured_load,random","2,3,1,2,4,2","3,4,2,1","false","","",""
"null","","html-keyboard-response","83","485885","0.0-83.0","35GCEFQ6I6A4X4MYLWZTXPQ2ECFZ38","ABKPEX0E9W2HW","3ZXV7Q5FJBAKJ3TNMBBLYHIS0EBCFB","","<img src=""img/set1/S2.jpg"" width=""540"" height = ""360"">","null","","","","","","","","","",""
"null","","html-keyboard-response","84","486088","0.0-84.0","35GCEFQ6I6A4X4MYLWZTXPQ2ECFZ38","ABKPEX0E9W2HW","3ZXV7Q5FJBAKJ3TNMBBLYHIS0EBCFB","","","null","","","","","","","","","",""
"835.3000000119209","","image-keyboard-response","85","486924","0.0-85.0","35GCEFQ6I6A4X4MYLWZTXPQ2ECFZ38","ABKPEX0E9W2HW","3ZXV7Q5FJBAKJ3TNMBBLYHIS0EBCFB","","img/set1/S3.jpg","72","3","structured_incentive","72","structured_incentive,structured_normal,structured_load,random","2,3,1,2,4,2","3,4,2,1","true","","",""
"null","","html-keyboard-response","86","487276","0.0-86.0","35GCEFQ6I6A4X4MYLWZTXPQ2ECFZ38","ABKPEX0E9W2HW","3ZXV7Q5FJBAKJ3TNMBBLYHIS0EBCFB","","<img src=""img/set1/S3.jpg"" width=""540"" height = ""360"" style=""border:16px solid orange"">","null","","","","","","","","","",""
"null","","html-keyboard-response","87","487478","0.0-87.0","35GCEFQ6I6A4X4MYLWZTXPQ2ECFZ38","ABKPEX0E9W2HW","3ZXV7Q5FJBAKJ3TNMBBLYHIS0EBCFB","","","null","","","","","","","","","",""
"712.8000000119209","","image-keyboard-response","88","488191","0.0-88.0","35GCEFQ6I6A4X4MYLWZTXPQ2ECFZ38","ABKPEX0E9W2HW","3ZXV7Q5FJBAKJ3TNMBBLYHIS0EBCFB","","img/set1/S2.jpg","68","2","structured_incentive","68","structured_incentive,structured_normal,structured_load,random","2,3,1,2,4,2","3,4,2,1","true","","",""
"null","","html-keyboard-response","89","488544","0.0-89.0","35GCEFQ6I6A4X4MYLWZTXPQ2ECFZ38","ABKPEX0E9W2HW","3ZXV7Q5FJBAKJ3TNMBBLYHIS0EBCFB","","<img src=""img/set1/S2.jpg"" width=""540"" height = ""360"" style=""border:16px solid orange"">","null","","","","","","","","","",""
"null","","html-keyboard-response","90","488745","0.0-90.0","35GCEFQ6I6A4X4MYLWZTXPQ2ECFZ38","ABKPEX0E9W2HW","3ZXV7Q5FJBAKJ3TNMBBLYHIS0EBCFB","","","null","","","","","","","","","",""
"848.4000000357628","","image-keyboard-response","91","489594","0.0-91.0","35GCEFQ6I6A4X4MYLWZTXPQ2ECFZ38","ABKPEX0E9W2HW","3ZXV7Q5FJBAKJ3TNMBBLYHIS0EBCFB","","img/set1/S4.jpg","74","4","structured_incentive","74","structured_incentive,structured_normal,structured_load,random","2,3,1,2,4,2","3,4,2,1","true","","",""
"null","","html-keyboard-response","92","489946","0.0-92.0","35GCEFQ6I6A4X4MYLWZTXPQ2ECFZ38","ABKPEX0E9W2HW","3ZXV7Q5FJBAKJ3TNMBBLYHIS0EBCFB","","<img src=""img/set1/S4.jpg"" width=""540"" height = ""360"" style=""border:16px solid Violet"">","null","","","","","","","","","",""
"null","","html-keyboard-response","93","490148","0.0-93.0","35GCEFQ6I6A4X4MYLWZTXPQ2ECFZ38","ABKPEX0E9W2HW","3ZXV7Q5FJBAKJ3TNMBBLYHIS0EBCFB","","","null","","","","","","","","","",""
"733.5","","image-keyboard-response","94","490883","0.0-94.0","35GCEFQ6I6A4X4MYLWZTXPQ2ECFZ38","ABKPEX0E9W2HW","3ZXV7Q5FJBAKJ3TNMBBLYHIS0EBCFB","","img/set1/S4.jpg","74","4","structured_incentive","74","structured_incentive,structured_normal,structured_load,random","2,3,1,2,4,2","3,4,2,1","true","","",""
"null","","html-keyboard-response","95","491234","0.0-95.0","35GCEFQ6I6A4X4MYLWZTXPQ2ECFZ38","ABKPEX0E9W2HW","3ZXV7Q5FJBAKJ3TNMBBLYHIS0EBCFB","","<img src=""img/set1/S4.jpg"" width=""540"" height = ""360"" style=""border:16px solid Violet"">","null","","","","","","","","","",""
"null","","html-keyboard-response","96","491436","0.0-96.0","35GCEFQ6I6A4X4MYLWZTXPQ2ECFZ38","ABKPEX0E9W2HW","3ZXV7Q5FJBAKJ3TNMBBLYHIS0EBCFB","","","null","","","","","","","","","",""
"809.7000000476837","","image-keyboard-response","97","492247","0.0-97.0","35GCEFQ6I6A4X4MYLWZTXPQ2ECFZ38","ABKPEX0E9W2HW","3ZXV7Q5FJBAKJ3TNMBBLYHIS0EBCFB","","img/set1/S4.jpg","74","4","structured_incentive","74","structured_incentive,structured_normal,structured_load,random","2,3,1,2,4,2","3,4,2,1","true","","",""
"null","","html-keyboard-response","98","492600","0.0-98.0","35GCEFQ6I6A4X4MYLWZTXPQ2ECFZ38","ABKPEX0E9W2HW","3ZXV7Q5FJBAKJ3TNMBBLYHIS0EBCFB","","<img src=""img/set1/S4.jpg"" width=""540"" height = ""360"" style=""border:16px solid Violet"">","null","","","","","","","","","",""
"null","","html-keyboard-response","99","492801","0.0-99.0","35GCEFQ6I6A4X4MYLWZTXPQ2ECFZ38","ABKPEX0E9W2HW","3ZXV7Q5FJBAKJ3TNMBBLYHIS0EBCFB","","","null","","","","","","","","","",""
"1427.699999988079","","image-keyboard-response","100","494230","0.0-100.0","35GCEFQ6I6A4X4MYLWZTXPQ2ECFZ38","ABKPEX0E9W2HW","3ZXV7Q5FJBAKJ3TNMBBLYHIS0EBCFB","","img/set1/S1.jpg","83","1","structured_incentive","83","structured_incentive,structured_normal,structured_load,random","2,3,1,2,4,2","3,4,2,1","true","","",""
"null","","html-keyboard-response","101","494582","0.0-101.0","35GCEFQ6I6A4X4MYLWZTXPQ2ECFZ38","ABKPEX0E9W2HW","3ZXV7Q5FJBAKJ3TNMBBLYHIS0EBCFB","","<img src=""img/set1/S1.jpg"" width=""540"" height = ""360"" style=""border:16px solid orange"">","null","","","","","","","","","",""
"null","","html-keyboard-response","102","494784","0.0-102.0","35GCEFQ6I6A4X4MYLWZTXPQ2ECFZ38","ABKPEX0E9W2HW","3ZXV7Q5FJBAKJ3TNMBBLYHIS0EBCFB","","","null","","","","","","","","","",""
"1533.2999999523163","","image-keyboard-response","103","496318","0.0-103.0","35GCEFQ6I6A4X4MYLWZTXPQ2ECFZ38","ABKPEX0E9W2HW","3ZXV7Q5FJBAKJ3TNMBBLYHIS0EBCFB","","img/set1/S3.jpg","68","3","structured_incentive","72","structured_incentive,structured_normal,structured_load,random","2,3,1,2,4,2","3,4,2,1","false","","",""
"null","","html-keyboard-response","104","496670","0.0-104.0","35GCEFQ6I6A4X4MYLWZTXPQ2ECFZ38","ABKPEX0E9W2HW","3ZXV7Q5FJBAKJ3TNMBBLYHIS0EBCFB","","<img src=""img/set1/S3.jpg"" width=""540"" height = ""360"">","null","","","","","","","","","",""
"null","","html-keyboard-response","105","496872","0.0-105.0","35GCEFQ6I6A4X4MYLWZTXPQ2ECFZ38","ABKPEX0E9W2HW","3ZXV7Q5FJBAKJ3TNMBBLYHIS0EBCFB","","","null","","","","","","","","","",""
"1530.699999988079","","image-keyboard-response","106","498403","0.0-106.0","35GCEFQ6I6A4X4MYLWZTXPQ2ECFZ38","ABKPEX0E9W2HW","3ZXV7Q5FJBAKJ3TNMBBLYHIS0EBCFB","","img/set1/S1.jpg","68","1","structured_incentive","83","structured_incentive,structured_normal,structured_load,random","2,3,1,2,4,2","3,4,2,1","false","","",""
"null","","html-keyboard-response","107","498755","0.0-107.0","35GCEFQ6I6A4X4MYLWZTXPQ2ECFZ38","ABKPEX0E9W2HW","3ZXV7Q5FJBAKJ3TNMBBLYHIS0EBCFB","","<img src=""img/set1/S1.jpg"" width=""540"" height = ""360"">","null","","","","","","","","","",""
"null","","html-keyboard-response","108","498956","0.0-108.0","35GCEFQ6I6A4X4MYLWZTXPQ2ECFZ38","ABKPEX0E9W2HW","3ZXV7Q5FJBAKJ3TNMBBLYHIS0EBCFB","","","null","","","","","","","","","",""
"947.8999999761581","","image-keyboard-response","109","499905","0.0-109.0","35GCEFQ6I6A4X4MYLWZTXPQ2ECFZ38","ABKPEX0E9W2HW","3ZXV7Q5FJBAKJ3TNMBBLYHIS0EBCFB","","img/set1/S4.jpg","74","4","structured_incentive","74","structured_incentive,structured_normal,structured_load,random","2,3,1,2,4,2","3,4,2,1","true","","",""
"null","","html-keyboard-response","110","500257","0.0-110.0","35GCEFQ6I6A4X4MYLWZTXPQ2ECFZ38","ABKPEX0E9W2HW","3ZXV7Q5FJBAKJ3TNMBBLYHIS0EBCFB","","<img src=""img/set1/S4.jpg"" width=""540"" height = ""360"" style=""border:16px solid Violet"">","null","","","","","","","","","",""
"null","","html-keyboard-response","111","500458","0.0-111.0","35GCEFQ6I6A4X4MYLWZTXPQ2ECFZ38","ABKPEX0E9W2HW","3ZXV7Q5FJBAKJ3TNMBBLYHIS0EBCFB","","","null","","","","","","","","","",""
"683","","image-keyboard-response","112","501142","0.0-112.0","35GCEFQ6I6A4X4MYLWZTXPQ2ECFZ38","ABKPEX0E9W2HW","3ZXV7Q5FJBAKJ3TNMBBLYHIS0EBCFB","","img/set1/S4.jpg","74","4","structured_incentive","74","structured_incentive,structured_normal,structured_load,random","2,3,1,2,4,2","3,4,2,1","true","","",""
"null","","html-keyboard-response","113","501494","0.0-113.0","35GCEFQ6I6A4X4MYLWZTXPQ2ECFZ38","ABKPEX0E9W2HW","3ZXV7Q5FJBAKJ3TNMBBLYHIS0EBCFB","","<img src=""img/set1/S4.jpg"" width=""540"" height = ""360"" style=""border:16px solid Violet"">","null","","","","","","","","","",""
"null","","html-keyboard-response","114","501696","0.0-114.0","35GCEFQ6I6A4X4MYLWZTXPQ2ECFZ38","ABKPEX0E9W2HW","3ZXV7Q5FJBAKJ3TNMBBLYHIS0EBCFB","","","null","","","","","","","","","",""
"1117.300000011921","","image-keyboard-response","115","502815","0.0-115.0","35GCEFQ6I6A4X4MYLWZTXPQ2ECFZ38","ABKPEX0E9W2HW","3ZXV7Q5FJBAKJ3TNMBBLYHIS0EBCFB","","img/set1/S1.jpg","68","1","structured_incentive","83","structured_incentive,structured_normal,structured_load,random","2,3,1,2,4,2","3,4,2,1","false","","",""
"null","","html-keyboard-response","116","503167","0.0-116.0","35GCEFQ6I6A4X4MYLWZTXPQ2ECFZ38","ABKPEX0E9W2HW","3ZXV7Q5FJBAKJ3TNMBBLYHIS0EBCFB","","<img src=""img/set1/S1.jpg"" width=""540"" height = ""360"">","null","","","","","","","","","",""
"null","","html-keyboard-response","117","503368","0.0-117.0","35GCEFQ6I6A4X4MYLWZTXPQ2ECFZ38","ABKPEX0E9W2HW","3ZXV7Q5FJBAKJ3TNMBBLYHIS0EBCFB","","","null","","","","","","","","","",""
"938.3000000119209","","image-keyboard-response","118","504308","0.0-118.0","35GCEFQ6I6A4X4MYLWZTXPQ2ECFZ38","ABKPEX0E9W2HW","3ZXV7Q5FJBAKJ3TNMBBLYHIS0EBCFB","","img/set1/S1.jpg","83","1","structured_incentive","83","structured_incentive,structured_normal,structured_load,random","2,3,1,2,4,2","3,4,2,1","true","","",""
"null","","html-keyboard-response","119","504659","0.0-119.0","35GCEFQ6I6A4X4MYLWZTXPQ2ECFZ38","ABKPEX0E9W2HW","3ZXV7Q5FJBAKJ3TNMBBLYHIS0EBCFB","","<img src=""img/set1/S1.jpg"" width=""540"" height = ""360"" style=""border:16px solid orange"">","null","","","","","","","","","",""
"null","","html-keyboard-response","120","504860","0.0-120.0","35GCEFQ6I6A4X4MYLWZTXPQ2ECFZ38","ABKPEX0E9W2HW","3ZXV7Q5FJBAKJ3TNMBBLYHIS0EBCFB","","","null","","","","","","","","","",""
"671.5","","image-keyboard-response","121","505533","0.0-121.0","35GCEFQ6I6A4X4MYLWZTXPQ2ECFZ38","ABKPEX0E9W2HW","3ZXV7Q5FJBAKJ3TNMBBLYHIS0EBCFB","","img/set1/S1.jpg","83","1","structured_incentive","83","structured_incentive,structured_normal,structured_load,random","2,3,1,2,4,2","3,4,2,1","true","","",""
"null","","html-keyboard-response","122","505885","0.0-122.0","35GCEFQ6I6A4X4MYLWZTXPQ2ECFZ38","ABKPEX0E9W2HW","3ZXV7Q5FJBAKJ3TNMBBLYHIS0EBCFB","","<img src=""img/set1/S1.jpg"" width=""540"" height = ""360"" style=""border:16px solid orange"">","null","","","","","","","","","",""
"null","","html-keyboard-response","123","506086","0.0-123.0","35GCEFQ6I6A4X4MYLWZTXPQ2ECFZ38","ABKPEX0E9W2HW","3ZXV7Q5FJBAKJ3TNMBBLYHIS0EBCFB","","","null","","","","","","","","","",""
"766.3000000119209","","image-keyboard-response","124","506853","0.0-124.0","35GCEFQ6I6A4X4MYLWZTXPQ2ECFZ38","ABKPEX0E9W2HW","3ZXV7Q5FJBAKJ3TNMBBLYHIS0EBCFB","","img/set1/S4.jpg","74","4","structured_incentive","74","structured_incentive,structured_normal,structured_load,random","2,3,1,2,4,2","3,4,2,1","true","","",""
"null","","html-keyboard-response","125","507206","0.0-125.0","35GCEFQ6I6A4X4MYLWZTXPQ2ECFZ38","ABKPEX0E9W2HW","3ZXV7Q5FJBAKJ3TNMBBLYHIS0EBCFB","","<img src=""img/set1/S4.jpg"" width=""540"" height = ""360"" style=""border:16px solid Violet"">","null","","","","","","","","","",""
"null","","html-keyboard-response","126","507407","0.0-126.0","35GCEFQ6I6A4X4MYLWZTXPQ2ECFZ38","ABKPEX0E9W2HW","3ZXV7Q5FJBAKJ3TNMBBLYHIS0EBCFB","","","null","","","","","","","","","",""
"823.1000000238419","","image-keyboard-response","127","508231","0.0-127.0","35GCEFQ6I6A4X4MYLWZTXPQ2ECFZ38","ABKPEX0E9W2HW","3ZXV7Q5FJBAKJ3TNMBBLYHIS0EBCFB","","img/set1/S2.jpg","68","2","structured_incentive","68","structured_incentive,structured_normal,structured_load,random","2,3,1,2,4,2","3,4,2,1","true","","",""
"null","","html-keyboard-response","128","508583","0.0-128.0","35GCEFQ6I6A4X4MYLWZTXPQ2ECFZ38","ABKPEX0E9W2HW","3ZXV7Q5FJBAKJ3TNMBBLYHIS0EBCFB","","<img src=""img/set1/S2.jpg"" width=""540"" height = ""360"" style=""border:16px solid orange"">","null","","","","","","","","","",""
"null","","html-keyboard-response","129","508784","0.0-129.0","35GCEFQ6I6A4X4MYLWZTXPQ2ECFZ38","ABKPEX0E9W2HW","3ZXV7Q5FJBAKJ3TNMBBLYHIS0EBCFB","","","null","","","","","","","","","",""
"865.6999999880791","","image-keyboard-response","130","509650","0.0-130.0","35GCEFQ6I6A4X4MYLWZTXPQ2ECFZ38","ABKPEX0E9W2HW","3ZXV7Q5FJBAKJ3TNMBBLYHIS0EBCFB","","img/set1/S3.jpg","72","3","structured_incentive","72","structured_incentive,structured_normal,structured_load,random","2,3,1,2,4,2","3,4,2,1","true","","",""
"null","","html-keyboard-response","131","510002","0.0-131.0","35GCEFQ6I6A4X4MYLWZTXPQ2ECFZ38","ABKPEX0E9W2HW","3ZXV7Q5FJBAKJ3TNMBBLYHIS0EBCFB","","<img src=""img/set1/S3.jpg"" width=""540"" height = ""360"" style=""border:16px solid orange"">","null","","","","","","","","","",""
"null","","html-keyboard-response","132","510204","0.0-132.0","35GCEFQ6I6A4X4MYLWZTXPQ2ECFZ38","ABKPEX0E9W2HW","3ZXV7Q5FJBAKJ3TNMBBLYHIS0EBCFB","","","null","","","","","","","","","",""
"1260.300000011921","","image-keyboard-response","133","511465","0.0-133.0","35GCEFQ6I6A4X4MYLWZTXPQ2ECFZ38","ABKPEX0E9W2HW","3ZXV7Q5FJBAKJ3TNMBBLYHIS0EBCFB","","img/set1/S2.jpg","83","2","structured_incentive","68","structured_incentive,structured_normal,structured_load,random","2,3,1,2,4,2","3,4,2,1","false","","",""
"null","","html-keyboard-response","134","511816","0.0-134.0","35GCEFQ6I6A4X4MYLWZTXPQ2ECFZ38","ABKPEX0E9W2HW","3ZXV7Q5FJBAKJ3TNMBBLYHIS0EBCFB","","<img src=""img/set1/S2.jpg"" width=""540"" height = ""360"">","null","","","","","","","","","",""
"null","","html-keyboard-response","135","512017","0.0-135.0","35GCEFQ6I6A4X4MYLWZTXPQ2ECFZ38","ABKPEX0E9W2HW","3ZXV7Q5FJBAKJ3TNMBBLYHIS0EBCFB","","","null","","","","","","","","","",""
"1584.300000011921","","image-keyboard-response","136","513602","0.0-136.0","35GCEFQ6I6A4X4MYLWZTXPQ2ECFZ38","ABKPEX0E9W2HW","3ZXV7Q5FJBAKJ3TNMBBLYHIS0EBCFB","","img/set1/S3.jpg","68","3","structured_incentive","72","structured_incentive,structured_normal,structured_load,random","2,3,1,2,4,2","3,4,2,1","false","","",""
"null","","html-keyboard-response","137","513954","0.0-137.0","35GCEFQ6I6A4X4MYLWZTXPQ2ECFZ38","ABKPEX0E9W2HW","3ZXV7Q5FJBAKJ3TNMBBLYHIS0EBCFB","","<img src=""img/set1/S3.jpg"" width=""540"" height = ""360"">","null","","","","","","","","","",""
"null","","html-keyboard-response","138","514156","0.0-138.0","35GCEFQ6I6A4X4MYLWZTXPQ2ECFZ38","ABKPEX0E9W2HW","3ZXV7Q5FJBAKJ3TNMBBLYHIS0EBCFB","","","null","","","","","","","","","",""
"1296.0999999642372","","image-keyboard-response","139","515453","0.0-139.0","35GCEFQ6I6A4X4MYLWZTXPQ2ECFZ38","ABKPEX0E9W2HW","3ZXV7Q5FJBAKJ3TNMBBLYHIS0EBCFB","","img/set1/S4.jpg","74","4","structured_incentive","74","structured_incentive,structured_normal,structured_load,random","2,3,1,2,4,2","3,4,2,1","true","","",""
"null","","html-keyboard-response","140","515804","0.0-140.0","35GCEFQ6I6A4X4MYLWZTXPQ2ECFZ38","ABKPEX0E9W2HW","3ZXV7Q5FJBAKJ3TNMBBLYHIS0EBCFB","","<img src=""img/set1/S4.jpg"" width=""540"" height = ""360"" style=""border:16px solid Violet"">","null","","","","","","","","","",""
"null","","html-keyboard-response","141","516006","0.0-141.0","35GCEFQ6I6A4X4MYLWZTXPQ2ECFZ38","ABKPEX0E9W2HW","3ZXV7Q5FJBAKJ3TNMBBLYHIS0EBCFB","","","null","","","","","","","","","",""
"1091","","image-keyboard-response","142","517098","0.0-142.0","35GCEFQ6I6A4X4MYLWZTXPQ2ECFZ38","ABKPEX0E9W2HW","3ZXV7Q5FJBAKJ3TNMBBLYHIS0EBCFB","","img/set1/S1.jpg","68","1","structured_incentive","83","structured_incentive,structured_normal,structured_load,random","2,3,1,2,4,2","3,4,2,1","false","","",""
"null","","html-keyboard-response","143","517451","0.0-143.0","35GCEFQ6I6A4X4MYLWZTXPQ2ECFZ38","ABKPEX0E9W2HW","3ZXV7Q5FJBAKJ3TNMBBLYHIS0EBCFB","","<img src=""img/set1/S1.jpg"" width=""540"" height = ""360"">","null","","","","","","","","","",""
"null","","html-keyboard-response","144","517652","0.0-144.0","35GCEFQ6I6A4X4MYLWZTXPQ2ECFZ38","ABKPEX0E9W2HW","3ZXV7Q5FJBAKJ3TNMBBLYHIS0EBCFB","","","null","","","","","","","","","",""
"1515.199999988079","","image-keyboard-response","145","519168","0.0-145.0","35GCEFQ6I6A4X4MYLWZTXPQ2ECFZ38","ABKPEX0E9W2HW","3ZXV7Q5FJBAKJ3TNMBBLYHIS0EBCFB","","img/set1/S2.jpg","83","2","structured_incentive","68","structured_incentive,structured_normal,structured_load,random","2,3,1,2,4,2","3,4,2,1","false","","",""
"null","","html-keyboard-response","146","519521","0.0-146.0","35GCEFQ6I6A4X4MYLWZTXPQ2ECFZ38","ABKPEX0E9W2HW","3ZXV7Q5FJBAKJ3TNMBBLYHIS0EBCFB","","<img src=""img/set1/S2.jpg"" width=""540"" height = ""360"">","null","","","","","","","","","",""
"null","","html-keyboard-response","147","519721","0.0-147.0","35GCEFQ6I6A4X4MYLWZTXPQ2ECFZ38","ABKPEX0E9W2HW","3ZXV7Q5FJBAKJ3TNMBBLYHIS0EBCFB","","","null","","","","","","","","","",""
"1814.800000011921","","image-keyboard-response","148","521537","0.0-148.0","35GCEFQ6I6A4X4MYLWZTXPQ2ECFZ38","ABKPEX0E9W2HW","3ZXV7Q5FJBAKJ3TNMBBLYHIS0EBCFB","","img/set1/S3.jpg","72","3","structured_incentive","72","structured_incentive,structured_normal,structured_load,random","2,3,1,2,4,2","3,4,2,1","true","","",""
"null","","html-keyboard-response","149","521888","0.0-149.0","35GCEFQ6I6A4X4MYLWZTXPQ2ECFZ38","ABKPEX0E9W2HW","3ZXV7Q5FJBAKJ3TNMBBLYHIS0EBCFB","","<img src=""img/set1/S3.jpg"" width=""540"" height = ""360"" style=""border:16px solid orange"">","null","","","","","","","","","",""
"null","","html-keyboard-response","150","522090","0.0-150.0","35GCEFQ6I6A4X4MYLWZTXPQ2ECFZ38","ABKPEX0E9W2HW","3ZXV7Q5FJBAKJ3TNMBBLYHIS0EBCFB","","","null","","","","","","","","","",""
"1346","","image-keyboard-response","151","523437","0.0-151.0","35GCEFQ6I6A4X4MYLWZTXPQ2ECFZ38","ABKPEX0E9W2HW","3ZXV7Q5FJBAKJ3TNMBBLYHIS0EBCFB","","img/set1/S2.jpg","83","2","structured_incentive","68","structured_incentive,structured_normal,structured_load,random","2,3,1,2,4,2","3,4,2,1","false","","",""
"null","","html-keyboard-response","152","523789","0.0-152.0","35GCEFQ6I6A4X4MYLWZTXPQ2ECFZ38","ABKPEX0E9W2HW","3ZXV7Q5FJBAKJ3TNMBBLYHIS0EBCFB","","<img src=""img/set1/S2.jpg"" width=""540"" height = ""360"">","null","","","","","","","","","",""
"null","","html-keyboard-response","153","523991","0.0-153.0","35GCEFQ6I6A4X4MYLWZTXPQ2ECFZ38","ABKPEX0E9W2HW","3ZXV7Q5FJBAKJ3TNMBBLYHIS0EBCFB","","","null","","","","","","","","","",""
"1444.6000000238419","","image-keyboard-response","154","525437","0.0-154.0","35GCEFQ6I6A4X4MYLWZTXPQ2ECFZ38","ABKPEX0E9W2HW","3ZXV7Q5FJBAKJ3TNMBBLYHIS0EBCFB","","img/set1/S3.jpg","68","3","structured_incentive","72","structured_incentive,structured_normal,structured_load,random","2,3,1,2,4,2","3,4,2,1","false","","",""
"null","","html-keyboard-response","155","525789","0.0-155.0","35GCEFQ6I6A4X4MYLWZTXPQ2ECFZ38","ABKPEX0E9W2HW","3ZXV7Q5FJBAKJ3TNMBBLYHIS0EBCFB","","<img src=""img/set1/S3.jpg"" width=""540"" height = ""360"">","null","","","","","","","","","",""
"null","","html-keyboard-response","156","525991","0.0-156.0","35GCEFQ6I6A4X4MYLWZTXPQ2ECFZ38","ABKPEX0E9W2HW","3ZXV7Q5FJBAKJ3TNMBBLYHIS0EBCFB","","","null","","","","","","","","","",""
"925.0999999642372","","image-keyboard-response","157","526918","0.0-157.0","35GCEFQ6I6A4X4MYLWZTXPQ2ECFZ38","ABKPEX0E9W2HW","3ZXV7Q5FJBAKJ3TNMBBLYHIS0EBCFB","","img/set1/S4.jpg","74","4","structured_incentive","74","structured_incentive,structured_normal,structured_load,random","2,3,1,2,4,2","3,4,2,1","true","","",""
"null","","html-keyboard-response","158","527269","0.0-158.0","35GCEFQ6I6A4X4MYLWZTXPQ2ECFZ38","ABKPEX0E9W2HW","3ZXV7Q5FJBAKJ3TNMBBLYHIS0EBCFB","","<img src=""img/set1/S4.jpg"" width=""540"" height = ""360"" style=""border:16px solid Violet"">","null","","","","","","","","","",""
"null","","html-keyboard-response","159","527470","0.0-159.0","35GCEFQ6I6A4X4MYLWZTXPQ2ECFZ38","ABKPEX0E9W2HW","3ZXV7Q5FJBAKJ3TNMBBLYHIS0EBCFB","","","null","","","","","","","","","",""
"2102.300000011921","","image-keyboard-response","160","529574","0.0-160.0","35GCEFQ6I6A4X4MYLWZTXPQ2ECFZ38","ABKPEX0E9W2HW","3ZXV7Q5FJBAKJ3TNMBBLYHIS0EBCFB","","img/set1/S2.jpg","68","2","structured_incentive","68","structured_incentive,structured_normal,structured_load,random","2,3,1,2,4,2","3,4,2,1","true","","",""
"null","","html-keyboard-response","161","529926","0.0-161.0","35GCEFQ6I6A4X4MYLWZTXPQ2ECFZ38","ABKPEX0E9W2HW","3ZXV7Q5FJBAKJ3TNMBBLYHIS0EBCFB","","<img src=""img/set1/S2.jpg"" width=""540"" height = ""360"" style=""border:16px solid orange"">","null","","","","","","","","","",""
"null","","html-keyboard-response","162","530127","0.0-162.0","35GCEFQ6I6A4X4MYLWZTXPQ2ECFZ38","ABKPEX0E9W2HW","3ZXV7Q5FJBAKJ3TNMBBLYHIS0EBCFB","","","null","","","","","","","","","",""
"896.3000000119209","","image-keyboard-response","163","531024","0.0-163.0","35GCEFQ6I6A4X4MYLWZTXPQ2ECFZ38","ABKPEX0E9W2HW","3ZXV7Q5FJBAKJ3TNMBBLYHIS0EBCFB","","img/set1/S4.jpg","74","4","structured_incentive","74","structured_incentive,structured_normal,structured_load,random","2,3,1,2,4,2","3,4,2,1","true","","",""
"null","","html-keyboard-response","164","531375","0.0-164.0","35GCEFQ6I6A4X4MYLWZTXPQ2ECFZ38","ABKPEX0E9W2HW","3ZXV7Q5FJBAKJ3TNMBBLYHIS0EBCFB","","<img src=""img/set1/S4.jpg"" width=""540"" height = ""360"" style=""border:16px solid Violet"">","null","","","","","","","","","",""
"null","","html-keyboard-response","165","531577","0.0-165.0","35GCEFQ6I6A4X4MYLWZTXPQ2ECFZ38","ABKPEX0E9W2HW","3ZXV7Q5FJBAKJ3TNMBBLYHIS0EBCFB","","","null","","","","","","","","","",""
"1301.2999999523163","","image-keyboard-response","166","532879","0.0-166.0","35GCEFQ6I6A4X4MYLWZTXPQ2ECFZ38","ABKPEX0E9W2HW","3ZXV7Q5FJBAKJ3TNMBBLYHIS0EBCFB","","img/set1/S1.jpg","72","1","structured_incentive","83","structured_incentive,structured_normal,structured_load,random","2,3,1,2,4,2","3,4,2,1","false","","",""
"null","","html-keyboard-response","167","533231","0.0-167.0","35GCEFQ6I6A4X4MYLWZTXPQ2ECFZ38","ABKPEX0E9W2HW","3ZXV7Q5FJBAKJ3TNMBBLYHIS0EBCFB","","<img src=""img/set1/S1.jpg"" width=""540"" height = ""360"">","null","","","","","","","","","",""
"null","","html-keyboard-response","168","533432","0.0-168.0","35GCEFQ6I6A4X4MYLWZTXPQ2ECFZ38","ABKPEX0E9W2HW","3ZXV7Q5FJBAKJ3TNMBBLYHIS0EBCFB","","","null","","","","","","","","","",""
"666.5999999642372","","image-keyboard-response","169","534100","0.0-169.0","35GCEFQ6I6A4X4MYLWZTXPQ2ECFZ38","ABKPEX0E9W2HW","3ZXV7Q5FJBAKJ3TNMBBLYHIS0EBCFB","","img/set1/S1.jpg","83","1","structured_incentive","83","structured_incentive,structured_normal,structured_load,random","2,3,1,2,4,2","3,4,2,1","true","","",""
"null","","html-keyboard-response","170","534452","0.0-170.0","35GCEFQ6I6A4X4MYLWZTXPQ2ECFZ38","ABKPEX0E9W2HW","3ZXV7Q5FJBAKJ3TNMBBLYHIS0EBCFB","","<img src=""img/set1/S1.jpg"" width=""540"" height = ""360"" style=""border:16px solid orange"">","null","","","","","","","","","",""
"null","","html-keyboard-response","171","534653","0.0-171.0","35GCEFQ6I6A4X4MYLWZTXPQ2ECFZ38","ABKPEX0E9W2HW","3ZXV7Q5FJBAKJ3TNMBBLYHIS0EBCFB","","","null","","","","","","","","","",""
"1871.800000011921","","image-keyboard-response","172","536526","0.0-172.0","35GCEFQ6I6A4X4MYLWZTXPQ2ECFZ38","ABKPEX0E9W2HW","3ZXV7Q5FJBAKJ3TNMBBLYHIS0EBCFB","","img/set1/S2.jpg","68","2","structured_incentive","68","structured_incentive,structured_normal,structured_load,random","2,3,1,2,4,2","3,4,2,1","true","","",""
"null","","html-keyboard-response","173","536878","0.0-173.0","35GCEFQ6I6A4X4MYLWZTXPQ2ECFZ38","ABKPEX0E9W2HW","3ZXV7Q5FJBAKJ3TNMBBLYHIS0EBCFB","","<img src=""img/set1/S2.jpg"" width=""540"" height = ""360"" style=""border:16px solid orange"">","null","","","","","","","","","",""
"null","","html-keyboard-response","174","537080","0.0-174.0","35GCEFQ6I6A4X4MYLWZTXPQ2ECFZ38","ABKPEX0E9W2HW","3ZXV7Q5FJBAKJ3TNMBBLYHIS0EBCFB","","","null","","","","","","","","","",""
"986.3000000119209","","image-keyboard-response","175","538067","0.0-175.0","35GCEFQ6I6A4X4MYLWZTXPQ2ECFZ38","ABKPEX0E9W2HW","3ZXV7Q5FJBAKJ3TNMBBLYHIS0EBCFB","","img/set1/S3.jpg","72","3","structured_incentive","72","structured_incentive,structured_normal,structured_load,random","2,3,1,2,4,2","3,4,2,1","true","","",""
"null","","html-keyboard-response","176","538419","0.0-176.0","35GCEFQ6I6A4X4MYLWZTXPQ2ECFZ38","ABKPEX0E9W2HW","3ZXV7Q5FJBAKJ3TNMBBLYHIS0EBCFB","","<img src=""img/set1/S3.jpg"" width=""540"" height = ""360"" style=""border:16px solid orange"">","null","","","","","","","","","",""
"null","","html-keyboard-response","177","538621","0.0-177.0","35GCEFQ6I6A4X4MYLWZTXPQ2ECFZ38","ABKPEX0E9W2HW","3ZXV7Q5FJBAKJ3TNMBBLYHIS0EBCFB","","","null","","","","","","","","","",""
"1106.2999999523163","","image-keyboard-response","178","539728","0.0-178.0","35GCEFQ6I6A4X4MYLWZTXPQ2ECFZ38","ABKPEX0E9W2HW","3ZXV7Q5FJBAKJ3TNMBBLYHIS0EBCFB","","img/set1/S1.jpg","68","1","structured_incentive","83","structured_incentive,structured_normal,structured_load,random","2,3,1,2,4,2","3,4,2,1","false","","",""
"null","","html-keyboard-response","179","540080","0.0-179.0","35GCEFQ6I6A4X4MYLWZTXPQ2ECFZ38","ABKPEX0E9W2HW","3ZXV7Q5FJBAKJ3TNMBBLYHIS0EBCFB","","<img src=""img/set1/S1.jpg"" width=""540"" height = ""360"">","null","","","","","","","","","",""
"null","","html-keyboard-response","180","540281","0.0-180.0","35GCEFQ6I6A4X4MYLWZTXPQ2ECFZ38","ABKPEX0E9W2HW","3ZXV7Q5FJBAKJ3TNMBBLYHIS0EBCFB","","","null","","","","","","","","","",""
"1184.300000011921","","image-keyboard-response","181","541467","0.0-181.0","35GCEFQ6I6A4X4MYLWZTXPQ2ECFZ38","ABKPEX0E9W2HW","3ZXV7Q5FJBAKJ3TNMBBLYHIS0EBCFB","","img/set1/S2.jpg","68","2","structured_incentive","68","structured_incentive,structured_normal,structured_load,random","2,3,1,2,4,2","3,4,2,1","true","","",""
"null","","html-keyboard-response","182","541819","0.0-182.0","35GCEFQ6I6A4X4MYLWZTXPQ2ECFZ38","ABKPEX0E9W2HW","3ZXV7Q5FJBAKJ3TNMBBLYHIS0EBCFB","","<img src=""img/set1/S2.jpg"" width=""540"" height = ""360"" style=""border:16px solid orange"">","null","","","","","","","","","",""
"null","","html-keyboard-response","183","542021","0.0-183.0","35GCEFQ6I6A4X4MYLWZTXPQ2ECFZ38","ABKPEX0E9W2HW","3ZXV7Q5FJBAKJ3TNMBBLYHIS0EBCFB","","","null","","","","","","","","","",""
"1092.199999988079","","image-keyboard-response","184","543114","0.0-184.0","35GCEFQ6I6A4X4MYLWZTXPQ2ECFZ38","ABKPEX0E9W2HW","3ZXV7Q5FJBAKJ3TNMBBLYHIS0EBCFB","","img/set1/S3.jpg","72","3","structured_incentive","72","structured_incentive,structured_normal,structured_load,random","2,3,1,2,4,2","3,4,2,1","true","","",""
"null","","html-keyboard-response","185","543465","0.0-185.0","35GCEFQ6I6A4X4MYLWZTXPQ2ECFZ38","ABKPEX0E9W2HW","3ZXV7Q5FJBAKJ3TNMBBLYHIS0EBCFB","","<img src=""img/set1/S3.jpg"" width=""540"" height = ""360"" style=""border:16px solid orange"">","null","","","","","","","","","",""
"null","","html-keyboard-response","186","543668","0.0-186.0","35GCEFQ6I6A4X4MYLWZTXPQ2ECFZ38","ABKPEX0E9W2HW","3ZXV7Q5FJBAKJ3TNMBBLYHIS0EBCFB","","","null","","","","","","","","","",""
"1015.5","","image-keyboard-response","187","544684","0.0-187.0","35GCEFQ6I6A4X4MYLWZTXPQ2ECFZ38","ABKPEX0E9W2HW","3ZXV7Q5FJBAKJ3TNMBBLYHIS0EBCFB","","img/set1/S3.jpg","72","3","structured_incentive","72","structured_incentive,structured_normal,structured_load,random","2,3,1,2,4,2","3,4,2,1","true","","",""
"null","","html-keyboard-response","188","545036","0.0-188.0","35GCEFQ6I6A4X4MYLWZTXPQ2ECFZ38","ABKPEX0E9W2HW","3ZXV7Q5FJBAKJ3TNMBBLYHIS0EBCFB","","<img src=""img/set1/S3.jpg"" width=""540"" height = ""360"" style=""border:16px solid orange"">","null","","","","","","","","","",""
"null","","html-keyboard-response","189","545239","0.0-189.0","35GCEFQ6I6A4X4MYLWZTXPQ2ECFZ38","ABKPEX0E9W2HW","3ZXV7Q5FJBAKJ3TNMBBLYHIS0EBCFB","","","null","","","","","","","","","",""
"734.1999999880791","","image-keyboard-response","190","545974","0.0-190.0","35GCEFQ6I6A4X4MYLWZTXPQ2ECFZ38","ABKPEX0E9W2HW","3ZXV7Q5FJBAKJ3TNMBBLYHIS0EBCFB","","img/set1/S4.jpg","74","4","structured_incentive","74","structured_incentive,structured_normal,structured_load,random","2,3,1,2,4,2","3,4,2,1","true","","",""
"null","","html-keyboard-response","191","546326","0.0-191.0","35GCEFQ6I6A4X4MYLWZTXPQ2ECFZ38","ABKPEX0E9W2HW","3ZXV7Q5FJBAKJ3TNMBBLYHIS0EBCFB","","<img src=""img/set1/S4.jpg"" width=""540"" height = ""360"" style=""border:16px solid Violet"">","null","","","","","","","","","",""
"null","","html-keyboard-response","192","546528","0.0-192.0","35GCEFQ6I6A4X4MYLWZTXPQ2ECFZ38","ABKPEX0E9W2HW","3ZXV7Q5FJBAKJ3TNMBBLYHIS0EBCFB","","","null","","","","","","","","","",""
"911.5","","image-keyboard-response","193","547440","0.0-193.0","35GCEFQ6I6A4X4MYLWZTXPQ2ECFZ38","ABKPEX0E9W2HW","3ZXV7Q5FJBAKJ3TNMBBLYHIS0EBCFB","","img/set1/S1.jpg","83","1","structured_incentive","83","structured_incentive,structured_normal,structured_load,random","2,3,1,2,4,2","3,4,2,1","true","","",""
"null","","html-keyboard-response","194","547792","0.0-194.0","35GCEFQ6I6A4X4MYLWZTXPQ2ECFZ38","ABKPEX0E9W2HW","3ZXV7Q5FJBAKJ3TNMBBLYHIS0EBCFB","","<img src=""img/set1/S1.jpg"" width=""540"" height = ""360"" style=""border:16px solid orange"">","null","","","","","","","","","",""
"null","","html-keyboard-response","195","547994","0.0-195.0","35GCEFQ6I6A4X4MYLWZTXPQ2ECFZ38","ABKPEX0E9W2HW","3ZXV7Q5FJBAKJ3TNMBBLYHIS0EBCFB","","","null","","","","","","","","","",""
"1148.0999999642372","","image-keyboard-response","196","549143","0.0-196.0","35GCEFQ6I6A4X4MYLWZTXPQ2ECFZ38","ABKPEX0E9W2HW","3ZXV7Q5FJBAKJ3TNMBBLYHIS0EBCFB","","img/set1/S2.jpg","68","2","structured_incentive","68","structured_incentive,structured_normal,structured_load,random","2,3,1,2,4,2","3,4,2,1","true","","",""
"null","","html-keyboard-response","197","549495","0.0-197.0","35GCEFQ6I6A4X4MYLWZTXPQ2ECFZ38","ABKPEX0E9W2HW","3ZXV7Q5FJBAKJ3TNMBBLYHIS0EBCFB","","<img src=""img/set1/S2.jpg"" width=""540"" height = ""360"" style=""border:16px solid orange"">","null","","","","","","","","","",""
"null","","html-keyboard-response","198","549696","0.0-198.0","35GCEFQ6I6A4X4MYLWZTXPQ2ECFZ38","ABKPEX0E9W2HW","3ZXV7Q5FJBAKJ3TNMBBLYHIS0EBCFB","","","null","","","","","","","","","",""
"797","","image-keyboard-response","199","550494","0.0-199.0","35GCEFQ6I6A4X4MYLWZTXPQ2ECFZ38","ABKPEX0E9W2HW","3ZXV7Q5FJBAKJ3TNMBBLYHIS0EBCFB","","img/set1/S3.jpg","72","3","structured_incentive","72","structured_incentive,structured_normal,structured_load,random","2,3,1,2,4,2","3,4,2,1","true","","",""
"null","","html-keyboard-response","200","550846","0.0-200.0","35GCEFQ6I6A4X4MYLWZTXPQ2ECFZ38","ABKPEX0E9W2HW","3ZXV7Q5FJBAKJ3TNMBBLYHIS0EBCFB","","<img src=""img/set1/S3.jpg"" width=""540"" height = ""360"" style=""border:16px solid orange"">","null","","","","","","","","","",""
"null","","html-keyboard-response","201","551048","0.0-201.0","35GCEFQ6I6A4X4MYLWZTXPQ2ECFZ38","ABKPEX0E9W2HW","3ZXV7Q5FJBAKJ3TNMBBLYHIS0EBCFB","","","null","","","","","","","","","",""
"707.8000000119209","","image-keyboard-response","202","551757","0.0-202.0","35GCEFQ6I6A4X4MYLWZTXPQ2ECFZ38","ABKPEX0E9W2HW","3ZXV7Q5FJBAKJ3TNMBBLYHIS0EBCFB","","img/set1/S4.jpg","74","4","structured_incentive","74","structured_incentive,structured_normal,structured_load,random","2,3,1,2,4,2","3,4,2,1","true","","",""
"null","","html-keyboard-response","203","552109","0.0-203.0","35GCEFQ6I6A4X4MYLWZTXPQ2ECFZ38","ABKPEX0E9W2HW","3ZXV7Q5FJBAKJ3TNMBBLYHIS0EBCFB","","<img src=""img/set1/S4.jpg"" width=""540"" height = ""360"" style=""border:16px solid Violet"">","null","","","","","","","","","",""
"null","","html-keyboard-response","204","552309","0.0-204.0","35GCEFQ6I6A4X4MYLWZTXPQ2ECFZ38","ABKPEX0E9W2HW","3ZXV7Q5FJBAKJ3TNMBBLYHIS0EBCFB","","","null","","","","","","","","","",""
"1602.199999988079","","image-keyboard-response","205","553912","0.0-205.0","35GCEFQ6I6A4X4MYLWZTXPQ2ECFZ38","ABKPEX0E9W2HW","3ZXV7Q5FJBAKJ3TNMBBLYHIS0EBCFB","","img/set1/S2.jpg","83","2","structured_incentive","68","structured_incentive,structured_normal,structured_load,random","2,3,1,2,4,2","3,4,2,1","false","","",""
"null","","html-keyboard-response","206","554263","0.0-206.0","35GCEFQ6I6A4X4MYLWZTXPQ2ECFZ38","ABKPEX0E9W2HW","3ZXV7Q5FJBAKJ3TNMBBLYHIS0EBCFB","","<img src=""img/set1/S2.jpg"" width=""540"" height = ""360"">","null","","","","","","","","","",""
"null","","html-keyboard-response","207","554465","0.0-207.0","35GCEFQ6I6A4X4MYLWZTXPQ2ECFZ38","ABKPEX0E9W2HW","3ZXV7Q5FJBAKJ3TNMBBLYHIS0EBCFB","","","null","","","","","","","","","",""
"767.1000000238419","","image-keyboard-response","208","555233","0.0-208.0","35GCEFQ6I6A4X4MYLWZTXPQ2ECFZ38","ABKPEX0E9W2HW","3ZXV7Q5FJBAKJ3TNMBBLYHIS0EBCFB","","img/set1/S3.jpg","72","3","structured_incentive","72","structured_incentive,structured_normal,structured_load,random","2,3,1,2,4,2","3,4,2,1","true","","",""
"null","","html-keyboard-response","209","555586","0.0-209.0","35GCEFQ6I6A4X4MYLWZTXPQ2ECFZ38","ABKPEX0E9W2HW","3ZXV7Q5FJBAKJ3TNMBBLYHIS0EBCFB","","<img src=""img/set1/S3.jpg"" width=""540"" height = ""360"" style=""border:16px solid orange"">","null","","","","","","","","","",""
"null","","html-keyboard-response","210","555787","0.0-210.0","35GCEFQ6I6A4X4MYLWZTXPQ2ECFZ38","ABKPEX0E9W2HW","3ZXV7Q5FJBAKJ3TNMBBLYHIS0EBCFB","","","null","","","","","","","","","",""
"1240.699999988079","","image-keyboard-response","211","557029","0.0-211.0","35GCEFQ6I6A4X4MYLWZTXPQ2ECFZ38","ABKPEX0E9W2HW","3ZXV7Q5FJBAKJ3TNMBBLYHIS0EBCFB","","img/set1/S1.jpg","83","1","structured_incentive","83","structured_incentive,structured_normal,structured_load,random","2,3,1,2,4,2","3,4,2,1","true","","",""
"null","","html-keyboard-response","212","557381","0.0-212.0","35GCEFQ6I6A4X4MYLWZTXPQ2ECFZ38","ABKPEX0E9W2HW","3ZXV7Q5FJBAKJ3TNMBBLYHIS0EBCFB","","<img src=""img/set1/S1.jpg"" width=""540"" height = ""360"" style=""border:16px solid orange"">","null","","","","","","","","","",""
"null","","html-keyboard-response","213","557583","0.0-213.0","35GCEFQ6I6A4X4MYLWZTXPQ2ECFZ38","ABKPEX0E9W2HW","3ZXV7Q5FJBAKJ3TNMBBLYHIS0EBCFB","","","null","","","","","","","","","",""
"521.1999999880791","","image-keyboard-response","214","558105","0.0-214.0","35GCEFQ6I6A4X4MYLWZTXPQ2ECFZ38","ABKPEX0E9W2HW","3ZXV7Q5FJBAKJ3TNMBBLYHIS0EBCFB","","img/set1/S1.jpg","83","1","structured_incentive","83","structured_incentive,structured_normal,structured_load,random","2,3,1,2,4,2","3,4,2,1","true","","",""
"null","","html-keyboard-response","215","558457","0.0-215.0","35GCEFQ6I6A4X4MYLWZTXPQ2ECFZ38","ABKPEX0E9W2HW","3ZXV7Q5FJBAKJ3TNMBBLYHIS0EBCFB","","<img src=""img/set1/S1.jpg"" width=""540"" height = ""360"" style=""border:16px solid orange"">","null","","","","","","","","","",""
"null","","html-keyboard-response","216","558658","0.0-216.0","35GCEFQ6I6A4X4MYLWZTXPQ2ECFZ38","ABKPEX0E9W2HW","3ZXV7Q5FJBAKJ3TNMBBLYHIS0EBCFB","","","null","","","","","","","","","",""
"587.5","","image-keyboard-response","217","559246","0.0-217.0","35GCEFQ6I6A4X4MYLWZTXPQ2ECFZ38","ABKPEX0E9W2HW","3ZXV7Q5FJBAKJ3TNMBBLYHIS0EBCFB","","img/set1/S1.jpg","83","1","structured_incentive","83","structured_incentive,structured_normal,structured_load,random","2,3,1,2,4,2","3,4,2,1","true","","",""
"null","","html-keyboard-response","218","559598","0.0-218.0","35GCEFQ6I6A4X4MYLWZTXPQ2ECFZ38","ABKPEX0E9W2HW","3ZXV7Q5FJBAKJ3TNMBBLYHIS0EBCFB","","<img src=""img/set1/S1.jpg"" width=""540"" height = ""360"" style=""border:16px solid orange"">","null","","","","","","","","","",""
"null","","html-keyboard-response","219","559799","0.0-219.0","35GCEFQ6I6A4X4MYLWZTXPQ2ECFZ38","ABKPEX0E9W2HW","3ZXV7Q5FJBAKJ3TNMBBLYHIS0EBCFB","","","null","","","","","","","","","",""
"804.9000000357628","","image-keyboard-response","220","560605","0.0-220.0","35GCEFQ6I6A4X4MYLWZTXPQ2ECFZ38","ABKPEX0E9W2HW","3ZXV7Q5FJBAKJ3TNMBBLYHIS0EBCFB","","img/set1/S2.jpg","68","2","structured_incentive","68","structured_incentive,structured_normal,structured_load,random","2,3,1,2,4,2","3,4,2,1","true","","",""
"null","","html-keyboard-response","221","560956","0.0-221.0","35GCEFQ6I6A4X4MYLWZTXPQ2ECFZ38","ABKPEX0E9W2HW","3ZXV7Q5FJBAKJ3TNMBBLYHIS0EBCFB","","<img src=""img/set1/S2.jpg"" width=""540"" height = ""360"" style=""border:16px solid orange"">","null","","","","","","","","","",""
"null","","html-keyboard-response","222","561157","0.0-222.0","35GCEFQ6I6A4X4MYLWZTXPQ2ECFZ38","ABKPEX0E9W2HW","3ZXV7Q5FJBAKJ3TNMBBLYHIS0EBCFB","","","null","","","","","","","","","",""
"792.8999999761581","","image-keyboard-response","223","561951","0.0-223.0","35GCEFQ6I6A4X4MYLWZTXPQ2ECFZ38","ABKPEX0E9W2HW","3ZXV7Q5FJBAKJ3TNMBBLYHIS0EBCFB","","img/set1/S3.jpg","72","3","structured_incentive","72","structured_incentive,structured_normal,structured_load,random","2,3,1,2,4,2","3,4,2,1","true","","",""
"null","","html-keyboard-response","224","562303","0.0-224.0","35GCEFQ6I6A4X4MYLWZTXPQ2ECFZ38","ABKPEX0E9W2HW","3ZXV7Q5FJBAKJ3TNMBBLYHIS0EBCFB","","<img src=""img/set1/S3.jpg"" width=""540"" height = ""360"" style=""border:16px solid orange"">","null","","","","","","","","","",""
"null","","html-keyboard-response","225","562504","0.0-225.0","35GCEFQ6I6A4X4MYLWZTXPQ2ECFZ38","ABKPEX0E9W2HW","3ZXV7Q5FJBAKJ3TNMBBLYHIS0EBCFB","","","null","","","","","","","","","",""
"808.4000000357628","","image-keyboard-response","226","563313","0.0-226.0","35GCEFQ6I6A4X4MYLWZTXPQ2ECFZ38","ABKPEX0E9W2HW","3ZXV7Q5FJBAKJ3TNMBBLYHIS0EBCFB","","img/set1/S1.jpg","83","1","structured_incentive","83","structured_incentive,structured_normal,structured_load,random","2,3,1,2,4,2","3,4,2,1","true","","",""
"null","","html-keyboard-response","227","563665","0.0-227.0","35GCEFQ6I6A4X4MYLWZTXPQ2ECFZ38","ABKPEX0E9W2HW","3ZXV7Q5FJBAKJ3TNMBBLYHIS0EBCFB","","<img src=""img/set1/S1.jpg"" width=""540"" height = ""360"" style=""border:16px solid orange"">","null","","","","","","","","","",""
"null","","html-keyboard-response","228","563866","0.0-228.0","35GCEFQ6I6A4X4MYLWZTXPQ2ECFZ38","ABKPEX0E9W2HW","3ZXV7Q5FJBAKJ3TNMBBLYHIS0EBCFB","","","null","","","","","","","","","",""
"480.10000002384186","","image-keyboard-response","229","564347","0.0-229.0","35GCEFQ6I6A4X4MYLWZTXPQ2ECFZ38","ABKPEX0E9W2HW","3ZXV7Q5FJBAKJ3TNMBBLYHIS0EBCFB","","img/set1/S1.jpg","83","1","structured_incentive","83","structured_incentive,structured_normal,structured_load,random","2,3,1,2,4,2","3,4,2,1","true","","",""
"null","","html-keyboard-response","230","564698","0.0-230.0","35GCEFQ6I6A4X4MYLWZTXPQ2ECFZ38","ABKPEX0E9W2HW","3ZXV7Q5FJBAKJ3TNMBBLYHIS0EBCFB","","<img src=""img/set1/S1.jpg"" width=""540"" height = ""360"" style=""border:16px solid orange"">","null","","","","","","","","","",""
"null","","html-keyboard-response","231","564900","0.0-231.0","35GCEFQ6I6A4X4MYLWZTXPQ2ECFZ38","ABKPEX0E9W2HW","3ZXV7Q5FJBAKJ3TNMBBLYHIS0EBCFB","","","null","","","","","","","","","",""
"1042.4000000357628","","image-keyboard-response","232","565943","0.0-232.0","35GCEFQ6I6A4X4MYLWZTXPQ2ECFZ38","ABKPEX0E9W2HW","3ZXV7Q5FJBAKJ3TNMBBLYHIS0EBCFB","","img/set1/S2.jpg","68","2","structured_incentive","68","structured_incentive,structured_normal,structured_load,random","2,3,1,2,4,2","3,4,2,1","true","","",""
"null","","html-keyboard-response","233","566294","0.0-233.0","35GCEFQ6I6A4X4MYLWZTXPQ2ECFZ38","ABKPEX0E9W2HW","3ZXV7Q5FJBAKJ3TNMBBLYHIS0EBCFB","","<img src=""img/set1/S2.jpg"" width=""540"" height = ""360"" style=""border:16px solid orange"">","null","","","","","","","","","",""
"null","","html-keyboard-response","234","566495","0.0-234.0","35GCEFQ6I6A4X4MYLWZTXPQ2ECFZ38","ABKPEX0E9W2HW","3ZXV7Q5FJBAKJ3TNMBBLYHIS0EBCFB","","","null","","","","","","","","","",""
"1612","","image-keyboard-response","235","568108","0.0-235.0","35GCEFQ6I6A4X4MYLWZTXPQ2ECFZ38","ABKPEX0E9W2HW","3ZXV7Q5FJBAKJ3TNMBBLYHIS0EBCFB","","img/set1/S3.jpg","72","3","structured_incentive","72","structured_incentive,structured_normal,structured_load,random","2,3,1,2,4,2","3,4,2,1","true","","",""
"null","","html-keyboard-response","236","568460","0.0-236.0","35GCEFQ6I6A4X4MYLWZTXPQ2ECFZ38","ABKPEX0E9W2HW","3ZXV7Q5FJBAKJ3TNMBBLYHIS0EBCFB","","<img src=""img/set1/S3.jpg"" width=""540"" height = ""360"" style=""border:16px solid orange"">","null","","","","","","","","","",""
"null","","html-keyboard-response","237","568663","0.0-237.0","35GCEFQ6I6A4X4MYLWZTXPQ2ECFZ38","ABKPEX0E9W2HW","3ZXV7Q5FJBAKJ3TNMBBLYHIS0EBCFB","","","null","","","","","","","","","",""
"1004.6000000238419","","image-keyboard-response","238","569668","0.0-238.0","35GCEFQ6I6A4X4MYLWZTXPQ2ECFZ38","ABKPEX0E9W2HW","3ZXV7Q5FJBAKJ3TNMBBLYHIS0EBCFB","","img/set1/S1.jpg","83","1","structured_incentive","83","structured_incentive,structured_normal,structured_load,random","2,3,1,2,4,2","3,4,2,1","true","","",""
"null","","html-keyboard-response","239","570020","0.0-239.0","35GCEFQ6I6A4X4MYLWZTXPQ2ECFZ38","ABKPEX0E9W2HW","3ZXV7Q5FJBAKJ3TNMBBLYHIS0EBCFB","","<img src=""img/set1/S1.jpg"" width=""540"" height = ""360"" style=""border:16px solid orange"">","null","","","","","","","","","",""
"null","","html-keyboard-response","240","570221","0.0-240.0","35GCEFQ6I6A4X4MYLWZTXPQ2ECFZ38","ABKPEX0E9W2HW","3ZXV7Q5FJBAKJ3TNMBBLYHIS0EBCFB","","","null","","","","","","","","","",""
"580.8000000119209","","image-keyboard-response","241","570803","0.0-241.0","35GCEFQ6I6A4X4MYLWZTXPQ2ECFZ38","ABKPEX0E9W2HW","3ZXV7Q5FJBAKJ3TNMBBLYHIS0EBCFB","","img/set1/S1.jpg","83","1","structured_incentive","83","structured_incentive,structured_normal,structured_load,random","2,3,1,2,4,2","3,4,2,1","true","","",""
"null","","html-keyboard-response","242","571155","0.0-242.0","35GCEFQ6I6A4X4MYLWZTXPQ2ECFZ38","ABKPEX0E9W2HW","3ZXV7Q5FJBAKJ3TNMBBLYHIS0EBCFB","","<img src=""img/set1/S1.jpg"" width=""540"" height = ""360"" style=""border:16px solid orange"">","null","","","","","","","","","",""
"null","","html-keyboard-response","243","571356","0.0-243.0","35GCEFQ6I6A4X4MYLWZTXPQ2ECFZ38","ABKPEX0E9W2HW","3ZXV7Q5FJBAKJ3TNMBBLYHIS0EBCFB","","","null","","","","","","","","","",""
"808.8000000119209","","image-keyboard-response","244","572166","0.0-244.0","35GCEFQ6I6A4X4MYLWZTXPQ2ECFZ38","ABKPEX0E9W2HW","3ZXV7Q5FJBAKJ3TNMBBLYHIS0EBCFB","","img/set1/S4.jpg","74","4","structured_incentive","74","structured_incentive,structured_normal,structured_load,random","2,3,1,2,4,2","3,4,2,1","true","","",""
"null","","html-keyboard-response","245","572517","0.0-245.0","35GCEFQ6I6A4X4MYLWZTXPQ2ECFZ38","ABKPEX0E9W2HW","3ZXV7Q5FJBAKJ3TNMBBLYHIS0EBCFB","","<img src=""img/set1/S4.jpg"" width=""540"" height = ""360"" style=""border:16px solid Violet"">","null","","","","","","","","","",""
"null","","html-keyboard-response","246","572718","0.0-246.0","35GCEFQ6I6A4X4MYLWZTXPQ2ECFZ38","ABKPEX0E9W2HW","3ZXV7Q5FJBAKJ3TNMBBLYHIS0EBCFB","","","null","","","","","","","","","",""
"1705.9000000357628","","image-keyboard-response","247","574425","0.0-247.0","35GCEFQ6I6A4X4MYLWZTXPQ2ECFZ38","ABKPEX0E9W2HW","3ZXV7Q5FJBAKJ3TNMBBLYHIS0EBCFB","","img/set1/S1.jpg","83","1","structured_incentive","83","structured_incentive,structured_normal,structured_load,random","2,3,1,2,4,2","3,4,2,1","true","","",""
"null","","html-keyboard-response","248","574777","0.0-248.0","35GCEFQ6I6A4X4MYLWZTXPQ2ECFZ38","ABKPEX0E9W2HW","3ZXV7Q5FJBAKJ3TNMBBLYHIS0EBCFB","","<img src=""img/set1/S1.jpg"" width=""540"" height = ""360"" style=""border:16px solid orange"">","null","","","","","","","","","",""
"null","","html-keyboard-response","249","574978","0.0-249.0","35GCEFQ6I6A4X4MYLWZTXPQ2ECFZ38","ABKPEX0E9W2HW","3ZXV7Q5FJBAKJ3TNMBBLYHIS0EBCFB","","","null","","","","","","","","","",""
"837.9000000357628","","image-keyboard-response","250","575817","0.0-250.0","35GCEFQ6I6A4X4MYLWZTXPQ2ECFZ38","ABKPEX0E9W2HW","3ZXV7Q5FJBAKJ3TNMBBLYHIS0EBCFB","","img/set1/S4.jpg","74","4","structured_incentive","74","structured_incentive,structured_normal,structured_load,random","2,3,1,2,4,2","3,4,2,1","true","","",""
"null","","html-keyboard-response","251","576168","0.0-251.0","35GCEFQ6I6A4X4MYLWZTXPQ2ECFZ38","ABKPEX0E9W2HW","3ZXV7Q5FJBAKJ3TNMBBLYHIS0EBCFB","","<img src=""img/set1/S4.jpg"" width=""540"" height = ""360"" style=""border:16px solid Violet"">","null","","","","","","","","","",""
"null","","html-keyboard-response","252","576370","0.0-252.0","35GCEFQ6I6A4X4MYLWZTXPQ2ECFZ38","ABKPEX0E9W2HW","3ZXV7Q5FJBAKJ3TNMBBLYHIS0EBCFB","","","null","","","","","","","","","",""
"866.3999999761581","","image-keyboard-response","253","577238","0.0-253.0","35GCEFQ6I6A4X4MYLWZTXPQ2ECFZ38","ABKPEX0E9W2HW","3ZXV7Q5FJBAKJ3TNMBBLYHIS0EBCFB","","img/set1/S1.jpg","83","1","structured_incentive","83","structured_incentive,structured_normal,structured_load,random","2,3,1,2,4,2","3,4,2,1","true","","",""
"null","","html-keyboard-response","254","577590","0.0-254.0","35GCEFQ6I6A4X4MYLWZTXPQ2ECFZ38","ABKPEX0E9W2HW","3ZXV7Q5FJBAKJ3TNMBBLYHIS0EBCFB","","<img src=""img/set1/S1.jpg"" width=""540"" height = ""360"" style=""border:16px solid orange"">","null","","","","","","","","","",""
"null","","html-keyboard-response","255","577791","0.0-255.0","35GCEFQ6I6A4X4MYLWZTXPQ2ECFZ38","ABKPEX0E9W2HW","3ZXV7Q5FJBAKJ3TNMBBLYHIS0EBCFB","","","null","","","","","","","","","",""
"1531","","image-keyboard-response","256","579323","0.0-256.0","35GCEFQ6I6A4X4MYLWZTXPQ2ECFZ38","ABKPEX0E9W2HW","3ZXV7Q5FJBAKJ3TNMBBLYHIS0EBCFB","","img/set1/S3.jpg","72","3","structured_incentive","72","structured_incentive,structured_normal,structured_load,random","2,3,1,2,4,2","3,4,2,1","true","","",""
"null","","html-keyboard-response","257","579674","0.0-257.0","35GCEFQ6I6A4X4MYLWZTXPQ2ECFZ38","ABKPEX0E9W2HW","3ZXV7Q5FJBAKJ3TNMBBLYHIS0EBCFB","","<img src=""img/set1/S3.jpg"" width=""540"" height = ""360"" style=""border:16px solid orange"">","null","","","","","","","","","",""
"null","","html-keyboard-response","258","579876","0.0-258.0","35GCEFQ6I6A4X4MYLWZTXPQ2ECFZ38","ABKPEX0E9W2HW","3ZXV7Q5FJBAKJ3TNMBBLYHIS0EBCFB","","","null","","","","","","","","","",""
"543.6000000238419","","image-keyboard-response","259","580421","0.0-259.0","35GCEFQ6I6A4X4MYLWZTXPQ2ECFZ38","ABKPEX0E9W2HW","3ZXV7Q5FJBAKJ3TNMBBLYHIS0EBCFB","","img/set1/S3.jpg","72","3","structured_incentive","72","structured_incentive,structured_normal,structured_load,random","2,3,1,2,4,2","3,4,2,1","true","","",""
"null","","html-keyboard-response","260","580774","0.0-260.0","35GCEFQ6I6A4X4MYLWZTXPQ2ECFZ38","ABKPEX0E9W2HW","3ZXV7Q5FJBAKJ3TNMBBLYHIS0EBCFB","","<img src=""img/set1/S3.jpg"" width=""540"" height = ""360"" style=""border:16px solid orange"">","null","","","","","","","","","",""
"null","","html-keyboard-response","261","580975","0.0-261.0","35GCEFQ6I6A4X4MYLWZTXPQ2ECFZ38","ABKPEX0E9W2HW","3ZXV7Q5FJBAKJ3TNMBBLYHIS0EBCFB","","","null","","","","","","","","","",""
"650.8999999761581","","image-keyboard-response","262","581627","0.0-262.0","35GCEFQ6I6A4X4MYLWZTXPQ2ECFZ38","ABKPEX0E9W2HW","3ZXV7Q5FJBAKJ3TNMBBLYHIS0EBCFB","","img/set1/S1.jpg","83","1","structured_incentive","83","structured_incentive,structured_normal,structured_load,random","2,3,1,2,4,2","3,4,2,1","true","","",""
"null","","html-keyboard-response","263","581980","0.0-263.0","35GCEFQ6I6A4X4MYLWZTXPQ2ECFZ38","ABKPEX0E9W2HW","3ZXV7Q5FJBAKJ3TNMBBLYHIS0EBCFB","","<img src=""img/set1/S1.jpg"" width=""540"" height = ""360"" style=""border:16px solid orange"">","null","","","","","","","","","",""
"null","","html-keyboard-response","264","582181","0.0-264.0","35GCEFQ6I6A4X4MYLWZTXPQ2ECFZ38","ABKPEX0E9W2HW","3ZXV7Q5FJBAKJ3TNMBBLYHIS0EBCFB","","","null","","","","","","","","","",""
"803.6999999880791","","image-keyboard-response","265","582986","0.0-265.0","35GCEFQ6I6A4X4MYLWZTXPQ2ECFZ38","ABKPEX0E9W2HW","3ZXV7Q5FJBAKJ3TNMBBLYHIS0EBCFB","","img/set1/S2.jpg","68","2","structured_incentive","68","structured_incentive,structured_normal,structured_load,random","2,3,1,2,4,2","3,4,2,1","true","","",""
"null","","html-keyboard-response","266","583338","0.0-266.0","35GCEFQ6I6A4X4MYLWZTXPQ2ECFZ38","ABKPEX0E9W2HW","3ZXV7Q5FJBAKJ3TNMBBLYHIS0EBCFB","","<img src=""img/set1/S2.jpg"" width=""540"" height = ""360"" style=""border:16px solid orange"">","null","","","","","","","","","",""
"null","","html-keyboard-response","267","583539","0.0-267.0","35GCEFQ6I6A4X4MYLWZTXPQ2ECFZ38","ABKPEX0E9W2HW","3ZXV7Q5FJBAKJ3TNMBBLYHIS0EBCFB","","","null","","","","","","","","","",""
"704.5","","image-keyboard-response","268","584245","0.0-268.0","35GCEFQ6I6A4X4MYLWZTXPQ2ECFZ38","ABKPEX0E9W2HW","3ZXV7Q5FJBAKJ3TNMBBLYHIS0EBCFB","","img/set1/S4.jpg","72","4","structured_incentive","74","structured_incentive,structured_normal,structured_load,random","2,3,1,2,4,2","3,4,2,1","false","","",""
"null","","html-keyboard-response","269","584596","0.0-269.0","35GCEFQ6I6A4X4MYLWZTXPQ2ECFZ38","ABKPEX0E9W2HW","3ZXV7Q5FJBAKJ3TNMBBLYHIS0EBCFB","","<img src=""img/set1/S4.jpg"" width=""540"" height = ""360"">","null","","","","","","","","","",""
"null","","html-keyboard-response","270","584797","0.0-270.0","35GCEFQ6I6A4X4MYLWZTXPQ2ECFZ38","ABKPEX0E9W2HW","3ZXV7Q5FJBAKJ3TNMBBLYHIS0EBCFB","","","null","","","","","","","","","",""
"782.4000000357628","","image-keyboard-response","271","585581","0.0-271.0","35GCEFQ6I6A4X4MYLWZTXPQ2ECFZ38","ABKPEX0E9W2HW","3ZXV7Q5FJBAKJ3TNMBBLYHIS0EBCFB","","img/set1/S2.jpg","83","2","structured_incentive","68","structured_incentive,structured_normal,structured_load,random","2,3,1,2,4,2","3,4,2,1","false","","",""
"null","","html-keyboard-response","272","585933","0.0-272.0","35GCEFQ6I6A4X4MYLWZTXPQ2ECFZ38","ABKPEX0E9W2HW","3ZXV7Q5FJBAKJ3TNMBBLYHIS0EBCFB","","<img src=""img/set1/S2.jpg"" width=""540"" height = ""360"">","null","","","","","","","","","",""
"null","","html-keyboard-response","273","586134","0.0-273.0","35GCEFQ6I6A4X4MYLWZTXPQ2ECFZ38","ABKPEX0E9W2HW","3ZXV7Q5FJBAKJ3TNMBBLYHIS0EBCFB","","","null","","","","","","","","","",""
"851.8000000119209","","image-keyboard-response","274","586987","0.0-274.0","35GCEFQ6I6A4X4MYLWZTXPQ2ECFZ38","ABKPEX0E9W2HW","3ZXV7Q5FJBAKJ3TNMBBLYHIS0EBCFB","","img/set1/S3.jpg","72","3","structured_incentive","72","structured_incentive,structured_normal,structured_load,random","2,3,1,2,4,2","3,4,2,1","true","","",""
"null","","html-keyboard-response","275","587339","0.0-275.0","35GCEFQ6I6A4X4MYLWZTXPQ2ECFZ38","ABKPEX0E9W2HW","3ZXV7Q5FJBAKJ3TNMBBLYHIS0EBCFB","","<img src=""img/set1/S3.jpg"" width=""540"" height = ""360"" style=""border:16px solid orange"">","null","","","","","","","","","",""
"null","","html-keyboard-response","276","587540","0.0-276.0","35GCEFQ6I6A4X4MYLWZTXPQ2ECFZ38","ABKPEX0E9W2HW","3ZXV7Q5FJBAKJ3TNMBBLYHIS0EBCFB","","","null","","","","","","","","","",""
"757.5","","image-keyboard-response","277","588299","0.0-277.0","35GCEFQ6I6A4X4MYLWZTXPQ2ECFZ38","ABKPEX0E9W2HW","3ZXV7Q5FJBAKJ3TNMBBLYHIS0EBCFB","","img/set1/S4.jpg","74","4","structured_incentive","74","structured_incentive,structured_normal,structured_load,random","2,3,1,2,4,2","3,4,2,1","true","","",""
"null","","html-keyboard-response","278","588650","0.0-278.0","35GCEFQ6I6A4X4MYLWZTXPQ2ECFZ38","ABKPEX0E9W2HW","3ZXV7Q5FJBAKJ3TNMBBLYHIS0EBCFB","","<img src=""img/set1/S4.jpg"" width=""540"" height = ""360"" style=""border:16px solid Violet"">","null","","","","","","","","","",""
"null","","html-keyboard-response","279","588852","0.0-279.0","35GCEFQ6I6A4X4MYLWZTXPQ2ECFZ38","ABKPEX0E9W2HW","3ZXV7Q5FJBAKJ3TNMBBLYHIS0EBCFB","","","null","","","","","","","","","",""
"583.8999999761581","","image-keyboard-response","280","589436","0.0-280.0","35GCEFQ6I6A4X4MYLWZTXPQ2ECFZ38","ABKPEX0E9W2HW","3ZXV7Q5FJBAKJ3TNMBBLYHIS0EBCFB","","img/set1/S4.jpg","74","4","structured_incentive","74","structured_incentive,structured_normal,structured_load,random","2,3,1,2,4,2","3,4,2,1","true","","",""
"null","","html-keyboard-response","281","589788","0.0-281.0","35GCEFQ6I6A4X4MYLWZTXPQ2ECFZ38","ABKPEX0E9W2HW","3ZXV7Q5FJBAKJ3TNMBBLYHIS0EBCFB","","<img src=""img/set1/S4.jpg"" width=""540"" height = ""360"" style=""border:16px solid Violet"">","null","","","","","","","","","",""
"null","","html-keyboard-response","282","589990","0.0-282.0","35GCEFQ6I6A4X4MYLWZTXPQ2ECFZ38","ABKPEX0E9W2HW","3ZXV7Q5FJBAKJ3TNMBBLYHIS0EBCFB","","","null","","","","","","","","","",""
"728.5","","image-keyboard-response","283","590720","0.0-283.0","35GCEFQ6I6A4X4MYLWZTXPQ2ECFZ38","ABKPEX0E9W2HW","3ZXV7Q5FJBAKJ3TNMBBLYHIS0EBCFB","","img/set1/S1.jpg","83","1","structured_incentive","83","structured_incentive,structured_normal,structured_load,random","2,3,1,2,4,2","3,4,2,1","true","","",""
"null","","html-keyboard-response","284","591072","0.0-284.0","35GCEFQ6I6A4X4MYLWZTXPQ2ECFZ38","ABKPEX0E9W2HW","3ZXV7Q5FJBAKJ3TNMBBLYHIS0EBCFB","","<img src=""img/set1/S1.jpg"" width=""540"" height = ""360"" style=""border:16px solid orange"">","null","","","","","","","","","",""
"null","","html-keyboard-response","285","591273","0.0-285.0","35GCEFQ6I6A4X4MYLWZTXPQ2ECFZ38","ABKPEX0E9W2HW","3ZXV7Q5FJBAKJ3TNMBBLYHIS0EBCFB","","","null","","","","","","","","","",""
"754.2000000476837","","image-keyboard-response","286","592028","0.0-286.0","35GCEFQ6I6A4X4MYLWZTXPQ2ECFZ38","ABKPEX0E9W2HW","3ZXV7Q5FJBAKJ3TNMBBLYHIS0EBCFB","","img/set1/S2.jpg","68","2","structured_incentive","68","structured_incentive,structured_normal,structured_load,random","2,3,1,2,4,2","3,4,2,1","true","","",""
"null","","html-keyboard-response","287","592379","0.0-287.0","35GCEFQ6I6A4X4MYLWZTXPQ2ECFZ38","ABKPEX0E9W2HW","3ZXV7Q5FJBAKJ3TNMBBLYHIS0EBCFB","","<img src=""img/set1/S2.jpg"" width=""540"" height = ""360"" style=""border:16px solid orange"">","null","","","","","","","","","",""
"null","","html-keyboard-response","288","592581","0.0-288.0","35GCEFQ6I6A4X4MYLWZTXPQ2ECFZ38","ABKPEX0E9W2HW","3ZXV7Q5FJBAKJ3TNMBBLYHIS0EBCFB","","","null","","","","","","","","","",""
"1107.699999988079","","image-keyboard-response","289","593690","0.0-289.0","35GCEFQ6I6A4X4MYLWZTXPQ2ECFZ38","ABKPEX0E9W2HW","3ZXV7Q5FJBAKJ3TNMBBLYHIS0EBCFB","","img/set1/S4.jpg","74","4","structured_incentive","74","structured_incentive,structured_normal,structured_load,random","2,3,1,2,4,2","3,4,2,1","true","","",""
"null","","html-keyboard-response","290","594043","0.0-290.0","35GCEFQ6I6A4X4MYLWZTXPQ2ECFZ38","ABKPEX0E9W2HW","3ZXV7Q5FJBAKJ3TNMBBLYHIS0EBCFB","","<img src=""img/set1/S4.jpg"" width=""540"" height = ""360"" style=""border:16px solid Violet"">","null","","","","","","","","","",""
"null","","html-keyboard-response","291","594245","0.0-291.0","35GCEFQ6I6A4X4MYLWZTXPQ2ECFZ38","ABKPEX0E9W2HW","3ZXV7Q5FJBAKJ3TNMBBLYHIS0EBCFB","","","null","","","","","","","","","",""
"974.0999999642372","","image-keyboard-response","292","595220","0.0-292.0","35GCEFQ6I6A4X4MYLWZTXPQ2ECFZ38","ABKPEX0E9W2HW","3ZXV7Q5FJBAKJ3TNMBBLYHIS0EBCFB","","img/set1/S2.jpg","68","2","structured_incentive","68","structured_incentive,structured_normal,structured_load,random","2,3,1,2,4,2","3,4,2,1","true","","",""
"null","","html-keyboard-response","293","595571","0.0-293.0","35GCEFQ6I6A4X4MYLWZTXPQ2ECFZ38","ABKPEX0E9W2HW","3ZXV7Q5FJBAKJ3TNMBBLYHIS0EBCFB","","<img src=""img/set1/S2.jpg"" width=""540"" height = ""360"" style=""border:16px solid orange"">","null","","","","","","","","","",""
"null","","html-keyboard-response","294","595773","0.0-294.0","35GCEFQ6I6A4X4MYLWZTXPQ2ECFZ38","ABKPEX0E9W2HW","3ZXV7Q5FJBAKJ3TNMBBLYHIS0EBCFB","","","null","","","","","","","","","",""
"941.2000000476837","","image-keyboard-response","295","596715","0.0-295.0","35GCEFQ6I6A4X4MYLWZTXPQ2ECFZ38","ABKPEX0E9W2HW","3ZXV7Q5FJBAKJ3TNMBBLYHIS0EBCFB","","img/set1/S3.jpg","72","3","structured_incentive","72","structured_incentive,structured_normal,structured_load,random","2,3,1,2,4,2","3,4,2,1","true","","",""
"null","","html-keyboard-response","296","597068","0.0-296.0","35GCEFQ6I6A4X4MYLWZTXPQ2ECFZ38","ABKPEX0E9W2HW","3ZXV7Q5FJBAKJ3TNMBBLYHIS0EBCFB","","<img src=""img/set1/S3.jpg"" width=""540"" height = ""360"" style=""border:16px solid orange"">","null","","","","","","","","","",""
"null","","html-keyboard-response","297","597270","0.0-297.0","35GCEFQ6I6A4X4MYLWZTXPQ2ECFZ38","ABKPEX0E9W2HW","3ZXV7Q5FJBAKJ3TNMBBLYHIS0EBCFB","","","null","","","","","","","","","",""
"635","","image-keyboard-response","298","597907","0.0-298.0","35GCEFQ6I6A4X4MYLWZTXPQ2ECFZ38","ABKPEX0E9W2HW","3ZXV7Q5FJBAKJ3TNMBBLYHIS0EBCFB","","img/set1/S3.jpg","72","3","structured_incentive","72","structured_incentive,structured_normal,structured_load,random","2,3,1,2,4,2","3,4,2,1","true","","",""
"null","","html-keyboard-response","299","598258","0.0-299.0","35GCEFQ6I6A4X4MYLWZTXPQ2ECFZ38","ABKPEX0E9W2HW","3ZXV7Q5FJBAKJ3TNMBBLYHIS0EBCFB","","<img src=""img/set1/S3.jpg"" width=""540"" height = ""360"" style=""border:16px solid orange"">","null","","","","","","","","","",""
"null","","html-keyboard-response","300","598459","0.0-300.0","35GCEFQ6I6A4X4MYLWZTXPQ2ECFZ38","ABKPEX0E9W2HW","3ZXV7Q5FJBAKJ3TNMBBLYHIS0EBCFB","","","null","","","","","","","","","",""
"801","","image-keyboard-response","301","599261","0.0-301.0","35GCEFQ6I6A4X4MYLWZTXPQ2ECFZ38","ABKPEX0E9W2HW","3ZXV7Q5FJBAKJ3TNMBBLYHIS0EBCFB","","img/set1/S4.jpg","74","4","structured_incentive","74","structured_incentive,structured_normal,structured_load,random","2,3,1,2,4,2","3,4,2,1","true","","",""
"null","","html-keyboard-response","302","599612","0.0-302.0","35GCEFQ6I6A4X4MYLWZTXPQ2ECFZ38","ABKPEX0E9W2HW","3ZXV7Q5FJBAKJ3TNMBBLYHIS0EBCFB","","<img src=""img/set1/S4.jpg"" width=""540"" height = ""360"" style=""border:16px solid Violet"">","null","","","","","","","","","",""
"null","","html-keyboard-response","303","599814","0.0-303.0","35GCEFQ6I6A4X4MYLWZTXPQ2ECFZ38","ABKPEX0E9W2HW","3ZXV7Q5FJBAKJ3TNMBBLYHIS0EBCFB","","","null","","","","","","","","","",""
"582.2000000476837","","image-keyboard-response","304","600397","0.0-304.0","35GCEFQ6I6A4X4MYLWZTXPQ2ECFZ38","ABKPEX0E9W2HW","3ZXV7Q5FJBAKJ3TNMBBLYHIS0EBCFB","","img/set1/S1.jpg","83","1","structured_incentive","83","structured_incentive,structured_normal,structured_load,random","2,3,1,2,4,2","3,4,2,1","true","","",""
"null","","html-keyboard-response","305","600749","0.0-305.0","35GCEFQ6I6A4X4MYLWZTXPQ2ECFZ38","ABKPEX0E9W2HW","3ZXV7Q5FJBAKJ3TNMBBLYHIS0EBCFB","","<img src=""img/set1/S1.jpg"" width=""540"" height = ""360"" style=""border:16px solid orange"">","null","","","","","","","","","",""
"null","","html-keyboard-response","306","600950","0.0-306.0","35GCEFQ6I6A4X4MYLWZTXPQ2ECFZ38","ABKPEX0E9W2HW","3ZXV7Q5FJBAKJ3TNMBBLYHIS0EBCFB","","","null","","","","","","","","","",""
"537.6999999880791","","image-keyboard-response","307","601488","0.0-307.0","35GCEFQ6I6A4X4MYLWZTXPQ2ECFZ38","ABKPEX0E9W2HW","3ZXV7Q5FJBAKJ3TNMBBLYHIS0EBCFB","","img/set1/S1.jpg","83","1","structured_incentive","83","structured_incentive,structured_normal,structured_load,random","2,3,1,2,4,2","3,4,2,1","true","","",""
"null","","html-keyboard-response","308","601841","0.0-308.0","35GCEFQ6I6A4X4MYLWZTXPQ2ECFZ38","ABKPEX0E9W2HW","3ZXV7Q5FJBAKJ3TNMBBLYHIS0EBCFB","","<img src=""img/set1/S1.jpg"" width=""540"" height = ""360"" style=""border:16px solid orange"">","null","","","","","","","","","",""
"null","","html-keyboard-response","309","602041","0.0-309.0","35GCEFQ6I6A4X4MYLWZTXPQ2ECFZ38","ABKPEX0E9W2HW","3ZXV7Q5FJBAKJ3TNMBBLYHIS0EBCFB","","","null","","","","","","","","","",""
"674.3999999761581","","image-keyboard-response","310","602717","0.0-310.0","35GCEFQ6I6A4X4MYLWZTXPQ2ECFZ38","ABKPEX0E9W2HW","3ZXV7Q5FJBAKJ3TNMBBLYHIS0EBCFB","","img/set1/S2.jpg","68","2","structured_incentive","68","structured_incentive,structured_normal,structured_load,random","2,3,1,2,4,2","3,4,2,1","true","","",""
"null","","html-keyboard-response","311","603068","0.0-311.0","35GCEFQ6I6A4X4MYLWZTXPQ2ECFZ38","ABKPEX0E9W2HW","3ZXV7Q5FJBAKJ3TNMBBLYHIS0EBCFB","","<img src=""img/set1/S2.jpg"" width=""540"" height = ""360"" style=""border:16px solid orange"">","null","","","","","","","","","",""
"null","","html-keyboard-response","312","603270","0.0-312.0","35GCEFQ6I6A4X4MYLWZTXPQ2ECFZ38","ABKPEX0E9W2HW","3ZXV7Q5FJBAKJ3TNMBBLYHIS0EBCFB","","","null","","","","","","","","","",""
"668.5","","image-keyboard-response","313","603939","0.0-313.0","35GCEFQ6I6A4X4MYLWZTXPQ2ECFZ38","ABKPEX0E9W2HW","3ZXV7Q5FJBAKJ3TNMBBLYHIS0EBCFB","","img/set1/S3.jpg","72","3","structured_incentive","72","structured_incentive,structured_normal,structured_load,random","2,3,1,2,4,2","3,4,2,1","true","","",""
"null","","html-keyboard-response","314","604291","0.0-314.0","35GCEFQ6I6A4X4MYLWZTXPQ2ECFZ38","ABKPEX0E9W2HW","3ZXV7Q5FJBAKJ3TNMBBLYHIS0EBCFB","","<img src=""img/set1/S3.jpg"" width=""540"" height = ""360"" style=""border:16px solid orange"">","null","","","","","","","","","",""
"null","","html-keyboard-response","315","604492","0.0-315.0","35GCEFQ6I6A4X4MYLWZTXPQ2ECFZ38","ABKPEX0E9W2HW","3ZXV7Q5FJBAKJ3TNMBBLYHIS0EBCFB","","","null","","","","","","","","","",""
"658.3999999761581","","image-keyboard-response","316","605152","0.0-316.0","35GCEFQ6I6A4X4MYLWZTXPQ2ECFZ38","ABKPEX0E9W2HW","3ZXV7Q5FJBAKJ3TNMBBLYHIS0EBCFB","","img/set1/S2.jpg","83","2","structured_incentive","68","structured_incentive,structured_normal,structured_load,random","2,3,1,2,4,2","3,4,2,1","false","","",""
"null","","html-keyboard-response","317","605503","0.0-317.0","35GCEFQ6I6A4X4MYLWZTXPQ2ECFZ38","ABKPEX0E9W2HW","3ZXV7Q5FJBAKJ3TNMBBLYHIS0EBCFB","","<img src=""img/set1/S2.jpg"" width=""540"" height = ""360"">","null","","","","","","","","","",""
"null","","html-keyboard-response","318","605704","0.0-318.0","35GCEFQ6I6A4X4MYLWZTXPQ2ECFZ38","ABKPEX0E9W2HW","3ZXV7Q5FJBAKJ3TNMBBLYHIS0EBCFB","","","null","","","","","","","","","",""
"719.4000000357628","","image-keyboard-response","319","606424","0.0-319.0","35GCEFQ6I6A4X4MYLWZTXPQ2ECFZ38","ABKPEX0E9W2HW","3ZXV7Q5FJBAKJ3TNMBBLYHIS0EBCFB","","img/set1/S3.jpg","72","3","structured_incentive","72","structured_incentive,structured_normal,structured_load,random","2,3,1,2,4,2","3,4,2,1","true","","",""
"null","","html-keyboard-response","320","606777","0.0-320.0","35GCEFQ6I6A4X4MYLWZTXPQ2ECFZ38","ABKPEX0E9W2HW","3ZXV7Q5FJBAKJ3TNMBBLYHIS0EBCFB","","<img src=""img/set1/S3.jpg"" width=""540"" height = ""360"" style=""border:16px solid orange"">","null","","","","","","","","","",""
"null","","html-keyboard-response","321","606979","0.0-321.0","35GCEFQ6I6A4X4MYLWZTXPQ2ECFZ38","ABKPEX0E9W2HW","3ZXV7Q5FJBAKJ3TNMBBLYHIS0EBCFB","","","null","","","","","","","","","",""
"1177","","image-keyboard-response","322","608157","0.0-322.0","35GCEFQ6I6A4X4MYLWZTXPQ2ECFZ38","ABKPEX0E9W2HW","3ZXV7Q5FJBAKJ3TNMBBLYHIS0EBCFB","","img/set1/S2.jpg","68","2","structured_incentive","68","structured_incentive,structured_normal,structured_load,random","2,3,1,2,4,2","3,4,2,1","true","","",""
"null","","html-keyboard-response","323","608509","0.0-323.0","35GCEFQ6I6A4X4MYLWZTXPQ2ECFZ38","ABKPEX0E9W2HW","3ZXV7Q5FJBAKJ3TNMBBLYHIS0EBCFB","","<img src=""img/set1/S2.jpg"" width=""540"" height = ""360"" style=""border:16px solid orange"">","null","","","","","","","","","",""
"null","","html-keyboard-response","324","608711","0.0-324.0","35GCEFQ6I6A4X4MYLWZTXPQ2ECFZ38","ABKPEX0E9W2HW","3ZXV7Q5FJBAKJ3TNMBBLYHIS0EBCFB","","","null","","","","","","","","","",""
"762.7000000476837","","image-keyboard-response","325","609475","0.0-325.0","35GCEFQ6I6A4X4MYLWZTXPQ2ECFZ38","ABKPEX0E9W2HW","3ZXV7Q5FJBAKJ3TNMBBLYHIS0EBCFB","","img/set1/S3.jpg","72","3","structured_incentive","72","structured_incentive,structured_normal,structured_load,random","2,3,1,2,4,2","3,4,2,1","true","","",""
"null","","html-keyboard-response","326","609827","0.0-326.0","35GCEFQ6I6A4X4MYLWZTXPQ2ECFZ38","ABKPEX0E9W2HW","3ZXV7Q5FJBAKJ3TNMBBLYHIS0EBCFB","","<img src=""img/set1/S3.jpg"" width=""540"" height = ""360"" style=""border:16px solid orange"">","null","","","","","","","","","",""
"null","","html-keyboard-response","327","610027","0.0-327.0","35GCEFQ6I6A4X4MYLWZTXPQ2ECFZ38","ABKPEX0E9W2HW","3ZXV7Q5FJBAKJ3TNMBBLYHIS0EBCFB","","","null","","","","","","","","","",""
"729.1000000238419","","image-keyboard-response","328","610758","0.0-328.0","35GCEFQ6I6A4X4MYLWZTXPQ2ECFZ38","ABKPEX0E9W2HW","3ZXV7Q5FJBAKJ3TNMBBLYHIS0EBCFB","","img/set1/S4.jpg","74","4","structured_incentive","74","structured_incentive,structured_normal,structured_load,random","2,3,1,2,4,2","3,4,2,1","true","","",""
"null","","html-keyboard-response","329","611110","0.0-329.0","35GCEFQ6I6A4X4MYLWZTXPQ2ECFZ38","ABKPEX0E9W2HW","3ZXV7Q5FJBAKJ3TNMBBLYHIS0EBCFB","","<img src=""img/set1/S4.jpg"" width=""540"" height = ""360"" style=""border:16px solid Violet"">","null","","","","","","","","","",""
"null","","html-keyboard-response","330","611311","0.0-330.0","35GCEFQ6I6A4X4MYLWZTXPQ2ECFZ38","ABKPEX0E9W2HW","3ZXV7Q5FJBAKJ3TNMBBLYHIS0EBCFB","","","null","","","","","","","","","",""
"791.6000000238419","","image-keyboard-response","331","612103","0.0-331.0","35GCEFQ6I6A4X4MYLWZTXPQ2ECFZ38","ABKPEX0E9W2HW","3ZXV7Q5FJBAKJ3TNMBBLYHIS0EBCFB","","img/set1/S2.jpg","68","2","structured_incentive","68","structured_incentive,structured_normal,structured_load,random","2,3,1,2,4,2","3,4,2,1","true","","",""
"null","","html-keyboard-response","332","612455","0.0-332.0","35GCEFQ6I6A4X4MYLWZTXPQ2ECFZ38","ABKPEX0E9W2HW","3ZXV7Q5FJBAKJ3TNMBBLYHIS0EBCFB","","<img src=""img/set1/S2.jpg"" width=""540"" height = ""360"" style=""border:16px solid orange"">","null","","","","","","","","","",""
"null","","html-keyboard-response","333","612656","0.0-333.0","35GCEFQ6I6A4X4MYLWZTXPQ2ECFZ38","ABKPEX0E9W2HW","3ZXV7Q5FJBAKJ3TNMBBLYHIS0EBCFB","","","null","","","","","","","","","",""
"820.3000000119209","","image-keyboard-response","334","613477","0.0-334.0","35GCEFQ6I6A4X4MYLWZTXPQ2ECFZ38","ABKPEX0E9W2HW","3ZXV7Q5FJBAKJ3TNMBBLYHIS0EBCFB","","img/set1/S3.jpg","72","3","structured_incentive","72","structured_incentive,structured_normal,structured_load,random","2,3,1,2,4,2","3,4,2,1","true","","",""
"null","","html-keyboard-response","335","613829","0.0-335.0","35GCEFQ6I6A4X4MYLWZTXPQ2ECFZ38","ABKPEX0E9W2HW","3ZXV7Q5FJBAKJ3TNMBBLYHIS0EBCFB","","<img src=""img/set1/S3.jpg"" width=""540"" height = ""360"" style=""border:16px solid orange"">","null","","","","","","","","","",""
"null","","html-keyboard-response","336","614030","0.0-336.0","35GCEFQ6I6A4X4MYLWZTXPQ2ECFZ38","ABKPEX0E9W2HW","3ZXV7Q5FJBAKJ3TNMBBLYHIS0EBCFB","","","null","","","","","","","","","",""
"572.8000000119209","","image-keyboard-response","337","614604","0.0-337.0","35GCEFQ6I6A4X4MYLWZTXPQ2ECFZ38","ABKPEX0E9W2HW","3ZXV7Q5FJBAKJ3TNMBBLYHIS0EBCFB","","img/set1/S3.jpg","72","3","structured_incentive","72","structured_incentive,structured_normal,structured_load,random","2,3,1,2,4,2","3,4,2,1","true","","",""
"null","","html-keyboard-response","338","614956","0.0-338.0","35GCEFQ6I6A4X4MYLWZTXPQ2ECFZ38","ABKPEX0E9W2HW","3ZXV7Q5FJBAKJ3TNMBBLYHIS0EBCFB","","<img src=""img/set1/S3.jpg"" width=""540"" height = ""360"" style=""border:16px solid orange"">","null","","","","","","","","","",""
"null","","html-keyboard-response","339","615157","0.0-339.0","35GCEFQ6I6A4X4MYLWZTXPQ2ECFZ38","ABKPEX0E9W2HW","3ZXV7Q5FJBAKJ3TNMBBLYHIS0EBCFB","","","null","","","","","","","","","",""
"738.5","","image-keyboard-response","340","615897","0.0-340.0","35GCEFQ6I6A4X4MYLWZTXPQ2ECFZ38","ABKPEX0E9W2HW","3ZXV7Q5FJBAKJ3TNMBBLYHIS0EBCFB","","img/set1/S1.jpg","83","1","structured_incentive","83","structured_incentive,structured_normal,structured_load,random","2,3,1,2,4,2","3,4,2,1","true","","",""
"null","","html-keyboard-response","341","616248","0.0-341.0","35GCEFQ6I6A4X4MYLWZTXPQ2ECFZ38","ABKPEX0E9W2HW","3ZXV7Q5FJBAKJ3TNMBBLYHIS0EBCFB","","<img src=""img/set1/S1.jpg"" width=""540"" height = ""360"" style=""border:16px solid orange"">","null","","","","","","","","","",""
"null","","html-keyboard-response","342","616449","0.0-342.0","35GCEFQ6I6A4X4MYLWZTXPQ2ECFZ38","ABKPEX0E9W2HW","3ZXV7Q5FJBAKJ3TNMBBLYHIS0EBCFB","","","null","","","","","","","","","",""
"774.5999999642372","","image-keyboard-response","343","617225","0.0-343.0","35GCEFQ6I6A4X4MYLWZTXPQ2ECFZ38","ABKPEX0E9W2HW","3ZXV7Q5FJBAKJ3TNMBBLYHIS0EBCFB","","img/set1/S2.jpg","68","2","structured_incentive","68","structured_incentive,structured_normal,structured_load,random","2,3,1,2,4,2","3,4,2,1","true","","",""
"null","","html-keyboard-response","344","617576","0.0-344.0","35GCEFQ6I6A4X4MYLWZTXPQ2ECFZ38","ABKPEX0E9W2HW","3ZXV7Q5FJBAKJ3TNMBBLYHIS0EBCFB","","<img src=""img/set1/S2.jpg"" width=""540"" height = ""360"" style=""border:16px solid orange"">","null","","","","","","","","","",""
"null","","html-keyboard-response","345","617778","0.0-345.0","35GCEFQ6I6A4X4MYLWZTXPQ2ECFZ38","ABKPEX0E9W2HW","3ZXV7Q5FJBAKJ3TNMBBLYHIS0EBCFB","","","null","","","","","","","","","",""
"740.3000000119209","","image-keyboard-response","346","618519","0.0-346.0","35GCEFQ6I6A4X4MYLWZTXPQ2ECFZ38","ABKPEX0E9W2HW","3ZXV7Q5FJBAKJ3TNMBBLYHIS0EBCFB","","img/set1/S3.jpg","72","3","structured_incentive","72","structured_incentive,structured_normal,structured_load,random","2,3,1,2,4,2","3,4,2,1","true","","",""
"null","","html-keyboard-response","347","618871","0.0-347.0","35GCEFQ6I6A4X4MYLWZTXPQ2ECFZ38","ABKPEX0E9W2HW","3ZXV7Q5FJBAKJ3TNMBBLYHIS0EBCFB","","<img src=""img/set1/S3.jpg"" width=""540"" height = ""360"" style=""border:16px solid orange"">","null","","","","","","","","","",""
"null","","html-keyboard-response","348","619073","0.0-348.0","35GCEFQ6I6A4X4MYLWZTXPQ2ECFZ38","ABKPEX0E9W2HW","3ZXV7Q5FJBAKJ3TNMBBLYHIS0EBCFB","","","null","","","","","","","","","",""
"782.1999999880791","","image-keyboard-response","349","619856","0.0-349.0","35GCEFQ6I6A4X4MYLWZTXPQ2ECFZ38","ABKPEX0E9W2HW","3ZXV7Q5FJBAKJ3TNMBBLYHIS0EBCFB","","img/set1/S4.jpg","74","4","structured_incentive","74","structured_incentive,structured_normal,structured_load,random","2,3,1,2,4,2","3,4,2,1","true","","",""
"null","","html-keyboard-response","350","620208","0.0-350.0","35GCEFQ6I6A4X4MYLWZTXPQ2ECFZ38","ABKPEX0E9W2HW","3ZXV7Q5FJBAKJ3TNMBBLYHIS0EBCFB","","<img src=""img/set1/S4.jpg"" width=""540"" height = ""360"" style=""border:16px solid Violet"">","null","","","","","","","","","",""
"null","","html-keyboard-response","351","620409","0.0-351.0","35GCEFQ6I6A4X4MYLWZTXPQ2ECFZ38","ABKPEX0E9W2HW","3ZXV7Q5FJBAKJ3TNMBBLYHIS0EBCFB","","","null","","","","","","","","","",""
"1156.2000000476837","","image-keyboard-response","352","621566","0.0-352.0","35GCEFQ6I6A4X4MYLWZTXPQ2ECFZ38","ABKPEX0E9W2HW","3ZXV7Q5FJBAKJ3TNMBBLYHIS0EBCFB","","img/set1/S3.jpg","68","3","structured_incentive","72","structured_incentive,structured_normal,structured_load,random","2,3,1,2,4,2","3,4,2,1","false","","",""
"null","","html-keyboard-response","353","621921","0.0-353.0","35GCEFQ6I6A4X4MYLWZTXPQ2ECFZ38","ABKPEX0E9W2HW","3ZXV7Q5FJBAKJ3TNMBBLYHIS0EBCFB","","<img src=""img/set1/S3.jpg"" width=""540"" height = ""360"">","null","","","","","","","","","",""
"null","","html-keyboard-response","354","622123","0.0-354.0","35GCEFQ6I6A4X4MYLWZTXPQ2ECFZ38","ABKPEX0E9W2HW","3ZXV7Q5FJBAKJ3TNMBBLYHIS0EBCFB","","","null","","","","","","","","","",""
"763.6000000238419","","image-keyboard-response","355","622887","0.0-355.0","35GCEFQ6I6A4X4MYLWZTXPQ2ECFZ38","ABKPEX0E9W2HW","3ZXV7Q5FJBAKJ3TNMBBLYHIS0EBCFB","","img/set1/S1.jpg","83","1","structured_incentive","83","structured_incentive,structured_normal,structured_load,random","2,3,1,2,4,2","3,4,2,1","true","","",""
"null","","html-keyboard-response","356","623239","0.0-356.0","35GCEFQ6I6A4X4MYLWZTXPQ2ECFZ38","ABKPEX0E9W2HW","3ZXV7Q5FJBAKJ3TNMBBLYHIS0EBCFB","","<img src=""img/set1/S1.jpg"" width=""540"" height = ""360"" style=""border:16px solid orange"">","null","","","","","","","","","",""
"null","","html-keyboard-response","357","623440","0.0-357.0","35GCEFQ6I6A4X4MYLWZTXPQ2ECFZ38","ABKPEX0E9W2HW","3ZXV7Q5FJBAKJ3TNMBBLYHIS0EBCFB","","","null","","","","","","","","","",""
"758.3000000119209","","image-keyboard-response","358","624200","0.0-358.0","35GCEFQ6I6A4X4MYLWZTXPQ2ECFZ38","ABKPEX0E9W2HW","3ZXV7Q5FJBAKJ3TNMBBLYHIS0EBCFB","","img/set1/S2.jpg","68","2","structured_incentive","68","structured_incentive,structured_normal,structured_load,random","2,3,1,2,4,2","3,4,2,1","true","","",""
"null","","html-keyboard-response","359","624552","0.0-359.0","35GCEFQ6I6A4X4MYLWZTXPQ2ECFZ38","ABKPEX0E9W2HW","3ZXV7Q5FJBAKJ3TNMBBLYHIS0EBCFB","","<img src=""img/set1/S2.jpg"" width=""540"" height = ""360"" style=""border:16px solid orange"">","null","","","","","","","","","",""
"null","","html-keyboard-response","360","624753","0.0-360.0","35GCEFQ6I6A4X4MYLWZTXPQ2ECFZ38","ABKPEX0E9W2HW","3ZXV7Q5FJBAKJ3TNMBBLYHIS0EBCFB","","","null","","","","","","","","","",""
"1068.4000000357628","","image-keyboard-response","361","625823","0.0-361.0","35GCEFQ6I6A4X4MYLWZTXPQ2ECFZ38","ABKPEX0E9W2HW","3ZXV7Q5FJBAKJ3TNMBBLYHIS0EBCFB","","img/set1/S3.jpg","72","3","structured_incentive","72","structured_incentive,structured_normal,structured_load,random","2,3,1,2,4,2","3,4,2,1","true","","",""
"null","","html-keyboard-response","362","626175","0.0-362.0","35GCEFQ6I6A4X4MYLWZTXPQ2ECFZ38","ABKPEX0E9W2HW","3ZXV7Q5FJBAKJ3TNMBBLYHIS0EBCFB","","<img src=""img/set1/S3.jpg"" width=""540"" height = ""360"" style=""border:16px solid orange"">","null","","","","","","","","","",""
"null","","html-keyboard-response","363","626376","0.0-363.0","35GCEFQ6I6A4X4MYLWZTXPQ2ECFZ38","ABKPEX0E9W2HW","3ZXV7Q5FJBAKJ3TNMBBLYHIS0EBCFB","","","null","","","","","","","","","",""
"2162.900000035763","","image-keyboard-response","364","628540","0.0-364.0","35GCEFQ6I6A4X4MYLWZTXPQ2ECFZ38","ABKPEX0E9W2HW","3ZXV7Q5FJBAKJ3TNMBBLYHIS0EBCFB","","img/set1/S2.jpg","68","2","structured_incentive","68","structured_incentive,structured_normal,structured_load,random","2,3,1,2,4,2","3,4,2,1","true","","",""
"null","","html-keyboard-response","365","628892","0.0-365.0","35GCEFQ6I6A4X4MYLWZTXPQ2ECFZ38","ABKPEX0E9W2HW","3ZXV7Q5FJBAKJ3TNMBBLYHIS0EBCFB","","<img src=""img/set1/S2.jpg"" width=""540"" height = ""360"" style=""border:16px solid orange"">","null","","","","","","","","","",""
"null","","html-keyboard-response","366","629094","0.0-366.0","35GCEFQ6I6A4X4MYLWZTXPQ2ECFZ38","ABKPEX0E9W2HW","3ZXV7Q5FJBAKJ3TNMBBLYHIS0EBCFB","","","null","","","","","","","","","",""
"736.0999999642372","","image-keyboard-response","367","629833","0.0-367.0","35GCEFQ6I6A4X4MYLWZTXPQ2ECFZ38","ABKPEX0E9W2HW","3ZXV7Q5FJBAKJ3TNMBBLYHIS0EBCFB","","img/set1/S3.jpg","72","3","structured_incentive","72","structured_incentive,structured_normal,structured_load,random","2,3,1,2,4,2","3,4,2,1","true","","",""
"null","","html-keyboard-response","368","630185","0.0-368.0","35GCEFQ6I6A4X4MYLWZTXPQ2ECFZ38","ABKPEX0E9W2HW","3ZXV7Q5FJBAKJ3TNMBBLYHIS0EBCFB","","<img src=""img/set1/S3.jpg"" width=""540"" height = ""360"" style=""border:16px solid orange"">","null","","","","","","","","","",""
"null","","html-keyboard-response","369","630385","0.0-369.0","35GCEFQ6I6A4X4MYLWZTXPQ2ECFZ38","ABKPEX0E9W2HW","3ZXV7Q5FJBAKJ3TNMBBLYHIS0EBCFB","","","null","","","","","","","","","",""
"926.1000000238419","","image-keyboard-response","370","631312","0.0-370.0","35GCEFQ6I6A4X4MYLWZTXPQ2ECFZ38","ABKPEX0E9W2HW","3ZXV7Q5FJBAKJ3TNMBBLYHIS0EBCFB","","img/set1/S4.jpg","74","4","structured_incentive","74","structured_incentive,structured_normal,structured_load,random","2,3,1,2,4,2","3,4,2,1","true","","",""
"null","","html-keyboard-response","371","631664","0.0-371.0","35GCEFQ6I6A4X4MYLWZTXPQ2ECFZ38","ABKPEX0E9W2HW","3ZXV7Q5FJBAKJ3TNMBBLYHIS0EBCFB","","<img src=""img/set1/S4.jpg"" width=""540"" height = ""360"" style=""border:16px solid Violet"">","null","","","","","","","","","",""
"null","","html-keyboard-response","372","631865","0.0-372.0","35GCEFQ6I6A4X4MYLWZTXPQ2ECFZ38","ABKPEX0E9W2HW","3ZXV7Q5FJBAKJ3TNMBBLYHIS0EBCFB","","","null","","","","","","","","","",""
"750.1999999880791","","image-keyboard-response","373","632617","0.0-373.0","35GCEFQ6I6A4X4MYLWZTXPQ2ECFZ38","ABKPEX0E9W2HW","3ZXV7Q5FJBAKJ3TNMBBLYHIS0EBCFB","","img/set1/S1.jpg","83","1","structured_incentive","83","structured_incentive,structured_normal,structured_load,random","2,3,1,2,4,2","3,4,2,1","true","","",""
"null","","html-keyboard-response","374","632968","0.0-374.0","35GCEFQ6I6A4X4MYLWZTXPQ2ECFZ38","ABKPEX0E9W2HW","3ZXV7Q5FJBAKJ3TNMBBLYHIS0EBCFB","","<img src=""img/set1/S1.jpg"" width=""540"" height = ""360"" style=""border:16px solid orange"">","null","","","","","","","","","",""
"null","","html-keyboard-response","375","633169","0.0-375.0","35GCEFQ6I6A4X4MYLWZTXPQ2ECFZ38","ABKPEX0E9W2HW","3ZXV7Q5FJBAKJ3TNMBBLYHIS0EBCFB","","","null","","","","","","","","","",""
"748.7999999523163","","image-keyboard-response","376","633919","0.0-376.0","35GCEFQ6I6A4X4MYLWZTXPQ2ECFZ38","ABKPEX0E9W2HW","3ZXV7Q5FJBAKJ3TNMBBLYHIS0EBCFB","","img/set1/S4.jpg","74","4","structured_incentive","74","structured_incentive,structured_normal,structured_load,random","2,3,1,2,4,2","3,4,2,1","true","","",""
"null","","html-keyboard-response","377","634271","0.0-377.0","35GCEFQ6I6A4X4MYLWZTXPQ2ECFZ38","ABKPEX0E9W2HW","3ZXV7Q5FJBAKJ3TNMBBLYHIS0EBCFB","","<img src=""img/set1/S4.jpg"" width=""540"" height = ""360"" style=""border:16px solid Violet"">","null","","","","","","","","","",""
"null","","html-keyboard-response","378","634472","0.0-378.0","35GCEFQ6I6A4X4MYLWZTXPQ2ECFZ38","ABKPEX0E9W2HW","3ZXV7Q5FJBAKJ3TNMBBLYHIS0EBCFB","","","null","","","","","","","","","",""
"663.6999999880791","","image-keyboard-response","379","635136","0.0-379.0","35GCEFQ6I6A4X4MYLWZTXPQ2ECFZ38","ABKPEX0E9W2HW","3ZXV7Q5FJBAKJ3TNMBBLYHIS0EBCFB","","img/set1/S4.jpg","74","4","structured_incentive","74","structured_incentive,structured_normal,structured_load,random","2,3,1,2,4,2","3,4,2,1","true","","",""
"null","","html-keyboard-response","380","635489","0.0-380.0","35GCEFQ6I6A4X4MYLWZTXPQ2ECFZ38","ABKPEX0E9W2HW","3ZXV7Q5FJBAKJ3TNMBBLYHIS0EBCFB","","<img src=""img/set1/S4.jpg"" width=""540"" height = ""360"" style=""border:16px solid Violet"">","null","","","","","","","","","",""
"null","","html-keyboard-response","381","635692","0.0-381.0","35GCEFQ6I6A4X4MYLWZTXPQ2ECFZ38","ABKPEX0E9W2HW","3ZXV7Q5FJBAKJ3TNMBBLYHIS0EBCFB","","","null","","","","","","","","","",""
"858.1999999880791","","image-keyboard-response","382","636551","0.0-382.0","35GCEFQ6I6A4X4MYLWZTXPQ2ECFZ38","ABKPEX0E9W2HW","3ZXV7Q5FJBAKJ3TNMBBLYHIS0EBCFB","","img/set1/S2.jpg","83","2","structured_incentive","68","structured_incentive,structured_normal,structured_load,random","2,3,1,2,4,2","3,4,2,1","false","","",""
