"rt","url","trial_type","trial_index","time_elapsed","internal_node_id","view_history","stimulus","key_press","state","test_part","correct_response","order_block","order_chunk","correct","responses","question_order","bonus"
"21408.100000023842","consent.html","external-html","0","21515","0.0-0.0","","","","","","","","","","","",""
"38295.60000002384","","instructions","1","59810","0.0-1.0","[{""page_index"":0,""viewing_time"":2545.3000000715256},{""page_index"":1,""viewing_time"":4971.799999952316},{""page_index"":2,""viewing_time"":5559.899999976158},{""page_index"":3,""viewing_time"":8224.200000047684},{""page_index"":4,""viewing_time"":3528},{""page_index"":5,""viewing_time"":7777.899999976158},{""page_index"":6,""viewing_time"":5688}]","","","","","","","","","","",""
"11717.100000023842","","instructions","2","71527","0.0-2.0","[{""page_index"":0,""viewing_time"":11717}]","","","","","","","","","","",""
"10876.5","","instructions","3","82404","0.0-3.0","[{""page_index"":0,""viewing_time"":4951.100000023842},{""page_index"":1,""viewing_time"":5925.300000071526}]","","","","","","","","","","",""
"null","","image-keyboard-response","4","84908","0.0-4.0","","img/set1/S4.jpg","null","4","structured_incentive","74","structured_incentive,random,structured_normal,structured_load","2,3,2,1,3,4","false","","",""
"null","","html-keyboard-response","5","85260","0.0-5.0","","<img src=""img/set1/S4.jpg"" width=""540"" height = ""360"">","null","","","","","","","","",""
"null","","html-keyboard-response","6","85463","0.0-6.0","","","null","","","","","","","","",""
"317.60000002384186","","image-keyboard-response","7","85781","0.0-7.0","","img/set1/S4.jpg","83","4","structured_incentive","74","structured_incentive,random,structured_normal,structured_load","2,3,2,1,3,4","false","","",""
"null","","html-keyboard-response","8","86134","0.0-8.0","","<img src=""img/set1/S4.jpg"" width=""540"" height = ""360"">","null","","","","","","","","",""
"null","","html-keyboard-response","9","86336","0.0-9.0","","","null","","","","","","","","",""
"157.20000004768372","","image-keyboard-response","10","86494","0.0-10.0","","img/set1/S4.jpg","83","4","structured_incentive","74","structured_incentive,random,structured_normal,structured_load","2,3,2,1,3,4","false","","",""
"null","","html-keyboard-response","11","86846","0.0-11.0","","<img src=""img/set1/S4.jpg"" width=""540"" height = ""360"">","null","","","","","","","","",""
"null","","html-keyboard-response","12","87046","0.0-12.0","","","null","","","","","","","","",""
"982.3999999761581","","image-keyboard-response","13","88029","0.0-13.0","","img/set1/S2.jpg","72","2","structured_incentive","68","structured_incentive,random,structured_normal,structured_load","2,3,2,1,3,4","false","","",""
"null","","html-keyboard-response","14","88381","0.0-14.0","","<img src=""img/set1/S2.jpg"" width=""540"" height = ""360"">","null","","","","","","","","",""
"null","","html-keyboard-response","15","88584","0.0-15.0","","","null","","","","","","","","",""
"316.60000002384186","","image-keyboard-response","16","88901","0.0-16.0","","img/set1/S3.jpg","74","3","structured_incentive","72","structured_incentive,random,structured_normal,structured_load","2,3,2,1,3,4","false","","",""
"null","","html-keyboard-response","17","89255","0.0-17.0","","<img src=""img/set1/S3.jpg"" width=""540"" height = ""360"">","null","","","","","","","","",""
"null","","html-keyboard-response","18","89458","0.0-18.0","","","null","","","","","","","","",""
"482","","image-keyboard-response","19","89941","0.0-19.0","","img/set1/S1.jpg","83","1","structured_incentive","83","structured_incentive,random,structured_normal,structured_load","2,3,2,1,3,4","true","","",""
"null","","html-keyboard-response","20","90293","0.0-20.0","","<img src=""img/set1/S1.jpg"" width=""540"" height = ""360"" style=""border:16px solid orange"">","null","","","","","","","","",""
"null","","html-keyboard-response","21","90496","0.0-21.0","","","null","","","","","","","","",""
"292.60000002384186","","image-keyboard-response","22","90789","0.0-22.0","","img/set1/S2.jpg","83","2","structured_incentive","68","structured_incentive,random,structured_normal,structured_load","2,3,2,1,3,4","false","","",""
"null","","html-keyboard-response","23","91145","0.0-23.0","","<img src=""img/set1/S2.jpg"" width=""540"" height = ""360"">","null","","","","","","","","",""
"null","","html-keyboard-response","24","91347","0.0-24.0","","","null","","","","","","","","",""
"961.8000000715256","","image-keyboard-response","25","92310","0.0-25.0","","img/set1/S3.jpg","74","3","structured_incentive","72","structured_incentive,random,structured_normal,structured_load","2,3,2,1,3,4","false","","",""
"null","","html-keyboard-response","26","92664","0.0-26.0","","<img src=""img/set1/S3.jpg"" width=""540"" height = ""360"">","null","","","","","","","","",""
"null","","html-keyboard-response","27","92866","0.0-27.0","","","null","","","","","","","","",""
"290.09999990463257","","image-keyboard-response","28","93157","0.0-28.0","","img/set1/S2.jpg","72","2","structured_incentive","68","structured_incentive,random,structured_normal,structured_load","2,3,2,1,3,4","false","","",""
"null","","html-keyboard-response","29","93509","0.0-29.0","","<img src=""img/set1/S2.jpg"" width=""540"" height = ""360"">","null","","","","","","","","",""
"null","","html-keyboard-response","30","93712","0.0-30.0","","","null","","","","","","","","",""
"284.39999997615814","","image-keyboard-response","31","93997","0.0-31.0","","img/set1/S3.jpg","83","3","structured_incentive","72","structured_incentive,random,structured_normal,structured_load","2,3,2,1,3,4","false","","",""
"null","","html-keyboard-response","32","94349","0.0-32.0","","<img src=""img/set1/S3.jpg"" width=""540"" height = ""360"">","null","","","","","","","","",""
"null","","html-keyboard-response","33","94553","0.0-33.0","","","null","","","","","","","","",""
"115.39999997615814","","image-keyboard-response","34","94669","0.0-34.0","","img/set1/S1.jpg","83","1","structured_incentive","83","structured_incentive,random,structured_normal,structured_load","2,3,2,1,3,4","true","","",""
"null","","html-keyboard-response","35","95021","0.0-35.0","","<img src=""img/set1/S1.jpg"" width=""540"" height = ""360"" style=""border:16px solid orange"">","null","","","","","","","","",""
"null","","html-keyboard-response","36","95225","0.0-36.0","","","null","","","","","","","","",""
"611.8000000715256","","image-keyboard-response","37","95837","0.0-37.0","","img/set1/S2.jpg","68","2","structured_incentive","68","structured_incentive,random,structured_normal,structured_load","2,3,2,1,3,4","true","","",""
"null","","html-keyboard-response","38","96191","0.0-38.0","","<img src=""img/set1/S2.jpg"" width=""540"" height = ""360"" style=""border:16px solid orange"">","null","","","","","","","","",""
"null","","html-keyboard-response","39","96393","0.0-39.0","","","null","","","","","","","","",""
"418.90000009536743","","image-keyboard-response","40","96813","0.0-40.0","","img/set1/S3.jpg","83","3","structured_incentive","72","structured_incentive,random,structured_normal,structured_load","2,3,2,1,3,4","false","","",""
"null","","html-keyboard-response","41","97164","0.0-41.0","","<img src=""img/set1/S3.jpg"" width=""540"" height = ""360"">","null","","","","","","","","",""
"null","","html-keyboard-response","42","97370","0.0-42.0","","","null","","","","","","","","",""
"386.2000000476837","","image-keyboard-response","43","97757","0.0-43.0","","img/set1/S2.jpg","68","2","structured_incentive","68","structured_incentive,random,structured_normal,structured_load","2,3,2,1,3,4","true","","",""
"null","","html-keyboard-response","44","98108","0.0-44.0","","<img src=""img/set1/S2.jpg"" width=""540"" height = ""360"" style=""border:16px solid orange"">","null","","","","","","","","",""
"null","","html-keyboard-response","45","98312","0.0-45.0","","","null","","","","","","","","",""
"747.5","","image-keyboard-response","46","99061","0.0-46.0","","img/set1/S3.jpg","72","3","structured_incentive","72","structured_incentive,random,structured_normal,structured_load","2,3,2,1,3,4","true","","",""
"null","","html-keyboard-response","47","99412","0.0-47.0","","<img src=""img/set1/S3.jpg"" width=""540"" height = ""360"" style=""border:16px solid Violet"">","null","","","","","","","","",""
"null","","html-keyboard-response","48","99617","0.0-48.0","","","null","","","","","","","","",""
"706.7000000476837","","image-keyboard-response","49","100325","0.0-49.0","","img/set1/S1.jpg","74","1","structured_incentive","83","structured_incentive,random,structured_normal,structured_load","2,3,2,1,3,4","false","","",""
"null","","html-keyboard-response","50","100680","0.0-50.0","","<img src=""img/set1/S1.jpg"" width=""540"" height = ""360"">","null","","","","","","","","",""
"null","","html-keyboard-response","51","100883","0.0-51.0","","","null","","","","","","","","",""
"152.89999997615814","","image-keyboard-response","52","101037","0.0-52.0","","img/set1/S4.jpg","68","4","structured_incentive","74","structured_incentive,random,structured_normal,structured_load","2,3,2,1,3,4","false","","",""
"null","","html-keyboard-response","53","101388","0.0-53.0","","<img src=""img/set1/S4.jpg"" width=""540"" height = ""360"">","null","","","","","","","","",""
"null","","html-keyboard-response","54","101593","0.0-54.0","","","null","","","","","","","","",""
"219.39999997615814","","image-keyboard-response","55","101813","0.0-55.0","","img/set1/S1.jpg","83","1","structured_incentive","83","structured_incentive,random,structured_normal,structured_load","2,3,2,1,3,4","true","","",""
"null","","html-keyboard-response","56","102164","0.0-56.0","","<img src=""img/set1/S1.jpg"" width=""540"" height = ""360"" style=""border:16px solid orange"">","null","","","","","","","","",""
"null","","html-keyboard-response","57","102367","0.0-57.0","","","null","","","","","","","","",""
"500.7000000476837","","image-keyboard-response","58","102869","0.0-58.0","","img/set1/S4.jpg","83","4","structured_incentive","74","structured_incentive,random,structured_normal,structured_load","2,3,2,1,3,4","false","","",""
"null","","html-keyboard-response","59","103221","0.0-59.0","","<img src=""img/set1/S4.jpg"" width=""540"" height = ""360"">","null","","","","","","","","",""
"null","","html-keyboard-response","60","103424","0.0-60.0","","","null","","","","","","","","",""
"755.7999999523163","","image-keyboard-response","61","104181","0.0-61.0","","img/set1/S4.jpg","72","4","structured_incentive","74","structured_incentive,random,structured_normal,structured_load","2,3,2,1,3,4","false","","",""
"null","","html-keyboard-response","62","104537","0.0-62.0","","<img src=""img/set1/S4.jpg"" width=""540"" height = ""360"">","null","","","","","","","","",""
"null","","html-keyboard-response","63","104742","0.0-63.0","","","null","","","","","","","","",""
"181.60000002384186","","image-keyboard-response","64","104925","0.0-64.0","","img/set1/S2.jpg","74","2","structured_incentive","68","structured_incentive,random,structured_normal,structured_load","2,3,2,1,3,4","false","","",""
"null","","html-keyboard-response","65","105278","0.0-65.0","","<img src=""img/set1/S2.jpg"" width=""540"" height = ""360"">","null","","","","","","","","",""
"null","","html-keyboard-response","66","105479","0.0-66.0","","","null","","","","","","","","",""
"309.89999997615814","","image-keyboard-response","67","105789","0.0-67.0","","img/set1/S3.jpg","74","3","structured_incentive","72","structured_incentive,random,structured_normal,structured_load","2,3,2,1,3,4","false","","",""
"null","","html-keyboard-response","68","106145","0.0-68.0","","<img src=""img/set1/S3.jpg"" width=""540"" height = ""360"">","null","","","","","","","","",""
"null","","html-keyboard-response","69","106349","0.0-69.0","","","null","","","","","","","","",""
"685.7000000476837","","image-keyboard-response","70","107036","0.0-70.0","","img/set1/S1.jpg","83","1","structured_incentive","83","structured_incentive,random,structured_normal,structured_load","2,3,2,1,3,4","true","","",""
"null","","html-keyboard-response","71","107391","0.0-71.0","","<img src=""img/set1/S1.jpg"" width=""540"" height = ""360"" style=""border:16px solid orange"">","null","","","","","","","","",""
"null","","html-keyboard-response","72","107594","0.0-72.0","","","null","","","","","","","","",""
"1282.2000000476837","","image-keyboard-response","73","108876","0.0-73.0","","img/set1/S1.jpg","83","1","structured_incentive","83","structured_incentive,random,structured_normal,structured_load","2,3,2,1,3,4","true","","",""
"null","","html-keyboard-response","74","109230","0.0-74.0","","<img src=""img/set1/S1.jpg"" width=""540"" height = ""360"" style=""border:16px solid orange"">","null","","","","","","","","",""
"null","","html-keyboard-response","75","109433","0.0-75.0","","","null","","","","","","","","",""
"610.3999999761581","","image-keyboard-response","76","110044","0.0-76.0","","img/set1/S1.jpg","83","1","structured_incentive","83","structured_incentive,random,structured_normal,structured_load","2,3,2,1,3,4","true","","",""
"null","","html-keyboard-response","77","110396","0.0-77.0","","<img src=""img/set1/S1.jpg"" width=""540"" height = ""360"" style=""border:16px solid orange"">","null","","","","","","","","",""
"null","","html-keyboard-response","78","110596","0.0-78.0","","","null","","","","","","","","",""
"407","","image-keyboard-response","79","111004","0.0-79.0","","img/set1/S1.jpg","83","1","structured_incentive","83","structured_incentive,random,structured_normal,structured_load","2,3,2,1,3,4","true","","",""
"null","","html-keyboard-response","80","111356","0.0-80.0","","<img src=""img/set1/S1.jpg"" width=""540"" height = ""360"" style=""border:16px solid orange"">","null","","","","","","","","",""
"null","","html-keyboard-response","81","111559","0.0-81.0","","","null","","","","","","","","",""
"716.2000000476837","","image-keyboard-response","82","112276","0.0-82.0","","img/set1/S2.jpg","68","2","structured_incentive","68","structured_incentive,random,structured_normal,structured_load","2,3,2,1,3,4","true","","",""
"null","","html-keyboard-response","83","112631","0.0-83.0","","<img src=""img/set1/S2.jpg"" width=""540"" height = ""360"" style=""border:16px solid orange"">","null","","","","","","","","",""
"null","","html-keyboard-response","84","112836","0.0-84.0","","","null","","","","","","","","",""
"279.6999999284744","","image-keyboard-response","85","113116","0.0-85.0","","img/set1/S3.jpg","68","3","structured_incentive","72","structured_incentive,random,structured_normal,structured_load","2,3,2,1,3,4","false","","",""
"null","","html-keyboard-response","86","113472","0.0-86.0","","<img src=""img/set1/S3.jpg"" width=""540"" height = ""360"">","null","","","","","","","","",""
"null","","html-keyboard-response","87","113677","0.0-87.0","","","null","","","","","","","","",""
"101.89999997615814","","image-keyboard-response","88","113780","0.0-88.0","","img/set1/S4.jpg","72","4","structured_incentive","74","structured_incentive,random,structured_normal,structured_load","2,3,2,1,3,4","false","","",""
"null","","html-keyboard-response","89","114135","0.0-89.0","","<img src=""img/set1/S4.jpg"" width=""540"" height = ""360"">","null","","","","","","","","",""
"null","","html-keyboard-response","90","114338","0.0-90.0","","","null","","","","","","","","",""
"201.39999997615814","","image-keyboard-response","91","114540","0.0-91.0","","img/set1/S4.jpg","74","4","structured_incentive","74","structured_incentive,random,structured_normal,structured_load","2,3,2,1,3,4","true","","",""
"null","","html-keyboard-response","92","114894","0.0-92.0","","<img src=""img/set1/S4.jpg"" width=""540"" height = ""360"" style=""border:16px solid orange"">","null","","","","","","","","",""
"null","","html-keyboard-response","93","115097","0.0-93.0","","","null","","","","","","","","",""
"1114.3999999761581","","image-keyboard-response","94","116212","0.0-94.0","","img/set1/S2.jpg","72","2","structured_incentive","68","structured_incentive,random,structured_normal,structured_load","2,3,2,1,3,4","false","","",""
"null","","html-keyboard-response","95","116564","0.0-95.0","","<img src=""img/set1/S2.jpg"" width=""540"" height = ""360"">","null","","","","","","","","",""
"null","","html-keyboard-response","96","116767","0.0-96.0","","","null","","","","","","","","",""
"1020.2000000476837","","image-keyboard-response","97","117788","0.0-97.0","","img/set1/S3.jpg","68","3","structured_incentive","72","structured_incentive,random,structured_normal,structured_load","2,3,2,1,3,4","false","","",""
"null","","html-keyboard-response","98","118144","0.0-98.0","","<img src=""img/set1/S3.jpg"" width=""540"" height = ""360"">","null","","","","","","","","",""
"null","","html-keyboard-response","99","118348","0.0-99.0","","","null","","","","","","","","",""
"551.5","","image-keyboard-response","100","118900","0.0-100.0","","img/set1/S4.jpg","83","4","structured_incentive","74","structured_incentive,random,structured_normal,structured_load","2,3,2,1,3,4","false","","",""
"null","","html-keyboard-response","101","119253","0.0-101.0","","<img src=""img/set1/S4.jpg"" width=""540"" height = ""360"">","null","","","","","","","","",""
"null","","html-keyboard-response","102","119457","0.0-102.0","","","null","","","","","","","","",""
"746.5999999046326","","image-keyboard-response","103","120204","0.0-103.0","","img/set1/S1.jpg","83","1","structured_incentive","83","structured_incentive,random,structured_normal,structured_load","2,3,2,1,3,4","true","","",""
"null","","html-keyboard-response","104","120558","0.0-104.0","","<img src=""img/set1/S1.jpg"" width=""540"" height = ""360"" style=""border:16px solid orange"">","null","","","","","","","","",""
"null","","html-keyboard-response","105","120761","0.0-105.0","","","null","","","","","","","","",""
"1185.5","","image-keyboard-response","106","121948","0.0-106.0","","img/set1/S2.jpg","83","2","structured_incentive","68","structured_incentive,random,structured_normal,structured_load","2,3,2,1,3,4","false","","",""
"null","","html-keyboard-response","107","122299","0.0-107.0","","<img src=""img/set1/S2.jpg"" width=""540"" height = ""360"">","null","","","","","","","","",""
"null","","html-keyboard-response","108","122501","0.0-108.0","","","null","","","","","","","","",""
"733.8000000715256","","image-keyboard-response","109","123236","0.0-109.0","","img/set1/S3.jpg","83","3","structured_incentive","72","structured_incentive,random,structured_normal,structured_load","2,3,2,1,3,4","false","","",""
"null","","html-keyboard-response","110","123592","0.0-110.0","","<img src=""img/set1/S3.jpg"" width=""540"" height = ""360"">","null","","","","","","","","",""
"null","","html-keyboard-response","111","123793","0.0-111.0","","","null","","","","","","","","",""
"1650","","image-keyboard-response","112","125444","0.0-112.0","","img/set1/S2.jpg","68","2","structured_incentive","68","structured_incentive,random,structured_normal,structured_load","2,3,2,1,3,4","true","","",""
"null","","html-keyboard-response","113","125795","0.0-113.0","","<img src=""img/set1/S2.jpg"" width=""540"" height = ""360"" style=""border:16px solid orange"">","null","","","","","","","","",""
"null","","html-keyboard-response","114","125996","0.0-114.0","","","null","","","","","","","","",""
"null","","image-keyboard-response","115","128498","0.0-115.0","","img/set1/S3.jpg","null","3","structured_incentive","72","structured_incentive,random,structured_normal,structured_load","2,3,2,1,3,4","false","","",""
"null","","html-keyboard-response","116","128853","0.0-116.0","","<img src=""img/set1/S3.jpg"" width=""540"" height = ""360"">","null","","","","","","","","",""
"null","","html-keyboard-response","117","129055","0.0-117.0","","","null","","","","","","","","",""
"19.5","","image-keyboard-response","118","129075","0.0-118.0","","img/set1/S2.jpg","68","2","structured_incentive","68","structured_incentive,random,structured_normal,structured_load","2,3,2,1,3,4","true","","",""
"null","","html-keyboard-response","119","129430","0.0-119.0","","<img src=""img/set1/S2.jpg"" width=""540"" height = ""360"" style=""border:16px solid orange"">","null","","","","","","","","",""
"null","","html-keyboard-response","120","129631","0.0-120.0","","","null","","","","","","","","",""
"515.6999999284744","","image-keyboard-response","121","130147","0.0-121.0","","img/set1/S3.jpg","83","3","structured_incentive","72","structured_incentive,random,structured_normal,structured_load","2,3,2,1,3,4","false","","",""
"null","","html-keyboard-response","122","130500","0.0-122.0","","<img src=""img/set1/S3.jpg"" width=""540"" height = ""360"">","null","","","","","","","","",""
"null","","html-keyboard-response","123","130702","0.0-123.0","","","null","","","","","","","","",""
"780.5","","image-keyboard-response","124","131483","0.0-124.0","","img/set1/S4.jpg","83","4","structured_incentive","74","structured_incentive,random,structured_normal,structured_load","2,3,2,1,3,4","false","","",""
"null","","html-keyboard-response","125","131834","0.0-125.0","","<img src=""img/set1/S4.jpg"" width=""540"" height = ""360"">","null","","","","","","","","",""
"null","","html-keyboard-response","126","132039","0.0-126.0","","","null","","","","","","","","",""
"476.40000009536743","","image-keyboard-response","127","132516","0.0-127.0","","img/set1/S4.jpg","74","4","structured_incentive","74","structured_incentive,random,structured_normal,structured_load","2,3,2,1,3,4","true","","",""
"null","","html-keyboard-response","128","132870","0.0-128.0","","<img src=""img/set1/S4.jpg"" width=""540"" height = ""360"" style=""border:16px solid orange"">","null","","","","","","","","",""
"null","","html-keyboard-response","129","133072","0.0-129.0","","","null","","","","","","","","",""
"1858.4000000953674","","image-keyboard-response","130","134931","0.0-130.0","","img/set1/S2.jpg","68","2","structured_incentive","68","structured_incentive,random,structured_normal,structured_load","2,3,2,1,3,4","true","","",""
"null","","html-keyboard-response","131","135286","0.0-131.0","","<img src=""img/set1/S2.jpg"" width=""540"" height = ""360"" style=""border:16px solid orange"">","null","","","","","","","","",""
"null","","html-keyboard-response","132","135491","0.0-132.0","","","null","","","","","","","","",""
"816.6000000238419","","image-keyboard-response","133","136308","0.0-133.0","","img/set1/S3.jpg","72","3","structured_incentive","72","structured_incentive,random,structured_normal,structured_load","2,3,2,1,3,4","true","","",""
"null","","html-keyboard-response","134","136662","0.0-134.0","","<img src=""img/set1/S3.jpg"" width=""540"" height = ""360"" style=""border:16px solid Violet"">","null","","","","","","","","",""
"null","","html-keyboard-response","135","136863","0.0-135.0","","","null","","","","","","","","",""
"692.2000000476837","","image-keyboard-response","136","137556","0.0-136.0","","img/set1/S1.jpg","83","1","structured_incentive","83","structured_incentive,random,structured_normal,structured_load","2,3,2,1,3,4","true","","",""
"null","","html-keyboard-response","137","137907","0.0-137.0","","<img src=""img/set1/S1.jpg"" width=""540"" height = ""360"" style=""border:16px solid orange"">","null","","","","","","","","",""
"null","","html-keyboard-response","138","138108","0.0-138.0","","","null","","","","","","","","",""
"886.2000000476837","","image-keyboard-response","139","138995","0.0-139.0","","img/set1/S2.jpg","68","2","structured_incentive","68","structured_incentive,random,structured_normal,structured_load","2,3,2,1,3,4","true","","",""
"null","","html-keyboard-response","140","139346","0.0-140.0","","<img src=""img/set1/S2.jpg"" width=""540"" height = ""360"" style=""border:16px solid orange"">","null","","","","","","","","",""
"null","","html-keyboard-response","141","139549","0.0-141.0","","","null","","","","","","","","",""
"2061.3000000715256","","image-keyboard-response","142","141611","0.0-142.0","","img/set1/S3.jpg","72","3","structured_incentive","72","structured_incentive,random,structured_normal,structured_load","2,3,2,1,3,4","true","","",""
"null","","html-keyboard-response","143","141966","0.0-143.0","","<img src=""img/set1/S3.jpg"" width=""540"" height = ""360"" style=""border:16px solid Violet"">","null","","","","","","","","",""
"null","","html-keyboard-response","144","142171","0.0-144.0","","","null","","","","","","","","",""
"831","","image-keyboard-response","145","143003","0.0-145.0","","img/set1/S2.jpg","68","2","structured_incentive","68","structured_incentive,random,structured_normal,structured_load","2,3,2,1,3,4","true","","",""
"null","","html-keyboard-response","146","143354","0.0-146.0","","<img src=""img/set1/S2.jpg"" width=""540"" height = ""360"" style=""border:16px solid orange"">","null","","","","","","","","",""
"null","","html-keyboard-response","147","143557","0.0-147.0","","","null","","","","","","","","",""
"972.6999999284744","","image-keyboard-response","148","144530","0.0-148.0","","img/set1/S3.jpg","72","3","structured_incentive","72","structured_incentive,random,structured_normal,structured_load","2,3,2,1,3,4","true","","",""
"null","","html-keyboard-response","149","144882","0.0-149.0","","<img src=""img/set1/S3.jpg"" width=""540"" height = ""360"" style=""border:16px solid Violet"">","null","","","","","","","","",""
"null","","html-keyboard-response","150","145088","0.0-150.0","","","null","","","","","","","","",""
"1834.2999999523163","","image-keyboard-response","151","146923","0.0-151.0","","img/set1/S2.jpg","72","2","structured_incentive","68","structured_incentive,random,structured_normal,structured_load","2,3,2,1,3,4","false","","",""
"null","","html-keyboard-response","152","147275","0.0-152.0","","<img src=""img/set1/S2.jpg"" width=""540"" height = ""360"">","null","","","","","","","","",""
"null","","html-keyboard-response","153","147478","0.0-153.0","","","null","","","","","","","","",""
"827.1999999284744","","image-keyboard-response","154","148306","0.0-154.0","","img/set1/S3.jpg","68","3","structured_incentive","72","structured_incentive,random,structured_normal,structured_load","2,3,2,1,3,4","false","","",""
"null","","html-keyboard-response","155","148658","0.0-155.0","","<img src=""img/set1/S3.jpg"" width=""540"" height = ""360"">","null","","","","","","","","",""
"null","","html-keyboard-response","156","148859","0.0-156.0","","","null","","","","","","","","",""
"414.89999997615814","","image-keyboard-response","157","149274","0.0-157.0","","img/set1/S4.jpg","83","4","structured_incentive","74","structured_incentive,random,structured_normal,structured_load","2,3,2,1,3,4","false","","",""
"null","","html-keyboard-response","158","149630","0.0-158.0","","<img src=""img/set1/S4.jpg"" width=""540"" height = ""360"">","null","","","","","","","","",""
"null","","html-keyboard-response","159","149834","0.0-159.0","","","null","","","","","","","","",""
"744.1999999284744","","image-keyboard-response","160","150579","0.0-160.0","","img/set1/S4.jpg","74","4","structured_incentive","74","structured_incentive,random,structured_normal,structured_load","2,3,2,1,3,4","true","","",""
"null","","html-keyboard-response","161","150933","0.0-161.0","","<img src=""img/set1/S4.jpg"" width=""540"" height = ""360"" style=""border:16px solid orange"">","null","","","","","","","","",""
"null","","html-keyboard-response","162","151137","0.0-162.0","","","null","","","","","","","","",""
"399.7999999523163","","image-keyboard-response","163","151538","0.0-163.0","","img/set1/S2.jpg","74","2","structured_incentive","68","structured_incentive,random,structured_normal,structured_load","2,3,2,1,3,4","false","","",""
"null","","html-keyboard-response","164","151893","0.0-164.0","","<img src=""img/set1/S2.jpg"" width=""540"" height = ""360"">","null","","","","","","","","",""
"null","","html-keyboard-response","165","152094","0.0-165.0","","","null","","","","","","","","",""
"1107.1000000238419","","image-keyboard-response","166","153202","0.0-166.0","","img/set1/S3.jpg","72","3","structured_incentive","72","structured_incentive,random,structured_normal,structured_load","2,3,2,1,3,4","true","","",""
"null","","html-keyboard-response","167","153557","0.0-167.0","","<img src=""img/set1/S3.jpg"" width=""540"" height = ""360"" style=""border:16px solid Violet"">","null","","","","","","","","",""
"null","","html-keyboard-response","168","153760","0.0-168.0","","","null","","","","","","","","",""
"1057.2999999523163","","image-keyboard-response","169","154818","0.0-169.0","","img/set1/S4.jpg","74","4","structured_incentive","74","structured_incentive,random,structured_normal,structured_load","2,3,2,1,3,4","true","","",""
"null","","html-keyboard-response","170","155171","0.0-170.0","","<img src=""img/set1/S4.jpg"" width=""540"" height = ""360"" style=""border:16px solid orange"">","null","","","","","","","","",""
"null","","html-keyboard-response","171","155377","0.0-171.0","","","null","","","","","","","","",""
"640.7000000476837","","image-keyboard-response","172","156018","0.0-172.0","","img/set1/S1.jpg","83","1","structured_incentive","83","structured_incentive,random,structured_normal,structured_load","2,3,2,1,3,4","true","","",""
"null","","html-keyboard-response","173","156370","0.0-173.0","","<img src=""img/set1/S1.jpg"" width=""540"" height = ""360"" style=""border:16px solid orange"">","null","","","","","","","","",""
"null","","html-keyboard-response","174","156571","0.0-174.0","","","null","","","","","","","","",""
"550.5","","image-keyboard-response","175","157122","0.0-175.0","","img/set1/S1.jpg","83","1","structured_incentive","83","structured_incentive,random,structured_normal,structured_load","2,3,2,1,3,4","true","","",""
"null","","html-keyboard-response","176","157473","0.0-176.0","","<img src=""img/set1/S1.jpg"" width=""540"" height = ""360"" style=""border:16px solid orange"">","null","","","","","","","","",""
"null","","html-keyboard-response","177","157676","0.0-177.0","","","null","","","","","","","","",""
"1373.3999999761581","","image-keyboard-response","178","159050","0.0-178.0","","img/set1/S2.jpg","68","2","structured_incentive","68","structured_incentive,random,structured_normal,structured_load","2,3,2,1,3,4","true","","",""
"null","","html-keyboard-response","179","159402","0.0-179.0","","<img src=""img/set1/S2.jpg"" width=""540"" height = ""360"" style=""border:16px solid orange"">","null","","","","","","","","",""
"null","","html-keyboard-response","180","159602","0.0-180.0","","","null","","","","","","","","",""
"1191.8999999761581","","image-keyboard-response","181","160795","0.0-181.0","","img/set1/S3.jpg","72","3","structured_incentive","72","structured_incentive,random,structured_normal,structured_load","2,3,2,1,3,4","true","","",""
"null","","html-keyboard-response","182","161150","0.0-182.0","","<img src=""img/set1/S3.jpg"" width=""540"" height = ""360"" style=""border:16px solid Violet"">","null","","","","","","","","",""
"null","","html-keyboard-response","183","161351","0.0-183.0","","","null","","","","","","","","",""
"1953.3999999761581","","image-keyboard-response","184","163306","0.0-184.0","","img/set1/S2.jpg","68","2","structured_incentive","68","structured_incentive,random,structured_normal,structured_load","2,3,2,1,3,4","true","","",""
"null","","html-keyboard-response","185","163661","0.0-185.0","","<img src=""img/set1/S2.jpg"" width=""540"" height = ""360"" style=""border:16px solid orange"">","null","","","","","","","","",""
"null","","html-keyboard-response","186","163862","0.0-186.0","","","null","","","","","","","","",""
"1306.1999999284744","","image-keyboard-response","187","165169","0.0-187.0","","img/set1/S3.jpg","72","3","structured_incentive","72","structured_incentive,random,structured_normal,structured_load","2,3,2,1,3,4","true","","",""
"null","","html-keyboard-response","188","165521","0.0-188.0","","<img src=""img/set1/S3.jpg"" width=""540"" height = ""360"" style=""border:16px solid Violet"">","null","","","","","","","","",""
"null","","html-keyboard-response","189","165724","0.0-189.0","","","null","","","","","","","","",""
"644.2999999523163","","image-keyboard-response","190","166369","0.0-190.0","","img/set1/S4.jpg","74","4","structured_incentive","74","structured_incentive,random,structured_normal,structured_load","2,3,2,1,3,4","true","","",""
"null","","html-keyboard-response","191","166726","0.0-191.0","","<img src=""img/set1/S4.jpg"" width=""540"" height = ""360"" style=""border:16px solid orange"">","null","","","","","","","","",""
"null","","html-keyboard-response","192","166931","0.0-192.0","","","null","","","","","","","","",""
"934.5","","image-keyboard-response","193","167866","0.0-193.0","","img/set1/S4.jpg","74","4","structured_incentive","74","structured_incentive,random,structured_normal,structured_load","2,3,2,1,3,4","true","","",""
"null","","html-keyboard-response","194","168218","0.0-194.0","","<img src=""img/set1/S4.jpg"" width=""540"" height = ""360"" style=""border:16px solid orange"">","null","","","","","","","","",""
"null","","html-keyboard-response","195","168421","0.0-195.0","","","null","","","","","","","","",""
"643.8000000715256","","image-keyboard-response","196","169065","0.0-196.0","","img/set1/S1.jpg","83","1","structured_incentive","83","structured_incentive,random,structured_normal,structured_load","2,3,2,1,3,4","true","","",""
"null","","html-keyboard-response","197","169419","0.0-197.0","","<img src=""img/set1/S1.jpg"" width=""540"" height = ""360"" style=""border:16px solid orange"">","null","","","","","","","","",""
"null","","html-keyboard-response","198","169620","0.0-198.0","","","null","","","","","","","","",""
"469","","image-keyboard-response","199","170089","0.0-199.0","","img/set1/S1.jpg","83","1","structured_incentive","83","structured_incentive,random,structured_normal,structured_load","2,3,2,1,3,4","true","","",""
"null","","html-keyboard-response","200","170441","0.0-200.0","","<img src=""img/set1/S1.jpg"" width=""540"" height = ""360"" style=""border:16px solid orange"">","null","","","","","","","","",""
"null","","html-keyboard-response","201","170646","0.0-201.0","","","null","","","","","","","","",""
"378","","image-keyboard-response","202","171025","0.0-202.0","","img/set1/S1.jpg","83","1","structured_incentive","83","structured_incentive,random,structured_normal,structured_load","2,3,2,1,3,4","true","","",""
"null","","html-keyboard-response","203","171378","0.0-203.0","","<img src=""img/set1/S1.jpg"" width=""540"" height = ""360"" style=""border:16px solid orange"">","null","","","","","","","","",""
"null","","html-keyboard-response","204","171580","0.0-204.0","","","null","","","","","","","","",""
"492.10000002384186","","image-keyboard-response","205","172073","0.0-205.0","","img/set1/S1.jpg","83","1","structured_incentive","83","structured_incentive,random,structured_normal,structured_load","2,3,2,1,3,4","true","","",""
"null","","html-keyboard-response","206","172427","0.0-206.0","","<img src=""img/set1/S1.jpg"" width=""540"" height = ""360"" style=""border:16px solid orange"">","null","","","","","","","","",""
"null","","html-keyboard-response","207","172629","0.0-207.0","","","null","","","","","","","","",""
"570.8999999761581","","image-keyboard-response","208","173201","0.0-208.0","","img/set1/S1.jpg","83","1","structured_incentive","83","structured_incentive,random,structured_normal,structured_load","2,3,2,1,3,4","true","","",""
"null","","html-keyboard-response","209","173556","0.0-209.0","","<img src=""img/set1/S1.jpg"" width=""540"" height = ""360"" style=""border:16px solid orange"">","null","","","","","","","","",""
"null","","html-keyboard-response","210","173759","0.0-210.0","","","null","","","","","","","","",""
"369.1999999284744","","image-keyboard-response","211","174129","0.0-211.0","","img/set1/S1.jpg","83","1","structured_incentive","83","structured_incentive,random,structured_normal,structured_load","2,3,2,1,3,4","true","","",""
"null","","html-keyboard-response","212","174481","0.0-212.0","","<img src=""img/set1/S1.jpg"" width=""540"" height = ""360"" style=""border:16px solid orange"">","null","","","","","","","","",""
"null","","html-keyboard-response","213","174686","0.0-213.0","","","null","","","","","","","","",""
"1018.2999999523163","","image-keyboard-response","214","175705","0.0-214.0","","img/set1/S4.jpg","74","4","structured_incentive","74","structured_incentive,random,structured_normal,structured_load","2,3,2,1,3,4","true","","",""
"null","","html-keyboard-response","215","176056","0.0-215.0","","<img src=""img/set1/S4.jpg"" width=""540"" height = ""360"" style=""border:16px solid orange"">","null","","","","","","","","",""
"null","","html-keyboard-response","216","176257","0.0-216.0","","","null","","","","","","","","",""
"951.1999999284744","","image-keyboard-response","217","177209","0.0-217.0","","img/set1/S1.jpg","83","1","structured_incentive","83","structured_incentive,random,structured_normal,structured_load","2,3,2,1,3,4","true","","",""
"null","","html-keyboard-response","218","177562","0.0-218.0","","<img src=""img/set1/S1.jpg"" width=""540"" height = ""360"" style=""border:16px solid orange"">","null","","","","","","","","",""
"null","","html-keyboard-response","219","177764","0.0-219.0","","","null","","","","","","","","",""
"204.69999992847443","","image-keyboard-response","220","177969","0.0-220.0","","img/set1/S4.jpg","83","4","structured_incentive","74","structured_incentive,random,structured_normal,structured_load","2,3,2,1,3,4","false","","",""
"null","","html-keyboard-response","221","178324","0.0-221.0","","<img src=""img/set1/S4.jpg"" width=""540"" height = ""360"">","null","","","","","","","","",""
"null","","html-keyboard-response","222","178527","0.0-222.0","","","null","","","","","","","","",""
"672.5999999046326","","image-keyboard-response","223","179201","0.0-223.0","","img/set1/S4.jpg","74","4","structured_incentive","74","structured_incentive,random,structured_normal,structured_load","2,3,2,1,3,4","true","","",""
"null","","html-keyboard-response","224","179556","0.0-224.0","","<img src=""img/set1/S4.jpg"" width=""540"" height = ""360"" style=""border:16px solid orange"">","null","","","","","","","","",""
"null","","html-keyboard-response","225","179758","0.0-225.0","","","null","","","","","","","","",""
"457.60000002384186","","image-keyboard-response","226","180217","0.0-226.0","","img/set1/S4.jpg","74","4","structured_incentive","74","structured_incentive,random,structured_normal,structured_load","2,3,2,1,3,4","true","","",""
"null","","html-keyboard-response","227","180569","0.0-227.0","","<img src=""img/set1/S4.jpg"" width=""540"" height = ""360"" style=""border:16px solid orange"">","null","","","","","","","","",""
"null","","html-keyboard-response","228","180774","0.0-228.0","","","null","","","","","","","","",""
"866.5","","image-keyboard-response","229","181641","0.0-229.0","","img/set1/S2.jpg","68","2","structured_incentive","68","structured_incentive,random,structured_normal,structured_load","2,3,2,1,3,4","true","","",""
"null","","html-keyboard-response","230","181997","0.0-230.0","","<img src=""img/set1/S2.jpg"" width=""540"" height = ""360"" style=""border:16px solid orange"">","null","","","","","","","","",""
"null","","html-keyboard-response","231","182203","0.0-231.0","","","null","","","","","","","","",""
"685.1000000238419","","image-keyboard-response","232","182888","0.0-232.0","","img/set1/S3.jpg","72","3","structured_incentive","72","structured_incentive,random,structured_normal,structured_load","2,3,2,1,3,4","true","","",""
"null","","html-keyboard-response","233","183239","0.0-233.0","","<img src=""img/set1/S3.jpg"" width=""540"" height = ""360"" style=""border:16px solid Violet"">","null","","","","","","","","",""
"null","","html-keyboard-response","234","183441","0.0-234.0","","","null","","","","","","","","",""
"678.9000000953674","","image-keyboard-response","235","184120","0.0-235.0","","img/set1/S4.jpg","74","4","structured_incentive","74","structured_incentive,random,structured_normal,structured_load","2,3,2,1,3,4","true","","",""
"null","","html-keyboard-response","236","184474","0.0-236.0","","<img src=""img/set1/S4.jpg"" width=""540"" height = ""360"" style=""border:16px solid orange"">","null","","","","","","","","",""
"null","","html-keyboard-response","237","184678","0.0-237.0","","","null","","","","","","","","",""
"561.6000000238419","","image-keyboard-response","238","185240","0.0-238.0","","img/set1/S2.jpg","83","2","structured_incentive","68","structured_incentive,random,structured_normal,structured_load","2,3,2,1,3,4","false","","",""
"null","","html-keyboard-response","239","185593","0.0-239.0","","<img src=""img/set1/S2.jpg"" width=""540"" height = ""360"">","null","","","","","","","","",""
"null","","html-keyboard-response","240","185798","0.0-240.0","","","null","","","","","","","","",""
"762.3999999761581","","image-keyboard-response","241","186561","0.0-241.0","","img/set1/S3.jpg","72","3","structured_incentive","72","structured_incentive,random,structured_normal,structured_load","2,3,2,1,3,4","true","","",""
"null","","html-keyboard-response","242","186914","0.0-242.0","","<img src=""img/set1/S3.jpg"" width=""540"" height = ""360"" style=""border:16px solid Violet"">","null","","","","","","","","",""
"null","","html-keyboard-response","243","187120","0.0-243.0","","","null","","","","","","","","",""
"488","","image-keyboard-response","244","187609","0.0-244.0","","img/set1/S2.jpg","68","2","structured_incentive","68","structured_incentive,random,structured_normal,structured_load","2,3,2,1,3,4","true","","",""
"null","","html-keyboard-response","245","187964","0.0-245.0","","<img src=""img/set1/S2.jpg"" width=""540"" height = ""360"" style=""border:16px solid orange"">","null","","","","","","","","",""
"null","","html-keyboard-response","246","188169","0.0-246.0","","","null","","","","","","","","",""
"582.3000000715256","","image-keyboard-response","247","188752","0.0-247.0","","img/set1/S3.jpg","68","3","structured_incentive","72","structured_incentive,random,structured_normal,structured_load","2,3,2,1,3,4","false","","",""
"null","","html-keyboard-response","248","189106","0.0-248.0","","<img src=""img/set1/S3.jpg"" width=""540"" height = ""360"">","null","","","","","","","","",""
"null","","html-keyboard-response","249","189308","0.0-249.0","","","null","","","","","","","","",""
"587.7000000476837","","image-keyboard-response","250","189896","0.0-250.0","","img/set1/S1.jpg","83","1","structured_incentive","83","structured_incentive,random,structured_normal,structured_load","2,3,2,1,3,4","true","","",""
"null","","html-keyboard-response","251","190250","0.0-251.0","","<img src=""img/set1/S1.jpg"" width=""540"" height = ""360"" style=""border:16px solid orange"">","null","","","","","","","","",""
"null","","html-keyboard-response","252","190453","0.0-252.0","","","null","","","","","","","","",""
"426.10000002384186","","image-keyboard-response","253","190880","0.0-253.0","","img/set1/S1.jpg","83","1","structured_incentive","83","structured_incentive,random,structured_normal,structured_load","2,3,2,1,3,4","true","","",""
"null","","html-keyboard-response","254","191234","0.0-254.0","","<img src=""img/set1/S1.jpg"" width=""540"" height = ""360"" style=""border:16px solid orange"">","null","","","","","","","","",""
"null","","html-keyboard-response","255","191436","0.0-255.0","","","null","","","","","","","","",""
"419.59999990463257","","image-keyboard-response","256","191856","0.0-256.0","","img/set1/S1.jpg","83","1","structured_incentive","83","structured_incentive,random,structured_normal,structured_load","2,3,2,1,3,4","true","","",""
"null","","html-keyboard-response","257","192212","0.0-257.0","","<img src=""img/set1/S1.jpg"" width=""540"" height = ""360"" style=""border:16px solid orange"">","null","","","","","","","","",""
"null","","html-keyboard-response","258","192414","0.0-258.0","","","null","","","","","","","","",""
"1210","","image-keyboard-response","259","193624","0.0-259.0","","img/set1/S2.jpg","68","2","structured_incentive","68","structured_incentive,random,structured_normal,structured_load","2,3,2,1,3,4","true","","",""
"null","","html-keyboard-response","260","193975","0.0-260.0","","<img src=""img/set1/S2.jpg"" width=""540"" height = ""360"" style=""border:16px solid orange"">","null","","","","","","","","",""
"null","","html-keyboard-response","261","194178","0.0-261.0","","","null","","","","","","","","",""
"325.7000000476837","","image-keyboard-response","262","194504","0.0-262.0","","img/set1/S3.jpg","68","3","structured_incentive","72","structured_incentive,random,structured_normal,structured_load","2,3,2,1,3,4","false","","",""
"null","","html-keyboard-response","263","194856","0.0-263.0","","<img src=""img/set1/S3.jpg"" width=""540"" height = ""360"">","null","","","","","","","","",""
"null","","html-keyboard-response","264","195060","0.0-264.0","","","null","","","","","","","","",""
"666.7999999523163","","image-keyboard-response","265","195728","0.0-265.0","","img/set1/S4.jpg","74","4","structured_incentive","74","structured_incentive,random,structured_normal,structured_load","2,3,2,1,3,4","true","","",""
"null","","html-keyboard-response","266","196082","0.0-266.0","","<img src=""img/set1/S4.jpg"" width=""540"" height = ""360"" style=""border:16px solid orange"">","null","","","","","","","","",""
"null","","html-keyboard-response","267","196284","0.0-267.0","","","null","","","","","","","","",""
"1106.8999999761581","","image-keyboard-response","268","197392","0.0-268.0","","img/set1/S2.jpg","68","2","structured_incentive","68","structured_incentive,random,structured_normal,structured_load","2,3,2,1,3,4","true","","",""
"null","","html-keyboard-response","269","197746","0.0-269.0","","<img src=""img/set1/S2.jpg"" width=""540"" height = ""360"" style=""border:16px solid orange"">","null","","","","","","","","",""
"null","","html-keyboard-response","270","197947","0.0-270.0","","","null","","","","","","","","",""
"844.6000000238419","","image-keyboard-response","271","198792","0.0-271.0","","img/set1/S3.jpg","72","3","structured_incentive","72","structured_incentive,random,structured_normal,structured_load","2,3,2,1,3,4","true","","",""
"null","","html-keyboard-response","272","199148","0.0-272.0","","<img src=""img/set1/S3.jpg"" width=""540"" height = ""360"" style=""border:16px solid Violet"">","null","","","","","","","","",""
"null","","html-keyboard-response","273","199349","0.0-273.0","","","null","","","","","","","","",""
"1209.5","","image-keyboard-response","274","200560","0.0-274.0","","img/set1/S2.jpg","68","2","structured_incentive","68","structured_incentive,random,structured_normal,structured_load","2,3,2,1,3,4","true","","",""
"null","","html-keyboard-response","275","200915","0.0-275.0","","<img src=""img/set1/S2.jpg"" width=""540"" height = ""360"" style=""border:16px solid orange"">","null","","","","","","","","",""
"null","","html-keyboard-response","276","201121","0.0-276.0","","","null","","","","","","","","",""
"830.1000000238419","","image-keyboard-response","277","201952","0.0-277.0","","img/set1/S3.jpg","72","3","structured_incentive","72","structured_incentive,random,structured_normal,structured_load","2,3,2,1,3,4","true","","",""
"null","","html-keyboard-response","278","202307","0.0-278.0","","<img src=""img/set1/S3.jpg"" width=""540"" height = ""360"" style=""border:16px solid Violet"">","null","","","","","","","","",""
"null","","html-keyboard-response","279","202513","0.0-279.0","","","null","","","","","","","","",""
"926.2000000476837","","image-keyboard-response","280","203440","0.0-280.0","","img/set1/S2.jpg","68","2","structured_incentive","68","structured_incentive,random,structured_normal,structured_load","2,3,2,1,3,4","true","","",""
"null","","html-keyboard-response","281","203792","0.0-281.0","","<img src=""img/set1/S2.jpg"" width=""540"" height = ""360"" style=""border:16px solid orange"">","null","","","","","","","","",""
"null","","html-keyboard-response","282","203994","0.0-282.0","","","null","","","","","","","","",""
"1388.6999999284744","","image-keyboard-response","283","205383","0.0-283.0","","img/set1/S3.jpg","72","3","structured_incentive","72","structured_incentive,random,structured_normal,structured_load","2,3,2,1,3,4","true","","",""
"null","","html-keyboard-response","284","205735","0.0-284.0","","<img src=""img/set1/S3.jpg"" width=""540"" height = ""360"" style=""border:16px solid Violet"">","null","","","","","","","","",""
"null","","html-keyboard-response","285","205940","0.0-285.0","","","null","","","","","","","","",""
"515","","image-keyboard-response","286","206455","0.0-286.0","","img/set1/S1.jpg","83","1","structured_incentive","83","structured_incentive,random,structured_normal,structured_load","2,3,2,1,3,4","true","","",""
"null","","html-keyboard-response","287","206810","0.0-287.0","","<img src=""img/set1/S1.jpg"" width=""540"" height = ""360"" style=""border:16px solid orange"">","null","","","","","","","","",""
"null","","html-keyboard-response","288","207016","0.0-288.0","","","null","","","","","","","","",""
"735","","image-keyboard-response","289","207751","0.0-289.0","","img/set1/S2.jpg","68","2","structured_incentive","68","structured_incentive,random,structured_normal,structured_load","2,3,2,1,3,4","true","","",""
"null","","html-keyboard-response","290","208102","0.0-290.0","","<img src=""img/set1/S2.jpg"" width=""540"" height = ""360"" style=""border:16px solid orange"">","null","","","","","","","","",""
"null","","html-keyboard-response","291","208306","0.0-291.0","","","null","","","","","","","","",""
"1013","","image-keyboard-response","292","209320","0.0-292.0","","img/set1/S3.jpg","72","3","structured_incentive","72","structured_incentive,random,structured_normal,structured_load","2,3,2,1,3,4","true","","",""
"null","","html-keyboard-response","293","209673","0.0-293.0","","<img src=""img/set1/S3.jpg"" width=""540"" height = ""360"" style=""border:16px solid Violet"">","null","","","","","","","","",""
"null","","html-keyboard-response","294","209877","0.0-294.0","","","null","","","","","","","","",""
"528.7999999523163","","image-keyboard-response","295","210407","0.0-295.0","","img/set1/S1.jpg","83","1","structured_incentive","83","structured_incentive,random,structured_normal,structured_load","2,3,2,1,3,4","true","","",""
"null","","html-keyboard-response","296","210759","0.0-296.0","","<img src=""img/set1/S1.jpg"" width=""540"" height = ""360"" style=""border:16px solid orange"">","null","","","","","","","","",""
"null","","html-keyboard-response","297","210964","0.0-297.0","","","null","","","","","","","","",""
"362.39999997615814","","image-keyboard-response","298","211327","0.0-298.0","","img/set1/S1.jpg","83","1","structured_incentive","83","structured_incentive,random,structured_normal,structured_load","2,3,2,1,3,4","true","","",""
"null","","html-keyboard-response","299","211681","0.0-299.0","","<img src=""img/set1/S1.jpg"" width=""540"" height = ""360"" style=""border:16px solid orange"">","null","","","","","","","","",""
"null","","html-keyboard-response","300","211883","0.0-300.0","","","null","","","","","","","","",""
"635.1999999284744","","image-keyboard-response","301","212519","0.0-301.0","","img/set1/S2.jpg","68","2","structured_incentive","68","structured_incentive,random,structured_normal,structured_load","2,3,2,1,3,4","true","","",""
"null","","html-keyboard-response","302","212870","0.0-302.0","","<img src=""img/set1/S2.jpg"" width=""540"" height = ""360"" style=""border:16px solid orange"">","null","","","","","","","","",""
"null","","html-keyboard-response","303","213073","0.0-303.0","","","null","","","","","","","","",""
"253","","image-keyboard-response","304","213327","0.0-304.0","","img/set1/S3.jpg","68","3","structured_incentive","72","structured_incentive,random,structured_normal,structured_load","2,3,2,1,3,4","false","","",""
"null","","html-keyboard-response","305","213680","0.0-305.0","","<img src=""img/set1/S3.jpg"" width=""540"" height = ""360"">","null","","","","","","","","",""
"null","","html-keyboard-response","306","213882","0.0-306.0","","","null","","","","","","","","",""
"612.6000000238419","","image-keyboard-response","307","214495","0.0-307.0","","img/set1/S4.jpg","74","4","structured_incentive","74","structured_incentive,random,structured_normal,structured_load","2,3,2,1,3,4","true","","",""
"null","","html-keyboard-response","308","214849","0.0-308.0","","<img src=""img/set1/S4.jpg"" width=""540"" height = ""360"" style=""border:16px solid orange"">","null","","","","","","","","",""
"null","","html-keyboard-response","309","215051","0.0-309.0","","","null","","","","","","","","",""
"1266.7000000476837","","image-keyboard-response","310","216319","0.0-310.0","","img/set1/S1.jpg","83","1","structured_incentive","83","structured_incentive,random,structured_normal,structured_load","2,3,2,1,3,4","true","","",""
"null","","html-keyboard-response","311","216673","0.0-311.0","","<img src=""img/set1/S1.jpg"" width=""540"" height = ""360"" style=""border:16px solid orange"">","null","","","","","","","","",""
"null","","html-keyboard-response","312","216878","0.0-312.0","","","null","","","","","","","","",""
"656","","image-keyboard-response","313","217534","0.0-313.0","","img/set1/S4.jpg","74","4","structured_incentive","74","structured_incentive,random,structured_normal,structured_load","2,3,2,1,3,4","true","","",""
"null","","html-keyboard-response","314","217891","0.0-314.0","","<img src=""img/set1/S4.jpg"" width=""540"" height = ""360"" style=""border:16px solid orange"">","null","","","","","","","","",""
"null","","html-keyboard-response","315","218095","0.0-315.0","","","null","","","","","","","","",""
"607.3000000715256","","image-keyboard-response","316","218703","0.0-316.0","","img/set1/S1.jpg","83","1","structured_incentive","83","structured_incentive,random,structured_normal,structured_load","2,3,2,1,3,4","true","","",""
"null","","html-keyboard-response","317","219055","0.0-317.0","","<img src=""img/set1/S1.jpg"" width=""540"" height = ""360"" style=""border:16px solid orange"">","null","","","","","","","","",""
"null","","html-keyboard-response","318","219260","0.0-318.0","","","null","","","","","","","","",""
"642.6000000238419","","image-keyboard-response","319","219903","0.0-319.0","","img/set1/S4.jpg","74","4","structured_incentive","74","structured_incentive,random,structured_normal,structured_load","2,3,2,1,3,4","true","","",""
"null","","html-keyboard-response","320","220255","0.0-320.0","","<img src=""img/set1/S4.jpg"" width=""540"" height = ""360"" style=""border:16px solid orange"">","null","","","","","","","","",""
"null","","html-keyboard-response","321","220460","0.0-321.0","","","null","","","","","","","","",""
"1129.7000000476837","","image-keyboard-response","322","221591","0.0-322.0","","img/set1/S2.jpg","68","2","structured_incentive","68","structured_incentive,random,structured_normal,structured_load","2,3,2,1,3,4","true","","",""
"null","","html-keyboard-response","323","221946","0.0-323.0","","<img src=""img/set1/S2.jpg"" width=""540"" height = ""360"" style=""border:16px solid orange"">","null","","","","","","","","",""
"null","","html-keyboard-response","324","222147","0.0-324.0","","","null","","","","","","","","",""
"706.6999999284744","","image-keyboard-response","325","222854","0.0-325.0","","img/set1/S3.jpg","72","3","structured_incentive","72","structured_incentive,random,structured_normal,structured_load","2,3,2,1,3,4","true","","",""
"null","","html-keyboard-response","326","223210","0.0-326.0","","<img src=""img/set1/S3.jpg"" width=""540"" height = ""360"" style=""border:16px solid Violet"">","null","","","","","","","","",""
"null","","html-keyboard-response","327","223413","0.0-327.0","","","null","","","","","","","","",""
"505","","image-keyboard-response","328","223918","0.0-328.0","","img/set1/S2.jpg","83","2","structured_incentive","68","structured_incentive,random,structured_normal,structured_load","2,3,2,1,3,4","false","","",""
"null","","html-keyboard-response","329","224272","0.0-329.0","","<img src=""img/set1/S2.jpg"" width=""540"" height = ""360"">","null","","","","","","","","",""
"null","","html-keyboard-response","330","224477","0.0-330.0","","","null","","","","","","","","",""
"921.1000000238419","","image-keyboard-response","331","225399","0.0-331.0","","img/set1/S3.jpg","72","3","structured_incentive","72","structured_incentive,random,structured_normal,structured_load","2,3,2,1,3,4","true","","",""
"null","","html-keyboard-response","332","225755","0.0-332.0","","<img src=""img/set1/S3.jpg"" width=""540"" height = ""360"" style=""border:16px solid Violet"">","null","","","","","","","","",""
"null","","html-keyboard-response","333","225960","0.0-333.0","","","null","","","","","","","","",""
"678.3000000715256","","image-keyboard-response","334","226639","0.0-334.0","","img/set1/S4.jpg","74","4","structured_incentive","74","structured_incentive,random,structured_normal,structured_load","2,3,2,1,3,4","true","","",""
"null","","html-keyboard-response","335","226991","0.0-335.0","","<img src=""img/set1/S4.jpg"" width=""540"" height = ""360"" style=""border:16px solid orange"">","null","","","","","","","","",""
"null","","html-keyboard-response","336","227195","0.0-336.0","","","null","","","","","","","","",""
"866.5","","image-keyboard-response","337","228062","0.0-337.0","","img/set1/S1.jpg","83","1","structured_incentive","83","structured_incentive,random,structured_normal,structured_load","2,3,2,1,3,4","true","","",""
"null","","html-keyboard-response","338","228416","0.0-338.0","","<img src=""img/set1/S1.jpg"" width=""540"" height = ""360"" style=""border:16px solid orange"">","null","","","","","","","","",""
"null","","html-keyboard-response","339","228618","0.0-339.0","","","null","","","","","","","","",""
"644.1000000238419","","image-keyboard-response","340","229262","0.0-340.0","","img/set1/S4.jpg","68","4","structured_incentive","74","structured_incentive,random,structured_normal,structured_load","2,3,2,1,3,4","false","","",""
"null","","html-keyboard-response","341","229614","0.0-341.0","","<img src=""img/set1/S4.jpg"" width=""540"" height = ""360"">","null","","","","","","","","",""
"null","","html-keyboard-response","342","229818","0.0-342.0","","","null","","","","","","","","",""
"571.2999999523163","","image-keyboard-response","343","230390","0.0-343.0","","img/set1/S4.jpg","74","4","structured_incentive","74","structured_incentive,random,structured_normal,structured_load","2,3,2,1,3,4","true","","",""
"null","","html-keyboard-response","344","230745","0.0-344.0","","<img src=""img/set1/S4.jpg"" width=""540"" height = ""360"" style=""border:16px solid orange"">","null","","","","","","","","",""
"null","","html-keyboard-response","345","230946","0.0-345.0","","","null","","","","","","","","",""
"299.1999999284744","","image-keyboard-response","346","231246","0.0-346.0","","img/set1/S4.jpg","74","4","structured_incentive","74","structured_incentive,random,structured_normal,structured_load","2,3,2,1,3,4","true","","",""
"null","","html-keyboard-response","347","231598","0.0-347.0","","<img src=""img/set1/S4.jpg"" width=""540"" height = ""360"" style=""border:16px solid orange"">","null","","","","","","","","",""
"null","","html-keyboard-response","348","231802","0.0-348.0","","","null","","","","","","","","",""
"627.1000000238419","","image-keyboard-response","349","232430","0.0-349.0","","img/set1/S1.jpg","83","1","structured_incentive","83","structured_incentive,random,structured_normal,structured_load","2,3,2,1,3,4","true","","",""
"null","","html-keyboard-response","350","232784","0.0-350.0","","<img src=""img/set1/S1.jpg"" width=""540"" height = ""360"" style=""border:16px solid orange"">","null","","","","","","","","",""
"null","","html-keyboard-response","351","232986","0.0-351.0","","","null","","","","","","","","",""
"347.6999999284744","","image-keyboard-response","352","233334","0.0-352.0","","img/set1/S1.jpg","83","1","structured_incentive","83","structured_incentive,random,structured_normal,structured_load","2,3,2,1,3,4","true","","",""
"null","","html-keyboard-response","353","233688","0.0-353.0","","<img src=""img/set1/S1.jpg"" width=""540"" height = ""360"" style=""border:16px solid orange"">","null","","","","","","","","",""
"null","","html-keyboard-response","354","233890","0.0-354.0","","","null","","","","","","","","",""
"507.89999997615814","","image-keyboard-response","355","234398","0.0-355.0","","img/set1/S2.jpg","68","2","structured_incentive","68","structured_incentive,random,structured_normal,structured_load","2,3,2,1,3,4","true","","",""
"null","","html-keyboard-response","356","234754","0.0-356.0","","<img src=""img/set1/S2.jpg"" width=""540"" height = ""360"" style=""border:16px solid orange"">","null","","","","","","","","",""
"null","","html-keyboard-response","357","234960","0.0-357.0","","","null","","","","","","","","",""
"637.5","","image-keyboard-response","358","235598","0.0-358.0","","img/set1/S3.jpg","72","3","structured_incentive","72","structured_incentive,random,structured_normal,structured_load","2,3,2,1,3,4","true","","",""
"null","","html-keyboard-response","359","235951","0.0-359.0","","<img src=""img/set1/S3.jpg"" width=""540"" height = ""360"" style=""border:16px solid Violet"">","null","","","","","","","","",""
"null","","html-keyboard-response","360","236153","0.0-360.0","","","null","","","","","","","","",""
"612.1000000238419","","image-keyboard-response","361","236766","0.0-361.0","","img/set1/S4.jpg","74","4","structured_incentive","74","structured_incentive,random,structured_normal,structured_load","2,3,2,1,3,4","true","","",""
"null","","html-keyboard-response","362","237122","0.0-362.0","","<img src=""img/set1/S4.jpg"" width=""540"" height = ""360"" style=""border:16px solid orange"">","null","","","","","","","","",""
"null","","html-keyboard-response","363","237325","0.0-363.0","","","null","","","","","","","","",""
"1408.1999999284744","","html-keyboard-response","364","238734","0.0-364.0","","<p class=""center-content"">You have completed a block! </p><p class=""center-content"">Press any key on the keyboard to continue, </p><p class=""center-content"">or wait for the automatic progression to the next block after one minute.</p>","72","","","","","","","","",""
"6964.700000047684","","instructions","365","245698","0.0-365.0","[{""page_index"":0,""viewing_time"":6964.399999976158}]","","","","","","","","","","",""
"2377.399999976158","","instructions","366","248076","0.0-366.0","[{""page_index"":0,""viewing_time"":2377.100000023842}]","","","","","","","","","","",""
"1224.7000000476837","","image-keyboard-response","367","249302","0.0-367.0","","img/set2/S2.jpg","83","2","random","68","structured_incentive,random,structured_normal,structured_load","2,3,2,1,3,4","false","","",""
"null","","html-keyboard-response","368","249656","0.0-368.0","","<img src=""img/set2/S2.jpg"" width=""540"" height = ""360"">","null","","","","","","","","",""
"null","","html-keyboard-response","369","249857","0.0-369.0","","","null","","","","","","","","",""
"1515.2000000476837","","image-keyboard-response","370","251373","0.0-370.0","","img/set2/S4.jpg","72","4","random","74","structured_incentive,random,structured_normal,structured_load","2,3,2,1,3,4","false","","",""
"null","","html-keyboard-response","371","251727","0.0-371.0","","<img src=""img/set2/S4.jpg"" width=""540"" height = ""360"">","null","","","","","","","","",""
"null","","html-keyboard-response","372","251932","0.0-372.0","","","null","","","","","","","","",""
"792.3999999761581","","image-keyboard-response","373","252725","0.0-373.0","","img/set2/S1.jpg","83","1","random","83","structured_incentive,random,structured_normal,structured_load","2,3,2,1,3,4","true","","",""
"null","","html-keyboard-response","374","253078","0.0-374.0","","<img src=""img/set2/S1.jpg"" width=""540"" height = ""360"" style=""border:16px solid orange"">","null","","","","","","","","",""
"null","","html-keyboard-response","375","253285","0.0-375.0","","","null","","","","","","","","",""
"486.6999999284744","","image-keyboard-response","376","253773","0.0-376.0","","img/set2/S1.jpg","83","1","random","83","structured_incentive,random,structured_normal,structured_load","2,3,2,1,3,4","true","","",""
"null","","html-keyboard-response","377","254126","0.0-377.0","","<img src=""img/set2/S1.jpg"" width=""540"" height = ""360"" style=""border:16px solid orange"">","null","","","","","","","","",""
"null","","html-keyboard-response","378","254327","0.0-378.0","","","null","","","","","","","","",""
"741","","image-keyboard-response","379","255069","0.0-379.0","","img/set2/S4.jpg","83","4","random","74","structured_incentive,random,structured_normal,structured_load","2,3,2,1,3,4","false","","",""
"null","","html-keyboard-response","380","255422","0.0-380.0","","<img src=""img/set2/S4.jpg"" width=""540"" height = ""360"">","null","","","","","","","","",""
"null","","html-keyboard-response","381","255626","0.0-381.0","","","null","","","","","","","","",""
"386.7000000476837","","image-keyboard-response","382","256013","0.0-382.0","","img/set2/S1.jpg","68","1","random","83","structured_incentive,random,structured_normal,structured_load","2,3,2,1,3,4","false","","",""
"null","","html-keyboard-response","383","256365","0.0-383.0","","<img src=""img/set2/S1.jpg"" width=""540"" height = ""360"">","null","","","","","","","","",""
"null","","html-keyboard-response","384","256570","0.0-384.0","","","null","","","","","","","","",""
"826.7000000476837","","image-keyboard-response","385","257397","0.0-385.0","","img/set2/S2.jpg","68","2","random","68","structured_incentive,random,structured_normal,structured_load","2,3,2,1,3,4","true","","",""
"null","","html-keyboard-response","386","257750","0.0-386.0","","<img src=""img/set2/S2.jpg"" width=""540"" height = ""360"" style=""border:16px solid orange"">","null","","","","","","","","",""
"null","","html-keyboard-response","387","257954","0.0-387.0","","","null","","","","","","","","",""
"921.7999999523163","","image-keyboard-response","388","258876","0.0-388.0","","img/set2/S1.jpg","83","1","random","83","structured_incentive,random,structured_normal,structured_load","2,3,2,1,3,4","true","","",""
"null","","html-keyboard-response","389","259229","0.0-389.0","","<img src=""img/set2/S1.jpg"" width=""540"" height = ""360"" style=""border:16px solid orange"">","null","","","","","","","","",""
"null","","html-keyboard-response","390","259431","0.0-390.0","","","null","","","","","","","","",""
"1325.2999999523163","","image-keyboard-response","391","260757","0.0-391.0","","img/set2/S4.jpg","72","4","random","74","structured_incentive,random,structured_normal,structured_load","2,3,2,1,3,4","false","","",""
"null","","html-keyboard-response","392","261109","0.0-392.0","","<img src=""img/set2/S4.jpg"" width=""540"" height = ""360"">","null","","","","","","","","",""
"null","","html-keyboard-response","393","261315","0.0-393.0","","","null","","","","","","","","",""
"785.5","","image-keyboard-response","394","262101","0.0-394.0","","img/set2/S1.jpg","83","1","random","83","structured_incentive,random,structured_normal,structured_load","2,3,2,1,3,4","true","","",""
"null","","html-keyboard-response","395","262455","0.0-395.0","","<img src=""img/set2/S1.jpg"" width=""540"" height = ""360"" style=""border:16px solid orange"">","null","","","","","","","","",""
"null","","html-keyboard-response","396","262655","0.0-396.0","","","null","","","","","","","","",""
"580.5","","image-keyboard-response","397","263237","0.0-397.0","","img/set2/S1.jpg","83","1","random","83","structured_incentive,random,structured_normal,structured_load","2,3,2,1,3,4","true","","",""
"null","","html-keyboard-response","398","263589","0.0-398.0","","<img src=""img/set2/S1.jpg"" width=""540"" height = ""360"" style=""border:16px solid orange"">","null","","","","","","","","",""
"null","","html-keyboard-response","399","263794","0.0-399.0","","","null","","","","","","","","",""
"553.6000000238419","","image-keyboard-response","400","264349","0.0-400.0","","img/set2/S4.jpg","74","4","random","74","structured_incentive,random,structured_normal,structured_load","2,3,2,1,3,4","true","","",""
"null","","html-keyboard-response","401","264700","0.0-401.0","","<img src=""img/set2/S4.jpg"" width=""540"" height = ""360"" style=""border:16px solid orange"">","null","","","","","","","","",""
"null","","html-keyboard-response","402","264906","0.0-402.0","","","null","","","","","","","","",""
"514.6000000238419","","image-keyboard-response","403","265421","0.0-403.0","","img/set2/S1.jpg","74","1","random","83","structured_incentive,random,structured_normal,structured_load","2,3,2,1,3,4","false","","",""
"null","","html-keyboard-response","404","265772","0.0-404.0","","<img src=""img/set2/S1.jpg"" width=""540"" height = ""360"">","null","","","","","","","","",""
"null","","html-keyboard-response","405","265974","0.0-405.0","","","null","","","","","","","","",""
"358.10000002384186","","image-keyboard-response","406","266333","0.0-406.0","","img/set2/S1.jpg","68","1","random","83","structured_incentive,random,structured_normal,structured_load","2,3,2,1,3,4","false","","",""
"null","","html-keyboard-response","407","266685","0.0-407.0","","<img src=""img/set2/S1.jpg"" width=""540"" height = ""360"">","null","","","","","","","","",""
"null","","html-keyboard-response","408","266885","0.0-408.0","","","null","","","","","","","","",""
"661.8999999761581","","image-keyboard-response","409","267548","0.0-409.0","","img/set2/S2.jpg","83","2","random","68","structured_incentive,random,structured_normal,structured_load","2,3,2,1,3,4","false","","",""
"null","","html-keyboard-response","410","267900","0.0-410.0","","<img src=""img/set2/S2.jpg"" width=""540"" height = ""360"">","null","","","","","","","","",""
"null","","html-keyboard-response","411","268102","0.0-411.0","","","null","","","","","","","","",""
"1157.7000000476837","","image-keyboard-response","412","269260","0.0-412.0","","img/set2/S2.jpg","68","2","random","68","structured_incentive,random,structured_normal,structured_load","2,3,2,1,3,4","true","","",""
"null","","html-keyboard-response","413","269615","0.0-413.0","","<img src=""img/set2/S2.jpg"" width=""540"" height = ""360"" style=""border:16px solid orange"">","null","","","","","","","","",""
"null","","html-keyboard-response","414","269816","0.0-414.0","","","null","","","","","","","","",""
"1059","","image-keyboard-response","415","270876","0.0-415.0","","img/set2/S4.jpg","72","4","random","74","structured_incentive,random,structured_normal,structured_load","2,3,2,1,3,4","false","","",""
"null","","html-keyboard-response","416","271230","0.0-416.0","","<img src=""img/set2/S4.jpg"" width=""540"" height = ""360"">","null","","","","","","","","",""
"null","","html-keyboard-response","417","271432","0.0-417.0","","","null","","","","","","","","",""
"875.7999999523163","","image-keyboard-response","418","272308","0.0-418.0","","img/set2/S2.jpg","68","2","random","68","structured_incentive,random,structured_normal,structured_load","2,3,2,1,3,4","true","","",""
"null","","html-keyboard-response","419","272660","0.0-419.0","","<img src=""img/set2/S2.jpg"" width=""540"" height = ""360"" style=""border:16px solid orange"">","null","","","","","","","","",""
"null","","html-keyboard-response","420","272863","0.0-420.0","","","null","","","","","","","","",""
"452.39999997615814","","image-keyboard-response","421","273316","0.0-421.0","","img/set2/S2.jpg","68","2","random","68","structured_incentive,random,structured_normal,structured_load","2,3,2,1,3,4","true","","",""
"null","","html-keyboard-response","422","273668","0.0-422.0","","<img src=""img/set2/S2.jpg"" width=""540"" height = ""360"" style=""border:16px solid orange"">","null","","","","","","","","",""
"null","","html-keyboard-response","423","273871","0.0-423.0","","","null","","","","","","","","",""
"819.8999999761581","","image-keyboard-response","424","274692","0.0-424.0","","img/set2/S3.jpg","74","3","random","72","structured_incentive,random,structured_normal,structured_load","2,3,2,1,3,4","false","","",""
"null","","html-keyboard-response","425","275046","0.0-425.0","","<img src=""img/set2/S3.jpg"" width=""540"" height = ""360"">","null","","","","","","","","",""
"null","","html-keyboard-response","426","275248","0.0-426.0","","","null","","","","","","","","",""
"883.3999999761581","","image-keyboard-response","427","276132","0.0-427.0","","img/set2/S2.jpg","68","2","random","68","structured_incentive,random,structured_normal,structured_load","2,3,2,1,3,4","true","","",""
"null","","html-keyboard-response","428","276483","0.0-428.0","","<img src=""img/set2/S2.jpg"" width=""540"" height = ""360"" style=""border:16px solid orange"">","null","","","","","","","","",""
"null","","html-keyboard-response","429","276684","0.0-429.0","","","null","","","","","","","","",""
"638.9000000953674","","image-keyboard-response","430","277324","0.0-430.0","","img/set2/S3.jpg","72","3","random","72","structured_incentive,random,structured_normal,structured_load","2,3,2,1,3,4","true","","",""
"null","","html-keyboard-response","431","277680","0.0-431.0","","<img src=""img/set2/S3.jpg"" width=""540"" height = ""360"" style=""border:16px solid orange"">","null","","","","","","","","",""
"null","","html-keyboard-response","432","277883","0.0-432.0","","","null","","","","","","","","",""
"440","","image-keyboard-response","433","278324","0.0-433.0","","img/set2/S3.jpg","72","3","random","72","structured_incentive,random,structured_normal,structured_load","2,3,2,1,3,4","true","","",""
"null","","html-keyboard-response","434","278676","0.0-434.0","","<img src=""img/set2/S3.jpg"" width=""540"" height = ""360"" style=""border:16px solid orange"">","null","","","","","","","","",""
"null","","html-keyboard-response","435","278880","0.0-435.0","","","null","","","","","","","","",""
"858.8999999761581","","image-keyboard-response","436","279739","0.0-436.0","","img/set2/S1.jpg","83","1","random","83","structured_incentive,random,structured_normal,structured_load","2,3,2,1,3,4","true","","",""
"null","","html-keyboard-response","437","280091","0.0-437.0","","<img src=""img/set2/S1.jpg"" width=""540"" height = ""360"" style=""border:16px solid orange"">","null","","","","","","","","",""
"null","","html-keyboard-response","438","280295","0.0-438.0","","","null","","","","","","","","",""
"795.7000000476837","","image-keyboard-response","439","281092","0.0-439.0","","img/set2/S2.jpg","68","2","random","68","structured_incentive,random,structured_normal,structured_load","2,3,2,1,3,4","true","","",""
"null","","html-keyboard-response","440","281445","0.0-440.0","","<img src=""img/set2/S2.jpg"" width=""540"" height = ""360"" style=""border:16px solid orange"">","null","","","","","","","","",""
"null","","html-keyboard-response","441","281646","0.0-441.0","","","null","","","","","","","","",""
"732.7999999523163","","image-keyboard-response","442","282380","0.0-442.0","","img/set2/S3.jpg","72","3","random","72","structured_incentive,random,structured_normal,structured_load","2,3,2,1,3,4","true","","",""
"null","","html-keyboard-response","443","282735","0.0-443.0","","<img src=""img/set2/S3.jpg"" width=""540"" height = ""360"" style=""border:16px solid orange"">","null","","","","","","","","",""
"null","","html-keyboard-response","444","282936","0.0-444.0","","","null","","","","","","","","",""
"1082.7000000476837","","image-keyboard-response","445","284020","0.0-445.0","","img/set2/S1.jpg","83","1","random","83","structured_incentive,random,structured_normal,structured_load","2,3,2,1,3,4","true","","",""
"null","","html-keyboard-response","446","284373","0.0-446.0","","<img src=""img/set2/S1.jpg"" width=""540"" height = ""360"" style=""border:16px solid orange"">","null","","","","","","","","",""
"null","","html-keyboard-response","447","284579","0.0-447.0","","","null","","","","","","","","",""
"800","","image-keyboard-response","448","285379","0.0-448.0","","img/set2/S2.jpg","68","2","random","68","structured_incentive,random,structured_normal,structured_load","2,3,2,1,3,4","true","","",""
"null","","html-keyboard-response","449","285733","0.0-449.0","","<img src=""img/set2/S2.jpg"" width=""540"" height = ""360"" style=""border:16px solid orange"">","null","","","","","","","","",""
"null","","html-keyboard-response","450","285937","0.0-450.0","","","null","","","","","","","","",""
"585.7999999523163","","image-keyboard-response","451","286524","0.0-451.0","","img/set2/S2.jpg","68","2","random","68","structured_incentive,random,structured_normal,structured_load","2,3,2,1,3,4","true","","",""
"null","","html-keyboard-response","452","286875","0.0-452.0","","<img src=""img/set2/S2.jpg"" width=""540"" height = ""360"" style=""border:16px solid orange"">","null","","","","","","","","",""
"null","","html-keyboard-response","453","287077","0.0-453.0","","","null","","","","","","","","",""
"421.89999997615814","","image-keyboard-response","454","287500","0.0-454.0","","img/set2/S2.jpg","68","2","random","68","structured_incentive,random,structured_normal,structured_load","2,3,2,1,3,4","true","","",""
"null","","html-keyboard-response","455","287851","0.0-455.0","","<img src=""img/set2/S2.jpg"" width=""540"" height = ""360"" style=""border:16px solid orange"">","null","","","","","","","","",""
"null","","html-keyboard-response","456","288054","0.0-456.0","","","null","","","","","","","","",""
"724.8999999761581","","image-keyboard-response","457","288779","0.0-457.0","","img/set2/S3.jpg","72","3","random","72","structured_incentive,random,structured_normal,structured_load","2,3,2,1,3,4","true","","",""
"null","","html-keyboard-response","458","289134","0.0-458.0","","<img src=""img/set2/S3.jpg"" width=""540"" height = ""360"" style=""border:16px solid orange"">","null","","","","","","","","",""
"null","","html-keyboard-response","459","289339","0.0-459.0","","","null","","","","","","","","",""
"639.2000000476837","","image-keyboard-response","460","289979","0.0-460.0","","img/set2/S4.jpg","74","4","random","74","structured_incentive,random,structured_normal,structured_load","2,3,2,1,3,4","true","","",""
"null","","html-keyboard-response","461","290332","0.0-461.0","","<img src=""img/set2/S4.jpg"" width=""540"" height = ""360"" style=""border:16px solid orange"">","null","","","","","","","","",""
"null","","html-keyboard-response","462","290533","0.0-462.0","","","null","","","","","","","","",""
"925.5","","image-keyboard-response","463","291459","0.0-463.0","","img/set2/S3.jpg","68","3","random","72","structured_incentive,random,structured_normal,structured_load","2,3,2,1,3,4","false","","",""
"null","","html-keyboard-response","464","291810","0.0-464.0","","<img src=""img/set2/S3.jpg"" width=""540"" height = ""360"">","null","","","","","","","","",""
"null","","html-keyboard-response","465","292014","0.0-465.0","","","null","","","","","","","","",""
"651.8999999761581","","image-keyboard-response","466","292667","0.0-466.0","","img/set2/S1.jpg","83","1","random","83","structured_incentive,random,structured_normal,structured_load","2,3,2,1,3,4","true","","",""
"null","","html-keyboard-response","467","293018","0.0-467.0","","<img src=""img/set2/S1.jpg"" width=""540"" height = ""360"" style=""border:16px solid orange"">","null","","","","","","","","",""
"null","","html-keyboard-response","468","293219","0.0-468.0","","","null","","","","","","","","",""
"406.89999997615814","","image-keyboard-response","469","293627","0.0-469.0","","img/set2/S3.jpg","83","3","random","72","structured_incentive,random,structured_normal,structured_load","2,3,2,1,3,4","false","","",""
"null","","html-keyboard-response","470","293980","0.0-470.0","","<img src=""img/set2/S3.jpg"" width=""540"" height = ""360"">","null","","","","","","","","",""
"null","","html-keyboard-response","471","294186","0.0-471.0","","","null","","","","","","","","",""
"824.3000000715256","","image-keyboard-response","472","295011","0.0-472.0","","img/set2/S2.jpg","68","2","random","68","structured_incentive,random,structured_normal,structured_load","2,3,2,1,3,4","true","","",""
"null","","html-keyboard-response","473","295363","0.0-473.0","","<img src=""img/set2/S2.jpg"" width=""540"" height = ""360"" style=""border:16px solid orange"">","null","","","","","","","","",""
"null","","html-keyboard-response","474","295564","0.0-474.0","","","null","","","","","","","","",""
"1590.2000000476837","","image-keyboard-response","475","297155","0.0-475.0","","img/set2/S4.jpg","72","4","random","74","structured_incentive,random,structured_normal,structured_load","2,3,2,1,3,4","false","","",""
"null","","html-keyboard-response","476","297506","0.0-476.0","","<img src=""img/set2/S4.jpg"" width=""540"" height = ""360"">","null","","","","","","","","",""
"null","","html-keyboard-response","477","297707","0.0-477.0","","","null","","","","","","","","",""
"775.2999999523163","","image-keyboard-response","478","298483","0.0-478.0","","img/set2/S3.jpg","74","3","random","72","structured_incentive,random,structured_normal,structured_load","2,3,2,1,3,4","false","","",""
"null","","html-keyboard-response","479","298836","0.0-479.0","","<img src=""img/set2/S3.jpg"" width=""540"" height = ""360"">","null","","","","","","","","",""
"null","","html-keyboard-response","480","299038","0.0-480.0","","","null","","","","","","","","",""
"1339.7999999523163","","image-keyboard-response","481","300379","0.0-481.0","","img/set2/S4.jpg","74","4","random","74","structured_incentive,random,structured_normal,structured_load","2,3,2,1,3,4","true","","",""
"null","","html-keyboard-response","482","300730","0.0-482.0","","<img src=""img/set2/S4.jpg"" width=""540"" height = ""360"" style=""border:16px solid orange"">","null","","","","","","","","",""
"null","","html-keyboard-response","483","300931","0.0-483.0","","","null","","","","","","","","",""
"607","","image-keyboard-response","484","301539","0.0-484.0","","img/set2/S1.jpg","83","1","random","83","structured_incentive,random,structured_normal,structured_load","2,3,2,1,3,4","true","","",""
"null","","html-keyboard-response","485","301891","0.0-485.0","","<img src=""img/set2/S1.jpg"" width=""540"" height = ""360"" style=""border:16px solid orange"">","null","","","","","","","","",""
"null","","html-keyboard-response","486","302096","0.0-486.0","","","null","","","","","","","","",""
"705.5","","image-keyboard-response","487","302802","0.0-487.0","","img/set2/S2.jpg","68","2","random","68","structured_incentive,random,structured_normal,structured_load","2,3,2,1,3,4","true","","",""
"null","","html-keyboard-response","488","303155","0.0-488.0","","<img src=""img/set2/S2.jpg"" width=""540"" height = ""360"" style=""border:16px solid orange"">","null","","","","","","","","",""
"null","","html-keyboard-response","489","303356","0.0-489.0","","","null","","","","","","","","",""
"1278.4000000953674","","image-keyboard-response","490","304635","0.0-490.0","","img/set2/S3.jpg","72","3","random","72","structured_incentive,random,structured_normal,structured_load","2,3,2,1,3,4","true","","",""
"null","","html-keyboard-response","491","304990","0.0-491.0","","<img src=""img/set2/S3.jpg"" width=""540"" height = ""360"" style=""border:16px solid orange"">","null","","","","","","","","",""
"null","","html-keyboard-response","492","305192","0.0-492.0","","","null","","","","","","","","",""
"881.8000000715256","","image-keyboard-response","493","306074","0.0-493.0","","img/set2/S4.jpg","74","4","random","74","structured_incentive,random,structured_normal,structured_load","2,3,2,1,3,4","true","","",""
"null","","html-keyboard-response","494","306426","0.0-494.0","","<img src=""img/set2/S4.jpg"" width=""540"" height = ""360"" style=""border:16px solid orange"">","null","","","","","","","","",""
"null","","html-keyboard-response","495","306627","0.0-495.0","","","null","","","","","","","","",""
"686.9000000953674","","image-keyboard-response","496","307315","0.0-496.0","","img/set2/S2.jpg","68","2","random","68","structured_incentive,random,structured_normal,structured_load","2,3,2,1,3,4","true","","",""
"null","","html-keyboard-response","497","307666","0.0-497.0","","<img src=""img/set2/S2.jpg"" width=""540"" height = ""360"" style=""border:16px solid orange"">","null","","","","","","","","",""
"null","","html-keyboard-response","498","307868","0.0-498.0","","","null","","","","","","","","",""
"741.8000000715256","","image-keyboard-response","499","308610","0.0-499.0","","img/set2/S3.jpg","74","3","random","72","structured_incentive,random,structured_normal,structured_load","2,3,2,1,3,4","false","","",""
"null","","html-keyboard-response","500","308962","0.0-500.0","","<img src=""img/set2/S3.jpg"" width=""540"" height = ""360"">","null","","","","","","","","",""
"null","","html-keyboard-response","501","309163","0.0-501.0","","","null","","","","","","","","",""
"590","","image-keyboard-response","502","309754","0.0-502.0","","img/set2/S1.jpg","83","1","random","83","structured_incentive,random,structured_normal,structured_load","2,3,2,1,3,4","true","","",""
"null","","html-keyboard-response","503","310110","0.0-503.0","","<img src=""img/set2/S1.jpg"" width=""540"" height = ""360"" style=""border:16px solid orange"">","null","","","","","","","","",""
"null","","html-keyboard-response","504","310311","0.0-504.0","","","null","","","","","","","","",""
"716.6000000238419","","image-keyboard-response","505","311029","0.0-505.0","","img/set2/S4.jpg","74","4","random","74","structured_incentive,random,structured_normal,structured_load","2,3,2,1,3,4","true","","",""
"null","","html-keyboard-response","506","311380","0.0-506.0","","<img src=""img/set2/S4.jpg"" width=""540"" height = ""360"" style=""border:16px solid orange"">","null","","","","","","","","",""
"null","","html-keyboard-response","507","311583","0.0-507.0","","","null","","","","","","","","",""
"627.0999999046326","","image-keyboard-response","508","312211","0.0-508.0","","img/set2/S1.jpg","83","1","random","83","structured_incentive,random,structured_normal,structured_load","2,3,2,1,3,4","true","","",""
"null","","html-keyboard-response","509","312563","0.0-509.0","","<img src=""img/set2/S1.jpg"" width=""540"" height = ""360"" style=""border:16px solid orange"">","null","","","","","","","","",""
"null","","html-keyboard-response","510","312767","0.0-510.0","","","null","","","","","","","","",""
"802.6000000238419","","image-keyboard-response","511","313571","0.0-511.0","","img/set2/S2.jpg","68","2","random","68","structured_incentive,random,structured_normal,structured_load","2,3,2,1,3,4","true","","",""
"null","","html-keyboard-response","512","313925","0.0-512.0","","<img src=""img/set2/S2.jpg"" width=""540"" height = ""360"" style=""border:16px solid orange"">","null","","","","","","","","",""
"null","","html-keyboard-response","513","314131","0.0-513.0","","","null","","","","","","","","",""
"1381.8999999761581","","image-keyboard-response","514","315514","0.0-514.0","","img/set2/S1.jpg","83","1","random","83","structured_incentive,random,structured_normal,structured_load","2,3,2,1,3,4","true","","",""
"null","","html-keyboard-response","515","315870","0.0-515.0","","<img src=""img/set2/S1.jpg"" width=""540"" height = ""360"" style=""border:16px solid orange"">","null","","","","","","","","",""
"null","","html-keyboard-response","516","316072","0.0-516.0","","","null","","","","","","","","",""
"536.7999999523163","","image-keyboard-response","517","316610","0.0-517.0","","img/set2/S1.jpg","83","1","random","83","structured_incentive,random,structured_normal,structured_load","2,3,2,1,3,4","true","","",""
"null","","html-keyboard-response","518","316961","0.0-518.0","","<img src=""img/set2/S1.jpg"" width=""540"" height = ""360"" style=""border:16px solid orange"">","null","","","","","","","","",""
"null","","html-keyboard-response","519","317163","0.0-519.0","","","null","","","","","","","","",""
"518.1000000238419","","image-keyboard-response","520","317682","0.0-520.0","","img/set2/S1.jpg","83","1","random","83","structured_incentive,random,structured_normal,structured_load","2,3,2,1,3,4","true","","",""
"null","","html-keyboard-response","521","318035","0.0-521.0","","<img src=""img/set2/S1.jpg"" width=""540"" height = ""360"" style=""border:16px solid orange"">","null","","","","","","","","",""
"null","","html-keyboard-response","522","318239","0.0-522.0","","","null","","","","","","","","",""
"1098.6999999284744","","image-keyboard-response","523","319338","0.0-523.0","","img/set2/S4.jpg","74","4","random","74","structured_incentive,random,structured_normal,structured_load","2,3,2,1,3,4","true","","",""
"null","","html-keyboard-response","524","319693","0.0-524.0","","<img src=""img/set2/S4.jpg"" width=""540"" height = ""360"" style=""border:16px solid orange"">","null","","","","","","","","",""
"null","","html-keyboard-response","525","319896","0.0-525.0","","","null","","","","","","","","",""
"968.9000000953674","","image-keyboard-response","526","320866","0.0-526.0","","img/set2/S3.jpg","72","3","random","72","structured_incentive,random,structured_normal,structured_load","2,3,2,1,3,4","true","","",""
"null","","html-keyboard-response","527","321218","0.0-527.0","","<img src=""img/set2/S3.jpg"" width=""540"" height = ""360"" style=""border:16px solid orange"">","null","","","","","","","","",""
"null","","html-keyboard-response","528","321422","0.0-528.0","","","null","","","","","","","","",""
"578.3999999761581","","image-keyboard-response","529","322002","0.0-529.0","","img/set2/S1.jpg","68","1","random","83","structured_incentive,random,structured_normal,structured_load","2,3,2,1,3,4","false","","",""
"null","","html-keyboard-response","530","322357","0.0-530.0","","<img src=""img/set2/S1.jpg"" width=""540"" height = ""360"">","null","","","","","","","","",""
"null","","html-keyboard-response","531","322562","0.0-531.0","","","null","","","","","","","","",""
"774.6000000238419","","image-keyboard-response","532","323338","0.0-532.0","","img/set2/S3.jpg","83","3","random","72","structured_incentive,random,structured_normal,structured_load","2,3,2,1,3,4","false","","",""
"null","","html-keyboard-response","533","323692","0.0-533.0","","<img src=""img/set2/S3.jpg"" width=""540"" height = ""360"">","null","","","","","","","","",""
"null","","html-keyboard-response","534","323896","0.0-534.0","","","null","","","","","","","","",""
"728.7000000476837","","image-keyboard-response","535","324625","0.0-535.0","","img/set2/S4.jpg","74","4","random","74","structured_incentive,random,structured_normal,structured_load","2,3,2,1,3,4","true","","",""
"null","","html-keyboard-response","536","324977","0.0-536.0","","<img src=""img/set2/S4.jpg"" width=""540"" height = ""360"" style=""border:16px solid orange"">","null","","","","","","","","",""
"null","","html-keyboard-response","537","325181","0.0-537.0","","","null","","","","","","","","",""
"null","","image-keyboard-response","538","327683","0.0-538.0","","img/set2/S3.jpg","null","3","random","72","structured_incentive,random,structured_normal,structured_load","2,3,2,1,3,4","false","","",""
"null","","html-keyboard-response","539","328034","0.0-539.0","","<img src=""img/set2/S3.jpg"" width=""540"" height = ""360"">","null","","","","","","","","",""
"null","","html-keyboard-response","540","328239","0.0-540.0","","","null","","","","","","","","",""
"696.7999999523163","","image-keyboard-response","541","328937","0.0-541.0","","img/set2/S3.jpg","74","3","random","72","structured_incentive,random,structured_normal,structured_load","2,3,2,1,3,4","false","","",""
"null","","html-keyboard-response","542","329290","0.0-542.0","","<img src=""img/set2/S3.jpg"" width=""540"" height = ""360"">","null","","","","","","","","",""
"null","","html-keyboard-response","543","329494","0.0-543.0","","","null","","","","","","","","",""
"1522.6000000238419","","image-keyboard-response","544","331018","0.0-544.0","","img/set2/S4.jpg","74","4","random","74","structured_incentive,random,structured_normal,structured_load","2,3,2,1,3,4","true","","",""
"null","","html-keyboard-response","545","331373","0.0-545.0","","<img src=""img/set2/S4.jpg"" width=""540"" height = ""360"" style=""border:16px solid orange"">","null","","","","","","","","",""
"null","","html-keyboard-response","546","331574","0.0-546.0","","","null","","","","","","","","",""
"522.3000000715256","","image-keyboard-response","547","332097","0.0-547.0","","img/set2/S4.jpg","74","4","random","74","structured_incentive,random,structured_normal,structured_load","2,3,2,1,3,4","true","","",""
"null","","html-keyboard-response","548","332451","0.0-548.0","","<img src=""img/set2/S4.jpg"" width=""540"" height = ""360"" style=""border:16px solid orange"">","null","","","","","","","","",""
"null","","html-keyboard-response","549","332652","0.0-549.0","","","null","","","","","","","","",""
"476.60000002384186","","image-keyboard-response","550","333129","0.0-550.0","","img/set2/S4.jpg","74","4","random","74","structured_incentive,random,structured_normal,structured_load","2,3,2,1,3,4","true","","",""
"null","","html-keyboard-response","551","333484","0.0-551.0","","<img src=""img/set2/S4.jpg"" width=""540"" height = ""360"" style=""border:16px solid orange"">","null","","","","","","","","",""
"null","","html-keyboard-response","552","333690","0.0-552.0","","","null","","","","","","","","",""
"886.3000000715256","","image-keyboard-response","553","334577","0.0-553.0","","img/set2/S2.jpg","83","2","random","68","structured_incentive,random,structured_normal,structured_load","2,3,2,1,3,4","false","","",""
"null","","html-keyboard-response","554","334929","0.0-554.0","","<img src=""img/set2/S2.jpg"" width=""540"" height = ""360"">","null","","","","","","","","",""
"null","","html-keyboard-response","555","335132","0.0-555.0","","","null","","","","","","","","",""
"1500.4000000953674","","image-keyboard-response","556","336633","0.0-556.0","","img/set2/S3.jpg","72","3","random","72","structured_incentive,random,structured_normal,structured_load","2,3,2,1,3,4","true","","",""
"null","","html-keyboard-response","557","336986","0.0-557.0","","<img src=""img/set2/S3.jpg"" width=""540"" height = ""360"" style=""border:16px solid orange"">","null","","","","","","","","",""
"null","","html-keyboard-response","558","337190","0.0-558.0","","","null","","","","","","","","",""
"362.39999997615814","","image-keyboard-response","559","337553","0.0-559.0","","img/set2/S3.jpg","72","3","random","72","structured_incentive,random,structured_normal,structured_load","2,3,2,1,3,4","true","","",""
"null","","html-keyboard-response","560","337908","0.0-560.0","","<img src=""img/set2/S3.jpg"" width=""540"" height = ""360"" style=""border:16px solid orange"">","null","","","","","","","","",""
"null","","html-keyboard-response","561","338114","0.0-561.0","","","null","","","","","","","","",""
"622.8999999761581","","image-keyboard-response","562","338737","0.0-562.0","","img/set2/S1.jpg","83","1","random","83","structured_incentive,random,structured_normal,structured_load","2,3,2,1,3,4","true","","",""
"null","","html-keyboard-response","563","339088","0.0-563.0","","<img src=""img/set2/S1.jpg"" width=""540"" height = ""360"" style=""border:16px solid orange"">","null","","","","","","","","",""
"null","","html-keyboard-response","564","339290","0.0-564.0","","","null","","","","","","","","",""
"830.1000000238419","","image-keyboard-response","565","340121","0.0-565.0","","img/set2/S4.jpg","74","4","random","74","structured_incentive,random,structured_normal,structured_load","2,3,2,1,3,4","true","","",""
"null","","html-keyboard-response","566","340475","0.0-566.0","","<img src=""img/set2/S4.jpg"" width=""540"" height = ""360"" style=""border:16px solid orange"">","null","","","","","","","","",""
"null","","html-keyboard-response","567","340680","0.0-567.0","","","null","","","","","","","","",""
"463.7999999523163","","image-keyboard-response","568","341145","0.0-568.0","","img/set2/S4.jpg","74","4","random","74","structured_incentive,random,structured_normal,structured_load","2,3,2,1,3,4","true","","",""
"null","","html-keyboard-response","569","341497","0.0-569.0","","<img src=""img/set2/S4.jpg"" width=""540"" height = ""360"" style=""border:16px solid orange"">","null","","","","","","","","",""
"null","","html-keyboard-response","570","341701","0.0-570.0","","","null","","","","","","","","",""
"386.2999999523163","","image-keyboard-response","571","342089","0.0-571.0","","img/set2/S4.jpg","74","4","random","74","structured_incentive,random,structured_normal,structured_load","2,3,2,1,3,4","true","","",""
"null","","html-keyboard-response","572","342441","0.0-572.0","","<img src=""img/set2/S4.jpg"" width=""540"" height = ""360"" style=""border:16px solid orange"">","null","","","","","","","","",""
"null","","html-keyboard-response","573","342643","0.0-573.0","","","null","","","","","","","","",""
"468.7999999523163","","image-keyboard-response","574","343112","0.0-574.0","","img/set2/S4.jpg","74","4","random","74","structured_incentive,random,structured_normal,structured_load","2,3,2,1,3,4","true","","",""
"null","","html-keyboard-response","575","343467","0.0-575.0","","<img src=""img/set2/S4.jpg"" width=""540"" height = ""360"" style=""border:16px solid orange"">","null","","","","","","","","",""
"null","","html-keyboard-response","576","343672","0.0-576.0","","","null","","","","","","","","",""
"719","","image-keyboard-response","577","344392","0.0-577.0","","img/set2/S2.jpg","68","2","random","68","structured_incentive,random,structured_normal,structured_load","2,3,2,1,3,4","true","","",""
"null","","html-keyboard-response","578","344745","0.0-578.0","","<img src=""img/set2/S2.jpg"" width=""540"" height = ""360"" style=""border:16px solid orange"">","null","","","","","","","","",""
"null","","html-keyboard-response","579","344948","0.0-579.0","","","null","","","","","","","","",""
"387.3000000715256","","image-keyboard-response","580","345337","0.0-580.0","","img/set2/S2.jpg","68","2","random","68","structured_incentive,random,structured_normal,structured_load","2,3,2,1,3,4","true","","",""
"null","","html-keyboard-response","581","345693","0.0-581.0","","<img src=""img/set2/S2.jpg"" width=""540"" height = ""360"" style=""border:16px solid orange"">","null","","","","","","","","",""
"null","","html-keyboard-response","582","345895","0.0-582.0","","","null","","","","","","","","",""
