"rt","url","trial_type","trial_index","time_elapsed","internal_node_id","assignmentID","mturkID","hitID","view_history","stimulus","key_press","state","test_part","correct_response","order_block","order_chunk","order_freq","correct","responses","question_order","bonus"
"19519.5","consent.html","external-html","0","20590","0.0-0.0","31N2WW6R9SCYSNVYKK5MUXAK148F3G","AI5RMOS8R652G","3DZKABX2ZIR9F0FDMQGPG3LEN12CVN","","","","","","","","","","","","",""
"127162.90000000596","","instructions","1","147758","0.0-1.0","31N2WW6R9SCYSNVYKK5MUXAK148F3G","AI5RMOS8R652G","3DZKABX2ZIR9F0FDMQGPG3LEN12CVN","[{""page_index"":0,""viewing_time"":5492.699999988079},{""page_index"":1,""viewing_time"":20687.5},{""page_index"":2,""viewing_time"":7234.5},{""page_index"":3,""viewing_time"":22094.100000023842},{""page_index"":4,""viewing_time"":26396.399999976158},{""page_index"":5,""viewing_time"":30678.80000001192},{""page_index"":6,""viewing_time"":14576.699999988079}]","","","","","","","","","","","",""
"35958","","instructions","2","183718","0.0-2.0","31N2WW6R9SCYSNVYKK5MUXAK148F3G","AI5RMOS8R652G","3DZKABX2ZIR9F0FDMQGPG3LEN12CVN","[{""page_index"":0,""viewing_time"":35957.09999999404}]","","","","","","","","","","","",""
"39640.90000000596","","instructions","3","223361","0.0-3.0","31N2WW6R9SCYSNVYKK5MUXAK148F3G","AI5RMOS8R652G","3DZKABX2ZIR9F0FDMQGPG3LEN12CVN","[{""page_index"":0,""viewing_time"":35578.09999999404},{""page_index"":1,""viewing_time"":4062.5}]","","","","","","","","","","","",""
"965.9000000059605","","image-keyboard-response","4","224329","0.0-4.0","31N2WW6R9SCYSNVYKK5MUXAK148F3G","AI5RMOS8R652G","3DZKABX2ZIR9F0FDMQGPG3LEN12CVN","","img/set1/S2.jpg","72","2","structured_load","68","structured_load,structured_incentive,structured_normal,random","2,3,2,1,3,4","2,4,1,3","false","","",""
"null","","html-keyboard-response","5","224684","0.0-5.0","31N2WW6R9SCYSNVYKK5MUXAK148F3G","AI5RMOS8R652G","3DZKABX2ZIR9F0FDMQGPG3LEN12CVN","","<img src=""img/set1/S2.jpg"" width=""540"" height = ""360"">","null","","","","","","","","","",""
"null","","html-keyboard-response","6","224891","0.0-6.0","31N2WW6R9SCYSNVYKK5MUXAK148F3G","AI5RMOS8R652G","3DZKABX2ZIR9F0FDMQGPG3LEN12CVN","","","null","","","","","","","","","",""
"null","","image-keyboard-response","7","227398","0.0-7.0","31N2WW6R9SCYSNVYKK5MUXAK148F3G","AI5RMOS8R652G","3DZKABX2ZIR9F0FDMQGPG3LEN12CVN","","img/set1/S3.jpg","null","3","structured_load","72","structured_load,structured_incentive,structured_normal,random","2,3,2,1,3,4","2,4,1,3","false","","",""
"null","","html-keyboard-response","8","227752","0.0-8.0","31N2WW6R9SCYSNVYKK5MUXAK148F3G","AI5RMOS8R652G","3DZKABX2ZIR9F0FDMQGPG3LEN12CVN","","<img src=""img/set1/S3.jpg"" width=""540"" height = ""360"">","null","","","","","","","","","",""
"null","","html-keyboard-response","9","227959","0.0-9.0","31N2WW6R9SCYSNVYKK5MUXAK148F3G","AI5RMOS8R652G","3DZKABX2ZIR9F0FDMQGPG3LEN12CVN","","","null","","","","","","","","","",""
"1329.8999999761581","","image-keyboard-response","10","229292","0.0-10.0","31N2WW6R9SCYSNVYKK5MUXAK148F3G","AI5RMOS8R652G","3DZKABX2ZIR9F0FDMQGPG3LEN12CVN","","img/set1/S1.jpg","68","1","structured_load","83","structured_load,structured_incentive,structured_normal,random","2,3,2,1,3,4","2,4,1,3","false","","",""
"null","","html-keyboard-response","11","229650","0.0-11.0","31N2WW6R9SCYSNVYKK5MUXAK148F3G","AI5RMOS8R652G","3DZKABX2ZIR9F0FDMQGPG3LEN12CVN","","<img src=""img/set1/S1.jpg"" width=""540"" height = ""360"">","null","","","","","","","","","",""
"null","","html-keyboard-response","12","229856","0.0-12.0","31N2WW6R9SCYSNVYKK5MUXAK148F3G","AI5RMOS8R652G","3DZKABX2ZIR9F0FDMQGPG3LEN12CVN","","","null","","","","","","","","","",""
"761.5999999940395","","image-keyboard-response","13","230621","0.0-13.0","31N2WW6R9SCYSNVYKK5MUXAK148F3G","AI5RMOS8R652G","3DZKABX2ZIR9F0FDMQGPG3LEN12CVN","","img/set1/S2.jpg","68","2","structured_load","68","structured_load,structured_incentive,structured_normal,random","2,3,2,1,3,4","2,4,1,3","true","","",""
"null","","html-keyboard-response","14","230978","0.0-14.0","31N2WW6R9SCYSNVYKK5MUXAK148F3G","AI5RMOS8R652G","3DZKABX2ZIR9F0FDMQGPG3LEN12CVN","","<img src=""img/set1/S2.jpg"" width=""540"" height = ""360"" style=""border:16px solid orange"">","null","","","","","","","","","",""
"null","","html-keyboard-response","15","231180","0.0-15.0","31N2WW6R9SCYSNVYKK5MUXAK148F3G","AI5RMOS8R652G","3DZKABX2ZIR9F0FDMQGPG3LEN12CVN","","","null","","","","","","","","","",""
"null","","image-keyboard-response","16","233687","0.0-16.0","31N2WW6R9SCYSNVYKK5MUXAK148F3G","AI5RMOS8R652G","3DZKABX2ZIR9F0FDMQGPG3LEN12CVN","","img/set1/S3.jpg","null","3","structured_load","72","structured_load,structured_incentive,structured_normal,random","2,3,2,1,3,4","2,4,1,3","false","","",""
"null","","html-keyboard-response","17","234044","0.0-17.0","31N2WW6R9SCYSNVYKK5MUXAK148F3G","AI5RMOS8R652G","3DZKABX2ZIR9F0FDMQGPG3LEN12CVN","","<img src=""img/set1/S3.jpg"" width=""540"" height = ""360"">","null","","","","","","","","","",""
"null","","html-keyboard-response","18","234247","0.0-18.0","31N2WW6R9SCYSNVYKK5MUXAK148F3G","AI5RMOS8R652G","3DZKABX2ZIR9F0FDMQGPG3LEN12CVN","","","null","","","","","","","","","",""
"1690.7999999821186","","image-keyboard-response","19","235940","0.0-19.0","31N2WW6R9SCYSNVYKK5MUXAK148F3G","AI5RMOS8R652G","3DZKABX2ZIR9F0FDMQGPG3LEN12CVN","","img/set1/S4.jpg","83","4","structured_load","74","structured_load,structured_incentive,structured_normal,random","2,3,2,1,3,4","2,4,1,3","false","","",""
"null","","html-keyboard-response","20","236295","0.0-20.0","31N2WW6R9SCYSNVYKK5MUXAK148F3G","AI5RMOS8R652G","3DZKABX2ZIR9F0FDMQGPG3LEN12CVN","","<img src=""img/set1/S4.jpg"" width=""540"" height = ""360"">","null","","","","","","","","","",""
"null","","html-keyboard-response","21","236497","0.0-21.0","31N2WW6R9SCYSNVYKK5MUXAK148F3G","AI5RMOS8R652G","3DZKABX2ZIR9F0FDMQGPG3LEN12CVN","","","null","","","","","","","","","",""
"1358.2999999821186","","image-keyboard-response","22","237858","0.0-22.0","31N2WW6R9SCYSNVYKK5MUXAK148F3G","AI5RMOS8R652G","3DZKABX2ZIR9F0FDMQGPG3LEN12CVN","","img/set1/S2.jpg","68","2","structured_load","68","structured_load,structured_incentive,structured_normal,random","2,3,2,1,3,4","2,4,1,3","true","","",""
"null","","html-keyboard-response","23","238214","0.0-23.0","31N2WW6R9SCYSNVYKK5MUXAK148F3G","AI5RMOS8R652G","3DZKABX2ZIR9F0FDMQGPG3LEN12CVN","","<img src=""img/set1/S2.jpg"" width=""540"" height = ""360"" style=""border:16px solid orange"">","null","","","","","","","","","",""
"null","","html-keyboard-response","24","238417","0.0-24.0","31N2WW6R9SCYSNVYKK5MUXAK148F3G","AI5RMOS8R652G","3DZKABX2ZIR9F0FDMQGPG3LEN12CVN","","","null","","","","","","","","","",""
"null","","image-keyboard-response","25","240924","0.0-25.0","31N2WW6R9SCYSNVYKK5MUXAK148F3G","AI5RMOS8R652G","3DZKABX2ZIR9F0FDMQGPG3LEN12CVN","","img/set1/S3.jpg","null","3","structured_load","72","structured_load,structured_incentive,structured_normal,random","2,3,2,1,3,4","2,4,1,3","false","","",""
"null","","html-keyboard-response","26","241281","0.0-26.0","31N2WW6R9SCYSNVYKK5MUXAK148F3G","AI5RMOS8R652G","3DZKABX2ZIR9F0FDMQGPG3LEN12CVN","","<img src=""img/set1/S3.jpg"" width=""540"" height = ""360"">","null","","","","","","","","","",""
"null","","html-keyboard-response","27","241484","0.0-27.0","31N2WW6R9SCYSNVYKK5MUXAK148F3G","AI5RMOS8R652G","3DZKABX2ZIR9F0FDMQGPG3LEN12CVN","","","null","","","","","","","","","",""
"1035.5999999940395","","image-keyboard-response","28","242522","0.0-28.0","31N2WW6R9SCYSNVYKK5MUXAK148F3G","AI5RMOS8R652G","3DZKABX2ZIR9F0FDMQGPG3LEN12CVN","","img/set1/S1.jpg","72","1","structured_load","83","structured_load,structured_incentive,structured_normal,random","2,3,2,1,3,4","2,4,1,3","false","","",""
"null","","html-keyboard-response","29","242876","0.0-29.0","31N2WW6R9SCYSNVYKK5MUXAK148F3G","AI5RMOS8R652G","3DZKABX2ZIR9F0FDMQGPG3LEN12CVN","","<img src=""img/set1/S1.jpg"" width=""540"" height = ""360"">","null","","","","","","","","","",""
"null","","html-keyboard-response","30","243079","0.0-30.0","31N2WW6R9SCYSNVYKK5MUXAK148F3G","AI5RMOS8R652G","3DZKABX2ZIR9F0FDMQGPG3LEN12CVN","","","null","","","","","","","","","",""
"null","","image-keyboard-response","31","245586","0.0-31.0","31N2WW6R9SCYSNVYKK5MUXAK148F3G","AI5RMOS8R652G","3DZKABX2ZIR9F0FDMQGPG3LEN12CVN","","img/set1/S2.jpg","null","2","structured_load","68","structured_load,structured_incentive,structured_normal,random","2,3,2,1,3,4","2,4,1,3","false","","",""
"null","","html-keyboard-response","32","245943","0.0-32.0","31N2WW6R9SCYSNVYKK5MUXAK148F3G","AI5RMOS8R652G","3DZKABX2ZIR9F0FDMQGPG3LEN12CVN","","<img src=""img/set1/S2.jpg"" width=""540"" height = ""360"">","null","","","","","","","","","",""
"null","","html-keyboard-response","33","246146","0.0-33.0","31N2WW6R9SCYSNVYKK5MUXAK148F3G","AI5RMOS8R652G","3DZKABX2ZIR9F0FDMQGPG3LEN12CVN","","","null","","","","","","","","","",""
"868.2999999821186","","image-keyboard-response","34","247017","0.0-34.0","31N2WW6R9SCYSNVYKK5MUXAK148F3G","AI5RMOS8R652G","3DZKABX2ZIR9F0FDMQGPG3LEN12CVN","","img/set1/S3.jpg","74","3","structured_load","72","structured_load,structured_incentive,structured_normal,random","2,3,2,1,3,4","2,4,1,3","false","","",""
"null","","html-keyboard-response","35","247372","0.0-35.0","31N2WW6R9SCYSNVYKK5MUXAK148F3G","AI5RMOS8R652G","3DZKABX2ZIR9F0FDMQGPG3LEN12CVN","","<img src=""img/set1/S3.jpg"" width=""540"" height = ""360"">","null","","","","","","","","","",""
"null","","html-keyboard-response","36","247575","0.0-36.0","31N2WW6R9SCYSNVYKK5MUXAK148F3G","AI5RMOS8R652G","3DZKABX2ZIR9F0FDMQGPG3LEN12CVN","","","null","","","","","","","","","",""
"1266.1000000238419","","image-keyboard-response","37","248844","0.0-37.0","31N2WW6R9SCYSNVYKK5MUXAK148F3G","AI5RMOS8R652G","3DZKABX2ZIR9F0FDMQGPG3LEN12CVN","","img/set1/S2.jpg","68","2","structured_load","68","structured_load,structured_incentive,structured_normal,random","2,3,2,1,3,4","2,4,1,3","true","","",""
"null","","html-keyboard-response","38","249202","0.0-38.0","31N2WW6R9SCYSNVYKK5MUXAK148F3G","AI5RMOS8R652G","3DZKABX2ZIR9F0FDMQGPG3LEN12CVN","","<img src=""img/set1/S2.jpg"" width=""540"" height = ""360"" style=""border:16px solid orange"">","null","","","","","","","","","",""
"null","","html-keyboard-response","39","249404","0.0-39.0","31N2WW6R9SCYSNVYKK5MUXAK148F3G","AI5RMOS8R652G","3DZKABX2ZIR9F0FDMQGPG3LEN12CVN","","","null","","","","","","","","","",""
"1042.5999999940395","","image-keyboard-response","40","250449","0.0-40.0","31N2WW6R9SCYSNVYKK5MUXAK148F3G","AI5RMOS8R652G","3DZKABX2ZIR9F0FDMQGPG3LEN12CVN","","img/set1/S3.jpg","68","3","structured_load","72","structured_load,structured_incentive,structured_normal,random","2,3,2,1,3,4","2,4,1,3","false","","",""
"null","","html-keyboard-response","41","250804","0.0-41.0","31N2WW6R9SCYSNVYKK5MUXAK148F3G","AI5RMOS8R652G","3DZKABX2ZIR9F0FDMQGPG3LEN12CVN","","<img src=""img/set1/S3.jpg"" width=""540"" height = ""360"">","null","","","","","","","","","",""
"null","","html-keyboard-response","42","251010","0.0-42.0","31N2WW6R9SCYSNVYKK5MUXAK148F3G","AI5RMOS8R652G","3DZKABX2ZIR9F0FDMQGPG3LEN12CVN","","","null","","","","","","","","","",""
"null","","image-keyboard-response","43","253516","0.0-43.0","31N2WW6R9SCYSNVYKK5MUXAK148F3G","AI5RMOS8R652G","3DZKABX2ZIR9F0FDMQGPG3LEN12CVN","","img/set1/S2.jpg","null","2","structured_load","68","structured_load,structured_incentive,structured_normal,random","2,3,2,1,3,4","2,4,1,3","false","","",""
"null","","html-keyboard-response","44","253874","0.0-44.0","31N2WW6R9SCYSNVYKK5MUXAK148F3G","AI5RMOS8R652G","3DZKABX2ZIR9F0FDMQGPG3LEN12CVN","","<img src=""img/set1/S2.jpg"" width=""540"" height = ""360"">","null","","","","","","","","","",""
"null","","html-keyboard-response","45","254076","0.0-45.0","31N2WW6R9SCYSNVYKK5MUXAK148F3G","AI5RMOS8R652G","3DZKABX2ZIR9F0FDMQGPG3LEN12CVN","","","null","","","","","","","","","",""
"1460.6000000238419","","image-keyboard-response","46","255538","0.0-46.0","31N2WW6R9SCYSNVYKK5MUXAK148F3G","AI5RMOS8R652G","3DZKABX2ZIR9F0FDMQGPG3LEN12CVN","","img/set1/S3.jpg","72","3","structured_load","72","structured_load,structured_incentive,structured_normal,random","2,3,2,1,3,4","2,4,1,3","true","","",""
"null","","html-keyboard-response","47","255894","0.0-47.0","31N2WW6R9SCYSNVYKK5MUXAK148F3G","AI5RMOS8R652G","3DZKABX2ZIR9F0FDMQGPG3LEN12CVN","","<img src=""img/set1/S3.jpg"" width=""540"" height = ""360"" style=""border:16px solid orange"">","null","","","","","","","","","",""
"null","","html-keyboard-response","48","256097","0.0-48.0","31N2WW6R9SCYSNVYKK5MUXAK148F3G","AI5RMOS8R652G","3DZKABX2ZIR9F0FDMQGPG3LEN12CVN","","","null","","","","","","","","","",""
"1599.0999999940395","","image-keyboard-response","49","257697","0.0-49.0","31N2WW6R9SCYSNVYKK5MUXAK148F3G","AI5RMOS8R652G","3DZKABX2ZIR9F0FDMQGPG3LEN12CVN","","img/set1/S2.jpg","68","2","structured_load","68","structured_load,structured_incentive,structured_normal,random","2,3,2,1,3,4","2,4,1,3","true","","",""
"null","","html-keyboard-response","50","258049","0.0-50.0","31N2WW6R9SCYSNVYKK5MUXAK148F3G","AI5RMOS8R652G","3DZKABX2ZIR9F0FDMQGPG3LEN12CVN","","<img src=""img/set1/S2.jpg"" width=""540"" height = ""360"" style=""border:16px solid orange"">","null","","","","","","","","","",""
"null","","html-keyboard-response","51","258254","0.0-51.0","31N2WW6R9SCYSNVYKK5MUXAK148F3G","AI5RMOS8R652G","3DZKABX2ZIR9F0FDMQGPG3LEN12CVN","","","null","","","","","","","","","",""
"942.4000000059605","","image-keyboard-response","52","259198","0.0-52.0","31N2WW6R9SCYSNVYKK5MUXAK148F3G","AI5RMOS8R652G","3DZKABX2ZIR9F0FDMQGPG3LEN12CVN","","img/set1/S3.jpg","72","3","structured_load","72","structured_load,structured_incentive,structured_normal,random","2,3,2,1,3,4","2,4,1,3","true","","",""
"null","","html-keyboard-response","53","259555","0.0-53.0","31N2WW6R9SCYSNVYKK5MUXAK148F3G","AI5RMOS8R652G","3DZKABX2ZIR9F0FDMQGPG3LEN12CVN","","<img src=""img/set1/S3.jpg"" width=""540"" height = ""360"" style=""border:16px solid orange"">","null","","","","","","","","","",""
"null","","html-keyboard-response","54","259762","0.0-54.0","31N2WW6R9SCYSNVYKK5MUXAK148F3G","AI5RMOS8R652G","3DZKABX2ZIR9F0FDMQGPG3LEN12CVN","","","null","","","","","","","","","",""
"1082.199999988079","","image-keyboard-response","55","260847","0.0-55.0","31N2WW6R9SCYSNVYKK5MUXAK148F3G","AI5RMOS8R652G","3DZKABX2ZIR9F0FDMQGPG3LEN12CVN","","img/set1/S1.jpg","83","1","structured_load","83","structured_load,structured_incentive,structured_normal,random","2,3,2,1,3,4","2,4,1,3","true","","",""
"null","","html-keyboard-response","56","261202","0.0-56.0","31N2WW6R9SCYSNVYKK5MUXAK148F3G","AI5RMOS8R652G","3DZKABX2ZIR9F0FDMQGPG3LEN12CVN","","<img src=""img/set1/S1.jpg"" width=""540"" height = ""360"" style=""border:16px solid orange"">","null","","","","","","","","","",""
"null","","html-keyboard-response","57","261404","0.0-57.0","31N2WW6R9SCYSNVYKK5MUXAK148F3G","AI5RMOS8R652G","3DZKABX2ZIR9F0FDMQGPG3LEN12CVN","","","null","","","","","","","","","",""
"1125.0999999940395","","image-keyboard-response","58","262532","0.0-58.0","31N2WW6R9SCYSNVYKK5MUXAK148F3G","AI5RMOS8R652G","3DZKABX2ZIR9F0FDMQGPG3LEN12CVN","","img/set1/S4.jpg","74","4","structured_load","74","structured_load,structured_incentive,structured_normal,random","2,3,2,1,3,4","2,4,1,3","true","","",""
"null","","html-keyboard-response","59","262888","0.0-59.0","31N2WW6R9SCYSNVYKK5MUXAK148F3G","AI5RMOS8R652G","3DZKABX2ZIR9F0FDMQGPG3LEN12CVN","","<img src=""img/set1/S4.jpg"" width=""540"" height = ""360"" style=""border:16px solid orange"">","null","","","","","","","","","",""
"null","","html-keyboard-response","60","263095","0.0-60.0","31N2WW6R9SCYSNVYKK5MUXAK148F3G","AI5RMOS8R652G","3DZKABX2ZIR9F0FDMQGPG3LEN12CVN","","","null","","","","","","","","","",""
"1621.5","","image-keyboard-response","61","264719","0.0-61.0","31N2WW6R9SCYSNVYKK5MUXAK148F3G","AI5RMOS8R652G","3DZKABX2ZIR9F0FDMQGPG3LEN12CVN","","img/set1/S1.jpg","83","1","structured_load","83","structured_load,structured_incentive,structured_normal,random","2,3,2,1,3,4","2,4,1,3","true","","",""
"null","","html-keyboard-response","62","265074","0.0-62.0","31N2WW6R9SCYSNVYKK5MUXAK148F3G","AI5RMOS8R652G","3DZKABX2ZIR9F0FDMQGPG3LEN12CVN","","<img src=""img/set1/S1.jpg"" width=""540"" height = ""360"" style=""border:16px solid orange"">","null","","","","","","","","","",""
"null","","html-keyboard-response","63","265277","0.0-63.0","31N2WW6R9SCYSNVYKK5MUXAK148F3G","AI5RMOS8R652G","3DZKABX2ZIR9F0FDMQGPG3LEN12CVN","","","null","","","","","","","","","",""
"2366.9000000059605","","image-keyboard-response","64","267646","0.0-64.0","31N2WW6R9SCYSNVYKK5MUXAK148F3G","AI5RMOS8R652G","3DZKABX2ZIR9F0FDMQGPG3LEN12CVN","","img/set1/S4.jpg","72","4","structured_load","74","structured_load,structured_incentive,structured_normal,random","2,3,2,1,3,4","2,4,1,3","false","","",""
"null","","html-keyboard-response","65","268002","0.0-65.0","31N2WW6R9SCYSNVYKK5MUXAK148F3G","AI5RMOS8R652G","3DZKABX2ZIR9F0FDMQGPG3LEN12CVN","","<img src=""img/set1/S4.jpg"" width=""540"" height = ""360"">","null","","","","","","","","","",""
"null","","html-keyboard-response","66","268204","0.0-66.0","31N2WW6R9SCYSNVYKK5MUXAK148F3G","AI5RMOS8R652G","3DZKABX2ZIR9F0FDMQGPG3LEN12CVN","","","null","","","","","","","","","",""
"867.3000000119209","","image-keyboard-response","67","269072","0.0-67.0","31N2WW6R9SCYSNVYKK5MUXAK148F3G","AI5RMOS8R652G","3DZKABX2ZIR9F0FDMQGPG3LEN12CVN","","img/set1/S1.jpg","83","1","structured_load","83","structured_load,structured_incentive,structured_normal,random","2,3,2,1,3,4","2,4,1,3","true","","",""
"null","","html-keyboard-response","68","269426","0.0-68.0","31N2WW6R9SCYSNVYKK5MUXAK148F3G","AI5RMOS8R652G","3DZKABX2ZIR9F0FDMQGPG3LEN12CVN","","<img src=""img/set1/S1.jpg"" width=""540"" height = ""360"" style=""border:16px solid orange"">","null","","","","","","","","","",""
"null","","html-keyboard-response","69","269628","0.0-69.0","31N2WW6R9SCYSNVYKK5MUXAK148F3G","AI5RMOS8R652G","3DZKABX2ZIR9F0FDMQGPG3LEN12CVN","","","null","","","","","","","","","",""
"890.8999999761581","","image-keyboard-response","70","270523","0.0-70.0","31N2WW6R9SCYSNVYKK5MUXAK148F3G","AI5RMOS8R652G","3DZKABX2ZIR9F0FDMQGPG3LEN12CVN","","img/set1/S2.jpg","68","2","structured_load","68","structured_load,structured_incentive,structured_normal,random","2,3,2,1,3,4","2,4,1,3","true","","",""
"null","","html-keyboard-response","71","270877","0.0-71.0","31N2WW6R9SCYSNVYKK5MUXAK148F3G","AI5RMOS8R652G","3DZKABX2ZIR9F0FDMQGPG3LEN12CVN","","<img src=""img/set1/S2.jpg"" width=""540"" height = ""360"" style=""border:16px solid orange"">","null","","","","","","","","","",""
"null","","html-keyboard-response","72","271079","0.0-72.0","31N2WW6R9SCYSNVYKK5MUXAK148F3G","AI5RMOS8R652G","3DZKABX2ZIR9F0FDMQGPG3LEN12CVN","","","null","","","","","","","","","",""
"852.9000000059605","","image-keyboard-response","73","271935","0.0-73.0","31N2WW6R9SCYSNVYKK5MUXAK148F3G","AI5RMOS8R652G","3DZKABX2ZIR9F0FDMQGPG3LEN12CVN","","img/set1/S3.jpg","72","3","structured_load","72","structured_load,structured_incentive,structured_normal,random","2,3,2,1,3,4","2,4,1,3","true","","",""
"null","","html-keyboard-response","74","272290","0.0-74.0","31N2WW6R9SCYSNVYKK5MUXAK148F3G","AI5RMOS8R652G","3DZKABX2ZIR9F0FDMQGPG3LEN12CVN","","<img src=""img/set1/S3.jpg"" width=""540"" height = ""360"" style=""border:16px solid orange"">","null","","","","","","","","","",""
"null","","html-keyboard-response","75","272492","0.0-75.0","31N2WW6R9SCYSNVYKK5MUXAK148F3G","AI5RMOS8R652G","3DZKABX2ZIR9F0FDMQGPG3LEN12CVN","","","null","","","","","","","","","",""
"723.6999999880791","","image-keyboard-response","76","273217","0.0-76.0","31N2WW6R9SCYSNVYKK5MUXAK148F3G","AI5RMOS8R652G","3DZKABX2ZIR9F0FDMQGPG3LEN12CVN","","img/set1/S4.jpg","74","4","structured_load","74","structured_load,structured_incentive,structured_normal,random","2,3,2,1,3,4","2,4,1,3","true","","",""
"null","","html-keyboard-response","77","273572","0.0-77.0","31N2WW6R9SCYSNVYKK5MUXAK148F3G","AI5RMOS8R652G","3DZKABX2ZIR9F0FDMQGPG3LEN12CVN","","<img src=""img/set1/S4.jpg"" width=""540"" height = ""360"" style=""border:16px solid orange"">","null","","","","","","","","","",""
"null","","html-keyboard-response","78","273778","0.0-78.0","31N2WW6R9SCYSNVYKK5MUXAK148F3G","AI5RMOS8R652G","3DZKABX2ZIR9F0FDMQGPG3LEN12CVN","","","null","","","","","","","","","",""
"2475.699999988079","","image-keyboard-response","79","276256","0.0-79.0","31N2WW6R9SCYSNVYKK5MUXAK148F3G","AI5RMOS8R652G","3DZKABX2ZIR9F0FDMQGPG3LEN12CVN","","img/set1/S1.jpg","83","1","structured_load","83","structured_load,structured_incentive,structured_normal,random","2,3,2,1,3,4","2,4,1,3","true","","",""
"null","","html-keyboard-response","80","276612","0.0-80.0","31N2WW6R9SCYSNVYKK5MUXAK148F3G","AI5RMOS8R652G","3DZKABX2ZIR9F0FDMQGPG3LEN12CVN","","<img src=""img/set1/S1.jpg"" width=""540"" height = ""360"" style=""border:16px solid orange"">","null","","","","","","","","","",""
"null","","html-keyboard-response","81","276817","0.0-81.0","31N2WW6R9SCYSNVYKK5MUXAK148F3G","AI5RMOS8R652G","3DZKABX2ZIR9F0FDMQGPG3LEN12CVN","","","null","","","","","","","","","",""
"1221.5","","image-keyboard-response","82","278041","0.0-82.0","31N2WW6R9SCYSNVYKK5MUXAK148F3G","AI5RMOS8R652G","3DZKABX2ZIR9F0FDMQGPG3LEN12CVN","","img/set1/S4.jpg","74","4","structured_load","74","structured_load,structured_incentive,structured_normal,random","2,3,2,1,3,4","2,4,1,3","true","","",""
"null","","html-keyboard-response","83","278396","0.0-83.0","31N2WW6R9SCYSNVYKK5MUXAK148F3G","AI5RMOS8R652G","3DZKABX2ZIR9F0FDMQGPG3LEN12CVN","","<img src=""img/set1/S4.jpg"" width=""540"" height = ""360"" style=""border:16px solid orange"">","null","","","","","","","","","",""
"null","","html-keyboard-response","84","278599","0.0-84.0","31N2WW6R9SCYSNVYKK5MUXAK148F3G","AI5RMOS8R652G","3DZKABX2ZIR9F0FDMQGPG3LEN12CVN","","","null","","","","","","","","","",""
"1224.800000011921","","image-keyboard-response","85","279825","0.0-85.0","31N2WW6R9SCYSNVYKK5MUXAK148F3G","AI5RMOS8R652G","3DZKABX2ZIR9F0FDMQGPG3LEN12CVN","","img/set1/S2.jpg","68","2","structured_load","68","structured_load,structured_incentive,structured_normal,random","2,3,2,1,3,4","2,4,1,3","true","","",""
"null","","html-keyboard-response","86","280178","0.0-86.0","31N2WW6R9SCYSNVYKK5MUXAK148F3G","AI5RMOS8R652G","3DZKABX2ZIR9F0FDMQGPG3LEN12CVN","","<img src=""img/set1/S2.jpg"" width=""540"" height = ""360"" style=""border:16px solid orange"">","null","","","","","","","","","",""
"null","","html-keyboard-response","87","280380","0.0-87.0","31N2WW6R9SCYSNVYKK5MUXAK148F3G","AI5RMOS8R652G","3DZKABX2ZIR9F0FDMQGPG3LEN12CVN","","","null","","","","","","","","","",""
"1410.300000011921","","image-keyboard-response","88","281791","0.0-88.0","31N2WW6R9SCYSNVYKK5MUXAK148F3G","AI5RMOS8R652G","3DZKABX2ZIR9F0FDMQGPG3LEN12CVN","","img/set1/S3.jpg","72","3","structured_load","72","structured_load,structured_incentive,structured_normal,random","2,3,2,1,3,4","2,4,1,3","true","","",""
"null","","html-keyboard-response","89","282146","0.0-89.0","31N2WW6R9SCYSNVYKK5MUXAK148F3G","AI5RMOS8R652G","3DZKABX2ZIR9F0FDMQGPG3LEN12CVN","","<img src=""img/set1/S3.jpg"" width=""540"" height = ""360"" style=""border:16px solid orange"">","null","","","","","","","","","",""
"null","","html-keyboard-response","90","282348","0.0-90.0","31N2WW6R9SCYSNVYKK5MUXAK148F3G","AI5RMOS8R652G","3DZKABX2ZIR9F0FDMQGPG3LEN12CVN","","","null","","","","","","","","","",""
"921.9000000059605","","image-keyboard-response","91","283271","0.0-91.0","31N2WW6R9SCYSNVYKK5MUXAK148F3G","AI5RMOS8R652G","3DZKABX2ZIR9F0FDMQGPG3LEN12CVN","","img/set1/S1.jpg","83","1","structured_load","83","structured_load,structured_incentive,structured_normal,random","2,3,2,1,3,4","2,4,1,3","true","","",""
"null","","html-keyboard-response","92","283629","0.0-92.0","31N2WW6R9SCYSNVYKK5MUXAK148F3G","AI5RMOS8R652G","3DZKABX2ZIR9F0FDMQGPG3LEN12CVN","","<img src=""img/set1/S1.jpg"" width=""540"" height = ""360"" style=""border:16px solid orange"">","null","","","","","","","","","",""
"null","","html-keyboard-response","93","283831","0.0-93.0","31N2WW6R9SCYSNVYKK5MUXAK148F3G","AI5RMOS8R652G","3DZKABX2ZIR9F0FDMQGPG3LEN12CVN","","","null","","","","","","","","","",""
"865.3000000119209","","image-keyboard-response","94","284699","0.0-94.0","31N2WW6R9SCYSNVYKK5MUXAK148F3G","AI5RMOS8R652G","3DZKABX2ZIR9F0FDMQGPG3LEN12CVN","","img/set1/S4.jpg","74","4","structured_load","74","structured_load,structured_incentive,structured_normal,random","2,3,2,1,3,4","2,4,1,3","true","","",""
"null","","html-keyboard-response","95","285055","0.0-95.0","31N2WW6R9SCYSNVYKK5MUXAK148F3G","AI5RMOS8R652G","3DZKABX2ZIR9F0FDMQGPG3LEN12CVN","","<img src=""img/set1/S4.jpg"" width=""540"" height = ""360"" style=""border:16px solid orange"">","null","","","","","","","","","",""
"null","","html-keyboard-response","96","285261","0.0-96.0","31N2WW6R9SCYSNVYKK5MUXAK148F3G","AI5RMOS8R652G","3DZKABX2ZIR9F0FDMQGPG3LEN12CVN","","","null","","","","","","","","","",""
"1744.199999988079","","image-keyboard-response","97","287007","0.0-97.0","31N2WW6R9SCYSNVYKK5MUXAK148F3G","AI5RMOS8R652G","3DZKABX2ZIR9F0FDMQGPG3LEN12CVN","","img/set1/S2.jpg","72","2","structured_load","68","structured_load,structured_incentive,structured_normal,random","2,3,2,1,3,4","2,4,1,3","false","","",""
"null","","html-keyboard-response","98","287362","0.0-98.0","31N2WW6R9SCYSNVYKK5MUXAK148F3G","AI5RMOS8R652G","3DZKABX2ZIR9F0FDMQGPG3LEN12CVN","","<img src=""img/set1/S2.jpg"" width=""540"" height = ""360"">","null","","","","","","","","","",""
"null","","html-keyboard-response","99","287565","0.0-99.0","31N2WW6R9SCYSNVYKK5MUXAK148F3G","AI5RMOS8R652G","3DZKABX2ZIR9F0FDMQGPG3LEN12CVN","","","null","","","","","","","","","",""
"966","","image-keyboard-response","100","288533","0.0-100.0","31N2WW6R9SCYSNVYKK5MUXAK148F3G","AI5RMOS8R652G","3DZKABX2ZIR9F0FDMQGPG3LEN12CVN","","img/set1/S3.jpg","72","3","structured_load","72","structured_load,structured_incentive,structured_normal,random","2,3,2,1,3,4","2,4,1,3","true","","",""
"null","","html-keyboard-response","101","288887","0.0-101.0","31N2WW6R9SCYSNVYKK5MUXAK148F3G","AI5RMOS8R652G","3DZKABX2ZIR9F0FDMQGPG3LEN12CVN","","<img src=""img/set1/S3.jpg"" width=""540"" height = ""360"" style=""border:16px solid orange"">","null","","","","","","","","","",""
"null","","html-keyboard-response","102","289090","0.0-102.0","31N2WW6R9SCYSNVYKK5MUXAK148F3G","AI5RMOS8R652G","3DZKABX2ZIR9F0FDMQGPG3LEN12CVN","","","null","","","","","","","","","",""
"751.4000000059605","","image-keyboard-response","103","289844","0.0-103.0","31N2WW6R9SCYSNVYKK5MUXAK148F3G","AI5RMOS8R652G","3DZKABX2ZIR9F0FDMQGPG3LEN12CVN","","img/set1/S1.jpg","83","1","structured_load","83","structured_load,structured_incentive,structured_normal,random","2,3,2,1,3,4","2,4,1,3","true","","",""
"null","","html-keyboard-response","104","290199","0.0-104.0","31N2WW6R9SCYSNVYKK5MUXAK148F3G","AI5RMOS8R652G","3DZKABX2ZIR9F0FDMQGPG3LEN12CVN","","<img src=""img/set1/S1.jpg"" width=""540"" height = ""360"" style=""border:16px solid orange"">","null","","","","","","","","","",""
"null","","html-keyboard-response","105","290403","0.0-105.0","31N2WW6R9SCYSNVYKK5MUXAK148F3G","AI5RMOS8R652G","3DZKABX2ZIR9F0FDMQGPG3LEN12CVN","","","null","","","","","","","","","",""
"1233.4000000059605","","image-keyboard-response","106","291638","0.0-106.0","31N2WW6R9SCYSNVYKK5MUXAK148F3G","AI5RMOS8R652G","3DZKABX2ZIR9F0FDMQGPG3LEN12CVN","","img/set1/S1.jpg","83","1","structured_load","83","structured_load,structured_incentive,structured_normal,random","2,3,2,1,3,4","2,4,1,3","true","","",""
"null","","html-keyboard-response","107","291994","0.0-107.0","31N2WW6R9SCYSNVYKK5MUXAK148F3G","AI5RMOS8R652G","3DZKABX2ZIR9F0FDMQGPG3LEN12CVN","","<img src=""img/set1/S1.jpg"" width=""540"" height = ""360"" style=""border:16px solid orange"">","null","","","","","","","","","",""
"null","","html-keyboard-response","108","292199","0.0-108.0","31N2WW6R9SCYSNVYKK5MUXAK148F3G","AI5RMOS8R652G","3DZKABX2ZIR9F0FDMQGPG3LEN12CVN","","","null","","","","","","","","","",""
"600","","image-keyboard-response","109","292802","0.0-109.0","31N2WW6R9SCYSNVYKK5MUXAK148F3G","AI5RMOS8R652G","3DZKABX2ZIR9F0FDMQGPG3LEN12CVN","","img/set1/S1.jpg","83","1","structured_load","83","structured_load,structured_incentive,structured_normal,random","2,3,2,1,3,4","2,4,1,3","true","","",""
"null","","html-keyboard-response","110","293159","0.0-110.0","31N2WW6R9SCYSNVYKK5MUXAK148F3G","AI5RMOS8R652G","3DZKABX2ZIR9F0FDMQGPG3LEN12CVN","","<img src=""img/set1/S1.jpg"" width=""540"" height = ""360"" style=""border:16px solid orange"">","null","","","","","","","","","",""
"null","","html-keyboard-response","111","293362","0.0-111.0","31N2WW6R9SCYSNVYKK5MUXAK148F3G","AI5RMOS8R652G","3DZKABX2ZIR9F0FDMQGPG3LEN12CVN","","","null","","","","","","","","","",""
"584.0999999940395","","image-keyboard-response","112","293948","0.0-112.0","31N2WW6R9SCYSNVYKK5MUXAK148F3G","AI5RMOS8R652G","3DZKABX2ZIR9F0FDMQGPG3LEN12CVN","","img/set1/S1.jpg","83","1","structured_load","83","structured_load,structured_incentive,structured_normal,random","2,3,2,1,3,4","2,4,1,3","true","","",""
"null","","html-keyboard-response","113","294305","0.0-113.0","31N2WW6R9SCYSNVYKK5MUXAK148F3G","AI5RMOS8R652G","3DZKABX2ZIR9F0FDMQGPG3LEN12CVN","","<img src=""img/set1/S1.jpg"" width=""540"" height = ""360"" style=""border:16px solid orange"">","null","","","","","","","","","",""
"null","","html-keyboard-response","114","294509","0.0-114.0","31N2WW6R9SCYSNVYKK5MUXAK148F3G","AI5RMOS8R652G","3DZKABX2ZIR9F0FDMQGPG3LEN12CVN","","","null","","","","","","","","","",""
"584.6999999880791","","image-keyboard-response","115","295096","0.0-115.0","31N2WW6R9SCYSNVYKK5MUXAK148F3G","AI5RMOS8R652G","3DZKABX2ZIR9F0FDMQGPG3LEN12CVN","","img/set1/S1.jpg","83","1","structured_load","83","structured_load,structured_incentive,structured_normal,random","2,3,2,1,3,4","2,4,1,3","true","","",""
"null","","html-keyboard-response","116","295453","0.0-116.0","31N2WW6R9SCYSNVYKK5MUXAK148F3G","AI5RMOS8R652G","3DZKABX2ZIR9F0FDMQGPG3LEN12CVN","","<img src=""img/set1/S1.jpg"" width=""540"" height = ""360"" style=""border:16px solid orange"">","null","","","","","","","","","",""
"null","","html-keyboard-response","117","295655","0.0-117.0","31N2WW6R9SCYSNVYKK5MUXAK148F3G","AI5RMOS8R652G","3DZKABX2ZIR9F0FDMQGPG3LEN12CVN","","","null","","","","","","","","","",""
"1104.4000000059605","","image-keyboard-response","118","296762","0.0-118.0","31N2WW6R9SCYSNVYKK5MUXAK148F3G","AI5RMOS8R652G","3DZKABX2ZIR9F0FDMQGPG3LEN12CVN","","img/set1/S4.jpg","74","4","structured_load","74","structured_load,structured_incentive,structured_normal,random","2,3,2,1,3,4","2,4,1,3","true","","",""
"null","","html-keyboard-response","119","297116","0.0-119.0","31N2WW6R9SCYSNVYKK5MUXAK148F3G","AI5RMOS8R652G","3DZKABX2ZIR9F0FDMQGPG3LEN12CVN","","<img src=""img/set1/S4.jpg"" width=""540"" height = ""360"" style=""border:16px solid orange"">","null","","","","","","","","","",""
"null","","html-keyboard-response","120","297322","0.0-120.0","31N2WW6R9SCYSNVYKK5MUXAK148F3G","AI5RMOS8R652G","3DZKABX2ZIR9F0FDMQGPG3LEN12CVN","","","null","","","","","","","","","",""
"888.6999999880791","","image-keyboard-response","121","298213","0.0-121.0","31N2WW6R9SCYSNVYKK5MUXAK148F3G","AI5RMOS8R652G","3DZKABX2ZIR9F0FDMQGPG3LEN12CVN","","img/set1/S4.jpg","74","4","structured_load","74","structured_load,structured_incentive,structured_normal,random","2,3,2,1,3,4","2,4,1,3","true","","",""
"null","","html-keyboard-response","122","298567","0.0-122.0","31N2WW6R9SCYSNVYKK5MUXAK148F3G","AI5RMOS8R652G","3DZKABX2ZIR9F0FDMQGPG3LEN12CVN","","<img src=""img/set1/S4.jpg"" width=""540"" height = ""360"" style=""border:16px solid orange"">","null","","","","","","","","","",""
"null","","html-keyboard-response","123","298772","0.0-123.0","31N2WW6R9SCYSNVYKK5MUXAK148F3G","AI5RMOS8R652G","3DZKABX2ZIR9F0FDMQGPG3LEN12CVN","","","null","","","","","","","","","",""
"1203.5","","image-keyboard-response","124","299978","0.0-124.0","31N2WW6R9SCYSNVYKK5MUXAK148F3G","AI5RMOS8R652G","3DZKABX2ZIR9F0FDMQGPG3LEN12CVN","","img/set1/S1.jpg","83","1","structured_load","83","structured_load,structured_incentive,structured_normal,random","2,3,2,1,3,4","2,4,1,3","true","","",""
"null","","html-keyboard-response","125","300332","0.0-125.0","31N2WW6R9SCYSNVYKK5MUXAK148F3G","AI5RMOS8R652G","3DZKABX2ZIR9F0FDMQGPG3LEN12CVN","","<img src=""img/set1/S1.jpg"" width=""540"" height = ""360"" style=""border:16px solid orange"">","null","","","","","","","","","",""
"null","","html-keyboard-response","126","300537","0.0-126.0","31N2WW6R9SCYSNVYKK5MUXAK148F3G","AI5RMOS8R652G","3DZKABX2ZIR9F0FDMQGPG3LEN12CVN","","","null","","","","","","","","","",""
"531.8999999761581","","image-keyboard-response","127","301069","0.0-127.0","31N2WW6R9SCYSNVYKK5MUXAK148F3G","AI5RMOS8R652G","3DZKABX2ZIR9F0FDMQGPG3LEN12CVN","","img/set1/S1.jpg","83","1","structured_load","83","structured_load,structured_incentive,structured_normal,random","2,3,2,1,3,4","2,4,1,3","true","","",""
"null","","html-keyboard-response","128","301425","0.0-128.0","31N2WW6R9SCYSNVYKK5MUXAK148F3G","AI5RMOS8R652G","3DZKABX2ZIR9F0FDMQGPG3LEN12CVN","","<img src=""img/set1/S1.jpg"" width=""540"" height = ""360"" style=""border:16px solid orange"">","null","","","","","","","","","",""
"null","","html-keyboard-response","129","301629","0.0-129.0","31N2WW6R9SCYSNVYKK5MUXAK148F3G","AI5RMOS8R652G","3DZKABX2ZIR9F0FDMQGPG3LEN12CVN","","","null","","","","","","","","","",""
"906.2999999821186","","image-keyboard-response","130","302537","0.0-130.0","31N2WW6R9SCYSNVYKK5MUXAK148F3G","AI5RMOS8R652G","3DZKABX2ZIR9F0FDMQGPG3LEN12CVN","","img/set1/S2.jpg","68","2","structured_load","68","structured_load,structured_incentive,structured_normal,random","2,3,2,1,3,4","2,4,1,3","true","","",""
"null","","html-keyboard-response","131","302893","0.0-131.0","31N2WW6R9SCYSNVYKK5MUXAK148F3G","AI5RMOS8R652G","3DZKABX2ZIR9F0FDMQGPG3LEN12CVN","","<img src=""img/set1/S2.jpg"" width=""540"" height = ""360"" style=""border:16px solid orange"">","null","","","","","","","","","",""
"null","","html-keyboard-response","132","303096","0.0-132.0","31N2WW6R9SCYSNVYKK5MUXAK148F3G","AI5RMOS8R652G","3DZKABX2ZIR9F0FDMQGPG3LEN12CVN","","","null","","","","","","","","","",""
"1270.699999988079","","image-keyboard-response","133","304368","0.0-133.0","31N2WW6R9SCYSNVYKK5MUXAK148F3G","AI5RMOS8R652G","3DZKABX2ZIR9F0FDMQGPG3LEN12CVN","","img/set1/S3.jpg","74","3","structured_load","72","structured_load,structured_incentive,structured_normal,random","2,3,2,1,3,4","2,4,1,3","false","","",""
"null","","html-keyboard-response","134","304721","0.0-134.0","31N2WW6R9SCYSNVYKK5MUXAK148F3G","AI5RMOS8R652G","3DZKABX2ZIR9F0FDMQGPG3LEN12CVN","","<img src=""img/set1/S3.jpg"" width=""540"" height = ""360"">","null","","","","","","","","","",""
"null","","html-keyboard-response","135","304924","0.0-135.0","31N2WW6R9SCYSNVYKK5MUXAK148F3G","AI5RMOS8R652G","3DZKABX2ZIR9F0FDMQGPG3LEN12CVN","","","null","","","","","","","","","",""
"786.6999999880791","","image-keyboard-response","136","305712","0.0-136.0","31N2WW6R9SCYSNVYKK5MUXAK148F3G","AI5RMOS8R652G","3DZKABX2ZIR9F0FDMQGPG3LEN12CVN","","img/set1/S2.jpg","68","2","structured_load","68","structured_load,structured_incentive,structured_normal,random","2,3,2,1,3,4","2,4,1,3","true","","",""
"null","","html-keyboard-response","137","306066","0.0-137.0","31N2WW6R9SCYSNVYKK5MUXAK148F3G","AI5RMOS8R652G","3DZKABX2ZIR9F0FDMQGPG3LEN12CVN","","<img src=""img/set1/S2.jpg"" width=""540"" height = ""360"" style=""border:16px solid orange"">","null","","","","","","","","","",""
"null","","html-keyboard-response","138","306271","0.0-138.0","31N2WW6R9SCYSNVYKK5MUXAK148F3G","AI5RMOS8R652G","3DZKABX2ZIR9F0FDMQGPG3LEN12CVN","","","null","","","","","","","","","",""
"607.1999999880791","","image-keyboard-response","139","306879","0.0-139.0","31N2WW6R9SCYSNVYKK5MUXAK148F3G","AI5RMOS8R652G","3DZKABX2ZIR9F0FDMQGPG3LEN12CVN","","img/set1/S3.jpg","72","3","structured_load","72","structured_load,structured_incentive,structured_normal,random","2,3,2,1,3,4","2,4,1,3","true","","",""
"null","","html-keyboard-response","140","307234","0.0-140.0","31N2WW6R9SCYSNVYKK5MUXAK148F3G","AI5RMOS8R652G","3DZKABX2ZIR9F0FDMQGPG3LEN12CVN","","<img src=""img/set1/S3.jpg"" width=""540"" height = ""360"" style=""border:16px solid orange"">","null","","","","","","","","","",""
"null","","html-keyboard-response","141","307439","0.0-141.0","31N2WW6R9SCYSNVYKK5MUXAK148F3G","AI5RMOS8R652G","3DZKABX2ZIR9F0FDMQGPG3LEN12CVN","","","null","","","","","","","","","",""
"2125.2999999821186","","image-keyboard-response","142","309567","0.0-142.0","31N2WW6R9SCYSNVYKK5MUXAK148F3G","AI5RMOS8R652G","3DZKABX2ZIR9F0FDMQGPG3LEN12CVN","","img/set1/S4.jpg","83","4","structured_load","74","structured_load,structured_incentive,structured_normal,random","2,3,2,1,3,4","2,4,1,3","false","","",""
"null","","html-keyboard-response","143","309922","0.0-143.0","31N2WW6R9SCYSNVYKK5MUXAK148F3G","AI5RMOS8R652G","3DZKABX2ZIR9F0FDMQGPG3LEN12CVN","","<img src=""img/set1/S4.jpg"" width=""540"" height = ""360"">","null","","","","","","","","","",""
"null","","html-keyboard-response","144","310125","0.0-144.0","31N2WW6R9SCYSNVYKK5MUXAK148F3G","AI5RMOS8R652G","3DZKABX2ZIR9F0FDMQGPG3LEN12CVN","","","null","","","","","","","","","",""
"778.8000000119209","","image-keyboard-response","145","310906","0.0-145.0","31N2WW6R9SCYSNVYKK5MUXAK148F3G","AI5RMOS8R652G","3DZKABX2ZIR9F0FDMQGPG3LEN12CVN","","img/set1/S2.jpg","68","2","structured_load","68","structured_load,structured_incentive,structured_normal,random","2,3,2,1,3,4","2,4,1,3","true","","",""
"null","","html-keyboard-response","146","311261","0.0-146.0","31N2WW6R9SCYSNVYKK5MUXAK148F3G","AI5RMOS8R652G","3DZKABX2ZIR9F0FDMQGPG3LEN12CVN","","<img src=""img/set1/S2.jpg"" width=""540"" height = ""360"" style=""border:16px solid orange"">","null","","","","","","","","","",""
"null","","html-keyboard-response","147","311464","0.0-147.0","31N2WW6R9SCYSNVYKK5MUXAK148F3G","AI5RMOS8R652G","3DZKABX2ZIR9F0FDMQGPG3LEN12CVN","","","null","","","","","","","","","",""
"842.6999999880791","","image-keyboard-response","148","312308","0.0-148.0","31N2WW6R9SCYSNVYKK5MUXAK148F3G","AI5RMOS8R652G","3DZKABX2ZIR9F0FDMQGPG3LEN12CVN","","img/set1/S3.jpg","72","3","structured_load","72","structured_load,structured_incentive,structured_normal,random","2,3,2,1,3,4","2,4,1,3","true","","",""
"null","","html-keyboard-response","149","312663","0.0-149.0","31N2WW6R9SCYSNVYKK5MUXAK148F3G","AI5RMOS8R652G","3DZKABX2ZIR9F0FDMQGPG3LEN12CVN","","<img src=""img/set1/S3.jpg"" width=""540"" height = ""360"" style=""border:16px solid orange"">","null","","","","","","","","","",""
"null","","html-keyboard-response","150","312866","0.0-150.0","31N2WW6R9SCYSNVYKK5MUXAK148F3G","AI5RMOS8R652G","3DZKABX2ZIR9F0FDMQGPG3LEN12CVN","","","null","","","","","","","","","",""
"973","","image-keyboard-response","151","313841","0.0-151.0","31N2WW6R9SCYSNVYKK5MUXAK148F3G","AI5RMOS8R652G","3DZKABX2ZIR9F0FDMQGPG3LEN12CVN","","img/set1/S2.jpg","68","2","structured_load","68","structured_load,structured_incentive,structured_normal,random","2,3,2,1,3,4","2,4,1,3","true","","",""
"null","","html-keyboard-response","152","314199","0.0-152.0","31N2WW6R9SCYSNVYKK5MUXAK148F3G","AI5RMOS8R652G","3DZKABX2ZIR9F0FDMQGPG3LEN12CVN","","<img src=""img/set1/S2.jpg"" width=""540"" height = ""360"" style=""border:16px solid orange"">","null","","","","","","","","","",""
"null","","html-keyboard-response","153","314404","0.0-153.0","31N2WW6R9SCYSNVYKK5MUXAK148F3G","AI5RMOS8R652G","3DZKABX2ZIR9F0FDMQGPG3LEN12CVN","","","null","","","","","","","","","",""
"1430","","image-keyboard-response","154","315836","0.0-154.0","31N2WW6R9SCYSNVYKK5MUXAK148F3G","AI5RMOS8R652G","3DZKABX2ZIR9F0FDMQGPG3LEN12CVN","","img/set1/S3.jpg","74","3","structured_load","72","structured_load,structured_incentive,structured_normal,random","2,3,2,1,3,4","2,4,1,3","false","","",""
"null","","html-keyboard-response","155","316194","0.0-155.0","31N2WW6R9SCYSNVYKK5MUXAK148F3G","AI5RMOS8R652G","3DZKABX2ZIR9F0FDMQGPG3LEN12CVN","","<img src=""img/set1/S3.jpg"" width=""540"" height = ""360"">","null","","","","","","","","","",""
"null","","html-keyboard-response","156","316396","0.0-156.0","31N2WW6R9SCYSNVYKK5MUXAK148F3G","AI5RMOS8R652G","3DZKABX2ZIR9F0FDMQGPG3LEN12CVN","","","null","","","","","","","","","",""
"1227.199999988079","","image-keyboard-response","157","317625","0.0-157.0","31N2WW6R9SCYSNVYKK5MUXAK148F3G","AI5RMOS8R652G","3DZKABX2ZIR9F0FDMQGPG3LEN12CVN","","img/set1/S1.jpg","83","1","structured_load","83","structured_load,structured_incentive,structured_normal,random","2,3,2,1,3,4","2,4,1,3","true","","",""
"null","","html-keyboard-response","158","317981","0.0-158.0","31N2WW6R9SCYSNVYKK5MUXAK148F3G","AI5RMOS8R652G","3DZKABX2ZIR9F0FDMQGPG3LEN12CVN","","<img src=""img/set1/S1.jpg"" width=""540"" height = ""360"" style=""border:16px solid orange"">","null","","","","","","","","","",""
"null","","html-keyboard-response","159","318185","0.0-159.0","31N2WW6R9SCYSNVYKK5MUXAK148F3G","AI5RMOS8R652G","3DZKABX2ZIR9F0FDMQGPG3LEN12CVN","","","null","","","","","","","","","",""
"1222.5","","image-keyboard-response","160","319410","0.0-160.0","31N2WW6R9SCYSNVYKK5MUXAK148F3G","AI5RMOS8R652G","3DZKABX2ZIR9F0FDMQGPG3LEN12CVN","","img/set1/S2.jpg","68","2","structured_load","68","structured_load,structured_incentive,structured_normal,random","2,3,2,1,3,4","2,4,1,3","true","","",""
"null","","html-keyboard-response","161","319768","0.0-161.0","31N2WW6R9SCYSNVYKK5MUXAK148F3G","AI5RMOS8R652G","3DZKABX2ZIR9F0FDMQGPG3LEN12CVN","","<img src=""img/set1/S2.jpg"" width=""540"" height = ""360"" style=""border:16px solid orange"">","null","","","","","","","","","",""
"null","","html-keyboard-response","162","319972","0.0-162.0","31N2WW6R9SCYSNVYKK5MUXAK148F3G","AI5RMOS8R652G","3DZKABX2ZIR9F0FDMQGPG3LEN12CVN","","","null","","","","","","","","","",""
"2223.7999999821186","","image-keyboard-response","163","322198","0.0-163.0","31N2WW6R9SCYSNVYKK5MUXAK148F3G","AI5RMOS8R652G","3DZKABX2ZIR9F0FDMQGPG3LEN12CVN","","img/set1/S3.jpg","72","3","structured_load","72","structured_load,structured_incentive,structured_normal,random","2,3,2,1,3,4","2,4,1,3","true","","",""
"null","","html-keyboard-response","164","322555","0.0-164.0","31N2WW6R9SCYSNVYKK5MUXAK148F3G","AI5RMOS8R652G","3DZKABX2ZIR9F0FDMQGPG3LEN12CVN","","<img src=""img/set1/S3.jpg"" width=""540"" height = ""360"" style=""border:16px solid orange"">","null","","","","","","","","","",""
"null","","html-keyboard-response","165","322760","0.0-165.0","31N2WW6R9SCYSNVYKK5MUXAK148F3G","AI5RMOS8R652G","3DZKABX2ZIR9F0FDMQGPG3LEN12CVN","","","null","","","","","","","","","",""
"793.2000000178814","","image-keyboard-response","166","323556","0.0-166.0","31N2WW6R9SCYSNVYKK5MUXAK148F3G","AI5RMOS8R652G","3DZKABX2ZIR9F0FDMQGPG3LEN12CVN","","img/set1/S4.jpg","74","4","structured_load","74","structured_load,structured_incentive,structured_normal,random","2,3,2,1,3,4","2,4,1,3","true","","",""
"null","","html-keyboard-response","167","323912","0.0-167.0","31N2WW6R9SCYSNVYKK5MUXAK148F3G","AI5RMOS8R652G","3DZKABX2ZIR9F0FDMQGPG3LEN12CVN","","<img src=""img/set1/S4.jpg"" width=""540"" height = ""360"" style=""border:16px solid orange"">","null","","","","","","","","","",""
"null","","html-keyboard-response","168","324117","0.0-168.0","31N2WW6R9SCYSNVYKK5MUXAK148F3G","AI5RMOS8R652G","3DZKABX2ZIR9F0FDMQGPG3LEN12CVN","","","null","","","","","","","","","",""
"1866","","image-keyboard-response","169","325986","0.0-169.0","31N2WW6R9SCYSNVYKK5MUXAK148F3G","AI5RMOS8R652G","3DZKABX2ZIR9F0FDMQGPG3LEN12CVN","","img/set1/S1.jpg","83","1","structured_load","83","structured_load,structured_incentive,structured_normal,random","2,3,2,1,3,4","2,4,1,3","true","","",""
"null","","html-keyboard-response","170","326343","0.0-170.0","31N2WW6R9SCYSNVYKK5MUXAK148F3G","AI5RMOS8R652G","3DZKABX2ZIR9F0FDMQGPG3LEN12CVN","","<img src=""img/set1/S1.jpg"" width=""540"" height = ""360"" style=""border:16px solid orange"">","null","","","","","","","","","",""
"null","","html-keyboard-response","171","326546","0.0-171.0","31N2WW6R9SCYSNVYKK5MUXAK148F3G","AI5RMOS8R652G","3DZKABX2ZIR9F0FDMQGPG3LEN12CVN","","","null","","","","","","","","","",""
"817.2000000178814","","image-keyboard-response","172","327365","0.0-172.0","31N2WW6R9SCYSNVYKK5MUXAK148F3G","AI5RMOS8R652G","3DZKABX2ZIR9F0FDMQGPG3LEN12CVN","","img/set1/S2.jpg","68","2","structured_load","68","structured_load,structured_incentive,structured_normal,random","2,3,2,1,3,4","2,4,1,3","true","","",""
"null","","html-keyboard-response","173","327721","0.0-173.0","31N2WW6R9SCYSNVYKK5MUXAK148F3G","AI5RMOS8R652G","3DZKABX2ZIR9F0FDMQGPG3LEN12CVN","","<img src=""img/set1/S2.jpg"" width=""540"" height = ""360"" style=""border:16px solid orange"">","null","","","","","","","","","",""
"null","","html-keyboard-response","174","327928","0.0-174.0","31N2WW6R9SCYSNVYKK5MUXAK148F3G","AI5RMOS8R652G","3DZKABX2ZIR9F0FDMQGPG3LEN12CVN","","","null","","","","","","","","","",""
"1464.7000000178814","","image-keyboard-response","175","329395","0.0-175.0","31N2WW6R9SCYSNVYKK5MUXAK148F3G","AI5RMOS8R652G","3DZKABX2ZIR9F0FDMQGPG3LEN12CVN","","img/set1/S3.jpg","72","3","structured_load","72","structured_load,structured_incentive,structured_normal,random","2,3,2,1,3,4","2,4,1,3","true","","",""
"null","","html-keyboard-response","176","329752","0.0-176.0","31N2WW6R9SCYSNVYKK5MUXAK148F3G","AI5RMOS8R652G","3DZKABX2ZIR9F0FDMQGPG3LEN12CVN","","<img src=""img/set1/S3.jpg"" width=""540"" height = ""360"" style=""border:16px solid orange"">","null","","","","","","","","","",""
"null","","html-keyboard-response","177","329956","0.0-177.0","31N2WW6R9SCYSNVYKK5MUXAK148F3G","AI5RMOS8R652G","3DZKABX2ZIR9F0FDMQGPG3LEN12CVN","","","null","","","","","","","","","",""
"1097.0999999940395","","image-keyboard-response","178","331055","0.0-178.0","31N2WW6R9SCYSNVYKK5MUXAK148F3G","AI5RMOS8R652G","3DZKABX2ZIR9F0FDMQGPG3LEN12CVN","","img/set1/S2.jpg","83","2","structured_load","68","structured_load,structured_incentive,structured_normal,random","2,3,2,1,3,4","2,4,1,3","false","","",""
"null","","html-keyboard-response","179","331408","0.0-179.0","31N2WW6R9SCYSNVYKK5MUXAK148F3G","AI5RMOS8R652G","3DZKABX2ZIR9F0FDMQGPG3LEN12CVN","","<img src=""img/set1/S2.jpg"" width=""540"" height = ""360"">","null","","","","","","","","","",""
"null","","html-keyboard-response","180","331613","0.0-180.0","31N2WW6R9SCYSNVYKK5MUXAK148F3G","AI5RMOS8R652G","3DZKABX2ZIR9F0FDMQGPG3LEN12CVN","","","null","","","","","","","","","",""
"1081.2999999821186","","image-keyboard-response","181","332697","0.0-181.0","31N2WW6R9SCYSNVYKK5MUXAK148F3G","AI5RMOS8R652G","3DZKABX2ZIR9F0FDMQGPG3LEN12CVN","","img/set1/S3.jpg","72","3","structured_load","72","structured_load,structured_incentive,structured_normal,random","2,3,2,1,3,4","2,4,1,3","true","","",""
"null","","html-keyboard-response","182","333053","0.0-182.0","31N2WW6R9SCYSNVYKK5MUXAK148F3G","AI5RMOS8R652G","3DZKABX2ZIR9F0FDMQGPG3LEN12CVN","","<img src=""img/set1/S3.jpg"" width=""540"" height = ""360"" style=""border:16px solid orange"">","null","","","","","","","","","",""
"null","","html-keyboard-response","183","333256","0.0-183.0","31N2WW6R9SCYSNVYKK5MUXAK148F3G","AI5RMOS8R652G","3DZKABX2ZIR9F0FDMQGPG3LEN12CVN","","","null","","","","","","","","","",""
"1399.199999988079","","image-keyboard-response","184","334657","0.0-184.0","31N2WW6R9SCYSNVYKK5MUXAK148F3G","AI5RMOS8R652G","3DZKABX2ZIR9F0FDMQGPG3LEN12CVN","","img/set1/S4.jpg","74","4","structured_load","74","structured_load,structured_incentive,structured_normal,random","2,3,2,1,3,4","2,4,1,3","true","","",""
"null","","html-keyboard-response","185","335011","0.0-185.0","31N2WW6R9SCYSNVYKK5MUXAK148F3G","AI5RMOS8R652G","3DZKABX2ZIR9F0FDMQGPG3LEN12CVN","","<img src=""img/set1/S4.jpg"" width=""540"" height = ""360"" style=""border:16px solid orange"">","null","","","","","","","","","",""
"null","","html-keyboard-response","186","335213","0.0-186.0","31N2WW6R9SCYSNVYKK5MUXAK148F3G","AI5RMOS8R652G","3DZKABX2ZIR9F0FDMQGPG3LEN12CVN","","","null","","","","","","","","","",""
"728","","image-keyboard-response","187","335944","0.0-187.0","31N2WW6R9SCYSNVYKK5MUXAK148F3G","AI5RMOS8R652G","3DZKABX2ZIR9F0FDMQGPG3LEN12CVN","","img/set1/S4.jpg","74","4","structured_load","74","structured_load,structured_incentive,structured_normal,random","2,3,2,1,3,4","2,4,1,3","true","","",""
"null","","html-keyboard-response","188","336300","0.0-188.0","31N2WW6R9SCYSNVYKK5MUXAK148F3G","AI5RMOS8R652G","3DZKABX2ZIR9F0FDMQGPG3LEN12CVN","","<img src=""img/set1/S4.jpg"" width=""540"" height = ""360"" style=""border:16px solid orange"">","null","","","","","","","","","",""
"null","","html-keyboard-response","189","336505","0.0-189.0","31N2WW6R9SCYSNVYKK5MUXAK148F3G","AI5RMOS8R652G","3DZKABX2ZIR9F0FDMQGPG3LEN12CVN","","","null","","","","","","","","","",""
"1130.9000000059605","","image-keyboard-response","190","337637","0.0-190.0","31N2WW6R9SCYSNVYKK5MUXAK148F3G","AI5RMOS8R652G","3DZKABX2ZIR9F0FDMQGPG3LEN12CVN","","img/set1/S2.jpg","68","2","structured_load","68","structured_load,structured_incentive,structured_normal,random","2,3,2,1,3,4","2,4,1,3","true","","",""
"null","","html-keyboard-response","191","337992","0.0-191.0","31N2WW6R9SCYSNVYKK5MUXAK148F3G","AI5RMOS8R652G","3DZKABX2ZIR9F0FDMQGPG3LEN12CVN","","<img src=""img/set1/S2.jpg"" width=""540"" height = ""360"" style=""border:16px solid orange"">","null","","","","","","","","","",""
"null","","html-keyboard-response","192","338196","0.0-192.0","31N2WW6R9SCYSNVYKK5MUXAK148F3G","AI5RMOS8R652G","3DZKABX2ZIR9F0FDMQGPG3LEN12CVN","","","null","","","","","","","","","",""
"1204.7999999821186","","image-keyboard-response","193","339404","0.0-193.0","31N2WW6R9SCYSNVYKK5MUXAK148F3G","AI5RMOS8R652G","3DZKABX2ZIR9F0FDMQGPG3LEN12CVN","","img/set1/S3.jpg","83","3","structured_load","72","structured_load,structured_incentive,structured_normal,random","2,3,2,1,3,4","2,4,1,3","false","","",""
"null","","html-keyboard-response","194","339757","0.0-194.0","31N2WW6R9SCYSNVYKK5MUXAK148F3G","AI5RMOS8R652G","3DZKABX2ZIR9F0FDMQGPG3LEN12CVN","","<img src=""img/set1/S3.jpg"" width=""540"" height = ""360"">","null","","","","","","","","","",""
"null","","html-keyboard-response","195","339964","0.0-195.0","31N2WW6R9SCYSNVYKK5MUXAK148F3G","AI5RMOS8R652G","3DZKABX2ZIR9F0FDMQGPG3LEN12CVN","","","null","","","","","","","","","",""
"1211.5999999940395","","image-keyboard-response","196","341178","0.0-196.0","31N2WW6R9SCYSNVYKK5MUXAK148F3G","AI5RMOS8R652G","3DZKABX2ZIR9F0FDMQGPG3LEN12CVN","","img/set1/S1.jpg","83","1","structured_load","83","structured_load,structured_incentive,structured_normal,random","2,3,2,1,3,4","2,4,1,3","true","","",""
"null","","html-keyboard-response","197","341535","0.0-197.0","31N2WW6R9SCYSNVYKK5MUXAK148F3G","AI5RMOS8R652G","3DZKABX2ZIR9F0FDMQGPG3LEN12CVN","","<img src=""img/set1/S1.jpg"" width=""540"" height = ""360"" style=""border:16px solid orange"">","null","","","","","","","","","",""
"null","","html-keyboard-response","198","341741","0.0-198.0","31N2WW6R9SCYSNVYKK5MUXAK148F3G","AI5RMOS8R652G","3DZKABX2ZIR9F0FDMQGPG3LEN12CVN","","","null","","","","","","","","","",""
"870.5999999940395","","image-keyboard-response","199","342618","0.0-199.0","31N2WW6R9SCYSNVYKK5MUXAK148F3G","AI5RMOS8R652G","3DZKABX2ZIR9F0FDMQGPG3LEN12CVN","","img/set1/S4.jpg","74","4","structured_load","74","structured_load,structured_incentive,structured_normal,random","2,3,2,1,3,4","2,4,1,3","true","","",""
"null","","html-keyboard-response","200","342973","0.0-200.0","31N2WW6R9SCYSNVYKK5MUXAK148F3G","AI5RMOS8R652G","3DZKABX2ZIR9F0FDMQGPG3LEN12CVN","","<img src=""img/set1/S4.jpg"" width=""540"" height = ""360"" style=""border:16px solid orange"">","null","","","","","","","","","",""
"null","","html-keyboard-response","201","343176","0.0-201.0","31N2WW6R9SCYSNVYKK5MUXAK148F3G","AI5RMOS8R652G","3DZKABX2ZIR9F0FDMQGPG3LEN12CVN","","","null","","","","","","","","","",""
"556.7999999821186","","image-keyboard-response","202","343735","0.0-202.0","31N2WW6R9SCYSNVYKK5MUXAK148F3G","AI5RMOS8R652G","3DZKABX2ZIR9F0FDMQGPG3LEN12CVN","","img/set1/S4.jpg","74","4","structured_load","74","structured_load,structured_incentive,structured_normal,random","2,3,2,1,3,4","2,4,1,3","true","","",""
"null","","html-keyboard-response","203","344093","0.0-203.0","31N2WW6R9SCYSNVYKK5MUXAK148F3G","AI5RMOS8R652G","3DZKABX2ZIR9F0FDMQGPG3LEN12CVN","","<img src=""img/set1/S4.jpg"" width=""540"" height = ""360"" style=""border:16px solid orange"">","null","","","","","","","","","",""
"null","","html-keyboard-response","204","344297","0.0-204.0","31N2WW6R9SCYSNVYKK5MUXAK148F3G","AI5RMOS8R652G","3DZKABX2ZIR9F0FDMQGPG3LEN12CVN","","","null","","","","","","","","","",""
"538.1999999880791","","image-keyboard-response","205","344837","0.0-205.0","31N2WW6R9SCYSNVYKK5MUXAK148F3G","AI5RMOS8R652G","3DZKABX2ZIR9F0FDMQGPG3LEN12CVN","","img/set1/S4.jpg","74","4","structured_load","74","structured_load,structured_incentive,structured_normal,random","2,3,2,1,3,4","2,4,1,3","true","","",""
"null","","html-keyboard-response","206","345192","0.0-206.0","31N2WW6R9SCYSNVYKK5MUXAK148F3G","AI5RMOS8R652G","3DZKABX2ZIR9F0FDMQGPG3LEN12CVN","","<img src=""img/set1/S4.jpg"" width=""540"" height = ""360"" style=""border:16px solid orange"">","null","","","","","","","","","",""
"null","","html-keyboard-response","207","345394","0.0-207.0","31N2WW6R9SCYSNVYKK5MUXAK148F3G","AI5RMOS8R652G","3DZKABX2ZIR9F0FDMQGPG3LEN12CVN","","","null","","","","","","","","","",""
"733.5999999940395","","image-keyboard-response","208","346128","0.0-208.0","31N2WW6R9SCYSNVYKK5MUXAK148F3G","AI5RMOS8R652G","3DZKABX2ZIR9F0FDMQGPG3LEN12CVN","","img/set1/S4.jpg","74","4","structured_load","74","structured_load,structured_incentive,structured_normal,random","2,3,2,1,3,4","2,4,1,3","true","","",""
"null","","html-keyboard-response","209","346482","0.0-209.0","31N2WW6R9SCYSNVYKK5MUXAK148F3G","AI5RMOS8R652G","3DZKABX2ZIR9F0FDMQGPG3LEN12CVN","","<img src=""img/set1/S4.jpg"" width=""540"" height = ""360"" style=""border:16px solid orange"">","null","","","","","","","","","",""
"null","","html-keyboard-response","210","346686","0.0-210.0","31N2WW6R9SCYSNVYKK5MUXAK148F3G","AI5RMOS8R652G","3DZKABX2ZIR9F0FDMQGPG3LEN12CVN","","","null","","","","","","","","","",""
"920.7000000178814","","image-keyboard-response","211","347609","0.0-211.0","31N2WW6R9SCYSNVYKK5MUXAK148F3G","AI5RMOS8R652G","3DZKABX2ZIR9F0FDMQGPG3LEN12CVN","","img/set1/S2.jpg","68","2","structured_load","68","structured_load,structured_incentive,structured_normal,random","2,3,2,1,3,4","2,4,1,3","true","","",""
"null","","html-keyboard-response","212","347965","0.0-212.0","31N2WW6R9SCYSNVYKK5MUXAK148F3G","AI5RMOS8R652G","3DZKABX2ZIR9F0FDMQGPG3LEN12CVN","","<img src=""img/set1/S2.jpg"" width=""540"" height = ""360"" style=""border:16px solid orange"">","null","","","","","","","","","",""
"null","","html-keyboard-response","213","348168","0.0-213.0","31N2WW6R9SCYSNVYKK5MUXAK148F3G","AI5RMOS8R652G","3DZKABX2ZIR9F0FDMQGPG3LEN12CVN","","","null","","","","","","","","","",""
"1460.2999999821186","","image-keyboard-response","214","349631","0.0-214.0","31N2WW6R9SCYSNVYKK5MUXAK148F3G","AI5RMOS8R652G","3DZKABX2ZIR9F0FDMQGPG3LEN12CVN","","img/set1/S3.jpg","83","3","structured_load","72","structured_load,structured_incentive,structured_normal,random","2,3,2,1,3,4","2,4,1,3","false","","",""
"null","","html-keyboard-response","215","349987","0.0-215.0","31N2WW6R9SCYSNVYKK5MUXAK148F3G","AI5RMOS8R652G","3DZKABX2ZIR9F0FDMQGPG3LEN12CVN","","<img src=""img/set1/S3.jpg"" width=""540"" height = ""360"">","null","","","","","","","","","",""
"null","","html-keyboard-response","216","350189","0.0-216.0","31N2WW6R9SCYSNVYKK5MUXAK148F3G","AI5RMOS8R652G","3DZKABX2ZIR9F0FDMQGPG3LEN12CVN","","","null","","","","","","","","","",""
"929.3000000119209","","image-keyboard-response","217","351121","0.0-217.0","31N2WW6R9SCYSNVYKK5MUXAK148F3G","AI5RMOS8R652G","3DZKABX2ZIR9F0FDMQGPG3LEN12CVN","","img/set1/S1.jpg","83","1","structured_load","83","structured_load,structured_incentive,structured_normal,random","2,3,2,1,3,4","2,4,1,3","true","","",""
"null","","html-keyboard-response","218","351476","0.0-218.0","31N2WW6R9SCYSNVYKK5MUXAK148F3G","AI5RMOS8R652G","3DZKABX2ZIR9F0FDMQGPG3LEN12CVN","","<img src=""img/set1/S1.jpg"" width=""540"" height = ""360"" style=""border:16px solid orange"">","null","","","","","","","","","",""
"null","","html-keyboard-response","219","351683","0.0-219.0","31N2WW6R9SCYSNVYKK5MUXAK148F3G","AI5RMOS8R652G","3DZKABX2ZIR9F0FDMQGPG3LEN12CVN","","","null","","","","","","","","","",""
"846","","image-keyboard-response","220","352531","0.0-220.0","31N2WW6R9SCYSNVYKK5MUXAK148F3G","AI5RMOS8R652G","3DZKABX2ZIR9F0FDMQGPG3LEN12CVN","","img/set1/S2.jpg","68","2","structured_load","68","structured_load,structured_incentive,structured_normal,random","2,3,2,1,3,4","2,4,1,3","true","","",""
"null","","html-keyboard-response","221","352888","0.0-221.0","31N2WW6R9SCYSNVYKK5MUXAK148F3G","AI5RMOS8R652G","3DZKABX2ZIR9F0FDMQGPG3LEN12CVN","","<img src=""img/set1/S2.jpg"" width=""540"" height = ""360"" style=""border:16px solid orange"">","null","","","","","","","","","",""
"null","","html-keyboard-response","222","353091","0.0-222.0","31N2WW6R9SCYSNVYKK5MUXAK148F3G","AI5RMOS8R652G","3DZKABX2ZIR9F0FDMQGPG3LEN12CVN","","","null","","","","","","","","","",""
"1006.5","","image-keyboard-response","223","354100","0.0-223.0","31N2WW6R9SCYSNVYKK5MUXAK148F3G","AI5RMOS8R652G","3DZKABX2ZIR9F0FDMQGPG3LEN12CVN","","img/set1/S3.jpg","74","3","structured_load","72","structured_load,structured_incentive,structured_normal,random","2,3,2,1,3,4","2,4,1,3","false","","",""
"null","","html-keyboard-response","224","354456","0.0-224.0","31N2WW6R9SCYSNVYKK5MUXAK148F3G","AI5RMOS8R652G","3DZKABX2ZIR9F0FDMQGPG3LEN12CVN","","<img src=""img/set1/S3.jpg"" width=""540"" height = ""360"">","null","","","","","","","","","",""
"null","","html-keyboard-response","225","354659","0.0-225.0","31N2WW6R9SCYSNVYKK5MUXAK148F3G","AI5RMOS8R652G","3DZKABX2ZIR9F0FDMQGPG3LEN12CVN","","","null","","","","","","","","","",""
"1146.3999999761581","","image-keyboard-response","226","355808","0.0-226.0","31N2WW6R9SCYSNVYKK5MUXAK148F3G","AI5RMOS8R652G","3DZKABX2ZIR9F0FDMQGPG3LEN12CVN","","img/set1/S1.jpg","83","1","structured_load","83","structured_load,structured_incentive,structured_normal,random","2,3,2,1,3,4","2,4,1,3","true","","",""
"null","","html-keyboard-response","227","356162","0.0-227.0","31N2WW6R9SCYSNVYKK5MUXAK148F3G","AI5RMOS8R652G","3DZKABX2ZIR9F0FDMQGPG3LEN12CVN","","<img src=""img/set1/S1.jpg"" width=""540"" height = ""360"" style=""border:16px solid orange"">","null","","","","","","","","","",""
"null","","html-keyboard-response","228","356364","0.0-228.0","31N2WW6R9SCYSNVYKK5MUXAK148F3G","AI5RMOS8R652G","3DZKABX2ZIR9F0FDMQGPG3LEN12CVN","","","null","","","","","","","","","",""
"null","","image-keyboard-response","229","358866","0.0-229.0","31N2WW6R9SCYSNVYKK5MUXAK148F3G","AI5RMOS8R652G","3DZKABX2ZIR9F0FDMQGPG3LEN12CVN","","img/set1/S2.jpg","null","2","structured_load","68","structured_load,structured_incentive,structured_normal,random","2,3,2,1,3,4","2,4,1,3","false","","",""
"null","","html-keyboard-response","230","359224","0.0-230.0","31N2WW6R9SCYSNVYKK5MUXAK148F3G","AI5RMOS8R652G","3DZKABX2ZIR9F0FDMQGPG3LEN12CVN","","<img src=""img/set1/S2.jpg"" width=""540"" height = ""360"">","null","","","","","","","","","",""
"null","","html-keyboard-response","231","359427","0.0-231.0","31N2WW6R9SCYSNVYKK5MUXAK148F3G","AI5RMOS8R652G","3DZKABX2ZIR9F0FDMQGPG3LEN12CVN","","","null","","","","","","","","","",""
"1327.0999999940395","","image-keyboard-response","232","360756","0.0-232.0","31N2WW6R9SCYSNVYKK5MUXAK148F3G","AI5RMOS8R652G","3DZKABX2ZIR9F0FDMQGPG3LEN12CVN","","img/set1/S3.jpg","68","3","structured_load","72","structured_load,structured_incentive,structured_normal,random","2,3,2,1,3,4","2,4,1,3","false","","",""
"null","","html-keyboard-response","233","361112","0.0-233.0","31N2WW6R9SCYSNVYKK5MUXAK148F3G","AI5RMOS8R652G","3DZKABX2ZIR9F0FDMQGPG3LEN12CVN","","<img src=""img/set1/S3.jpg"" width=""540"" height = ""360"">","null","","","","","","","","","",""
"null","","html-keyboard-response","234","361314","0.0-234.0","31N2WW6R9SCYSNVYKK5MUXAK148F3G","AI5RMOS8R652G","3DZKABX2ZIR9F0FDMQGPG3LEN12CVN","","","null","","","","","","","","","",""
"845.0999999940395","","image-keyboard-response","235","362162","0.0-235.0","31N2WW6R9SCYSNVYKK5MUXAK148F3G","AI5RMOS8R652G","3DZKABX2ZIR9F0FDMQGPG3LEN12CVN","","img/set1/S1.jpg","83","1","structured_load","83","structured_load,structured_incentive,structured_normal,random","2,3,2,1,3,4","2,4,1,3","true","","",""
"null","","html-keyboard-response","236","362520","0.0-236.0","31N2WW6R9SCYSNVYKK5MUXAK148F3G","AI5RMOS8R652G","3DZKABX2ZIR9F0FDMQGPG3LEN12CVN","","<img src=""img/set1/S1.jpg"" width=""540"" height = ""360"" style=""border:16px solid orange"">","null","","","","","","","","","",""
"null","","html-keyboard-response","237","362723","0.0-237.0","31N2WW6R9SCYSNVYKK5MUXAK148F3G","AI5RMOS8R652G","3DZKABX2ZIR9F0FDMQGPG3LEN12CVN","","","null","","","","","","","","","",""
"681.5999999940395","","image-keyboard-response","238","363409","0.0-238.0","31N2WW6R9SCYSNVYKK5MUXAK148F3G","AI5RMOS8R652G","3DZKABX2ZIR9F0FDMQGPG3LEN12CVN","","img/set1/S1.jpg","83","1","structured_load","83","structured_load,structured_incentive,structured_normal,random","2,3,2,1,3,4","2,4,1,3","true","","",""
"null","","html-keyboard-response","239","363763","0.0-239.0","31N2WW6R9SCYSNVYKK5MUXAK148F3G","AI5RMOS8R652G","3DZKABX2ZIR9F0FDMQGPG3LEN12CVN","","<img src=""img/set1/S1.jpg"" width=""540"" height = ""360"" style=""border:16px solid orange"">","null","","","","","","","","","",""
"null","","html-keyboard-response","240","363965","0.0-240.0","31N2WW6R9SCYSNVYKK5MUXAK148F3G","AI5RMOS8R652G","3DZKABX2ZIR9F0FDMQGPG3LEN12CVN","","","null","","","","","","","","","",""
"957","","image-keyboard-response","241","364925","0.0-241.0","31N2WW6R9SCYSNVYKK5MUXAK148F3G","AI5RMOS8R652G","3DZKABX2ZIR9F0FDMQGPG3LEN12CVN","","img/set1/S4.jpg","74","4","structured_load","74","structured_load,structured_incentive,structured_normal,random","2,3,2,1,3,4","2,4,1,3","true","","",""
"null","","html-keyboard-response","242","365277","0.0-242.0","31N2WW6R9SCYSNVYKK5MUXAK148F3G","AI5RMOS8R652G","3DZKABX2ZIR9F0FDMQGPG3LEN12CVN","","<img src=""img/set1/S4.jpg"" width=""540"" height = ""360"" style=""border:16px solid orange"">","null","","","","","","","","","",""
"null","","html-keyboard-response","243","365480","0.0-243.0","31N2WW6R9SCYSNVYKK5MUXAK148F3G","AI5RMOS8R652G","3DZKABX2ZIR9F0FDMQGPG3LEN12CVN","","","null","","","","","","","","","",""
"1042.0999999940395","","image-keyboard-response","244","366524","0.0-244.0","31N2WW6R9SCYSNVYKK5MUXAK148F3G","AI5RMOS8R652G","3DZKABX2ZIR9F0FDMQGPG3LEN12CVN","","img/set1/S1.jpg","68","1","structured_load","83","structured_load,structured_incentive,structured_normal,random","2,3,2,1,3,4","2,4,1,3","false","","",""
"null","","html-keyboard-response","245","366876","0.0-245.0","31N2WW6R9SCYSNVYKK5MUXAK148F3G","AI5RMOS8R652G","3DZKABX2ZIR9F0FDMQGPG3LEN12CVN","","<img src=""img/set1/S1.jpg"" width=""540"" height = ""360"">","null","","","","","","","","","",""
"null","","html-keyboard-response","246","367079","0.0-246.0","31N2WW6R9SCYSNVYKK5MUXAK148F3G","AI5RMOS8R652G","3DZKABX2ZIR9F0FDMQGPG3LEN12CVN","","","null","","","","","","","","","",""
"2189.0999999940395","","image-keyboard-response","247","369269","0.0-247.0","31N2WW6R9SCYSNVYKK5MUXAK148F3G","AI5RMOS8R652G","3DZKABX2ZIR9F0FDMQGPG3LEN12CVN","","img/set1/S1.jpg","72","1","structured_load","83","structured_load,structured_incentive,structured_normal,random","2,3,2,1,3,4","2,4,1,3","false","","",""
"null","","html-keyboard-response","248","369624","0.0-248.0","31N2WW6R9SCYSNVYKK5MUXAK148F3G","AI5RMOS8R652G","3DZKABX2ZIR9F0FDMQGPG3LEN12CVN","","<img src=""img/set1/S1.jpg"" width=""540"" height = ""360"">","null","","","","","","","","","",""
"null","","html-keyboard-response","249","369827","0.0-249.0","31N2WW6R9SCYSNVYKK5MUXAK148F3G","AI5RMOS8R652G","3DZKABX2ZIR9F0FDMQGPG3LEN12CVN","","","null","","","","","","","","","",""
"1073.9000000059605","","image-keyboard-response","250","370903","0.0-250.0","31N2WW6R9SCYSNVYKK5MUXAK148F3G","AI5RMOS8R652G","3DZKABX2ZIR9F0FDMQGPG3LEN12CVN","","img/set1/S4.jpg","74","4","structured_load","74","structured_load,structured_incentive,structured_normal,random","2,3,2,1,3,4","2,4,1,3","true","","",""
"null","","html-keyboard-response","251","371262","0.0-251.0","31N2WW6R9SCYSNVYKK5MUXAK148F3G","AI5RMOS8R652G","3DZKABX2ZIR9F0FDMQGPG3LEN12CVN","","<img src=""img/set1/S4.jpg"" width=""540"" height = ""360"" style=""border:16px solid orange"">","null","","","","","","","","","",""
"null","","html-keyboard-response","252","371464","0.0-252.0","31N2WW6R9SCYSNVYKK5MUXAK148F3G","AI5RMOS8R652G","3DZKABX2ZIR9F0FDMQGPG3LEN12CVN","","","null","","","","","","","","","",""
"1014.1000000238419","","image-keyboard-response","253","372480","0.0-253.0","31N2WW6R9SCYSNVYKK5MUXAK148F3G","AI5RMOS8R652G","3DZKABX2ZIR9F0FDMQGPG3LEN12CVN","","img/set1/S4.jpg","74","4","structured_load","74","structured_load,structured_incentive,structured_normal,random","2,3,2,1,3,4","2,4,1,3","true","","",""
"null","","html-keyboard-response","254","372835","0.0-254.0","31N2WW6R9SCYSNVYKK5MUXAK148F3G","AI5RMOS8R652G","3DZKABX2ZIR9F0FDMQGPG3LEN12CVN","","<img src=""img/set1/S4.jpg"" width=""540"" height = ""360"" style=""border:16px solid orange"">","null","","","","","","","","","",""
"null","","html-keyboard-response","255","373039","0.0-255.0","31N2WW6R9SCYSNVYKK5MUXAK148F3G","AI5RMOS8R652G","3DZKABX2ZIR9F0FDMQGPG3LEN12CVN","","","null","","","","","","","","","",""
"873.8999999761581","","image-keyboard-response","256","373915","0.0-256.0","31N2WW6R9SCYSNVYKK5MUXAK148F3G","AI5RMOS8R652G","3DZKABX2ZIR9F0FDMQGPG3LEN12CVN","","img/set1/S1.jpg","83","1","structured_load","83","structured_load,structured_incentive,structured_normal,random","2,3,2,1,3,4","2,4,1,3","true","","",""
"null","","html-keyboard-response","257","374272","0.0-257.0","31N2WW6R9SCYSNVYKK5MUXAK148F3G","AI5RMOS8R652G","3DZKABX2ZIR9F0FDMQGPG3LEN12CVN","","<img src=""img/set1/S1.jpg"" width=""540"" height = ""360"" style=""border:16px solid orange"">","null","","","","","","","","","",""
"null","","html-keyboard-response","258","374478","0.0-258.0","31N2WW6R9SCYSNVYKK5MUXAK148F3G","AI5RMOS8R652G","3DZKABX2ZIR9F0FDMQGPG3LEN12CVN","","","null","","","","","","","","","",""
"431.5","","image-keyboard-response","259","374911","0.0-259.0","31N2WW6R9SCYSNVYKK5MUXAK148F3G","AI5RMOS8R652G","3DZKABX2ZIR9F0FDMQGPG3LEN12CVN","","img/set1/S1.jpg","83","1","structured_load","83","structured_load,structured_incentive,structured_normal,random","2,3,2,1,3,4","2,4,1,3","true","","",""
"null","","html-keyboard-response","260","375267","0.0-260.0","31N2WW6R9SCYSNVYKK5MUXAK148F3G","AI5RMOS8R652G","3DZKABX2ZIR9F0FDMQGPG3LEN12CVN","","<img src=""img/set1/S1.jpg"" width=""540"" height = ""360"" style=""border:16px solid orange"">","null","","","","","","","","","",""
"null","","html-keyboard-response","261","375473","0.0-261.0","31N2WW6R9SCYSNVYKK5MUXAK148F3G","AI5RMOS8R652G","3DZKABX2ZIR9F0FDMQGPG3LEN12CVN","","","null","","","","","","","","","",""
"988.9000000059605","","image-keyboard-response","262","376466","0.0-262.0","31N2WW6R9SCYSNVYKK5MUXAK148F3G","AI5RMOS8R652G","3DZKABX2ZIR9F0FDMQGPG3LEN12CVN","","img/set1/S2.jpg","68","2","structured_load","68","structured_load,structured_incentive,structured_normal,random","2,3,2,1,3,4","2,4,1,3","true","","",""
"null","","html-keyboard-response","263","376821","0.0-263.0","31N2WW6R9SCYSNVYKK5MUXAK148F3G","AI5RMOS8R652G","3DZKABX2ZIR9F0FDMQGPG3LEN12CVN","","<img src=""img/set1/S2.jpg"" width=""540"" height = ""360"" style=""border:16px solid orange"">","null","","","","","","","","","",""
"null","","html-keyboard-response","264","377026","0.0-264.0","31N2WW6R9SCYSNVYKK5MUXAK148F3G","AI5RMOS8R652G","3DZKABX2ZIR9F0FDMQGPG3LEN12CVN","","","null","","","","","","","","","",""
"null","","image-keyboard-response","265","379528","0.0-265.0","31N2WW6R9SCYSNVYKK5MUXAK148F3G","AI5RMOS8R652G","3DZKABX2ZIR9F0FDMQGPG3LEN12CVN","","img/set1/S3.jpg","null","3","structured_load","72","structured_load,structured_incentive,structured_normal,random","2,3,2,1,3,4","2,4,1,3","false","","",""
"null","","html-keyboard-response","266","379885","0.0-266.0","31N2WW6R9SCYSNVYKK5MUXAK148F3G","AI5RMOS8R652G","3DZKABX2ZIR9F0FDMQGPG3LEN12CVN","","<img src=""img/set1/S3.jpg"" width=""540"" height = ""360"">","null","","","","","","","","","",""
"null","","html-keyboard-response","267","380089","0.0-267.0","31N2WW6R9SCYSNVYKK5MUXAK148F3G","AI5RMOS8R652G","3DZKABX2ZIR9F0FDMQGPG3LEN12CVN","","","null","","","","","","","","","",""
"667.4000000059605","","image-keyboard-response","268","380759","0.0-268.0","31N2WW6R9SCYSNVYKK5MUXAK148F3G","AI5RMOS8R652G","3DZKABX2ZIR9F0FDMQGPG3LEN12CVN","","img/set1/S2.jpg","68","2","structured_load","68","structured_load,structured_incentive,structured_normal,random","2,3,2,1,3,4","2,4,1,3","true","","",""
"null","","html-keyboard-response","269","381112","0.0-269.0","31N2WW6R9SCYSNVYKK5MUXAK148F3G","AI5RMOS8R652G","3DZKABX2ZIR9F0FDMQGPG3LEN12CVN","","<img src=""img/set1/S2.jpg"" width=""540"" height = ""360"" style=""border:16px solid orange"">","null","","","","","","","","","",""
"null","","html-keyboard-response","270","381316","0.0-270.0","31N2WW6R9SCYSNVYKK5MUXAK148F3G","AI5RMOS8R652G","3DZKABX2ZIR9F0FDMQGPG3LEN12CVN","","","null","","","","","","","","","",""
"1179.199999988079","","image-keyboard-response","271","382498","0.0-271.0","31N2WW6R9SCYSNVYKK5MUXAK148F3G","AI5RMOS8R652G","3DZKABX2ZIR9F0FDMQGPG3LEN12CVN","","img/set1/S3.jpg","74","3","structured_load","72","structured_load,structured_incentive,structured_normal,random","2,3,2,1,3,4","2,4,1,3","false","","",""
"null","","html-keyboard-response","272","382856","0.0-272.0","31N2WW6R9SCYSNVYKK5MUXAK148F3G","AI5RMOS8R652G","3DZKABX2ZIR9F0FDMQGPG3LEN12CVN","","<img src=""img/set1/S3.jpg"" width=""540"" height = ""360"">","null","","","","","","","","","",""
"null","","html-keyboard-response","273","383059","0.0-273.0","31N2WW6R9SCYSNVYKK5MUXAK148F3G","AI5RMOS8R652G","3DZKABX2ZIR9F0FDMQGPG3LEN12CVN","","","null","","","","","","","","","",""
"840.5999999940395","","image-keyboard-response","274","383902","0.0-274.0","31N2WW6R9SCYSNVYKK5MUXAK148F3G","AI5RMOS8R652G","3DZKABX2ZIR9F0FDMQGPG3LEN12CVN","","img/set1/S1.jpg","83","1","structured_load","83","structured_load,structured_incentive,structured_normal,random","2,3,2,1,3,4","2,4,1,3","true","","",""
"null","","html-keyboard-response","275","384259","0.0-275.0","31N2WW6R9SCYSNVYKK5MUXAK148F3G","AI5RMOS8R652G","3DZKABX2ZIR9F0FDMQGPG3LEN12CVN","","<img src=""img/set1/S1.jpg"" width=""540"" height = ""360"" style=""border:16px solid orange"">","null","","","","","","","","","",""
"null","","html-keyboard-response","276","384461","0.0-276.0","31N2WW6R9SCYSNVYKK5MUXAK148F3G","AI5RMOS8R652G","3DZKABX2ZIR9F0FDMQGPG3LEN12CVN","","","null","","","","","","","","","",""
"1044.199999988079","","image-keyboard-response","277","385507","0.0-277.0","31N2WW6R9SCYSNVYKK5MUXAK148F3G","AI5RMOS8R652G","3DZKABX2ZIR9F0FDMQGPG3LEN12CVN","","img/set1/S1.jpg","83","1","structured_load","83","structured_load,structured_incentive,structured_normal,random","2,3,2,1,3,4","2,4,1,3","true","","",""
"null","","html-keyboard-response","278","385864","0.0-278.0","31N2WW6R9SCYSNVYKK5MUXAK148F3G","AI5RMOS8R652G","3DZKABX2ZIR9F0FDMQGPG3LEN12CVN","","<img src=""img/set1/S1.jpg"" width=""540"" height = ""360"" style=""border:16px solid orange"">","null","","","","","","","","","",""
"null","","html-keyboard-response","279","386067","0.0-279.0","31N2WW6R9SCYSNVYKK5MUXAK148F3G","AI5RMOS8R652G","3DZKABX2ZIR9F0FDMQGPG3LEN12CVN","","","null","","","","","","","","","",""
"712.5","","image-keyboard-response","280","386782","0.0-280.0","31N2WW6R9SCYSNVYKK5MUXAK148F3G","AI5RMOS8R652G","3DZKABX2ZIR9F0FDMQGPG3LEN12CVN","","img/set1/S1.jpg","83","1","structured_load","83","structured_load,structured_incentive,structured_normal,random","2,3,2,1,3,4","2,4,1,3","true","","",""
"null","","html-keyboard-response","281","387139","0.0-281.0","31N2WW6R9SCYSNVYKK5MUXAK148F3G","AI5RMOS8R652G","3DZKABX2ZIR9F0FDMQGPG3LEN12CVN","","<img src=""img/set1/S1.jpg"" width=""540"" height = ""360"" style=""border:16px solid orange"">","null","","","","","","","","","",""
"null","","html-keyboard-response","282","387342","0.0-282.0","31N2WW6R9SCYSNVYKK5MUXAK148F3G","AI5RMOS8R652G","3DZKABX2ZIR9F0FDMQGPG3LEN12CVN","","","null","","","","","","","","","",""
"571.2999999821186","","image-keyboard-response","283","387916","0.0-283.0","31N2WW6R9SCYSNVYKK5MUXAK148F3G","AI5RMOS8R652G","3DZKABX2ZIR9F0FDMQGPG3LEN12CVN","","img/set1/S4.jpg","74","4","structured_load","74","structured_load,structured_incentive,structured_normal,random","2,3,2,1,3,4","2,4,1,3","true","","",""
"null","","html-keyboard-response","284","388272","0.0-284.0","31N2WW6R9SCYSNVYKK5MUXAK148F3G","AI5RMOS8R652G","3DZKABX2ZIR9F0FDMQGPG3LEN12CVN","","<img src=""img/set1/S4.jpg"" width=""540"" height = ""360"" style=""border:16px solid orange"">","null","","","","","","","","","",""
"null","","html-keyboard-response","285","388477","0.0-285.0","31N2WW6R9SCYSNVYKK5MUXAK148F3G","AI5RMOS8R652G","3DZKABX2ZIR9F0FDMQGPG3LEN12CVN","","","null","","","","","","","","","",""
"946.1000000238419","","image-keyboard-response","286","389424","0.0-286.0","31N2WW6R9SCYSNVYKK5MUXAK148F3G","AI5RMOS8R652G","3DZKABX2ZIR9F0FDMQGPG3LEN12CVN","","img/set1/S1.jpg","83","1","structured_load","83","structured_load,structured_incentive,structured_normal,random","2,3,2,1,3,4","2,4,1,3","true","","",""
"null","","html-keyboard-response","287","389779","0.0-287.0","31N2WW6R9SCYSNVYKK5MUXAK148F3G","AI5RMOS8R652G","3DZKABX2ZIR9F0FDMQGPG3LEN12CVN","","<img src=""img/set1/S1.jpg"" width=""540"" height = ""360"" style=""border:16px solid orange"">","null","","","","","","","","","",""
"null","","html-keyboard-response","288","389982","0.0-288.0","31N2WW6R9SCYSNVYKK5MUXAK148F3G","AI5RMOS8R652G","3DZKABX2ZIR9F0FDMQGPG3LEN12CVN","","","null","","","","","","","","","",""
"619.5","","image-keyboard-response","289","390604","0.0-289.0","31N2WW6R9SCYSNVYKK5MUXAK148F3G","AI5RMOS8R652G","3DZKABX2ZIR9F0FDMQGPG3LEN12CVN","","img/set1/S1.jpg","83","1","structured_load","83","structured_load,structured_incentive,structured_normal,random","2,3,2,1,3,4","2,4,1,3","true","","",""
"null","","html-keyboard-response","290","390960","0.0-290.0","31N2WW6R9SCYSNVYKK5MUXAK148F3G","AI5RMOS8R652G","3DZKABX2ZIR9F0FDMQGPG3LEN12CVN","","<img src=""img/set1/S1.jpg"" width=""540"" height = ""360"" style=""border:16px solid orange"">","null","","","","","","","","","",""
"null","","html-keyboard-response","291","391166","0.0-291.0","31N2WW6R9SCYSNVYKK5MUXAK148F3G","AI5RMOS8R652G","3DZKABX2ZIR9F0FDMQGPG3LEN12CVN","","","null","","","","","","","","","",""
"1459.5","","image-keyboard-response","292","392628","0.0-292.0","31N2WW6R9SCYSNVYKK5MUXAK148F3G","AI5RMOS8R652G","3DZKABX2ZIR9F0FDMQGPG3LEN12CVN","","img/set1/S2.jpg","68","2","structured_load","68","structured_load,structured_incentive,structured_normal,random","2,3,2,1,3,4","2,4,1,3","true","","",""
"null","","html-keyboard-response","293","392985","0.0-293.0","31N2WW6R9SCYSNVYKK5MUXAK148F3G","AI5RMOS8R652G","3DZKABX2ZIR9F0FDMQGPG3LEN12CVN","","<img src=""img/set1/S2.jpg"" width=""540"" height = ""360"" style=""border:16px solid orange"">","null","","","","","","","","","",""
"null","","html-keyboard-response","294","393189","0.0-294.0","31N2WW6R9SCYSNVYKK5MUXAK148F3G","AI5RMOS8R652G","3DZKABX2ZIR9F0FDMQGPG3LEN12CVN","","","null","","","","","","","","","",""
"1922.5999999940395","","image-keyboard-response","295","395114","0.0-295.0","31N2WW6R9SCYSNVYKK5MUXAK148F3G","AI5RMOS8R652G","3DZKABX2ZIR9F0FDMQGPG3LEN12CVN","","img/set1/S3.jpg","74","3","structured_load","72","structured_load,structured_incentive,structured_normal,random","2,3,2,1,3,4","2,4,1,3","false","","",""
"null","","html-keyboard-response","296","395470","0.0-296.0","31N2WW6R9SCYSNVYKK5MUXAK148F3G","AI5RMOS8R652G","3DZKABX2ZIR9F0FDMQGPG3LEN12CVN","","<img src=""img/set1/S3.jpg"" width=""540"" height = ""360"">","null","","","","","","","","","",""
"null","","html-keyboard-response","297","395677","0.0-297.0","31N2WW6R9SCYSNVYKK5MUXAK148F3G","AI5RMOS8R652G","3DZKABX2ZIR9F0FDMQGPG3LEN12CVN","","","null","","","","","","","","","",""
"674.3999999761581","","image-keyboard-response","298","396354","0.0-298.0","31N2WW6R9SCYSNVYKK5MUXAK148F3G","AI5RMOS8R652G","3DZKABX2ZIR9F0FDMQGPG3LEN12CVN","","img/set1/S1.jpg","68","1","structured_load","83","structured_load,structured_incentive,structured_normal,random","2,3,2,1,3,4","2,4,1,3","false","","",""
"null","","html-keyboard-response","299","396707","0.0-299.0","31N2WW6R9SCYSNVYKK5MUXAK148F3G","AI5RMOS8R652G","3DZKABX2ZIR9F0FDMQGPG3LEN12CVN","","<img src=""img/set1/S1.jpg"" width=""540"" height = ""360"">","null","","","","","","","","","",""
"null","","html-keyboard-response","300","396910","0.0-300.0","31N2WW6R9SCYSNVYKK5MUXAK148F3G","AI5RMOS8R652G","3DZKABX2ZIR9F0FDMQGPG3LEN12CVN","","","null","","","","","","","","","",""
"762.0999999940395","","image-keyboard-response","301","397675","0.0-301.0","31N2WW6R9SCYSNVYKK5MUXAK148F3G","AI5RMOS8R652G","3DZKABX2ZIR9F0FDMQGPG3LEN12CVN","","img/set1/S1.jpg","83","1","structured_load","83","structured_load,structured_incentive,structured_normal,random","2,3,2,1,3,4","2,4,1,3","true","","",""
"null","","html-keyboard-response","302","398030","0.0-302.0","31N2WW6R9SCYSNVYKK5MUXAK148F3G","AI5RMOS8R652G","3DZKABX2ZIR9F0FDMQGPG3LEN12CVN","","<img src=""img/set1/S1.jpg"" width=""540"" height = ""360"" style=""border:16px solid orange"">","null","","","","","","","","","",""
"null","","html-keyboard-response","303","398231","0.0-303.0","31N2WW6R9SCYSNVYKK5MUXAK148F3G","AI5RMOS8R652G","3DZKABX2ZIR9F0FDMQGPG3LEN12CVN","","","null","","","","","","","","","",""
"601.3999999761581","","image-keyboard-response","304","398834","0.0-304.0","31N2WW6R9SCYSNVYKK5MUXAK148F3G","AI5RMOS8R652G","3DZKABX2ZIR9F0FDMQGPG3LEN12CVN","","img/set1/S2.jpg","68","2","structured_load","68","structured_load,structured_incentive,structured_normal,random","2,3,2,1,3,4","2,4,1,3","true","","",""
"null","","html-keyboard-response","305","399190","0.0-305.0","31N2WW6R9SCYSNVYKK5MUXAK148F3G","AI5RMOS8R652G","3DZKABX2ZIR9F0FDMQGPG3LEN12CVN","","<img src=""img/set1/S2.jpg"" width=""540"" height = ""360"" style=""border:16px solid orange"">","null","","","","","","","","","",""
"null","","html-keyboard-response","306","399395","0.0-306.0","31N2WW6R9SCYSNVYKK5MUXAK148F3G","AI5RMOS8R652G","3DZKABX2ZIR9F0FDMQGPG3LEN12CVN","","","null","","","","","","","","","",""
"null","","image-keyboard-response","307","401901","0.0-307.0","31N2WW6R9SCYSNVYKK5MUXAK148F3G","AI5RMOS8R652G","3DZKABX2ZIR9F0FDMQGPG3LEN12CVN","","img/set1/S3.jpg","null","3","structured_load","72","structured_load,structured_incentive,structured_normal,random","2,3,2,1,3,4","2,4,1,3","false","","",""
"null","","html-keyboard-response","308","402255","0.0-308.0","31N2WW6R9SCYSNVYKK5MUXAK148F3G","AI5RMOS8R652G","3DZKABX2ZIR9F0FDMQGPG3LEN12CVN","","<img src=""img/set1/S3.jpg"" width=""540"" height = ""360"">","null","","","","","","","","","",""
"null","","html-keyboard-response","309","402461","0.0-309.0","31N2WW6R9SCYSNVYKK5MUXAK148F3G","AI5RMOS8R652G","3DZKABX2ZIR9F0FDMQGPG3LEN12CVN","","","null","","","","","","","","","",""
"773.8000000119209","","image-keyboard-response","310","403237","0.0-310.0","31N2WW6R9SCYSNVYKK5MUXAK148F3G","AI5RMOS8R652G","3DZKABX2ZIR9F0FDMQGPG3LEN12CVN","","img/set1/S1.jpg","68","1","structured_load","83","structured_load,structured_incentive,structured_normal,random","2,3,2,1,3,4","2,4,1,3","false","","",""
"null","","html-keyboard-response","311","403593","0.0-311.0","31N2WW6R9SCYSNVYKK5MUXAK148F3G","AI5RMOS8R652G","3DZKABX2ZIR9F0FDMQGPG3LEN12CVN","","<img src=""img/set1/S1.jpg"" width=""540"" height = ""360"">","null","","","","","","","","","",""
"null","","html-keyboard-response","312","403795","0.0-312.0","31N2WW6R9SCYSNVYKK5MUXAK148F3G","AI5RMOS8R652G","3DZKABX2ZIR9F0FDMQGPG3LEN12CVN","","","null","","","","","","","","","",""
"857.5","","image-keyboard-response","313","404655","0.0-313.0","31N2WW6R9SCYSNVYKK5MUXAK148F3G","AI5RMOS8R652G","3DZKABX2ZIR9F0FDMQGPG3LEN12CVN","","img/set1/S4.jpg","74","4","structured_load","74","structured_load,structured_incentive,structured_normal,random","2,3,2,1,3,4","2,4,1,3","true","","",""
"null","","html-keyboard-response","314","405013","0.0-314.0","31N2WW6R9SCYSNVYKK5MUXAK148F3G","AI5RMOS8R652G","3DZKABX2ZIR9F0FDMQGPG3LEN12CVN","","<img src=""img/set1/S4.jpg"" width=""540"" height = ""360"" style=""border:16px solid orange"">","null","","","","","","","","","",""
"null","","html-keyboard-response","315","405219","0.0-315.0","31N2WW6R9SCYSNVYKK5MUXAK148F3G","AI5RMOS8R652G","3DZKABX2ZIR9F0FDMQGPG3LEN12CVN","","","null","","","","","","","","","",""
"719.6999999880791","","image-keyboard-response","316","405942","0.0-316.0","31N2WW6R9SCYSNVYKK5MUXAK148F3G","AI5RMOS8R652G","3DZKABX2ZIR9F0FDMQGPG3LEN12CVN","","img/set1/S2.jpg","68","2","structured_load","68","structured_load,structured_incentive,structured_normal,random","2,3,2,1,3,4","2,4,1,3","true","","",""
"null","","html-keyboard-response","317","406297","0.0-317.0","31N2WW6R9SCYSNVYKK5MUXAK148F3G","AI5RMOS8R652G","3DZKABX2ZIR9F0FDMQGPG3LEN12CVN","","<img src=""img/set1/S2.jpg"" width=""540"" height = ""360"" style=""border:16px solid orange"">","null","","","","","","","","","",""
"null","","html-keyboard-response","318","406498","0.0-318.0","31N2WW6R9SCYSNVYKK5MUXAK148F3G","AI5RMOS8R652G","3DZKABX2ZIR9F0FDMQGPG3LEN12CVN","","","null","","","","","","","","","",""
"946.1999999880791","","image-keyboard-response","319","407446","0.0-319.0","31N2WW6R9SCYSNVYKK5MUXAK148F3G","AI5RMOS8R652G","3DZKABX2ZIR9F0FDMQGPG3LEN12CVN","","img/set1/S3.jpg","74","3","structured_load","72","structured_load,structured_incentive,structured_normal,random","2,3,2,1,3,4","2,4,1,3","false","","",""
"null","","html-keyboard-response","320","407801","0.0-320.0","31N2WW6R9SCYSNVYKK5MUXAK148F3G","AI5RMOS8R652G","3DZKABX2ZIR9F0FDMQGPG3LEN12CVN","","<img src=""img/set1/S3.jpg"" width=""540"" height = ""360"">","null","","","","","","","","","",""
"null","","html-keyboard-response","321","408006","0.0-321.0","31N2WW6R9SCYSNVYKK5MUXAK148F3G","AI5RMOS8R652G","3DZKABX2ZIR9F0FDMQGPG3LEN12CVN","","","null","","","","","","","","","",""
"686.5999999940395","","image-keyboard-response","322","408695","0.0-322.0","31N2WW6R9SCYSNVYKK5MUXAK148F3G","AI5RMOS8R652G","3DZKABX2ZIR9F0FDMQGPG3LEN12CVN","","img/set1/S2.jpg","68","2","structured_load","68","structured_load,structured_incentive,structured_normal,random","2,3,2,1,3,4","2,4,1,3","true","","",""
"null","","html-keyboard-response","323","409053","0.0-323.0","31N2WW6R9SCYSNVYKK5MUXAK148F3G","AI5RMOS8R652G","3DZKABX2ZIR9F0FDMQGPG3LEN12CVN","","<img src=""img/set1/S2.jpg"" width=""540"" height = ""360"" style=""border:16px solid orange"">","null","","","","","","","","","",""
"null","","html-keyboard-response","324","409255","0.0-324.0","31N2WW6R9SCYSNVYKK5MUXAK148F3G","AI5RMOS8R652G","3DZKABX2ZIR9F0FDMQGPG3LEN12CVN","","","null","","","","","","","","","",""
"457.19999998807907","","image-keyboard-response","325","409714","0.0-325.0","31N2WW6R9SCYSNVYKK5MUXAK148F3G","AI5RMOS8R652G","3DZKABX2ZIR9F0FDMQGPG3LEN12CVN","","img/set1/S3.jpg","72","3","structured_load","72","structured_load,structured_incentive,structured_normal,random","2,3,2,1,3,4","2,4,1,3","true","","",""
"null","","html-keyboard-response","326","410066","0.0-326.0","31N2WW6R9SCYSNVYKK5MUXAK148F3G","AI5RMOS8R652G","3DZKABX2ZIR9F0FDMQGPG3LEN12CVN","","<img src=""img/set1/S3.jpg"" width=""540"" height = ""360"" style=""border:16px solid orange"">","null","","","","","","","","","",""
"null","","html-keyboard-response","327","410269","0.0-327.0","31N2WW6R9SCYSNVYKK5MUXAK148F3G","AI5RMOS8R652G","3DZKABX2ZIR9F0FDMQGPG3LEN12CVN","","","null","","","","","","","","","",""
"746.7999999821186","","image-keyboard-response","328","411017","0.0-328.0","31N2WW6R9SCYSNVYKK5MUXAK148F3G","AI5RMOS8R652G","3DZKABX2ZIR9F0FDMQGPG3LEN12CVN","","img/set1/S1.jpg","83","1","structured_load","83","structured_load,structured_incentive,structured_normal,random","2,3,2,1,3,4","2,4,1,3","true","","",""
"null","","html-keyboard-response","329","411374","0.0-329.0","31N2WW6R9SCYSNVYKK5MUXAK148F3G","AI5RMOS8R652G","3DZKABX2ZIR9F0FDMQGPG3LEN12CVN","","<img src=""img/set1/S1.jpg"" width=""540"" height = ""360"" style=""border:16px solid orange"">","null","","","","","","","","","",""
"null","","html-keyboard-response","330","411576","0.0-330.0","31N2WW6R9SCYSNVYKK5MUXAK148F3G","AI5RMOS8R652G","3DZKABX2ZIR9F0FDMQGPG3LEN12CVN","","","null","","","","","","","","","",""
"728","","image-keyboard-response","331","412306","0.0-331.0","31N2WW6R9SCYSNVYKK5MUXAK148F3G","AI5RMOS8R652G","3DZKABX2ZIR9F0FDMQGPG3LEN12CVN","","img/set1/S4.jpg","74","4","structured_load","74","structured_load,structured_incentive,structured_normal,random","2,3,2,1,3,4","2,4,1,3","true","","",""
"null","","html-keyboard-response","332","412658","0.0-332.0","31N2WW6R9SCYSNVYKK5MUXAK148F3G","AI5RMOS8R652G","3DZKABX2ZIR9F0FDMQGPG3LEN12CVN","","<img src=""img/set1/S4.jpg"" width=""540"" height = ""360"" style=""border:16px solid orange"">","null","","","","","","","","","",""
"null","","html-keyboard-response","333","412861","0.0-333.0","31N2WW6R9SCYSNVYKK5MUXAK148F3G","AI5RMOS8R652G","3DZKABX2ZIR9F0FDMQGPG3LEN12CVN","","","null","","","","","","","","","",""
"625","","image-keyboard-response","334","413487","0.0-334.0","31N2WW6R9SCYSNVYKK5MUXAK148F3G","AI5RMOS8R652G","3DZKABX2ZIR9F0FDMQGPG3LEN12CVN","","img/set1/S2.jpg","83","2","structured_load","68","structured_load,structured_incentive,structured_normal,random","2,3,2,1,3,4","2,4,1,3","false","","",""
"null","","html-keyboard-response","335","413843","0.0-335.0","31N2WW6R9SCYSNVYKK5MUXAK148F3G","AI5RMOS8R652G","3DZKABX2ZIR9F0FDMQGPG3LEN12CVN","","<img src=""img/set1/S2.jpg"" width=""540"" height = ""360"">","null","","","","","","","","","",""
"null","","html-keyboard-response","336","414046","0.0-336.0","31N2WW6R9SCYSNVYKK5MUXAK148F3G","AI5RMOS8R652G","3DZKABX2ZIR9F0FDMQGPG3LEN12CVN","","","null","","","","","","","","","",""
"1080.199999988079","","image-keyboard-response","337","415128","0.0-337.0","31N2WW6R9SCYSNVYKK5MUXAK148F3G","AI5RMOS8R652G","3DZKABX2ZIR9F0FDMQGPG3LEN12CVN","","img/set1/S3.jpg","72","3","structured_load","72","structured_load,structured_incentive,structured_normal,random","2,3,2,1,3,4","2,4,1,3","true","","",""
"null","","html-keyboard-response","338","415481","0.0-338.0","31N2WW6R9SCYSNVYKK5MUXAK148F3G","AI5RMOS8R652G","3DZKABX2ZIR9F0FDMQGPG3LEN12CVN","","<img src=""img/set1/S3.jpg"" width=""540"" height = ""360"" style=""border:16px solid orange"">","null","","","","","","","","","",""
"null","","html-keyboard-response","339","415683","0.0-339.0","31N2WW6R9SCYSNVYKK5MUXAK148F3G","AI5RMOS8R652G","3DZKABX2ZIR9F0FDMQGPG3LEN12CVN","","","null","","","","","","","","","",""
"799.0999999940395","","image-keyboard-response","340","416484","0.0-340.0","31N2WW6R9SCYSNVYKK5MUXAK148F3G","AI5RMOS8R652G","3DZKABX2ZIR9F0FDMQGPG3LEN12CVN","","img/set1/S4.jpg","74","4","structured_load","74","structured_load,structured_incentive,structured_normal,random","2,3,2,1,3,4","2,4,1,3","true","","",""
"null","","html-keyboard-response","341","416841","0.0-341.0","31N2WW6R9SCYSNVYKK5MUXAK148F3G","AI5RMOS8R652G","3DZKABX2ZIR9F0FDMQGPG3LEN12CVN","","<img src=""img/set1/S4.jpg"" width=""540"" height = ""360"" style=""border:16px solid orange"">","null","","","","","","","","","",""
"null","","html-keyboard-response","342","417045","0.0-342.0","31N2WW6R9SCYSNVYKK5MUXAK148F3G","AI5RMOS8R652G","3DZKABX2ZIR9F0FDMQGPG3LEN12CVN","","","null","","","","","","","","","",""
"945.5999999940395","","image-keyboard-response","343","417992","0.0-343.0","31N2WW6R9SCYSNVYKK5MUXAK148F3G","AI5RMOS8R652G","3DZKABX2ZIR9F0FDMQGPG3LEN12CVN","","img/set1/S1.jpg","83","1","structured_load","83","structured_load,structured_incentive,structured_normal,random","2,3,2,1,3,4","2,4,1,3","true","","",""
"null","","html-keyboard-response","344","418349","0.0-344.0","31N2WW6R9SCYSNVYKK5MUXAK148F3G","AI5RMOS8R652G","3DZKABX2ZIR9F0FDMQGPG3LEN12CVN","","<img src=""img/set1/S1.jpg"" width=""540"" height = ""360"" style=""border:16px solid orange"">","null","","","","","","","","","",""
"null","","html-keyboard-response","345","418553","0.0-345.0","31N2WW6R9SCYSNVYKK5MUXAK148F3G","AI5RMOS8R652G","3DZKABX2ZIR9F0FDMQGPG3LEN12CVN","","","null","","","","","","","","","",""
"438.7999999821186","","image-keyboard-response","346","418994","0.0-346.0","31N2WW6R9SCYSNVYKK5MUXAK148F3G","AI5RMOS8R652G","3DZKABX2ZIR9F0FDMQGPG3LEN12CVN","","img/set1/S2.jpg","68","2","structured_load","68","structured_load,structured_incentive,structured_normal,random","2,3,2,1,3,4","2,4,1,3","true","","",""
"null","","html-keyboard-response","347","419347","0.0-347.0","31N2WW6R9SCYSNVYKK5MUXAK148F3G","AI5RMOS8R652G","3DZKABX2ZIR9F0FDMQGPG3LEN12CVN","","<img src=""img/set1/S2.jpg"" width=""540"" height = ""360"" style=""border:16px solid orange"">","null","","","","","","","","","",""
"null","","html-keyboard-response","348","419550","0.0-348.0","31N2WW6R9SCYSNVYKK5MUXAK148F3G","AI5RMOS8R652G","3DZKABX2ZIR9F0FDMQGPG3LEN12CVN","","","null","","","","","","","","","",""
"1477.699999988079","","image-keyboard-response","349","421030","0.0-349.0","31N2WW6R9SCYSNVYKK5MUXAK148F3G","AI5RMOS8R652G","3DZKABX2ZIR9F0FDMQGPG3LEN12CVN","","img/set1/S3.jpg","72","3","structured_load","72","structured_load,structured_incentive,structured_normal,random","2,3,2,1,3,4","2,4,1,3","true","","",""
"null","","html-keyboard-response","350","421385","0.0-350.0","31N2WW6R9SCYSNVYKK5MUXAK148F3G","AI5RMOS8R652G","3DZKABX2ZIR9F0FDMQGPG3LEN12CVN","","<img src=""img/set1/S3.jpg"" width=""540"" height = ""360"" style=""border:16px solid orange"">","null","","","","","","","","","",""
"null","","html-keyboard-response","351","421590","0.0-351.0","31N2WW6R9SCYSNVYKK5MUXAK148F3G","AI5RMOS8R652G","3DZKABX2ZIR9F0FDMQGPG3LEN12CVN","","","null","","","","","","","","","",""
"779.7999999821186","","image-keyboard-response","352","422371","0.0-352.0","31N2WW6R9SCYSNVYKK5MUXAK148F3G","AI5RMOS8R652G","3DZKABX2ZIR9F0FDMQGPG3LEN12CVN","","img/set1/S2.jpg","68","2","structured_load","68","structured_load,structured_incentive,structured_normal,random","2,3,2,1,3,4","2,4,1,3","true","","",""
"null","","html-keyboard-response","353","422723","0.0-353.0","31N2WW6R9SCYSNVYKK5MUXAK148F3G","AI5RMOS8R652G","3DZKABX2ZIR9F0FDMQGPG3LEN12CVN","","<img src=""img/set1/S2.jpg"" width=""540"" height = ""360"" style=""border:16px solid orange"">","null","","","","","","","","","",""
"null","","html-keyboard-response","354","422926","0.0-354.0","31N2WW6R9SCYSNVYKK5MUXAK148F3G","AI5RMOS8R652G","3DZKABX2ZIR9F0FDMQGPG3LEN12CVN","","","null","","","","","","","","","",""
"495.59999999403954","","image-keyboard-response","355","423424","0.0-355.0","31N2WW6R9SCYSNVYKK5MUXAK148F3G","AI5RMOS8R652G","3DZKABX2ZIR9F0FDMQGPG3LEN12CVN","","img/set1/S3.jpg","72","3","structured_load","72","structured_load,structured_incentive,structured_normal,random","2,3,2,1,3,4","2,4,1,3","true","","",""
"null","","html-keyboard-response","356","423779","0.0-356.0","31N2WW6R9SCYSNVYKK5MUXAK148F3G","AI5RMOS8R652G","3DZKABX2ZIR9F0FDMQGPG3LEN12CVN","","<img src=""img/set1/S3.jpg"" width=""540"" height = ""360"" style=""border:16px solid orange"">","null","","","","","","","","","",""
"null","","html-keyboard-response","357","423982","0.0-357.0","31N2WW6R9SCYSNVYKK5MUXAK148F3G","AI5RMOS8R652G","3DZKABX2ZIR9F0FDMQGPG3LEN12CVN","","","null","","","","","","","","","",""
"721.2999999821186","","image-keyboard-response","358","424706","0.0-358.0","31N2WW6R9SCYSNVYKK5MUXAK148F3G","AI5RMOS8R652G","3DZKABX2ZIR9F0FDMQGPG3LEN12CVN","","img/set1/S1.jpg","83","1","structured_load","83","structured_load,structured_incentive,structured_normal,random","2,3,2,1,3,4","2,4,1,3","true","","",""
"null","","html-keyboard-response","359","425059","0.0-359.0","31N2WW6R9SCYSNVYKK5MUXAK148F3G","AI5RMOS8R652G","3DZKABX2ZIR9F0FDMQGPG3LEN12CVN","","<img src=""img/set1/S1.jpg"" width=""540"" height = ""360"" style=""border:16px solid orange"">","null","","","","","","","","","",""
"null","","html-keyboard-response","360","425262","0.0-360.0","31N2WW6R9SCYSNVYKK5MUXAK148F3G","AI5RMOS8R652G","3DZKABX2ZIR9F0FDMQGPG3LEN12CVN","","","null","","","","","","","","","",""
"820.4000000059605","","image-keyboard-response","361","426084","0.0-361.0","31N2WW6R9SCYSNVYKK5MUXAK148F3G","AI5RMOS8R652G","3DZKABX2ZIR9F0FDMQGPG3LEN12CVN","","img/set1/S4.jpg","74","4","structured_load","74","structured_load,structured_incentive,structured_normal,random","2,3,2,1,3,4","2,4,1,3","true","","",""
"null","","html-keyboard-response","362","426440","0.0-362.0","31N2WW6R9SCYSNVYKK5MUXAK148F3G","AI5RMOS8R652G","3DZKABX2ZIR9F0FDMQGPG3LEN12CVN","","<img src=""img/set1/S4.jpg"" width=""540"" height = ""360"" style=""border:16px solid orange"">","null","","","","","","","","","",""
"null","","html-keyboard-response","363","426644","0.0-363.0","31N2WW6R9SCYSNVYKK5MUXAK148F3G","AI5RMOS8R652G","3DZKABX2ZIR9F0FDMQGPG3LEN12CVN","","","null","","","","","","","","","",""
"9209.09999999404","","survey-multi-choice","364","435856","0.0-364.0","31N2WW6R9SCYSNVYKK5MUXAK148F3G","AI5RMOS8R652G","3DZKABX2ZIR9F0FDMQGPG3LEN12CVN","","","","","","","","","","","{""Q0"":""Picture B""}","[0]",""
"11646.399999976158","","html-keyboard-response","365","447505","0.0-365.0","31N2WW6R9SCYSNVYKK5MUXAK148F3G","AI5RMOS8R652G","3DZKABX2ZIR9F0FDMQGPG3LEN12CVN","","<p class=""center-content"">Underfortunately, the answer you selected was incorrect. </p><p class=""center-content"">Please press any key to continue. </p>","32","","","","","","","","","",""
"4127.5999999940395","","html-keyboard-response","366","451635","0.0-366.0","31N2WW6R9SCYSNVYKK5MUXAK148F3G","AI5RMOS8R652G","3DZKABX2ZIR9F0FDMQGPG3LEN12CVN","","<p class=""center-content"">You have completed a block! </p><p class=""center-content"">Press any key on the keyboard to continue, </p><p class=""center-content"">or wait for the automatic progression to the next block after one minute.</p>","32","","","","","","","","","",""
"12574.5","","instructions","367","464212","0.0-367.0","31N2WW6R9SCYSNVYKK5MUXAK148F3G","AI5RMOS8R652G","3DZKABX2ZIR9F0FDMQGPG3LEN12CVN","[{""page_index"":0,""viewing_time"":12573.600000023842}]","","","","","","","","","","","",""
"52340.90000000596","","instructions","368","516555","0.0-368.0","31N2WW6R9SCYSNVYKK5MUXAK148F3G","AI5RMOS8R652G","3DZKABX2ZIR9F0FDMQGPG3LEN12CVN","[{""page_index"":0,""viewing_time"":22375.59999999404},{""page_index"":1,""viewing_time"":29964.80000001192}]","","","","","","","","","","","",""
"1922.5999999940395","","image-keyboard-response","369","518480","0.0-369.0","31N2WW6R9SCYSNVYKK5MUXAK148F3G","AI5RMOS8R652G","3DZKABX2ZIR9F0FDMQGPG3LEN12CVN","","img/set2/S2.jpg","83","2","structured_incentive","68","structured_load,structured_incentive,structured_normal,random","2,3,2,1,3,4","2,4,1,3","false","","",""
"null","","html-keyboard-response","370","518838","0.0-370.0","31N2WW6R9SCYSNVYKK5MUXAK148F3G","AI5RMOS8R652G","3DZKABX2ZIR9F0FDMQGPG3LEN12CVN","","<img src=""img/set2/S2.jpg"" width=""540"" height = ""360"">","null","","","","","","","","","",""
"null","","html-keyboard-response","371","519043","0.0-371.0","31N2WW6R9SCYSNVYKK5MUXAK148F3G","AI5RMOS8R652G","3DZKABX2ZIR9F0FDMQGPG3LEN12CVN","","","null","","","","","","","","","",""
"830.2000000178814","","image-keyboard-response","372","519875","0.0-372.0","31N2WW6R9SCYSNVYKK5MUXAK148F3G","AI5RMOS8R652G","3DZKABX2ZIR9F0FDMQGPG3LEN12CVN","","img/set2/S1.jpg","68","1","structured_incentive","83","structured_load,structured_incentive,structured_normal,random","2,3,2,1,3,4","2,4,1,3","false","","",""
"null","","html-keyboard-response","373","520229","0.0-373.0","31N2WW6R9SCYSNVYKK5MUXAK148F3G","AI5RMOS8R652G","3DZKABX2ZIR9F0FDMQGPG3LEN12CVN","","<img src=""img/set2/S1.jpg"" width=""540"" height = ""360"">","null","","","","","","","","","",""
"null","","html-keyboard-response","374","520435","0.0-374.0","31N2WW6R9SCYSNVYKK5MUXAK148F3G","AI5RMOS8R652G","3DZKABX2ZIR9F0FDMQGPG3LEN12CVN","","","null","","","","","","","","","",""
"1249","","image-keyboard-response","375","521686","0.0-375.0","31N2WW6R9SCYSNVYKK5MUXAK148F3G","AI5RMOS8R652G","3DZKABX2ZIR9F0FDMQGPG3LEN12CVN","","img/set2/S2.jpg","72","2","structured_incentive","68","structured_load,structured_incentive,structured_normal,random","2,3,2,1,3,4","2,4,1,3","false","","",""
"null","","html-keyboard-response","376","522041","0.0-376.0","31N2WW6R9SCYSNVYKK5MUXAK148F3G","AI5RMOS8R652G","3DZKABX2ZIR9F0FDMQGPG3LEN12CVN","","<img src=""img/set2/S2.jpg"" width=""540"" height = ""360"">","null","","","","","","","","","",""
"null","","html-keyboard-response","377","522245","0.0-377.0","31N2WW6R9SCYSNVYKK5MUXAK148F3G","AI5RMOS8R652G","3DZKABX2ZIR9F0FDMQGPG3LEN12CVN","","","null","","","","","","","","","",""
"1017.1999999880791","","image-keyboard-response","378","523264","0.0-378.0","31N2WW6R9SCYSNVYKK5MUXAK148F3G","AI5RMOS8R652G","3DZKABX2ZIR9F0FDMQGPG3LEN12CVN","","img/set2/S1.jpg","74","1","structured_incentive","83","structured_load,structured_incentive,structured_normal,random","2,3,2,1,3,4","2,4,1,3","false","","",""
"null","","html-keyboard-response","379","523620","0.0-379.0","31N2WW6R9SCYSNVYKK5MUXAK148F3G","AI5RMOS8R652G","3DZKABX2ZIR9F0FDMQGPG3LEN12CVN","","<img src=""img/set2/S1.jpg"" width=""540"" height = ""360"">","null","","","","","","","","","",""
"null","","html-keyboard-response","380","523823","0.0-380.0","31N2WW6R9SCYSNVYKK5MUXAK148F3G","AI5RMOS8R652G","3DZKABX2ZIR9F0FDMQGPG3LEN12CVN","","","null","","","","","","","","","",""
"1656.9000000059605","","image-keyboard-response","381","525482","0.0-381.0","31N2WW6R9SCYSNVYKK5MUXAK148F3G","AI5RMOS8R652G","3DZKABX2ZIR9F0FDMQGPG3LEN12CVN","","img/set2/S2.jpg","83","2","structured_incentive","68","structured_load,structured_incentive,structured_normal,random","2,3,2,1,3,4","2,4,1,3","false","","",""
"null","","html-keyboard-response","382","525837","0.0-382.0","31N2WW6R9SCYSNVYKK5MUXAK148F3G","AI5RMOS8R652G","3DZKABX2ZIR9F0FDMQGPG3LEN12CVN","","<img src=""img/set2/S2.jpg"" width=""540"" height = ""360"">","null","","","","","","","","","",""
"null","","html-keyboard-response","383","526043","0.0-383.0","31N2WW6R9SCYSNVYKK5MUXAK148F3G","AI5RMOS8R652G","3DZKABX2ZIR9F0FDMQGPG3LEN12CVN","","","null","","","","","","","","","",""
"984.2000000178814","","image-keyboard-response","384","527030","0.0-384.0","31N2WW6R9SCYSNVYKK5MUXAK148F3G","AI5RMOS8R652G","3DZKABX2ZIR9F0FDMQGPG3LEN12CVN","","img/set2/S1.jpg","72","1","structured_incentive","83","structured_load,structured_incentive,structured_normal,random","2,3,2,1,3,4","2,4,1,3","false","","",""
