"rt","url","trial_type","trial_index","time_elapsed","internal_node_id","view_history","stimulus","key_press","state","test_part","correct_response","order_block","order_chunk","order_freq","correct","responses","question_order","bonus"
"9559.200000047684","consent.html","external-html","0","9973","0.0-0.0","","","","","","","","","","","","",""
"6271328.700000048","","instructions","1","6281305","0.0-1.0","[{""page_index"":0,""viewing_time"":14128.900000095367},{""page_index"":1,""viewing_time"":18015.799999952316},{""page_index"":2,""viewing_time"":35007.799999952316},{""page_index"":3,""viewing_time"":30815.700000047684},{""page_index"":4,""viewing_time"":17527.900000095367},{""page_index"":3,""viewing_time"":6058056.5},{""page_index"":4,""viewing_time"":16391.700000047684},{""page_index"":5,""viewing_time"":23127.89999985695},{""page_index"":6,""viewing_time"":23112},{""page_index"":5,""viewing_time"":952},{""page_index"":4,""viewing_time"":1303.9000000953674},{""page_index"":3,""viewing_time"":855.8999998569489},{""page_index"":2,""viewing_time"":3512.100000143051},{""page_index"":3,""viewing_time"":3231.899999856949},{""page_index"":2,""viewing_time"":981},{""page_index"":1,""viewing_time"":3058.9000000953674},{""page_index"":0,""viewing_time"":720.0999999046326},{""page_index"":1,""viewing_time"":832.3000001907349},{""page_index"":0,""viewing_time"":919.5999999046326},{""page_index"":1,""viewing_time"":3776.2999999523163},{""page_index"":2,""viewing_time"":9047.700000047684},{""page_index"":3,""viewing_time"":1055.9000000953674},{""page_index"":4,""viewing_time"":1343.8999998569489},{""page_index"":5,""viewing_time"":752.7000000476837},{""page_index"":6,""viewing_time"":2799.2999999523163}]","","","","","","","","","","","",""
"25589.10000014305","","instructions","2","6306897","0.0-2.0","[{""page_index"":0,""viewing_time"":25588.800000190735}]","","","","","","","","","","","",""
"14718.200000047684","","instructions","3","6321616","0.0-3.0","[{""page_index"":0,""viewing_time"":14718}]","","","","","","","","","","","",""
"934.7000000476837","","image-keyboard-response","4","6322553","0.0-4.0","","img/set1/S4.jpg","68","4","structured_normal","74","structured_normal,structured_incentive,random,structured_load","2,3,2,1,3,4","4,3,1,2","false","","",""
"null","","html-keyboard-response","5","6322909","0.0-5.0","","<img src=""img/set1/S4.jpg"" width=""540"" height = ""360"">","null","","","","","","","","","",""
"null","","html-keyboard-response","6","6323114","0.0-6.0","","","null","","","","","","","","","",""
"614","","image-keyboard-response","7","6323729","0.0-7.0","","img/set1/S4.jpg","74","4","structured_normal","74","structured_normal,structured_incentive,random,structured_load","2,3,2,1,3,4","4,3,1,2","true","","",""
"null","","html-keyboard-response","8","6324084","0.0-8.0","","<img src=""img/set1/S4.jpg"" width=""540"" height = ""360"" style=""border:16px solid orange"">","null","","","","","","","","","",""
"null","","html-keyboard-response","9","6324289","0.0-9.0","","","null","","","","","","","","","",""
"646.7999999523163","","image-keyboard-response","10","6324937","0.0-10.0","","img/set1/S2.jpg","74","2","structured_normal","68","structured_normal,structured_incentive,random,structured_load","2,3,2,1,3,4","4,3,1,2","false","","",""
"null","","html-keyboard-response","11","6325290","0.0-11.0","","<img src=""img/set1/S2.jpg"" width=""540"" height = ""360"">","null","","","","","","","","","",""
"null","","html-keyboard-response","12","6325493","0.0-12.0","","","null","","","","","","","","","",""
"2164.2000000476837","","image-keyboard-response","13","6327659","0.0-13.0","","img/set1/S3.jpg","74","3","structured_normal","72","structured_normal,structured_incentive,random,structured_load","2,3,2,1,3,4","4,3,1,2","false","","",""
"null","","html-keyboard-response","14","6328011","0.0-14.0","","<img src=""img/set1/S3.jpg"" width=""540"" height = ""360"">","null","","","","","","","","","",""
"null","","html-keyboard-response","15","6328213","0.0-15.0","","","null","","","","","","","","","",""
"700.8000001907349","","image-keyboard-response","16","6328915","0.0-16.0","","img/set1/S2.jpg","72","2","structured_normal","68","structured_normal,structured_incentive,random,structured_load","2,3,2,1,3,4","4,3,1,2","false","","",""
"null","","html-keyboard-response","17","6329268","0.0-17.0","","<img src=""img/set1/S2.jpg"" width=""540"" height = ""360"">","null","","","","","","","","","",""
"null","","html-keyboard-response","18","6329470","0.0-18.0","","","null","","","","","","","","","",""
"661.6999998092651","","image-keyboard-response","19","6330133","0.0-19.0","","img/set1/S3.jpg","74","3","structured_normal","72","structured_normal,structured_incentive,random,structured_load","2,3,2,1,3,4","4,3,1,2","false","","",""
"null","","html-keyboard-response","20","6330485","0.0-20.0","","<img src=""img/set1/S3.jpg"" width=""540"" height = ""360"">","null","","","","","","","","","",""
"null","","html-keyboard-response","21","6330690","0.0-21.0","","","null","","","","","","","","","",""
"630","","image-keyboard-response","22","6331321","0.0-22.0","","img/set1/S1.jpg","83","1","structured_normal","83","structured_normal,structured_incentive,random,structured_load","2,3,2,1,3,4","4,3,1,2","true","","",""
"null","","html-keyboard-response","23","6331674","0.0-23.0","","<img src=""img/set1/S1.jpg"" width=""540"" height = ""360"" style=""border:16px solid orange"">","null","","","","","","","","","",""
"null","","html-keyboard-response","24","6331876","0.0-24.0","","","null","","","","","","","","","",""
"799.2000000476837","","image-keyboard-response","25","6332677","0.0-25.0","","img/set1/S2.jpg","68","2","structured_normal","68","structured_normal,structured_incentive,random,structured_load","2,3,2,1,3,4","4,3,1,2","true","","",""
"null","","html-keyboard-response","26","6333031","0.0-26.0","","<img src=""img/set1/S2.jpg"" width=""540"" height = ""360"" style=""border:16px solid orange"">","null","","","","","","","","","",""
"null","","html-keyboard-response","27","6333233","0.0-27.0","","","null","","","","","","","","","",""
"928.4000000953674","","image-keyboard-response","28","6334163","0.0-28.0","","img/set1/S3.jpg","72","3","structured_normal","72","structured_normal,structured_incentive,random,structured_load","2,3,2,1,3,4","4,3,1,2","true","","",""
"null","","html-keyboard-response","29","6334519","0.0-29.0","","<img src=""img/set1/S3.jpg"" width=""540"" height = ""360"" style=""border:16px solid orange"">","null","","","","","","","","","",""
"null","","html-keyboard-response","30","6334724","0.0-30.0","","","null","","","","","","","","","",""
"744","","image-keyboard-response","31","6335469","0.0-31.0","","img/set1/S4.jpg","74","4","structured_normal","74","structured_normal,structured_incentive,random,structured_load","2,3,2,1,3,4","4,3,1,2","true","","",""
"null","","html-keyboard-response","32","6335822","0.0-32.0","","<img src=""img/set1/S4.jpg"" width=""540"" height = ""360"" style=""border:16px solid orange"">","null","","","","","","","","","",""
"null","","html-keyboard-response","33","6336023","0.0-33.0","","","null","","","","","","","","","",""
"983.2000000476837","","image-keyboard-response","34","6337008","0.0-34.0","","img/set1/S2.jpg","68","2","structured_normal","68","structured_normal,structured_incentive,random,structured_load","2,3,2,1,3,4","4,3,1,2","true","","",""
"null","","html-keyboard-response","35","6337363","0.0-35.0","","<img src=""img/set1/S2.jpg"" width=""540"" height = ""360"" style=""border:16px solid orange"">","null","","","","","","","","","",""
"null","","html-keyboard-response","36","6337566","0.0-36.0","","","null","","","","","","","","","",""
"1054.5999999046326","","image-keyboard-response","37","6338622","0.0-37.0","","img/set1/S3.jpg","72","3","structured_normal","72","structured_normal,structured_incentive,random,structured_load","2,3,2,1,3,4","4,3,1,2","true","","",""
"null","","html-keyboard-response","38","6338975","0.0-38.0","","<img src=""img/set1/S3.jpg"" width=""540"" height = ""360"" style=""border:16px solid orange"">","null","","","","","","","","","",""
"null","","html-keyboard-response","39","6339177","0.0-39.0","","","null","","","","","","","","","",""
"779.6999998092651","","image-keyboard-response","40","6339958","0.0-40.0","","img/set1/S1.jpg","83","1","structured_normal","83","structured_normal,structured_incentive,random,structured_load","2,3,2,1,3,4","4,3,1,2","true","","",""
"null","","html-keyboard-response","41","6340310","0.0-41.0","","<img src=""img/set1/S1.jpg"" width=""540"" height = ""360"" style=""border:16px solid orange"">","null","","","","","","","","","",""
"null","","html-keyboard-response","42","6340512","0.0-42.0","","","null","","","","","","","","","",""
"1001.2999999523163","","image-keyboard-response","43","6341515","0.0-43.0","","img/set1/S4.jpg","74","4","structured_normal","74","structured_normal,structured_incentive,random,structured_load","2,3,2,1,3,4","4,3,1,2","true","","",""
"null","","html-keyboard-response","44","6341868","0.0-44.0","","<img src=""img/set1/S4.jpg"" width=""540"" height = ""360"" style=""border:16px solid orange"">","null","","","","","","","","","",""
"null","","html-keyboard-response","45","6342071","0.0-45.0","","","null","","","","","","","","","",""
"569.5999999046326","","image-keyboard-response","46","6342641","0.0-46.0","","img/set1/S4.jpg","74","4","structured_normal","74","structured_normal,structured_incentive,random,structured_load","2,3,2,1,3,4","4,3,1,2","true","","",""
"null","","html-keyboard-response","47","6342995","0.0-47.0","","<img src=""img/set1/S4.jpg"" width=""540"" height = ""360"" style=""border:16px solid orange"">","null","","","","","","","","","",""
"null","","html-keyboard-response","48","6343199","0.0-48.0","","","null","","","","","","","","","",""
"889.5999999046326","","image-keyboard-response","49","6344090","0.0-49.0","","img/set1/S2.jpg","68","2","structured_normal","68","structured_normal,structured_incentive,random,structured_load","2,3,2,1,3,4","4,3,1,2","true","","",""
"null","","html-keyboard-response","50","6344445","0.0-50.0","","<img src=""img/set1/S2.jpg"" width=""540"" height = ""360"" style=""border:16px solid orange"">","null","","","","","","","","","",""
"null","","html-keyboard-response","51","6344646","0.0-51.0","","","null","","","","","","","","","",""
"1132","","image-keyboard-response","52","6345779","0.0-52.0","","img/set1/S3.jpg","72","3","structured_normal","72","structured_normal,structured_incentive,random,structured_load","2,3,2,1,3,4","4,3,1,2","true","","",""
"null","","html-keyboard-response","53","6346132","0.0-53.0","","<img src=""img/set1/S3.jpg"" width=""540"" height = ""360"" style=""border:16px solid orange"">","null","","","","","","","","","",""
"null","","html-keyboard-response","54","6346334","0.0-54.0","","","null","","","","","","","","","",""
"896.4000000953674","","image-keyboard-response","55","6347231","0.0-55.0","","img/set1/S1.jpg","83","1","structured_normal","83","structured_normal,structured_incentive,random,structured_load","2,3,2,1,3,4","4,3,1,2","true","","",""
"null","","html-keyboard-response","56","6347583","0.0-56.0","","<img src=""img/set1/S1.jpg"" width=""540"" height = ""360"" style=""border:16px solid orange"">","null","","","","","","","","","",""
"null","","html-keyboard-response","57","6347785","0.0-57.0","","","null","","","","","","","","","",""
"983.8000001907349","","image-keyboard-response","58","6348770","0.0-58.0","","img/set1/S2.jpg","68","2","structured_normal","68","structured_normal,structured_incentive,random,structured_load","2,3,2,1,3,4","4,3,1,2","true","","",""
"null","","html-keyboard-response","59","6349123","0.0-59.0","","<img src=""img/set1/S2.jpg"" width=""540"" height = ""360"" style=""border:16px solid orange"">","null","","","","","","","","","",""
"null","","html-keyboard-response","60","6349327","0.0-60.0","","","null","","","","","","","","","",""
"1076.7999999523163","","image-keyboard-response","61","6350404","0.0-61.0","","img/set1/S3.jpg","72","3","structured_normal","72","structured_normal,structured_incentive,random,structured_load","2,3,2,1,3,4","4,3,1,2","true","","",""
"null","","html-keyboard-response","62","6350765","0.0-62.0","","<img src=""img/set1/S3.jpg"" width=""540"" height = ""360"" style=""border:16px solid orange"">","null","","","","","","","","","",""
"null","","html-keyboard-response","63","6350969","0.0-63.0","","","null","","","","","","","","","",""
"990.9000000953674","","image-keyboard-response","64","6351961","0.0-64.0","","img/set1/S1.jpg","83","1","structured_normal","83","structured_normal,structured_incentive,random,structured_load","2,3,2,1,3,4","4,3,1,2","true","","",""
"null","","html-keyboard-response","65","6352316","0.0-65.0","","<img src=""img/set1/S1.jpg"" width=""540"" height = ""360"" style=""border:16px solid orange"">","null","","","","","","","","","",""
"null","","html-keyboard-response","66","6352518","0.0-66.0","","","null","","","","","","","","","",""
"1316.7000000476837","","image-keyboard-response","67","6353836","0.0-67.0","","img/set1/S1.jpg","83","1","structured_normal","83","structured_normal,structured_incentive,random,structured_load","2,3,2,1,3,4","4,3,1,2","true","","",""
"null","","html-keyboard-response","68","6354190","0.0-68.0","","<img src=""img/set1/S1.jpg"" width=""540"" height = ""360"" style=""border:16px solid orange"">","null","","","","","","","","","",""
"null","","html-keyboard-response","69","6354394","0.0-69.0","","","null","","","","","","","","","",""
"1235.2000000476837","","image-keyboard-response","70","6355632","0.0-70.0","","img/set1/S4.jpg","74","4","structured_normal","74","structured_normal,structured_incentive,random,structured_load","2,3,2,1,3,4","4,3,1,2","true","","",""
"null","","html-keyboard-response","71","6355987","0.0-71.0","","<img src=""img/set1/S4.jpg"" width=""540"" height = ""360"" style=""border:16px solid orange"">","null","","","","","","","","","",""
"null","","html-keyboard-response","72","6356190","0.0-72.0","","","null","","","","","","","","","",""
"827.2999999523163","","image-keyboard-response","73","6357018","0.0-73.0","","img/set1/S2.jpg","68","2","structured_normal","68","structured_normal,structured_incentive,random,structured_load","2,3,2,1,3,4","4,3,1,2","true","","",""
"null","","html-keyboard-response","74","6357370","0.0-74.0","","<img src=""img/set1/S2.jpg"" width=""540"" height = ""360"" style=""border:16px solid orange"">","null","","","","","","","","","",""
"null","","html-keyboard-response","75","6357575","0.0-75.0","","","null","","","","","","","","","",""
"1173.4000000953674","","image-keyboard-response","76","6358749","0.0-76.0","","img/set1/S3.jpg","72","3","structured_normal","72","structured_normal,structured_incentive,random,structured_load","2,3,2,1,3,4","4,3,1,2","true","","",""
"null","","html-keyboard-response","77","6359102","0.0-77.0","","<img src=""img/set1/S3.jpg"" width=""540"" height = ""360"" style=""border:16px solid orange"">","null","","","","","","","","","",""
"null","","html-keyboard-response","78","6359303","0.0-78.0","","","null","","","","","","","","","",""
"796.0999999046326","","image-keyboard-response","79","6360100","0.0-79.0","","img/set1/S4.jpg","74","4","structured_normal","74","structured_normal,structured_incentive,random,structured_load","2,3,2,1,3,4","4,3,1,2","true","","",""
"null","","html-keyboard-response","80","6360452","0.0-80.0","","<img src=""img/set1/S4.jpg"" width=""540"" height = ""360"" style=""border:16px solid orange"">","null","","","","","","","","","",""
"null","","html-keyboard-response","81","6360655","0.0-81.0","","","null","","","","","","","","","",""
"1100.3999998569489","","image-keyboard-response","82","6361756","0.0-82.0","","img/set1/S1.jpg","83","1","structured_normal","83","structured_normal,structured_incentive,random,structured_load","2,3,2,1,3,4","4,3,1,2","true","","",""
"null","","html-keyboard-response","83","6362111","0.0-83.0","","<img src=""img/set1/S1.jpg"" width=""540"" height = ""360"" style=""border:16px solid orange"">","null","","","","","","","","","",""
"null","","html-keyboard-response","84","6362315","0.0-84.0","","","null","","","","","","","","","",""
"686.5999999046326","","image-keyboard-response","85","6363003","0.0-85.0","","img/set1/S2.jpg","68","2","structured_normal","68","structured_normal,structured_incentive,random,structured_load","2,3,2,1,3,4","4,3,1,2","true","","",""
"null","","html-keyboard-response","86","6363355","0.0-86.0","","<img src=""img/set1/S2.jpg"" width=""540"" height = ""360"" style=""border:16px solid orange"">","null","","","","","","","","","",""
"null","","html-keyboard-response","87","6363557","0.0-87.0","","","null","","","","","","","","","",""
"851.8000001907349","","image-keyboard-response","88","6364410","0.0-88.0","","img/set1/S3.jpg","72","3","structured_normal","72","structured_normal,structured_incentive,random,structured_load","2,3,2,1,3,4","4,3,1,2","true","","",""
"null","","html-keyboard-response","89","6364763","0.0-89.0","","<img src=""img/set1/S3.jpg"" width=""540"" height = ""360"" style=""border:16px solid orange"">","null","","","","","","","","","",""
"null","","html-keyboard-response","90","6364966","0.0-90.0","","","null","","","","","","","","","",""
"889.4000000953674","","image-keyboard-response","91","6365856","0.0-91.0","","img/set1/S2.jpg","68","2","structured_normal","68","structured_normal,structured_incentive,random,structured_load","2,3,2,1,3,4","4,3,1,2","true","","",""
"null","","html-keyboard-response","92","6366209","0.0-92.0","","<img src=""img/set1/S2.jpg"" width=""540"" height = ""360"" style=""border:16px solid orange"">","null","","","","","","","","","",""
"null","","html-keyboard-response","93","6366412","0.0-93.0","","","null","","","","","","","","","",""
"909.0999999046326","","image-keyboard-response","94","6367322","0.0-94.0","","img/set1/S3.jpg","72","3","structured_normal","72","structured_normal,structured_incentive,random,structured_load","2,3,2,1,3,4","4,3,1,2","true","","",""
"null","","html-keyboard-response","95","6367674","0.0-95.0","","<img src=""img/set1/S3.jpg"" width=""540"" height = ""360"" style=""border:16px solid orange"">","null","","","","","","","","","",""
"null","","html-keyboard-response","96","6367876","0.0-96.0","","","null","","","","","","","","","",""
"753.3000001907349","","image-keyboard-response","97","6368631","0.0-97.0","","img/set1/S1.jpg","83","1","structured_normal","83","structured_normal,structured_incentive,random,structured_load","2,3,2,1,3,4","4,3,1,2","true","","",""
"null","","html-keyboard-response","98","6368983","0.0-98.0","","<img src=""img/set1/S1.jpg"" width=""540"" height = ""360"" style=""border:16px solid orange"">","null","","","","","","","","","",""
"null","","html-keyboard-response","99","6369187","0.0-99.0","","","null","","","","","","","","","",""
"817.7999999523163","","image-keyboard-response","100","6370005","0.0-100.0","","img/set1/S2.jpg","68","2","structured_normal","68","structured_normal,structured_incentive,random,structured_load","2,3,2,1,3,4","4,3,1,2","true","","",""
"null","","html-keyboard-response","101","6370358","0.0-101.0","","<img src=""img/set1/S2.jpg"" width=""540"" height = ""360"" style=""border:16px solid orange"">","null","","","","","","","","","",""
"null","","html-keyboard-response","102","6370559","0.0-102.0","","","null","","","","","","","","","",""
"751.5","","image-keyboard-response","103","6371312","0.0-103.0","","img/set1/S3.jpg","72","3","structured_normal","72","structured_normal,structured_incentive,random,structured_load","2,3,2,1,3,4","4,3,1,2","true","","",""
"null","","html-keyboard-response","104","6371666","0.0-104.0","","<img src=""img/set1/S3.jpg"" width=""540"" height = ""360"" style=""border:16px solid orange"">","null","","","","","","","","","",""
"null","","html-keyboard-response","105","6371870","0.0-105.0","","","null","","","","","","","","","",""
"707.6999998092651","","image-keyboard-response","106","6372579","0.0-106.0","","img/set1/S1.jpg","83","1","structured_normal","83","structured_normal,structured_incentive,random,structured_load","2,3,2,1,3,4","4,3,1,2","true","","",""
"null","","html-keyboard-response","107","6372934","0.0-107.0","","<img src=""img/set1/S1.jpg"" width=""540"" height = ""360"" style=""border:16px solid orange"">","null","","","","","","","","","",""
"null","","html-keyboard-response","108","6373137","0.0-108.0","","","null","","","","","","","","","",""
"551","","image-keyboard-response","109","6373689","0.0-109.0","","img/set1/S1.jpg","83","1","structured_normal","83","structured_normal,structured_incentive,random,structured_load","2,3,2,1,3,4","4,3,1,2","true","","",""
"null","","html-keyboard-response","110","6374044","0.0-110.0","","<img src=""img/set1/S1.jpg"" width=""540"" height = ""360"" style=""border:16px solid orange"">","null","","","","","","","","","",""
"null","","html-keyboard-response","111","6374249","0.0-111.0","","","null","","","","","","","","","",""
"712.9000000953674","","image-keyboard-response","112","6374962","0.0-112.0","","img/set1/S4.jpg","74","4","structured_normal","74","structured_normal,structured_incentive,random,structured_load","2,3,2,1,3,4","4,3,1,2","true","","",""
"null","","html-keyboard-response","113","6375317","0.0-113.0","","<img src=""img/set1/S4.jpg"" width=""540"" height = ""360"" style=""border:16px solid orange"">","null","","","","","","","","","",""
"null","","html-keyboard-response","114","6375519","0.0-114.0","","","null","","","","","","","","","",""
"719.5999999046326","","image-keyboard-response","115","6376240","0.0-115.0","","img/set1/S2.jpg","68","2","structured_normal","68","structured_normal,structured_incentive,random,structured_load","2,3,2,1,3,4","4,3,1,2","true","","",""
"null","","html-keyboard-response","116","6376592","0.0-116.0","","<img src=""img/set1/S2.jpg"" width=""540"" height = ""360"" style=""border:16px solid orange"">","null","","","","","","","","","",""
"null","","html-keyboard-response","117","6376794","0.0-117.0","","","null","","","","","","","","","",""
"850.5999999046326","","image-keyboard-response","118","6377646","0.0-118.0","","img/set1/S3.jpg","72","3","structured_normal","72","structured_normal,structured_incentive,random,structured_load","2,3,2,1,3,4","4,3,1,2","true","","",""
"null","","html-keyboard-response","119","6378002","0.0-119.0","","<img src=""img/set1/S3.jpg"" width=""540"" height = ""360"" style=""border:16px solid orange"">","null","","","","","","","","","",""
"null","","html-keyboard-response","120","6378206","0.0-120.0","","","null","","","","","","","","","",""
"715.1000001430511","","image-keyboard-response","121","6378922","0.0-121.0","","img/set1/S4.jpg","74","4","structured_normal","74","structured_normal,structured_incentive,random,structured_load","2,3,2,1,3,4","4,3,1,2","true","","",""
"null","","html-keyboard-response","122","6379275","0.0-122.0","","<img src=""img/set1/S4.jpg"" width=""540"" height = ""360"" style=""border:16px solid orange"">","null","","","","","","","","","",""
"null","","html-keyboard-response","123","6379477","0.0-123.0","","","null","","","","","","","","","",""
"531.7999999523163","","image-keyboard-response","124","6380010","0.0-124.0","","img/set1/S4.jpg","74","4","structured_normal","74","structured_normal,structured_incentive,random,structured_load","2,3,2,1,3,4","4,3,1,2","true","","",""
"null","","html-keyboard-response","125","6380362","0.0-125.0","","<img src=""img/set1/S4.jpg"" width=""540"" height = ""360"" style=""border:16px solid orange"">","null","","","","","","","","","",""
"null","","html-keyboard-response","126","6380566","0.0-126.0","","","null","","","","","","","","","",""
"519.7000000476837","","image-keyboard-response","127","6381087","0.0-127.0","","img/set1/S4.jpg","74","4","structured_normal","74","structured_normal,structured_incentive,random,structured_load","2,3,2,1,3,4","4,3,1,2","true","","",""
"null","","html-keyboard-response","128","6381440","0.0-128.0","","<img src=""img/set1/S4.jpg"" width=""540"" height = ""360"" style=""border:16px solid orange"">","null","","","","","","","","","",""
"null","","html-keyboard-response","129","6381643","0.0-129.0","","","null","","","","","","","","","",""
"699.2999999523163","","image-keyboard-response","130","6382344","0.0-130.0","","img/set1/S1.jpg","83","1","structured_normal","83","structured_normal,structured_incentive,random,structured_load","2,3,2,1,3,4","4,3,1,2","true","","",""
"null","","html-keyboard-response","131","6382696","0.0-131.0","","<img src=""img/set1/S1.jpg"" width=""540"" height = ""360"" style=""border:16px solid orange"">","null","","","","","","","","","",""
"null","","html-keyboard-response","132","6382898","0.0-132.0","","","null","","","","","","","","","",""
"711.0999999046326","","image-keyboard-response","133","6383610","0.0-133.0","","img/set1/S2.jpg","68","2","structured_normal","68","structured_normal,structured_incentive,random,structured_load","2,3,2,1,3,4","4,3,1,2","true","","",""
"null","","html-keyboard-response","134","6383964","0.0-134.0","","<img src=""img/set1/S2.jpg"" width=""540"" height = ""360"" style=""border:16px solid orange"">","null","","","","","","","","","",""
"null","","html-keyboard-response","135","6384166","0.0-135.0","","","null","","","","","","","","","",""
"670","","image-keyboard-response","136","6384837","0.0-136.0","","img/set1/S3.jpg","72","3","structured_normal","72","structured_normal,structured_incentive,random,structured_load","2,3,2,1,3,4","4,3,1,2","true","","",""
"null","","html-keyboard-response","137","6385192","0.0-137.0","","<img src=""img/set1/S3.jpg"" width=""540"" height = ""360"" style=""border:16px solid orange"">","null","","","","","","","","","",""
"null","","html-keyboard-response","138","6385396","0.0-138.0","","","null","","","","","","","","","",""
"597.2999999523163","","image-keyboard-response","139","6385994","0.0-139.0","","img/set1/S2.jpg","68","2","structured_normal","68","structured_normal,structured_incentive,random,structured_load","2,3,2,1,3,4","4,3,1,2","true","","",""
"null","","html-keyboard-response","140","6386348","0.0-140.0","","<img src=""img/set1/S2.jpg"" width=""540"" height = ""360"" style=""border:16px solid orange"">","null","","","","","","","","","",""
"null","","html-keyboard-response","141","6386550","0.0-141.0","","","null","","","","","","","","","",""
"750.7000000476837","","image-keyboard-response","142","6387302","0.0-142.0","","img/set1/S3.jpg","68","3","structured_normal","72","structured_normal,structured_incentive,random,structured_load","2,3,2,1,3,4","4,3,1,2","false","","",""
"null","","html-keyboard-response","143","6387674","0.0-143.0","","<img src=""img/set1/S3.jpg"" width=""540"" height = ""360"">","null","","","","","","","","","",""
"null","","html-keyboard-response","144","6387876","0.0-144.0","","","null","","","","","","","","","",""
"1379","","image-keyboard-response","145","6389256","0.0-145.0","","img/set1/S2.jpg","68","2","structured_normal","68","structured_normal,structured_incentive,random,structured_load","2,3,2,1,3,4","4,3,1,2","true","","",""
"null","","html-keyboard-response","146","6389610","0.0-146.0","","<img src=""img/set1/S2.jpg"" width=""540"" height = ""360"" style=""border:16px solid orange"">","null","","","","","","","","","",""
"null","","html-keyboard-response","147","6389815","0.0-147.0","","","null","","","","","","","","","",""
"715.2999999523163","","image-keyboard-response","148","6390533","0.0-148.0","","img/set1/S3.jpg","72","3","structured_normal","72","structured_normal,structured_incentive,random,structured_load","2,3,2,1,3,4","4,3,1,2","true","","",""
"null","","html-keyboard-response","149","6390887","0.0-149.0","","<img src=""img/set1/S3.jpg"" width=""540"" height = ""360"" style=""border:16px solid orange"">","null","","","","","","","","","",""
"null","","html-keyboard-response","150","6391090","0.0-150.0","","","null","","","","","","","","","",""
"618.2999999523163","","image-keyboard-response","151","6391710","0.0-151.0","","img/set1/S4.jpg","74","4","structured_normal","74","structured_normal,structured_incentive,random,structured_load","2,3,2,1,3,4","4,3,1,2","true","","",""
"null","","html-keyboard-response","152","6392065","0.0-152.0","","<img src=""img/set1/S4.jpg"" width=""540"" height = ""360"" style=""border:16px solid orange"">","null","","","","","","","","","",""
"null","","html-keyboard-response","153","6392267","0.0-153.0","","","null","","","","","","","","","",""
"618.2999999523163","","image-keyboard-response","154","6392887","0.0-154.0","","img/set1/S1.jpg","83","1","structured_normal","83","structured_normal,structured_incentive,random,structured_load","2,3,2,1,3,4","4,3,1,2","true","","",""
"null","","html-keyboard-response","155","6393242","0.0-155.0","","<img src=""img/set1/S1.jpg"" width=""540"" height = ""360"" style=""border:16px solid orange"">","null","","","","","","","","","",""
"null","","html-keyboard-response","156","6393445","0.0-156.0","","","null","","","","","","","","","",""
"647.3000001907349","","image-keyboard-response","157","6394094","0.0-157.0","","img/set1/S4.jpg","74","4","structured_normal","74","structured_normal,structured_incentive,random,structured_load","2,3,2,1,3,4","4,3,1,2","true","","",""
"null","","html-keyboard-response","158","6394450","0.0-158.0","","<img src=""img/set1/S4.jpg"" width=""540"" height = ""360"" style=""border:16px solid orange"">","null","","","","","","","","","",""
"null","","html-keyboard-response","159","6394653","0.0-159.0","","","null","","","","","","","","","",""
"595.7999999523163","","image-keyboard-response","160","6395250","0.0-160.0","","img/set1/S1.jpg","83","1","structured_normal","83","structured_normal,structured_incentive,random,structured_load","2,3,2,1,3,4","4,3,1,2","true","","",""
"null","","html-keyboard-response","161","6395605","0.0-161.0","","<img src=""img/set1/S1.jpg"" width=""540"" height = ""360"" style=""border:16px solid orange"">","null","","","","","","","","","",""
"null","","html-keyboard-response","162","6395810","0.0-162.0","","","null","","","","","","","","","",""
"795.9000000953674","","image-keyboard-response","163","6396607","0.0-163.0","","img/set1/S4.jpg","74","4","structured_normal","74","structured_normal,structured_incentive,random,structured_load","2,3,2,1,3,4","4,3,1,2","true","","",""
"null","","html-keyboard-response","164","6396958","0.0-164.0","","<img src=""img/set1/S4.jpg"" width=""540"" height = ""360"" style=""border:16px solid orange"">","null","","","","","","","","","",""
"null","","html-keyboard-response","165","6397161","0.0-165.0","","","null","","","","","","","","","",""
"593.2000000476837","","image-keyboard-response","166","6397756","0.0-166.0","","img/set1/S1.jpg","83","1","structured_normal","83","structured_normal,structured_incentive,random,structured_load","2,3,2,1,3,4","4,3,1,2","true","","",""
"null","","html-keyboard-response","167","6398109","0.0-167.0","","<img src=""img/set1/S1.jpg"" width=""540"" height = ""360"" style=""border:16px solid orange"">","null","","","","","","","","","",""
"null","","html-keyboard-response","168","6398313","0.0-168.0","","","null","","","","","","","","","",""
"627","","image-keyboard-response","169","6398941","0.0-169.0","","img/set1/S2.jpg","68","2","structured_normal","68","structured_normal,structured_incentive,random,structured_load","2,3,2,1,3,4","4,3,1,2","true","","",""
"null","","html-keyboard-response","170","6399295","0.0-170.0","","<img src=""img/set1/S2.jpg"" width=""540"" height = ""360"" style=""border:16px solid orange"">","null","","","","","","","","","",""
"null","","html-keyboard-response","171","6399499","0.0-171.0","","","null","","","","","","","","","",""
"617.2000000476837","","image-keyboard-response","172","6400118","0.0-172.0","","img/set1/S3.jpg","72","3","structured_normal","72","structured_normal,structured_incentive,random,structured_load","2,3,2,1,3,4","4,3,1,2","true","","",""
"null","","html-keyboard-response","173","6400473","0.0-173.0","","<img src=""img/set1/S3.jpg"" width=""540"" height = ""360"" style=""border:16px solid orange"">","null","","","","","","","","","",""
"null","","html-keyboard-response","174","6400678","0.0-174.0","","","null","","","","","","","","","",""
"1034.9000000953674","","image-keyboard-response","175","6401714","0.0-175.0","","img/set1/S1.jpg","83","1","structured_normal","83","structured_normal,structured_incentive,random,structured_load","2,3,2,1,3,4","4,3,1,2","true","","",""
"null","","html-keyboard-response","176","6402069","0.0-176.0","","<img src=""img/set1/S1.jpg"" width=""540"" height = ""360"" style=""border:16px solid orange"">","null","","","","","","","","","",""
"null","","html-keyboard-response","177","6402272","0.0-177.0","","","null","","","","","","","","","",""
"570","","image-keyboard-response","178","6402843","0.0-178.0","","img/set1/S1.jpg","83","1","structured_normal","83","structured_normal,structured_incentive,random,structured_load","2,3,2,1,3,4","4,3,1,2","true","","",""
"null","","html-keyboard-response","179","6403197","0.0-179.0","","<img src=""img/set1/S1.jpg"" width=""540"" height = ""360"" style=""border:16px solid orange"">","null","","","","","","","","","",""
"null","","html-keyboard-response","180","6403401","0.0-180.0","","","null","","","","","","","","","",""
"606.0999999046326","","image-keyboard-response","181","6404008","0.0-181.0","","img/set1/S4.jpg","74","4","structured_normal","74","structured_normal,structured_incentive,random,structured_load","2,3,2,1,3,4","4,3,1,2","true","","",""
"null","","html-keyboard-response","182","6404363","0.0-182.0","","<img src=""img/set1/S4.jpg"" width=""540"" height = ""360"" style=""border:16px solid orange"">","null","","","","","","","","","",""
"null","","html-keyboard-response","183","6404567","0.0-183.0","","","null","","","","","","","","","",""
"577.5","","image-keyboard-response","184","6405145","0.0-184.0","","img/set1/S1.jpg","83","1","structured_normal","83","structured_normal,structured_incentive,random,structured_load","2,3,2,1,3,4","4,3,1,2","true","","",""
"null","","html-keyboard-response","185","6405498","0.0-185.0","","<img src=""img/set1/S1.jpg"" width=""540"" height = ""360"" style=""border:16px solid orange"">","null","","","","","","","","","",""
"null","","html-keyboard-response","186","6405702","0.0-186.0","","","null","","","","","","","","","",""
"630.7999999523163","","image-keyboard-response","187","6406333","0.0-187.0","","img/set1/S4.jpg","74","4","structured_normal","74","structured_normal,structured_incentive,random,structured_load","2,3,2,1,3,4","4,3,1,2","true","","",""
"null","","html-keyboard-response","188","6406686","0.0-188.0","","<img src=""img/set1/S4.jpg"" width=""540"" height = ""360"" style=""border:16px solid orange"">","null","","","","","","","","","",""
"null","","html-keyboard-response","189","6406888","0.0-189.0","","","null","","","","","","","","","",""
"669.5","","image-keyboard-response","190","6407559","0.0-190.0","","img/set1/S1.jpg","83","1","structured_normal","83","structured_normal,structured_incentive,random,structured_load","2,3,2,1,3,4","4,3,1,2","true","","",""
"null","","html-keyboard-response","191","6407912","0.0-191.0","","<img src=""img/set1/S1.jpg"" width=""540"" height = ""360"" style=""border:16px solid orange"">","null","","","","","","","","","",""
"null","","html-keyboard-response","192","6408117","0.0-192.0","","","null","","","","","","","","","",""
"509.7000000476837","","image-keyboard-response","193","6408628","0.0-193.0","","img/set1/S1.jpg","83","1","structured_normal","83","structured_normal,structured_incentive,random,structured_load","2,3,2,1,3,4","4,3,1,2","true","","",""
"null","","html-keyboard-response","194","6408982","0.0-194.0","","<img src=""img/set1/S1.jpg"" width=""540"" height = ""360"" style=""border:16px solid orange"">","null","","","","","","","","","",""
"null","","html-keyboard-response","195","6409187","0.0-195.0","","","null","","","","","","","","","",""
"555.7000000476837","","image-keyboard-response","196","6409744","0.0-196.0","","img/set1/S4.jpg","74","4","structured_normal","74","structured_normal,structured_incentive,random,structured_load","2,3,2,1,3,4","4,3,1,2","true","","",""
"null","","html-keyboard-response","197","6410096","0.0-197.0","","<img src=""img/set1/S4.jpg"" width=""540"" height = ""360"" style=""border:16px solid orange"">","null","","","","","","","","","",""
"null","","html-keyboard-response","198","6410298","0.0-198.0","","","null","","","","","","","","","",""
"631.5999999046326","","image-keyboard-response","199","6410931","0.0-199.0","","img/set1/S1.jpg","83","1","structured_normal","83","structured_normal,structured_incentive,random,structured_load","2,3,2,1,3,4","4,3,1,2","true","","",""
"null","","html-keyboard-response","200","6411285","0.0-200.0","","<img src=""img/set1/S1.jpg"" width=""540"" height = ""360"" style=""border:16px solid orange"">","null","","","","","","","","","",""
"null","","html-keyboard-response","201","6411488","0.0-201.0","","","null","","","","","","","","","",""
"668","","image-keyboard-response","202","6412157","0.0-202.0","","img/set1/S4.jpg","74","4","structured_normal","74","structured_normal,structured_incentive,random,structured_load","2,3,2,1,3,4","4,3,1,2","true","","",""
"null","","html-keyboard-response","203","6412510","0.0-203.0","","<img src=""img/set1/S4.jpg"" width=""540"" height = ""360"" style=""border:16px solid orange"">","null","","","","","","","","","",""
"null","","html-keyboard-response","204","6412713","0.0-204.0","","","null","","","","","","","","","",""
"540","","image-keyboard-response","205","6413255","0.0-205.0","","img/set1/S2.jpg","68","2","structured_normal","68","structured_normal,structured_incentive,random,structured_load","2,3,2,1,3,4","4,3,1,2","true","","",""
"null","","html-keyboard-response","206","6413608","0.0-206.0","","<img src=""img/set1/S2.jpg"" width=""540"" height = ""360"" style=""border:16px solid orange"">","null","","","","","","","","","",""
"null","","html-keyboard-response","207","6413810","0.0-207.0","","","null","","","","","","","","","",""
"590.4000000953674","","image-keyboard-response","208","6414401","0.0-208.0","","img/set1/S3.jpg","72","3","structured_normal","72","structured_normal,structured_incentive,random,structured_load","2,3,2,1,3,4","4,3,1,2","true","","",""
"null","","html-keyboard-response","209","6414755","0.0-209.0","","<img src=""img/set1/S3.jpg"" width=""540"" height = ""360"" style=""border:16px solid orange"">","null","","","","","","","","","",""
"null","","html-keyboard-response","210","6414959","0.0-210.0","","","null","","","","","","","","","",""
"1107.2999999523163","","image-keyboard-response","211","6416067","0.0-211.0","","img/set1/S1.jpg","83","1","structured_normal","83","structured_normal,structured_incentive,random,structured_load","2,3,2,1,3,4","4,3,1,2","true","","",""
"null","","html-keyboard-response","212","6416421","0.0-212.0","","<img src=""img/set1/S1.jpg"" width=""540"" height = ""360"" style=""border:16px solid orange"">","null","","","","","","","","","",""
"null","","html-keyboard-response","213","6416625","0.0-213.0","","","null","","","","","","","","","",""
"627.7999999523163","","image-keyboard-response","214","6417254","0.0-214.0","","img/set1/S1.jpg","83","1","structured_normal","83","structured_normal,structured_incentive,random,structured_load","2,3,2,1,3,4","4,3,1,2","true","","",""
"null","","html-keyboard-response","215","6417609","0.0-215.0","","<img src=""img/set1/S1.jpg"" width=""540"" height = ""360"" style=""border:16px solid orange"">","null","","","","","","","","","",""
"null","","html-keyboard-response","216","6417811","0.0-216.0","","","null","","","","","","","","","",""
"1516.8000001907349","","image-keyboard-response","217","6419329","0.0-217.0","","img/set1/S2.jpg","68","2","structured_normal","68","structured_normal,structured_incentive,random,structured_load","2,3,2,1,3,4","4,3,1,2","true","","",""
"null","","html-keyboard-response","218","6419682","0.0-218.0","","<img src=""img/set1/S2.jpg"" width=""540"" height = ""360"" style=""border:16px solid orange"">","null","","","","","","","","","",""
"null","","html-keyboard-response","219","6419885","0.0-219.0","","","null","","","","","","","","","",""
"710.2000000476837","","image-keyboard-response","220","6420597","0.0-220.0","","img/set1/S3.jpg","72","3","structured_normal","72","structured_normal,structured_incentive,random,structured_load","2,3,2,1,3,4","4,3,1,2","true","","",""
"null","","html-keyboard-response","221","6420950","0.0-221.0","","<img src=""img/set1/S3.jpg"" width=""540"" height = ""360"" style=""border:16px solid orange"">","null","","","","","","","","","",""
"null","","html-keyboard-response","222","6421153","0.0-222.0","","","null","","","","","","","","","",""
"668.2000000476837","","image-keyboard-response","223","6421822","0.0-223.0","","img/set1/S4.jpg","74","4","structured_normal","74","structured_normal,structured_incentive,random,structured_load","2,3,2,1,3,4","4,3,1,2","true","","",""
"null","","html-keyboard-response","224","6422176","0.0-224.0","","<img src=""img/set1/S4.jpg"" width=""540"" height = ""360"" style=""border:16px solid orange"">","null","","","","","","","","","",""
"null","","html-keyboard-response","225","6422379","0.0-225.0","","","null","","","","","","","","","",""
"878.7000000476837","","image-keyboard-response","226","6423258","0.0-226.0","","img/set1/S2.jpg","68","2","structured_normal","68","structured_normal,structured_incentive,random,structured_load","2,3,2,1,3,4","4,3,1,2","true","","",""
"null","","html-keyboard-response","227","6423612","0.0-227.0","","<img src=""img/set1/S2.jpg"" width=""540"" height = ""360"" style=""border:16px solid orange"">","null","","","","","","","","","",""
"null","","html-keyboard-response","228","6423816","0.0-228.0","","","null","","","","","","","","","",""
"869","","image-keyboard-response","229","6424686","0.0-229.0","","img/set1/S3.jpg","72","3","structured_normal","72","structured_normal,structured_incentive,random,structured_load","2,3,2,1,3,4","4,3,1,2","true","","",""
"null","","html-keyboard-response","230","6425038","0.0-230.0","","<img src=""img/set1/S3.jpg"" width=""540"" height = ""360"" style=""border:16px solid orange"">","null","","","","","","","","","",""
"null","","html-keyboard-response","231","6425240","0.0-231.0","","","null","","","","","","","","","",""
"620.2999999523163","","image-keyboard-response","232","6425862","0.0-232.0","","img/set1/S1.jpg","83","1","structured_normal","83","structured_normal,structured_incentive,random,structured_load","2,3,2,1,3,4","4,3,1,2","true","","",""
"null","","html-keyboard-response","233","6426216","0.0-233.0","","<img src=""img/set1/S1.jpg"" width=""540"" height = ""360"" style=""border:16px solid orange"">","null","","","","","","","","","",""
"null","","html-keyboard-response","234","6426419","0.0-234.0","","","null","","","","","","","","","",""
"668","","image-keyboard-response","235","6427089","0.0-235.0","","img/set1/S2.jpg","68","2","structured_normal","68","structured_normal,structured_incentive,random,structured_load","2,3,2,1,3,4","4,3,1,2","true","","",""
"null","","html-keyboard-response","236","6427442","0.0-236.0","","<img src=""img/set1/S2.jpg"" width=""540"" height = ""360"" style=""border:16px solid orange"">","null","","","","","","","","","",""
"null","","html-keyboard-response","237","6427646","0.0-237.0","","","null","","","","","","","","","",""
"717.9000000953674","","image-keyboard-response","238","6428365","0.0-238.0","","img/set1/S3.jpg","72","3","structured_normal","72","structured_normal,structured_incentive,random,structured_load","2,3,2,1,3,4","4,3,1,2","true","","",""
"null","","html-keyboard-response","239","6428718","0.0-239.0","","<img src=""img/set1/S3.jpg"" width=""540"" height = ""360"" style=""border:16px solid orange"">","null","","","","","","","","","",""
"null","","html-keyboard-response","240","6428920","0.0-240.0","","","null","","","","","","","","","",""
"1110.2999999523163","","image-keyboard-response","241","6430031","0.0-241.0","","img/set1/S2.jpg","68","2","structured_normal","68","structured_normal,structured_incentive,random,structured_load","2,3,2,1,3,4","4,3,1,2","true","","",""
"null","","html-keyboard-response","242","6430388","0.0-242.0","","<img src=""img/set1/S2.jpg"" width=""540"" height = ""360"" style=""border:16px solid orange"">","null","","","","","","","","","",""
"null","","html-keyboard-response","243","6430590","0.0-243.0","","","null","","","","","","","","","",""
"1345.2999999523163","","image-keyboard-response","244","6431936","0.0-244.0","","img/set1/S3.jpg","72","3","structured_normal","72","structured_normal,structured_incentive,random,structured_load","2,3,2,1,3,4","4,3,1,2","true","","",""
"null","","html-keyboard-response","245","6432290","0.0-245.0","","<img src=""img/set1/S3.jpg"" width=""540"" height = ""360"" style=""border:16px solid orange"">","null","","","","","","","","","",""
"null","","html-keyboard-response","246","6432496","0.0-246.0","","","null","","","","","","","","","",""
"576.4000000953674","","image-keyboard-response","247","6433073","0.0-247.0","","img/set1/S1.jpg","83","1","structured_normal","83","structured_normal,structured_incentive,random,structured_load","2,3,2,1,3,4","4,3,1,2","true","","",""
"null","","html-keyboard-response","248","6433427","0.0-248.0","","<img src=""img/set1/S1.jpg"" width=""540"" height = ""360"" style=""border:16px solid orange"">","null","","","","","","","","","",""
"null","","html-keyboard-response","249","6433629","0.0-249.0","","","null","","","","","","","","","",""
"660.4000000953674","","image-keyboard-response","250","6434291","0.0-250.0","","img/set1/S4.jpg","74","4","structured_normal","74","structured_normal,structured_incentive,random,structured_load","2,3,2,1,3,4","4,3,1,2","true","","",""
"null","","html-keyboard-response","251","6434643","0.0-251.0","","<img src=""img/set1/S4.jpg"" width=""540"" height = ""360"" style=""border:16px solid orange"">","null","","","","","","","","","",""
"null","","html-keyboard-response","252","6434846","0.0-252.0","","","null","","","","","","","","","",""
"869.7999999523163","","image-keyboard-response","253","6435717","0.0-253.0","","img/set1/S1.jpg","83","1","structured_normal","83","structured_normal,structured_incentive,random,structured_load","2,3,2,1,3,4","4,3,1,2","true","","",""
"null","","html-keyboard-response","254","6436071","0.0-254.0","","<img src=""img/set1/S1.jpg"" width=""540"" height = ""360"" style=""border:16px solid orange"">","null","","","","","","","","","",""
"null","","html-keyboard-response","255","6436275","0.0-255.0","","","null","","","","","","","","","",""
"578.9000000953674","","image-keyboard-response","256","6436855","0.0-256.0","","img/set1/S1.jpg","83","1","structured_normal","83","structured_normal,structured_incentive,random,structured_load","2,3,2,1,3,4","4,3,1,2","true","","",""
"null","","html-keyboard-response","257","6437207","0.0-257.0","","<img src=""img/set1/S1.jpg"" width=""540"" height = ""360"" style=""border:16px solid orange"">","null","","","","","","","","","",""
"null","","html-keyboard-response","258","6437410","0.0-258.0","","","null","","","","","","","","","",""
"541.5999999046326","","image-keyboard-response","259","6437953","0.0-259.0","","img/set1/S1.jpg","83","1","structured_normal","83","structured_normal,structured_incentive,random,structured_load","2,3,2,1,3,4","4,3,1,2","true","","",""
"null","","html-keyboard-response","260","6438306","0.0-260.0","","<img src=""img/set1/S1.jpg"" width=""540"" height = ""360"" style=""border:16px solid orange"">","null","","","","","","","","","",""
"null","","html-keyboard-response","261","6438509","0.0-261.0","","","null","","","","","","","","","",""
"628.0999999046326","","image-keyboard-response","262","6439138","0.0-262.0","","img/set1/S2.jpg","68","2","structured_normal","68","structured_normal,structured_incentive,random,structured_load","2,3,2,1,3,4","4,3,1,2","true","","",""
"null","","html-keyboard-response","263","6439492","0.0-263.0","","<img src=""img/set1/S2.jpg"" width=""540"" height = ""360"" style=""border:16px solid orange"">","null","","","","","","","","","",""
"null","","html-keyboard-response","264","6439694","0.0-264.0","","","null","","","","","","","","","",""
"639.7999999523163","","image-keyboard-response","265","6440335","0.0-265.0","","img/set1/S3.jpg","72","3","structured_normal","72","structured_normal,structured_incentive,random,structured_load","2,3,2,1,3,4","4,3,1,2","true","","",""
"null","","html-keyboard-response","266","6440688","0.0-266.0","","<img src=""img/set1/S3.jpg"" width=""540"" height = ""360"" style=""border:16px solid orange"">","null","","","","","","","","","",""
"null","","html-keyboard-response","267","6440890","0.0-267.0","","","null","","","","","","","","","",""
"624.2999999523163","","image-keyboard-response","268","6441515","0.0-268.0","","img/set1/S1.jpg","83","1","structured_normal","83","structured_normal,structured_incentive,random,structured_load","2,3,2,1,3,4","4,3,1,2","true","","",""
"null","","html-keyboard-response","269","6441868","0.0-269.0","","<img src=""img/set1/S1.jpg"" width=""540"" height = ""360"" style=""border:16px solid orange"">","null","","","","","","","","","",""
"null","","html-keyboard-response","270","6442069","0.0-270.0","","","null","","","","","","","","","",""
"529.3999998569489","","image-keyboard-response","271","6442600","0.0-271.0","","img/set1/S1.jpg","83","1","structured_normal","83","structured_normal,structured_incentive,random,structured_load","2,3,2,1,3,4","4,3,1,2","true","","",""
"null","","html-keyboard-response","272","6442953","0.0-272.0","","<img src=""img/set1/S1.jpg"" width=""540"" height = ""360"" style=""border:16px solid orange"">","null","","","","","","","","","",""
"null","","html-keyboard-response","273","6443159","0.0-273.0","","","null","","","","","","","","","",""
"627.1000001430511","","image-keyboard-response","274","6443787","0.0-274.0","","img/set1/S1.jpg","83","1","structured_normal","83","structured_normal,structured_incentive,random,structured_load","2,3,2,1,3,4","4,3,1,2","true","","",""
"null","","html-keyboard-response","275","6444140","0.0-275.0","","<img src=""img/set1/S1.jpg"" width=""540"" height = ""360"" style=""border:16px solid orange"">","null","","","","","","","","","",""
"null","","html-keyboard-response","276","6444345","0.0-276.0","","","null","","","","","","","","","",""
"638.7000000476837","","image-keyboard-response","277","6444984","0.0-277.0","","img/set1/S1.jpg","83","1","structured_normal","83","structured_normal,structured_incentive,random,structured_load","2,3,2,1,3,4","4,3,1,2","true","","",""
"null","","html-keyboard-response","278","6445340","0.0-278.0","","<img src=""img/set1/S1.jpg"" width=""540"" height = ""360"" style=""border:16px solid orange"">","null","","","","","","","","","",""
"null","","html-keyboard-response","279","6445544","0.0-279.0","","","null","","","","","","","","","",""
"736.2999999523163","","image-keyboard-response","280","6446282","0.0-280.0","","img/set1/S2.jpg","68","2","structured_normal","68","structured_normal,structured_incentive,random,structured_load","2,3,2,1,3,4","4,3,1,2","true","","",""
"null","","html-keyboard-response","281","6446635","0.0-281.0","","<img src=""img/set1/S2.jpg"" width=""540"" height = ""360"" style=""border:16px solid orange"">","null","","","","","","","","","",""
"null","","html-keyboard-response","282","6446836","0.0-282.0","","","null","","","","","","","","","",""
"711.3999998569489","","image-keyboard-response","283","6447549","0.0-283.0","","img/set1/S3.jpg","72","3","structured_normal","72","structured_normal,structured_incentive,random,structured_load","2,3,2,1,3,4","4,3,1,2","true","","",""
"null","","html-keyboard-response","284","6447902","0.0-284.0","","<img src=""img/set1/S3.jpg"" width=""540"" height = ""360"" style=""border:16px solid orange"">","null","","","","","","","","","",""
"null","","html-keyboard-response","285","6448104","0.0-285.0","","","null","","","","","","","","","",""
"979.5","","image-keyboard-response","286","6449085","0.0-286.0","","img/set1/S1.jpg","83","1","structured_normal","83","structured_normal,structured_incentive,random,structured_load","2,3,2,1,3,4","4,3,1,2","true","","",""
"null","","html-keyboard-response","287","6449438","0.0-287.0","","<img src=""img/set1/S1.jpg"" width=""540"" height = ""360"" style=""border:16px solid orange"">","null","","","","","","","","","",""
"null","","html-keyboard-response","288","6449641","0.0-288.0","","","null","","","","","","","","","",""
"798.7999999523163","","image-keyboard-response","289","6450441","0.0-289.0","","img/set1/S4.jpg","74","4","structured_normal","74","structured_normal,structured_incentive,random,structured_load","2,3,2,1,3,4","4,3,1,2","true","","",""
"null","","html-keyboard-response","290","6450795","0.0-290.0","","<img src=""img/set1/S4.jpg"" width=""540"" height = ""360"" style=""border:16px solid orange"">","null","","","","","","","","","",""
"null","","html-keyboard-response","291","6451000","0.0-291.0","","","null","","","","","","","","","",""
"937.3000001907349","","image-keyboard-response","292","6451939","0.0-292.0","","img/set1/S2.jpg","68","2","structured_normal","68","structured_normal,structured_incentive,random,structured_load","2,3,2,1,3,4","4,3,1,2","true","","",""
"null","","html-keyboard-response","293","6452293","0.0-293.0","","<img src=""img/set1/S2.jpg"" width=""540"" height = ""360"" style=""border:16px solid orange"">","null","","","","","","","","","",""
"null","","html-keyboard-response","294","6452509","0.0-294.0","","","null","","","","","","","","","",""
"945.2999999523163","","image-keyboard-response","295","6453455","0.0-295.0","","img/set1/S3.jpg","72","3","structured_normal","72","structured_normal,structured_incentive,random,structured_load","2,3,2,1,3,4","4,3,1,2","true","","",""
"null","","html-keyboard-response","296","6453811","0.0-296.0","","<img src=""img/set1/S3.jpg"" width=""540"" height = ""360"" style=""border:16px solid orange"">","null","","","","","","","","","",""
"null","","html-keyboard-response","297","6454016","0.0-297.0","","","null","","","","","","","","","",""
"635.0999999046326","","image-keyboard-response","298","6454653","0.0-298.0","","img/set1/S2.jpg","68","2","structured_normal","68","structured_normal,structured_incentive,random,structured_load","2,3,2,1,3,4","4,3,1,2","true","","",""
"null","","html-keyboard-response","299","6455007","0.0-299.0","","<img src=""img/set1/S2.jpg"" width=""540"" height = ""360"" style=""border:16px solid orange"">","null","","","","","","","","","",""
"null","","html-keyboard-response","300","6455211","0.0-300.0","","","null","","","","","","","","","",""
"898.9000000953674","","image-keyboard-response","301","6456111","0.0-301.0","","img/set1/S3.jpg","72","3","structured_normal","72","structured_normal,structured_incentive,random,structured_load","2,3,2,1,3,4","4,3,1,2","true","","",""
"null","","html-keyboard-response","302","6456465","0.0-302.0","","<img src=""img/set1/S3.jpg"" width=""540"" height = ""360"" style=""border:16px solid orange"">","null","","","","","","","","","",""
"null","","html-keyboard-response","303","6456667","0.0-303.0","","","null","","","","","","","","","",""
"668.1000001430511","","image-keyboard-response","304","6457336","0.0-304.0","","img/set1/S1.jpg","83","1","structured_normal","83","structured_normal,structured_incentive,random,structured_load","2,3,2,1,3,4","4,3,1,2","true","","",""
"null","","html-keyboard-response","305","6457692","0.0-305.0","","<img src=""img/set1/S1.jpg"" width=""540"" height = ""360"" style=""border:16px solid orange"">","null","","","","","","","","","",""
"null","","html-keyboard-response","306","6457897","0.0-306.0","","","null","","","","","","","","","",""
"736.2000000476837","","image-keyboard-response","307","6458634","0.0-307.0","","img/set1/S2.jpg","68","2","structured_normal","68","structured_normal,structured_incentive,random,structured_load","2,3,2,1,3,4","4,3,1,2","true","","",""
"null","","html-keyboard-response","308","6458987","0.0-308.0","","<img src=""img/set1/S2.jpg"" width=""540"" height = ""360"" style=""border:16px solid orange"">","null","","","","","","","","","",""
"null","","html-keyboard-response","309","6459189","0.0-309.0","","","null","","","","","","","","","",""
"821.2000000476837","","image-keyboard-response","310","6460011","0.0-310.0","","img/set1/S3.jpg","72","3","structured_normal","72","structured_normal,structured_incentive,random,structured_load","2,3,2,1,3,4","4,3,1,2","true","","",""
"null","","html-keyboard-response","311","6460367","0.0-311.0","","<img src=""img/set1/S3.jpg"" width=""540"" height = ""360"" style=""border:16px solid orange"">","null","","","","","","","","","",""
"null","","html-keyboard-response","312","6460571","0.0-312.0","","","null","","","","","","","","","",""
"665.5","","image-keyboard-response","313","6461238","0.0-313.0","","img/set1/S4.jpg","74","4","structured_normal","74","structured_normal,structured_incentive,random,structured_load","2,3,2,1,3,4","4,3,1,2","true","","",""
"null","","html-keyboard-response","314","6461593","0.0-314.0","","<img src=""img/set1/S4.jpg"" width=""540"" height = ""360"" style=""border:16px solid orange"">","null","","","","","","","","","",""
"null","","html-keyboard-response","315","6461799","0.0-315.0","","","null","","","","","","","","","",""
"735.5999999046326","","image-keyboard-response","316","6462535","0.0-316.0","","img/set1/S2.jpg","68","2","structured_normal","68","structured_normal,structured_incentive,random,structured_load","2,3,2,1,3,4","4,3,1,2","true","","",""
"null","","html-keyboard-response","317","6462888","0.0-317.0","","<img src=""img/set1/S2.jpg"" width=""540"" height = ""360"" style=""border:16px solid orange"">","null","","","","","","","","","",""
"null","","html-keyboard-response","318","6463090","0.0-318.0","","","null","","","","","","","","","",""
"611","","image-keyboard-response","319","6463702","0.0-319.0","","img/set1/S3.jpg","72","3","structured_normal","72","structured_normal,structured_incentive,random,structured_load","2,3,2,1,3,4","4,3,1,2","true","","",""
"null","","html-keyboard-response","320","6464057","0.0-320.0","","<img src=""img/set1/S3.jpg"" width=""540"" height = ""360"" style=""border:16px solid orange"">","null","","","","","","","","","",""
"null","","html-keyboard-response","321","6464260","0.0-321.0","","","null","","","","","","","","","",""
"689.1000001430511","","image-keyboard-response","322","6464950","0.0-322.0","","img/set1/S4.jpg","74","4","structured_normal","74","structured_normal,structured_incentive,random,structured_load","2,3,2,1,3,4","4,3,1,2","true","","",""
"null","","html-keyboard-response","323","6465302","0.0-323.0","","<img src=""img/set1/S4.jpg"" width=""540"" height = ""360"" style=""border:16px solid orange"">","null","","","","","","","","","",""
"null","","html-keyboard-response","324","6465505","0.0-324.0","","","null","","","","","","","","","",""
"750.9000000953674","","image-keyboard-response","325","6466257","0.0-325.0","","img/set1/S2.jpg","72","2","structured_normal","68","structured_normal,structured_incentive,random,structured_load","2,3,2,1,3,4","4,3,1,2","false","","",""
"null","","html-keyboard-response","326","6466610","0.0-326.0","","<img src=""img/set1/S2.jpg"" width=""540"" height = ""360"">","null","","","","","","","","","",""
"null","","html-keyboard-response","327","6466813","0.0-327.0","","","null","","","","","","","","","",""
"680.5999999046326","","image-keyboard-response","328","6467494","0.0-328.0","","img/set1/S3.jpg","72","3","structured_normal","72","structured_normal,structured_incentive,random,structured_load","2,3,2,1,3,4","4,3,1,2","true","","",""
"null","","html-keyboard-response","329","6467849","0.0-329.0","","<img src=""img/set1/S3.jpg"" width=""540"" height = ""360"" style=""border:16px solid orange"">","null","","","","","","","","","",""
"null","","html-keyboard-response","330","6468054","0.0-330.0","","","null","","","","","","","","","",""
"567.0999999046326","","image-keyboard-response","331","6468622","0.0-331.0","","img/set1/S1.jpg","83","1","structured_normal","83","structured_normal,structured_incentive,random,structured_load","2,3,2,1,3,4","4,3,1,2","true","","",""
"null","","html-keyboard-response","332","6468977","0.0-332.0","","<img src=""img/set1/S1.jpg"" width=""540"" height = ""360"" style=""border:16px solid orange"">","null","","","","","","","","","",""
"null","","html-keyboard-response","333","6469181","0.0-333.0","","","null","","","","","","","","","",""
"726.2000000476837","","image-keyboard-response","334","6469909","0.0-334.0","","img/set1/S2.jpg","72","2","structured_normal","68","structured_normal,structured_incentive,random,structured_load","2,3,2,1,3,4","4,3,1,2","false","","",""
"null","","html-keyboard-response","335","6470263","0.0-335.0","","<img src=""img/set1/S2.jpg"" width=""540"" height = ""360"">","null","","","","","","","","","",""
"null","","html-keyboard-response","336","6470469","0.0-336.0","","","null","","","","","","","","","",""
"766","","image-keyboard-response","337","6471236","0.0-337.0","","img/set1/S3.jpg","72","3","structured_normal","72","structured_normal,structured_incentive,random,structured_load","2,3,2,1,3,4","4,3,1,2","true","","",""
"null","","html-keyboard-response","338","6471591","0.0-338.0","","<img src=""img/set1/S3.jpg"" width=""540"" height = ""360"" style=""border:16px solid orange"">","null","","","","","","","","","",""
"null","","html-keyboard-response","339","6471795","0.0-339.0","","","null","","","","","","","","","",""
"587.0999999046326","","image-keyboard-response","340","6472384","0.0-340.0","","img/set1/S1.jpg","83","1","structured_normal","83","structured_normal,structured_incentive,random,structured_load","2,3,2,1,3,4","4,3,1,2","true","","",""
"null","","html-keyboard-response","341","6472736","0.0-341.0","","<img src=""img/set1/S1.jpg"" width=""540"" height = ""360"" style=""border:16px solid orange"">","null","","","","","","","","","",""
"null","","html-keyboard-response","342","6472940","0.0-342.0","","","null","","","","","","","","","",""
"679.0999999046326","","image-keyboard-response","343","6473620","0.0-343.0","","img/set1/S4.jpg","74","4","structured_normal","74","structured_normal,structured_incentive,random,structured_load","2,3,2,1,3,4","4,3,1,2","true","","",""
"null","","html-keyboard-response","344","6473973","0.0-344.0","","<img src=""img/set1/S4.jpg"" width=""540"" height = ""360"" style=""border:16px solid orange"">","null","","","","","","","","","",""
"null","","html-keyboard-response","345","6474179","0.0-345.0","","","null","","","","","","","","","",""
"577.5","","image-keyboard-response","346","6474757","0.0-346.0","","img/set1/S4.jpg","74","4","structured_normal","74","structured_normal,structured_incentive,random,structured_load","2,3,2,1,3,4","4,3,1,2","true","","",""
"null","","html-keyboard-response","347","6475108","0.0-347.0","","<img src=""img/set1/S4.jpg"" width=""540"" height = ""360"" style=""border:16px solid orange"">","null","","","","","","","","","",""
"null","","html-keyboard-response","348","6475311","0.0-348.0","","","null","","","","","","","","","",""
"852.2000000476837","","image-keyboard-response","349","6476164","0.0-349.0","","img/set1/S2.jpg","68","2","structured_normal","68","structured_normal,structured_incentive,random,structured_load","2,3,2,1,3,4","4,3,1,2","true","","",""
"null","","html-keyboard-response","350","6476521","0.0-350.0","","<img src=""img/set1/S2.jpg"" width=""540"" height = ""360"" style=""border:16px solid orange"">","null","","","","","","","","","",""
"null","","html-keyboard-response","351","6476725","0.0-351.0","","","null","","","","","","","","","",""
"684","","image-keyboard-response","352","6477410","0.0-352.0","","img/set1/S3.jpg","72","3","structured_normal","72","structured_normal,structured_incentive,random,structured_load","2,3,2,1,3,4","4,3,1,2","true","","",""
"null","","html-keyboard-response","353","6477762","0.0-353.0","","<img src=""img/set1/S3.jpg"" width=""540"" height = ""360"" style=""border:16px solid orange"">","null","","","","","","","","","",""
"null","","html-keyboard-response","354","6477967","0.0-354.0","","","null","","","","","","","","","",""
"759.3999998569489","","image-keyboard-response","355","6478727","0.0-355.0","","img/set1/S2.jpg","68","2","structured_normal","68","structured_normal,structured_incentive,random,structured_load","2,3,2,1,3,4","4,3,1,2","true","","",""
"null","","html-keyboard-response","356","6479079","0.0-356.0","","<img src=""img/set1/S2.jpg"" width=""540"" height = ""360"" style=""border:16px solid orange"">","null","","","","","","","","","",""
"null","","html-keyboard-response","357","6479282","0.0-357.0","","","null","","","","","","","","","",""
"751","","image-keyboard-response","358","6480034","0.0-358.0","","img/set1/S3.jpg","72","3","structured_normal","72","structured_normal,structured_incentive,random,structured_load","2,3,2,1,3,4","4,3,1,2","true","","",""
"null","","html-keyboard-response","359","6480386","0.0-359.0","","<img src=""img/set1/S3.jpg"" width=""540"" height = ""360"" style=""border:16px solid orange"">","null","","","","","","","","","",""
"null","","html-keyboard-response","360","6480591","0.0-360.0","","","null","","","","","","","","","",""
"638.2999999523163","","image-keyboard-response","361","6481231","0.0-361.0","","img/set1/S4.jpg","74","4","structured_normal","74","structured_normal,structured_incentive,random,structured_load","2,3,2,1,3,4","4,3,1,2","true","","",""
"null","","html-keyboard-response","362","6481586","0.0-362.0","","<img src=""img/set1/S4.jpg"" width=""540"" height = ""360"" style=""border:16px solid orange"">","null","","","","","","","","","",""
"null","","html-keyboard-response","363","6481787","0.0-363.0","","","null","","","","","","","","","",""
"7193.599999904633","","html-keyboard-response","364","6488982","0.0-364.0","","<p class=""center-content"">You have completed a block! </p><p class=""center-content"">Press any key on the keyboard to continue, </p><p class=""center-content"">or wait for the automatic progression to the next block after one minute.</p>","32","","","","","","","","","",""
"7855.5","","instructions","365","6496838","0.0-365.0","[{""page_index"":0,""viewing_time"":7855}]","","","","","","","","","","","",""
"40238.799999952316","","instructions","366","6537078","0.0-366.0","[{""page_index"":0,""viewing_time"":27766.5},{""page_index"":1,""viewing_time"":12472}]","","","","","","","","","","","",""
"1086.6000001430511","","image-keyboard-response","367","6538166","0.0-367.0","","img/set2/S2.jpg","68","2","structured_incentive","68","structured_normal,structured_incentive,random,structured_load","2,3,2,1,3,4","4,3,1,2","true","","",""
"null","","html-keyboard-response","368","6538521","0.0-368.0","","<img src=""img/set2/S2.jpg"" width=""540"" height = ""360"" style=""border:16px solid orange"">","null","","","","","","","","","",""
"null","","html-keyboard-response","369","6538723","0.0-369.0","","","null","","","","","","","","","",""
"1367.0999999046326","","image-keyboard-response","370","6540091","0.0-370.0","","img/set2/S1.jpg","72","1","structured_incentive","83","structured_normal,structured_incentive,random,structured_load","2,3,2,1,3,4","4,3,1,2","false","","",""
"null","","html-keyboard-response","371","6540445","0.0-371.0","","<img src=""img/set2/S1.jpg"" width=""540"" height = ""360"">","null","","","","","","","","","",""
"null","","html-keyboard-response","372","6540649","0.0-372.0","","","null","","","","","","","","","",""
"1267","","image-keyboard-response","373","6541917","0.0-373.0","","img/set2/S3.jpg","83","3","structured_incentive","72","structured_normal,structured_incentive,random,structured_load","2,3,2,1,3,4","4,3,1,2","false","","",""
"null","","html-keyboard-response","374","6542272","0.0-374.0","","<img src=""img/set2/S3.jpg"" width=""540"" height = ""360"">","null","","","","","","","","","",""
"null","","html-keyboard-response","375","6542474","0.0-375.0","","","null","","","","","","","","","",""
"1257.0999999046326","","image-keyboard-response","376","6543732","0.0-376.0","","img/set2/S4.jpg","74","4","structured_incentive","74","structured_normal,structured_incentive,random,structured_load","2,3,2,1,3,4","4,3,1,2","true","","",""
"null","","html-keyboard-response","377","6544088","0.0-377.0","","<img src=""img/set2/S4.jpg"" width=""540"" height = ""360"" style=""border:16px solid orange"">","null","","","","","","","","","",""
"null","","html-keyboard-response","378","6544292","0.0-378.0","","","null","","","","","","","","","",""
"1474.5999999046326","","image-keyboard-response","379","6545768","0.0-379.0","","img/set2/S3.jpg","72","3","structured_incentive","72","structured_normal,structured_incentive,random,structured_load","2,3,2,1,3,4","4,3,1,2","true","","",""
"null","","html-keyboard-response","380","6546123","0.0-380.0","","<img src=""img/set2/S3.jpg"" width=""540"" height = ""360"" style=""border:16px solid orange"">","null","","","","","","","","","",""
"null","","html-keyboard-response","381","6546326","0.0-381.0","","","null","","","","","","","","","",""
"847.7999999523163","","image-keyboard-response","382","6547175","0.0-382.0","","img/set2/S4.jpg","74","4","structured_incentive","74","structured_normal,structured_incentive,random,structured_load","2,3,2,1,3,4","4,3,1,2","true","","",""
"null","","html-keyboard-response","383","6547527","0.0-383.0","","<img src=""img/set2/S4.jpg"" width=""540"" height = ""360"" style=""border:16px solid orange"">","null","","","","","","","","","",""
"null","","html-keyboard-response","384","6547731","0.0-384.0","","","null","","","","","","","","","",""
"1017.6999998092651","","image-keyboard-response","385","6548751","0.0-385.0","","img/set2/S2.jpg","68","2","structured_incentive","68","structured_normal,structured_incentive,random,structured_load","2,3,2,1,3,4","4,3,1,2","true","","",""
"null","","html-keyboard-response","386","6549103","0.0-386.0","","<img src=""img/set2/S2.jpg"" width=""540"" height = ""360"" style=""border:16px solid orange"">","null","","","","","","","","","",""
"null","","html-keyboard-response","387","6549305","0.0-387.0","","","null","","","","","","","","","",""
"751","","image-keyboard-response","388","6550057","0.0-388.0","","img/set2/S1.jpg","83","1","structured_incentive","83","structured_normal,structured_incentive,random,structured_load","2,3,2,1,3,4","4,3,1,2","true","","",""
"null","","html-keyboard-response","389","6550410","0.0-389.0","","<img src=""img/set2/S1.jpg"" width=""540"" height = ""360"" style=""border:16px solid Violet"">","null","","","","","","","","","",""
"null","","html-keyboard-response","390","6550613","0.0-390.0","","","null","","","","","","","","","",""
"989.7000000476837","","image-keyboard-response","391","6551604","0.0-391.0","","img/set2/S4.jpg","74","4","structured_incentive","74","structured_normal,structured_incentive,random,structured_load","2,3,2,1,3,4","4,3,1,2","true","","",""
"null","","html-keyboard-response","392","6551957","0.0-392.0","","<img src=""img/set2/S4.jpg"" width=""540"" height = ""360"" style=""border:16px solid orange"">","null","","","","","","","","","",""
"null","","html-keyboard-response","393","6552159","0.0-393.0","","","null","","","","","","","","","",""
"780.5","","image-keyboard-response","394","6552940","0.0-394.0","","img/set2/S2.jpg","68","2","structured_incentive","68","structured_normal,structured_incentive,random,structured_load","2,3,2,1,3,4","4,3,1,2","true","","",""
"null","","html-keyboard-response","395","6553296","0.0-395.0","","<img src=""img/set2/S2.jpg"" width=""540"" height = ""360"" style=""border:16px solid orange"">","null","","","","","","","","","",""
"null","","html-keyboard-response","396","6553500","0.0-396.0","","","null","","","","","","","","","",""
"666.3000001907349","","image-keyboard-response","397","6554167","0.0-397.0","","img/set2/S1.jpg","83","1","structured_incentive","83","structured_normal,structured_incentive,random,structured_load","2,3,2,1,3,4","4,3,1,2","true","","",""
"null","","html-keyboard-response","398","6554520","0.0-398.0","","<img src=""img/set2/S1.jpg"" width=""540"" height = ""360"" style=""border:16px solid Violet"">","null","","","","","","","","","",""
"null","","html-keyboard-response","399","6554725","0.0-399.0","","","null","","","","","","","","","",""
"957.0999999046326","","image-keyboard-response","400","6555683","0.0-400.0","","img/set2/S4.jpg","74","4","structured_incentive","74","structured_normal,structured_incentive,random,structured_load","2,3,2,1,3,4","4,3,1,2","true","","",""
"null","","html-keyboard-response","401","6556036","0.0-401.0","","<img src=""img/set2/S4.jpg"" width=""540"" height = ""360"" style=""border:16px solid orange"">","null","","","","","","","","","",""
"null","","html-keyboard-response","402","6556238","0.0-402.0","","","null","","","","","","","","","",""
"562.1999998092651","","image-keyboard-response","403","6556801","0.0-403.0","","img/set2/S3.jpg","72","3","structured_incentive","72","structured_normal,structured_incentive,random,structured_load","2,3,2,1,3,4","4,3,1,2","true","","",""
"null","","html-keyboard-response","404","6557156","0.0-404.0","","<img src=""img/set2/S3.jpg"" width=""540"" height = ""360"" style=""border:16px solid orange"">","null","","","","","","","","","",""
"null","","html-keyboard-response","405","6557359","0.0-405.0","","","null","","","","","","","","","",""
"627.7999999523163","","image-keyboard-response","406","6557989","0.0-406.0","","img/set2/S2.jpg","68","2","structured_incentive","68","structured_normal,structured_incentive,random,structured_load","2,3,2,1,3,4","4,3,1,2","true","","",""
"null","","html-keyboard-response","407","6558344","0.0-407.0","","<img src=""img/set2/S2.jpg"" width=""540"" height = ""360"" style=""border:16px solid orange"">","null","","","","","","","","","",""
"null","","html-keyboard-response","408","6558546","0.0-408.0","","","null","","","","","","","","","",""
"588.2999999523163","","image-keyboard-response","409","6559136","0.0-409.0","","img/set2/S1.jpg","83","1","structured_incentive","83","structured_normal,structured_incentive,random,structured_load","2,3,2,1,3,4","4,3,1,2","true","","",""
"null","","html-keyboard-response","410","6559490","0.0-410.0","","<img src=""img/set2/S1.jpg"" width=""540"" height = ""360"" style=""border:16px solid Violet"">","null","","","","","","","","","",""
"null","","html-keyboard-response","411","6559694","0.0-411.0","","","null","","","","","","","","","",""
"769","","image-keyboard-response","412","6560465","0.0-412.0","","img/set2/S2.jpg","68","2","structured_incentive","68","structured_normal,structured_incentive,random,structured_load","2,3,2,1,3,4","4,3,1,2","true","","",""
"null","","html-keyboard-response","413","6560816","0.0-413.0","","<img src=""img/set2/S2.jpg"" width=""540"" height = ""360"" style=""border:16px solid orange"">","null","","","","","","","","","",""
"null","","html-keyboard-response","414","6561019","0.0-414.0","","","null","","","","","","","","","",""
"640.2000000476837","","image-keyboard-response","415","6561661","0.0-415.0","","img/set2/S1.jpg","83","1","structured_incentive","83","structured_normal,structured_incentive,random,structured_load","2,3,2,1,3,4","4,3,1,2","true","","",""
"null","","html-keyboard-response","416","6562013","0.0-416.0","","<img src=""img/set2/S1.jpg"" width=""540"" height = ""360"" style=""border:16px solid Violet"">","null","","","","","","","","","",""
"null","","html-keyboard-response","417","6562215","0.0-417.0","","","null","","","","","","","","","",""
"800.2000000476837","","image-keyboard-response","418","6563016","0.0-418.0","","img/set2/S4.jpg","74","4","structured_incentive","74","structured_normal,structured_incentive,random,structured_load","2,3,2,1,3,4","4,3,1,2","true","","",""
"null","","html-keyboard-response","419","6563370","0.0-419.0","","<img src=""img/set2/S4.jpg"" width=""540"" height = ""360"" style=""border:16px solid orange"">","null","","","","","","","","","",""
"null","","html-keyboard-response","420","6563572","0.0-420.0","","","null","","","","","","","","","",""
"869.5","","image-keyboard-response","421","6564443","0.0-421.0","","img/set2/S3.jpg","72","3","structured_incentive","72","structured_normal,structured_incentive,random,structured_load","2,3,2,1,3,4","4,3,1,2","true","","",""
"null","","html-keyboard-response","422","6564796","0.0-422.0","","<img src=""img/set2/S3.jpg"" width=""540"" height = ""360"" style=""border:16px solid orange"">","null","","","","","","","","","",""
"null","","html-keyboard-response","423","6565002","0.0-423.0","","","null","","","","","","","","","",""
"1255.7000000476837","","image-keyboard-response","424","6566258","0.0-424.0","","img/set2/S4.jpg","74","4","structured_incentive","74","structured_normal,structured_incentive,random,structured_load","2,3,2,1,3,4","4,3,1,2","true","","",""
"null","","html-keyboard-response","425","6566613","0.0-425.0","","<img src=""img/set2/S4.jpg"" width=""540"" height = ""360"" style=""border:16px solid orange"">","null","","","","","","","","","",""
"null","","html-keyboard-response","426","6566815","0.0-426.0","","","null","","","","","","","","","",""
"1129","","image-keyboard-response","427","6567946","0.0-427.0","","img/set2/S3.jpg","68","3","structured_incentive","72","structured_normal,structured_incentive,random,structured_load","2,3,2,1,3,4","4,3,1,2","false","","",""
"null","","html-keyboard-response","428","6568298","0.0-428.0","","<img src=""img/set2/S3.jpg"" width=""540"" height = ""360"">","null","","","","","","","","","",""
"null","","html-keyboard-response","429","6568501","0.0-429.0","","","null","","","","","","","","","",""
"658.8999998569489","","image-keyboard-response","430","6569161","0.0-430.0","","img/set2/S3.jpg","72","3","structured_incentive","72","structured_normal,structured_incentive,random,structured_load","2,3,2,1,3,4","4,3,1,2","true","","",""
"null","","html-keyboard-response","431","6569515","0.0-431.0","","<img src=""img/set2/S3.jpg"" width=""540"" height = ""360"" style=""border:16px solid orange"">","null","","","","","","","","","",""
"null","","html-keyboard-response","432","6569717","0.0-432.0","","","null","","","","","","","","","",""
"709.7999999523163","","image-keyboard-response","433","6570429","0.0-433.0","","img/set2/S4.jpg","83","4","structured_incentive","74","structured_normal,structured_incentive,random,structured_load","2,3,2,1,3,4","4,3,1,2","false","","",""
"null","","html-keyboard-response","434","6570781","0.0-434.0","","<img src=""img/set2/S4.jpg"" width=""540"" height = ""360"">","null","","","","","","","","","",""
"null","","html-keyboard-response","435","6570983","0.0-435.0","","","null","","","","","","","","","",""
"951.6000001430511","","image-keyboard-response","436","6571936","0.0-436.0","","img/set2/S3.jpg","72","3","structured_incentive","72","structured_normal,structured_incentive,random,structured_load","2,3,2,1,3,4","4,3,1,2","true","","",""
"null","","html-keyboard-response","437","6572289","0.0-437.0","","<img src=""img/set2/S3.jpg"" width=""540"" height = ""360"" style=""border:16px solid orange"">","null","","","","","","","","","",""
"null","","html-keyboard-response","438","6572495","0.0-438.0","","","null","","","","","","","","","",""
"685.7999999523163","","image-keyboard-response","439","6573182","0.0-439.0","","img/set2/S2.jpg","68","2","structured_incentive","68","structured_normal,structured_incentive,random,structured_load","2,3,2,1,3,4","4,3,1,2","true","","",""
"null","","html-keyboard-response","440","6573537","0.0-440.0","","<img src=""img/set2/S2.jpg"" width=""540"" height = ""360"" style=""border:16px solid orange"">","null","","","","","","","","","",""
"null","","html-keyboard-response","441","6573742","0.0-441.0","","","null","","","","","","","","","",""
"655.7000000476837","","image-keyboard-response","442","6574399","0.0-442.0","","img/set2/S1.jpg","83","1","structured_incentive","83","structured_normal,structured_incentive,random,structured_load","2,3,2,1,3,4","4,3,1,2","true","","",""
"null","","html-keyboard-response","443","6574752","0.0-443.0","","<img src=""img/set2/S1.jpg"" width=""540"" height = ""360"" style=""border:16px solid Violet"">","null","","","","","","","","","",""
"null","","html-keyboard-response","444","6574954","0.0-444.0","","","null","","","","","","","","","",""
"661.2000000476837","","image-keyboard-response","445","6575616","0.0-445.0","","img/set2/S2.jpg","68","2","structured_incentive","68","structured_normal,structured_incentive,random,structured_load","2,3,2,1,3,4","4,3,1,2","true","","",""
"null","","html-keyboard-response","446","6575970","0.0-446.0","","<img src=""img/set2/S2.jpg"" width=""540"" height = ""360"" style=""border:16px solid orange"">","null","","","","","","","","","",""
"null","","html-keyboard-response","447","6576172","0.0-447.0","","","null","","","","","","","","","",""
"700.0999999046326","","image-keyboard-response","448","6576873","0.0-448.0","","img/set2/S1.jpg","83","1","structured_incentive","83","structured_normal,structured_incentive,random,structured_load","2,3,2,1,3,4","4,3,1,2","true","","",""
"null","","html-keyboard-response","449","6577225","0.0-449.0","","<img src=""img/set2/S1.jpg"" width=""540"" height = ""360"" style=""border:16px solid Violet"">","null","","","","","","","","","",""
"null","","html-keyboard-response","450","6577429","0.0-450.0","","","null","","","","","","","","","",""
"591.7999999523163","","image-keyboard-response","451","6578022","0.0-451.0","","img/set2/S2.jpg","68","2","structured_incentive","68","structured_normal,structured_incentive,random,structured_load","2,3,2,1,3,4","4,3,1,2","true","","",""
"null","","html-keyboard-response","452","6578374","0.0-452.0","","<img src=""img/set2/S2.jpg"" width=""540"" height = ""360"" style=""border:16px solid orange"">","null","","","","","","","","","",""
"null","","html-keyboard-response","453","6578577","0.0-453.0","","","null","","","","","","","","","",""
"632.0999999046326","","image-keyboard-response","454","6579210","0.0-454.0","","img/set2/S1.jpg","83","1","structured_incentive","83","structured_normal,structured_incentive,random,structured_load","2,3,2,1,3,4","4,3,1,2","true","","",""
"null","","html-keyboard-response","455","6579564","0.0-455.0","","<img src=""img/set2/S1.jpg"" width=""540"" height = ""360"" style=""border:16px solid Violet"">","null","","","","","","","","","",""
"null","","html-keyboard-response","456","6579768","0.0-456.0","","","null","","","","","","","","","",""
"625","","image-keyboard-response","457","6580394","0.0-457.0","","img/set2/S2.jpg","68","2","structured_incentive","68","structured_normal,structured_incentive,random,structured_load","2,3,2,1,3,4","4,3,1,2","true","","",""
"null","","html-keyboard-response","458","6580747","0.0-458.0","","<img src=""img/set2/S2.jpg"" width=""540"" height = ""360"" style=""border:16px solid orange"">","null","","","","","","","","","",""
"null","","html-keyboard-response","459","6580951","0.0-459.0","","","null","","","","","","","","","",""
"462.09999990463257","","image-keyboard-response","460","6581414","0.0-460.0","","img/set2/S1.jpg","83","1","structured_incentive","83","structured_normal,structured_incentive,random,structured_load","2,3,2,1,3,4","4,3,1,2","true","","",""
"null","","html-keyboard-response","461","6581768","0.0-461.0","","<img src=""img/set2/S1.jpg"" width=""540"" height = ""360"" style=""border:16px solid Violet"">","null","","","","","","","","","",""
"null","","html-keyboard-response","462","6581971","0.0-462.0","","","null","","","","","","","","","",""
"806.3000001907349","","image-keyboard-response","463","6582779","0.0-463.0","","img/set2/S4.jpg","74","4","structured_incentive","74","structured_normal,structured_incentive,random,structured_load","2,3,2,1,3,4","4,3,1,2","true","","",""
"null","","html-keyboard-response","464","6583134","0.0-464.0","","<img src=""img/set2/S4.jpg"" width=""540"" height = ""360"" style=""border:16px solid orange"">","null","","","","","","","","","",""
"null","","html-keyboard-response","465","6583339","0.0-465.0","","","null","","","","","","","","","",""
"695.5","","image-keyboard-response","466","6584036","0.0-466.0","","img/set2/S2.jpg","68","2","structured_incentive","68","structured_normal,structured_incentive,random,structured_load","2,3,2,1,3,4","4,3,1,2","true","","",""
"null","","html-keyboard-response","467","6584389","0.0-467.0","","<img src=""img/set2/S2.jpg"" width=""540"" height = ""360"" style=""border:16px solid orange"">","null","","","","","","","","","",""
"null","","html-keyboard-response","468","6584592","0.0-468.0","","","null","","","","","","","","","",""
"670.2000000476837","","image-keyboard-response","469","6585263","0.0-469.0","","img/set2/S1.jpg","83","1","structured_incentive","83","structured_normal,structured_incentive,random,structured_load","2,3,2,1,3,4","4,3,1,2","true","","",""
"null","","html-keyboard-response","470","6585618","0.0-470.0","","<img src=""img/set2/S1.jpg"" width=""540"" height = ""360"" style=""border:16px solid Violet"">","null","","","","","","","","","",""
"null","","html-keyboard-response","471","6585820","0.0-471.0","","","null","","","","","","","","","",""
"818.7999999523163","","image-keyboard-response","472","6586640","0.0-472.0","","img/set2/S3.jpg","72","3","structured_incentive","72","structured_normal,structured_incentive,random,structured_load","2,3,2,1,3,4","4,3,1,2","true","","",""
"null","","html-keyboard-response","473","6586992","0.0-473.0","","<img src=""img/set2/S3.jpg"" width=""540"" height = ""360"" style=""border:16px solid orange"">","null","","","","","","","","","",""
"null","","html-keyboard-response","474","6587195","0.0-474.0","","","null","","","","","","","","","",""
"679.8999998569489","","image-keyboard-response","475","6587877","0.0-475.0","","img/set2/S4.jpg","74","4","structured_incentive","74","structured_normal,structured_incentive,random,structured_load","2,3,2,1,3,4","4,3,1,2","true","","",""
"null","","html-keyboard-response","476","6588229","0.0-476.0","","<img src=""img/set2/S4.jpg"" width=""540"" height = ""360"" style=""border:16px solid orange"">","null","","","","","","","","","",""
"null","","html-keyboard-response","477","6588431","0.0-477.0","","","null","","","","","","","","","",""
"611.7000000476837","","image-keyboard-response","478","6589044","0.0-478.0","","img/set2/S4.jpg","74","4","structured_incentive","74","structured_normal,structured_incentive,random,structured_load","2,3,2,1,3,4","4,3,1,2","true","","",""
"null","","html-keyboard-response","479","6589397","0.0-479.0","","<img src=""img/set2/S4.jpg"" width=""540"" height = ""360"" style=""border:16px solid orange"">","null","","","","","","","","","",""
"null","","html-keyboard-response","480","6589601","0.0-480.0","","","null","","","","","","","","","",""
"659","","image-keyboard-response","481","6590261","0.0-481.0","","img/set2/S4.jpg","74","4","structured_incentive","74","structured_normal,structured_incentive,random,structured_load","2,3,2,1,3,4","4,3,1,2","true","","",""
"null","","html-keyboard-response","482","6590615","0.0-482.0","","<img src=""img/set2/S4.jpg"" width=""540"" height = ""360"" style=""border:16px solid orange"">","null","","","","","","","","","",""
"null","","html-keyboard-response","483","6590817","0.0-483.0","","","null","","","","","","","","","",""
"639.4000000953674","","image-keyboard-response","484","6591458","0.0-484.0","","img/set2/S4.jpg","74","4","structured_incentive","74","structured_normal,structured_incentive,random,structured_load","2,3,2,1,3,4","4,3,1,2","true","","",""
"null","","html-keyboard-response","485","6591810","0.0-485.0","","<img src=""img/set2/S4.jpg"" width=""540"" height = ""360"" style=""border:16px solid orange"">","null","","","","","","","","","",""
"null","","html-keyboard-response","486","6592013","0.0-486.0","","","null","","","","","","","","","",""
"560.9000000953674","","image-keyboard-response","487","6592575","0.0-487.0","","img/set2/S2.jpg","68","2","structured_incentive","68","structured_normal,structured_incentive,random,structured_load","2,3,2,1,3,4","4,3,1,2","true","","",""
"null","","html-keyboard-response","488","6592928","0.0-488.0","","<img src=""img/set2/S2.jpg"" width=""540"" height = ""360"" style=""border:16px solid orange"">","null","","","","","","","","","",""
"null","","html-keyboard-response","489","6593130","0.0-489.0","","","null","","","","","","","","","",""
"453.2999999523163","","image-keyboard-response","490","6593584","0.0-490.0","","img/set2/S1.jpg","83","1","structured_incentive","83","structured_normal,structured_incentive,random,structured_load","2,3,2,1,3,4","4,3,1,2","true","","",""
"null","","html-keyboard-response","491","6593940","0.0-491.0","","<img src=""img/set2/S1.jpg"" width=""540"" height = ""360"" style=""border:16px solid Violet"">","null","","","","","","","","","",""
"null","","html-keyboard-response","492","6594143","0.0-492.0","","","null","","","","","","","","","",""
"615.6999998092651","","image-keyboard-response","493","6594760","0.0-493.0","","img/set2/S3.jpg","72","3","structured_incentive","72","structured_normal,structured_incentive,random,structured_load","2,3,2,1,3,4","4,3,1,2","true","","",""
"null","","html-keyboard-response","494","6595114","0.0-494.0","","<img src=""img/set2/S3.jpg"" width=""540"" height = ""360"" style=""border:16px solid orange"">","null","","","","","","","","","",""
"null","","html-keyboard-response","495","6595319","0.0-495.0","","","null","","","","","","","","","",""
"617.2999999523163","","image-keyboard-response","496","6595937","0.0-496.0","","img/set2/S2.jpg","68","2","structured_incentive","68","structured_normal,structured_incentive,random,structured_load","2,3,2,1,3,4","4,3,1,2","true","","",""
"null","","html-keyboard-response","497","6596292","0.0-497.0","","<img src=""img/set2/S2.jpg"" width=""540"" height = ""360"" style=""border:16px solid orange"">","null","","","","","","","","","",""
"null","","html-keyboard-response","498","6596495","0.0-498.0","","","null","","","","","","","","","",""
"708","","image-keyboard-response","499","6597205","0.0-499.0","","img/set2/S1.jpg","83","1","structured_incentive","83","structured_normal,structured_incentive,random,structured_load","2,3,2,1,3,4","4,3,1,2","true","","",""
"null","","html-keyboard-response","500","6597558","0.0-500.0","","<img src=""img/set2/S1.jpg"" width=""540"" height = ""360"" style=""border:16px solid Violet"">","null","","","","","","","","","",""
"null","","html-keyboard-response","501","6597761","0.0-501.0","","","null","","","","","","","","","",""
"1058.7999999523163","","image-keyboard-response","502","6598821","0.0-502.0","","img/set2/S3.jpg","72","3","structured_incentive","72","structured_normal,structured_incentive,random,structured_load","2,3,2,1,3,4","4,3,1,2","true","","",""
"null","","html-keyboard-response","503","6599173","0.0-503.0","","<img src=""img/set2/S3.jpg"" width=""540"" height = ""360"" style=""border:16px solid orange"">","null","","","","","","","","","",""
"null","","html-keyboard-response","504","6599375","0.0-504.0","","","null","","","","","","","","","",""
"502.60000014305115","","image-keyboard-response","505","6599879","0.0-505.0","","img/set2/S3.jpg","72","3","structured_incentive","72","structured_normal,structured_incentive,random,structured_load","2,3,2,1,3,4","4,3,1,2","true","","",""
"null","","html-keyboard-response","506","6600231","0.0-506.0","","<img src=""img/set2/S3.jpg"" width=""540"" height = ""360"" style=""border:16px solid orange"">","null","","","","","","","","","",""
"null","","html-keyboard-response","507","6600435","0.0-507.0","","","null","","","","","","","","","",""
"610","","image-keyboard-response","508","6601046","0.0-508.0","","img/set2/S4.jpg","74","4","structured_incentive","74","structured_normal,structured_incentive,random,structured_load","2,3,2,1,3,4","4,3,1,2","true","","",""
"null","","html-keyboard-response","509","6601400","0.0-509.0","","<img src=""img/set2/S4.jpg"" width=""540"" height = ""360"" style=""border:16px solid orange"">","null","","","","","","","","","",""
"null","","html-keyboard-response","510","6601603","0.0-510.0","","","null","","","","","","","","","",""
"638.7000000476837","","image-keyboard-response","511","6602243","0.0-511.0","","img/set2/S2.jpg","68","2","structured_incentive","68","structured_normal,structured_incentive,random,structured_load","2,3,2,1,3,4","4,3,1,2","true","","",""
"null","","html-keyboard-response","512","6602600","0.0-512.0","","<img src=""img/set2/S2.jpg"" width=""540"" height = ""360"" style=""border:16px solid orange"">","null","","","","","","","","","",""
"null","","html-keyboard-response","513","6602801","0.0-513.0","","","null","","","","","","","","","",""
"627.7000000476837","","image-keyboard-response","514","6603430","0.0-514.0","","img/set2/S1.jpg","83","1","structured_incentive","83","structured_normal,structured_incentive,random,structured_load","2,3,2,1,3,4","4,3,1,2","true","","",""
"null","","html-keyboard-response","515","6603784","0.0-515.0","","<img src=""img/set2/S1.jpg"" width=""540"" height = ""360"" style=""border:16px solid Violet"">","null","","","","","","","","","",""
"null","","html-keyboard-response","516","6603986","0.0-516.0","","","null","","","","","","","","","",""
"790.2999999523163","","image-keyboard-response","517","6604777","0.0-517.0","","img/set2/S3.jpg","72","3","structured_incentive","72","structured_normal,structured_incentive,random,structured_load","2,3,2,1,3,4","4,3,1,2","true","","",""
"null","","html-keyboard-response","518","6605130","0.0-518.0","","<img src=""img/set2/S3.jpg"" width=""540"" height = ""360"" style=""border:16px solid orange"">","null","","","","","","","","","",""
"null","","html-keyboard-response","519","6605331","0.0-519.0","","","null","","","","","","","","","",""
"641.2999999523163","","image-keyboard-response","520","6605975","0.0-520.0","","img/set2/S4.jpg","74","4","structured_incentive","74","structured_normal,structured_incentive,random,structured_load","2,3,2,1,3,4","4,3,1,2","true","","",""
"null","","html-keyboard-response","521","6606326","0.0-521.0","","<img src=""img/set2/S4.jpg"" width=""540"" height = ""360"" style=""border:16px solid orange"">","null","","","","","","","","","",""
"null","","html-keyboard-response","522","6606529","0.0-522.0","","","null","","","","","","","","","",""
"1090.6000001430511","","image-keyboard-response","523","6607621","0.0-523.0","","img/set2/S3.jpg","72","3","structured_incentive","72","structured_normal,structured_incentive,random,structured_load","2,3,2,1,3,4","4,3,1,2","true","","",""
"null","","html-keyboard-response","524","6607974","0.0-524.0","","<img src=""img/set2/S3.jpg"" width=""540"" height = ""360"" style=""border:16px solid orange"">","null","","","","","","","","","",""
"null","","html-keyboard-response","525","6608177","0.0-525.0","","","null","","","","","","","","","",""
"919","","image-keyboard-response","526","6609097","0.0-526.0","","img/set2/S4.jpg","74","4","structured_incentive","74","structured_normal,structured_incentive,random,structured_load","2,3,2,1,3,4","4,3,1,2","true","","",""
"null","","html-keyboard-response","527","6609452","0.0-527.0","","<img src=""img/set2/S4.jpg"" width=""540"" height = ""360"" style=""border:16px solid orange"">","null","","","","","","","","","",""
"null","","html-keyboard-response","528","6609654","0.0-528.0","","","null","","","","","","","","","",""
"538.8000001907349","","image-keyboard-response","529","6610195","0.0-529.0","","img/set2/S4.jpg","74","4","structured_incentive","74","structured_normal,structured_incentive,random,structured_load","2,3,2,1,3,4","4,3,1,2","true","","",""
"null","","html-keyboard-response","530","6610550","0.0-530.0","","<img src=""img/set2/S4.jpg"" width=""540"" height = ""360"" style=""border:16px solid orange"">","null","","","","","","","","","",""
"null","","html-keyboard-response","531","6610752","0.0-531.0","","","null","","","","","","","","","",""
"538.7000000476837","","image-keyboard-response","532","6611292","0.0-532.0","","img/set2/S4.jpg","74","4","structured_incentive","74","structured_normal,structured_incentive,random,structured_load","2,3,2,1,3,4","4,3,1,2","true","","",""
"null","","html-keyboard-response","533","6611645","0.0-533.0","","<img src=""img/set2/S4.jpg"" width=""540"" height = ""360"" style=""border:16px solid orange"">","null","","","","","","","","","",""
"null","","html-keyboard-response","534","6611849","0.0-534.0","","","null","","","","","","","","","",""
"439.69999980926514","","image-keyboard-response","535","6612290","0.0-535.0","","img/set2/S4.jpg","74","4","structured_incentive","74","structured_normal,structured_incentive,random,structured_load","2,3,2,1,3,4","4,3,1,2","true","","",""
"null","","html-keyboard-response","536","6612644","0.0-536.0","","<img src=""img/set2/S4.jpg"" width=""540"" height = ""360"" style=""border:16px solid orange"">","null","","","","","","","","","",""
"null","","html-keyboard-response","537","6612848","0.0-537.0","","","null","","","","","","","","","",""
"597.8999998569489","","image-keyboard-response","538","6613447","0.0-538.0","","img/set2/S2.jpg","68","2","structured_incentive","68","structured_normal,structured_incentive,random,structured_load","2,3,2,1,3,4","4,3,1,2","true","","",""
"null","","html-keyboard-response","539","6613802","0.0-539.0","","<img src=""img/set2/S2.jpg"" width=""540"" height = ""360"" style=""border:16px solid orange"">","null","","","","","","","","","",""
"null","","html-keyboard-response","540","6614004","0.0-540.0","","","null","","","","","","","","","",""
"629.7999999523163","","image-keyboard-response","541","6614635","0.0-541.0","","img/set2/S1.jpg","83","1","structured_incentive","83","structured_normal,structured_incentive,random,structured_load","2,3,2,1,3,4","4,3,1,2","true","","",""
"null","","html-keyboard-response","542","6614990","0.0-542.0","","<img src=""img/set2/S1.jpg"" width=""540"" height = ""360"" style=""border:16px solid Violet"">","null","","","","","","","","","",""
"null","","html-keyboard-response","543","6615194","0.0-543.0","","","null","","","","","","","","","",""
"685.9000000953674","","image-keyboard-response","544","6615881","0.0-544.0","","img/set2/S4.jpg","74","4","structured_incentive","74","structured_normal,structured_incentive,random,structured_load","2,3,2,1,3,4","4,3,1,2","true","","",""
