"rt","url","trial_type","trial_index","time_elapsed","internal_node_id","view_history","stimulus","key_press","state","test_part","correct_response","order_block","order_chunk","correct","responses","bonus"
"49914","consent.html","external-html","0","50002","0.0-0.0","","","","","","","","","","",""
"143964","","instructions","1","193966","0.0-1.0","[{""page_index"":0,""viewing_time"":4016},{""page_index"":1,""viewing_time"":9417},{""page_index"":2,""viewing_time"":13124},{""page_index"":3,""viewing_time"":56683},{""page_index"":4,""viewing_time"":6094},{""page_index"":5,""viewing_time"":19149},{""page_index"":4,""viewing_time"":947},{""page_index"":3,""viewing_time"":3826},{""page_index"":4,""viewing_time"":1792},{""page_index"":5,""viewing_time"":10268},{""page_index"":6,""viewing_time"":8244},{""page_index"":5,""viewing_time"":819},{""page_index"":4,""viewing_time"":862},{""page_index"":3,""viewing_time"":825},{""page_index"":2,""viewing_time"":4225},{""page_index"":3,""viewing_time"":757},{""page_index"":4,""viewing_time"":591},{""page_index"":5,""viewing_time"":614},{""page_index"":6,""viewing_time"":1710}]","","","","","","","","","",""
"35561","","instructions","2","229527","0.0-2.0","[{""page_index"":0,""viewing_time"":35560}]","","","","","","","","","",""
"19840","","instructions","3","249369","0.0-3.0","[{""page_index"":0,""viewing_time"":19840}]","","","","","","","","","",""
"919","","image-keyboard-response","4","250290","0.0-4.0","","img/set1/S4.jpg","83","4","random","74","random,structured_normal,structured_incentive,structured_load","2,1,3,4,2,3","false","",""
"null","","html-keyboard-response","5","250643","0.0-5.0","","<img src=""img/set1/S4.jpg"" width=""540"" height = ""360"">","null","","","","","","","",""
"null","","html-keyboard-response","6","250843","0.0-6.0","","","null","","","","","","","",""
"1239","","image-keyboard-response","7","252085","0.0-7.0","","img/set1/S2.jpg","68","2","random","68","random,structured_normal,structured_incentive,structured_load","2,1,3,4,2,3","true","",""
"null","","html-keyboard-response","8","252436","0.0-8.0","","<img src=""img/set1/S2.jpg"" width=""540"" height = ""360"" style=""border:16px solid orange"">","null","","","","","","","",""
"null","","html-keyboard-response","9","252636","0.0-9.0","","","null","","","","","","","",""
"1764","","image-keyboard-response","10","254401","0.0-10.0","","img/set1/S4.jpg","68","4","random","74","random,structured_normal,structured_incentive,structured_load","2,1,3,4,2,3","false","",""
"null","","html-keyboard-response","11","254752","0.0-11.0","","<img src=""img/set1/S4.jpg"" width=""540"" height = ""360"">","null","","","","","","","",""
"null","","html-keyboard-response","12","254952","0.0-12.0","","","null","","","","","","","",""
"1864","","image-keyboard-response","13","256817","0.0-13.0","","img/set1/S3.jpg","83","3","random","72","random,structured_normal,structured_incentive,structured_load","2,1,3,4,2,3","false","",""
"null","","html-keyboard-response","14","257169","0.0-14.0","","<img src=""img/set1/S3.jpg"" width=""540"" height = ""360"">","null","","","","","","","",""
"null","","html-keyboard-response","15","257368","0.0-15.0","","","null","","","","","","","",""
"1263","","image-keyboard-response","16","258632","0.0-16.0","","img/set1/S1.jpg","83","1","random","83","random,structured_normal,structured_incentive,structured_load","2,1,3,4,2,3","true","",""
"null","","html-keyboard-response","17","258983","0.0-17.0","","<img src=""img/set1/S1.jpg"" width=""540"" height = ""360"" style=""border:16px solid orange"">","null","","","","","","","",""
"null","","html-keyboard-response","18","259184","0.0-18.0","","","null","","","","","","","",""
"867","","image-keyboard-response","19","260051","0.0-19.0","","img/set1/S2.jpg","68","2","random","68","random,structured_normal,structured_incentive,structured_load","2,1,3,4,2,3","true","",""
"null","","html-keyboard-response","20","260402","0.0-20.0","","<img src=""img/set1/S2.jpg"" width=""540"" height = ""360"" style=""border:16px solid orange"">","null","","","","","","","",""
"null","","html-keyboard-response","21","260604","0.0-21.0","","","null","","","","","","","",""
"834","","image-keyboard-response","22","261439","0.0-22.0","","img/set1/S2.jpg","83","2","random","68","random,structured_normal,structured_incentive,structured_load","2,1,3,4,2,3","false","",""
"null","","html-keyboard-response","23","261791","0.0-23.0","","<img src=""img/set1/S2.jpg"" width=""540"" height = ""360"">","null","","","","","","","",""
"null","","html-keyboard-response","24","261991","0.0-24.0","","","null","","","","","","","",""
"686","","image-keyboard-response","25","262680","0.0-25.0","","img/set1/S3.jpg","83","3","random","72","random,structured_normal,structured_incentive,structured_load","2,1,3,4,2,3","false","",""
"null","","html-keyboard-response","26","263030","0.0-26.0","","<img src=""img/set1/S3.jpg"" width=""540"" height = ""360"">","null","","","","","","","",""
"null","","html-keyboard-response","27","263231","0.0-27.0","","","null","","","","","","","",""
"1517","","image-keyboard-response","28","264749","0.0-28.0","","img/set1/S4.jpg","68","4","random","74","random,structured_normal,structured_incentive,structured_load","2,1,3,4,2,3","false","",""
"null","","html-keyboard-response","29","265101","0.0-29.0","","<img src=""img/set1/S4.jpg"" width=""540"" height = ""360"">","null","","","","","","","",""
"null","","html-keyboard-response","30","265302","0.0-30.0","","","null","","","","","","","",""
"609","","image-keyboard-response","31","265910","0.0-31.0","","img/set1/S2.jpg","68","2","random","68","random,structured_normal,structured_incentive,structured_load","2,1,3,4,2,3","true","",""
"null","","html-keyboard-response","32","266261","0.0-32.0","","<img src=""img/set1/S2.jpg"" width=""540"" height = ""360"" style=""border:16px solid orange"">","null","","","","","","","",""
"null","","html-keyboard-response","33","266462","0.0-33.0","","","null","","","","","","","",""
"831","","image-keyboard-response","34","267293","0.0-34.0","","img/set1/S1.jpg","68","1","random","83","random,structured_normal,structured_incentive,structured_load","2,1,3,4,2,3","false","",""
"null","","html-keyboard-response","35","267646","0.0-35.0","","<img src=""img/set1/S1.jpg"" width=""540"" height = ""360"">","null","","","","","","","",""
"null","","html-keyboard-response","36","267846","0.0-36.0","","","null","","","","","","","",""
"674","","image-keyboard-response","37","268521","0.0-37.0","","img/set1/S2.jpg","68","2","random","68","random,structured_normal,structured_incentive,structured_load","2,1,3,4,2,3","true","",""
"null","","html-keyboard-response","38","268872","0.0-38.0","","<img src=""img/set1/S2.jpg"" width=""540"" height = ""360"" style=""border:16px solid orange"">","null","","","","","","","",""
"null","","html-keyboard-response","39","269073","0.0-39.0","","","null","","","","","","","",""
"583","","image-keyboard-response","40","269657","0.0-40.0","","img/set1/S2.jpg","68","2","random","68","random,structured_normal,structured_incentive,structured_load","2,1,3,4,2,3","true","",""
"null","","html-keyboard-response","41","270009","0.0-41.0","","<img src=""img/set1/S2.jpg"" width=""540"" height = ""360"" style=""border:16px solid orange"">","null","","","","","","","",""
"null","","html-keyboard-response","42","270209","0.0-42.0","","","null","","","","","","","",""
"599","","image-keyboard-response","43","270809","0.0-43.0","","img/set1/S1.jpg","83","1","random","83","random,structured_normal,structured_incentive,structured_load","2,1,3,4,2,3","true","",""
"null","","html-keyboard-response","44","271160","0.0-44.0","","<img src=""img/set1/S1.jpg"" width=""540"" height = ""360"" style=""border:16px solid orange"">","null","","","","","","","",""
"null","","html-keyboard-response","45","271361","0.0-45.0","","","null","","","","","","","",""
"1265","","image-keyboard-response","46","272626","0.0-46.0","","img/set1/S4.jpg","74","4","random","74","random,structured_normal,structured_incentive,structured_load","2,1,3,4,2,3","true","",""
"null","","html-keyboard-response","47","272978","0.0-47.0","","<img src=""img/set1/S4.jpg"" width=""540"" height = ""360"" style=""border:16px solid orange"">","null","","","","","","","",""
"null","","html-keyboard-response","48","273179","0.0-48.0","","","null","","","","","","","",""
"940","","image-keyboard-response","49","274120","0.0-49.0","","img/set1/S2.jpg","68","2","random","68","random,structured_normal,structured_incentive,structured_load","2,1,3,4,2,3","true","",""
"null","","html-keyboard-response","50","274472","0.0-50.0","","<img src=""img/set1/S2.jpg"" width=""540"" height = ""360"" style=""border:16px solid orange"">","null","","","","","","","",""
"null","","html-keyboard-response","51","274673","0.0-51.0","","","null","","","","","","","",""
"646","","image-keyboard-response","52","275320","0.0-52.0","","img/set1/S2.jpg","68","2","random","68","random,structured_normal,structured_incentive,structured_load","2,1,3,4,2,3","true","",""
"null","","html-keyboard-response","53","275671","0.0-53.0","","<img src=""img/set1/S2.jpg"" width=""540"" height = ""360"" style=""border:16px solid orange"">","null","","","","","","","",""
"null","","html-keyboard-response","54","275873","0.0-54.0","","","null","","","","","","","",""
"882","","image-keyboard-response","55","276755","0.0-55.0","","img/set1/S4.jpg","83","4","random","74","random,structured_normal,structured_incentive,structured_load","2,1,3,4,2,3","false","",""
"null","","html-keyboard-response","56","277107","0.0-56.0","","<img src=""img/set1/S4.jpg"" width=""540"" height = ""360"">","null","","","","","","","",""
"null","","html-keyboard-response","57","277307","0.0-57.0","","","null","","","","","","","",""
"509","","image-keyboard-response","58","277817","0.0-58.0","","img/set1/S4.jpg","74","4","random","74","random,structured_normal,structured_incentive,structured_load","2,1,3,4,2,3","true","",""
"null","","html-keyboard-response","59","278168","0.0-59.0","","<img src=""img/set1/S4.jpg"" width=""540"" height = ""360"" style=""border:16px solid orange"">","null","","","","","","","",""
"null","","html-keyboard-response","60","278369","0.0-60.0","","","null","","","","","","","",""
"844","","image-keyboard-response","61","279213","0.0-61.0","","img/set1/S1.jpg","72","1","random","83","random,structured_normal,structured_incentive,structured_load","2,1,3,4,2,3","false","",""
"null","","html-keyboard-response","62","279563","0.0-62.0","","<img src=""img/set1/S1.jpg"" width=""540"" height = ""360"">","null","","","","","","","",""
"null","","html-keyboard-response","63","279764","0.0-63.0","","","null","","","","","","","",""
"966","","image-keyboard-response","64","280731","0.0-64.0","","img/set1/S1.jpg","83","1","random","83","random,structured_normal,structured_incentive,structured_load","2,1,3,4,2,3","true","",""
"null","","html-keyboard-response","65","281082","0.0-65.0","","<img src=""img/set1/S1.jpg"" width=""540"" height = ""360"" style=""border:16px solid orange"">","null","","","","","","","",""
"null","","html-keyboard-response","66","281282","0.0-66.0","","","null","","","","","","","",""
"720","","image-keyboard-response","67","282003","0.0-67.0","","img/set1/S2.jpg","68","2","random","68","random,structured_normal,structured_incentive,structured_load","2,1,3,4,2,3","true","",""
"null","","html-keyboard-response","68","282354","0.0-68.0","","<img src=""img/set1/S2.jpg"" width=""540"" height = ""360"" style=""border:16px solid orange"">","null","","","","","","","",""
"null","","html-keyboard-response","69","282555","0.0-69.0","","","null","","","","","","","",""
"511","","image-keyboard-response","70","283067","0.0-70.0","","img/set1/S4.jpg","74","4","random","74","random,structured_normal,structured_incentive,structured_load","2,1,3,4,2,3","true","",""
"null","","html-keyboard-response","71","283418","0.0-71.0","","<img src=""img/set1/S4.jpg"" width=""540"" height = ""360"" style=""border:16px solid orange"">","null","","","","","","","",""
"null","","html-keyboard-response","72","283619","0.0-72.0","","","null","","","","","","","",""
"1064","","image-keyboard-response","73","284684","0.0-73.0","","img/set1/S3.jpg","74","3","random","72","random,structured_normal,structured_incentive,structured_load","2,1,3,4,2,3","false","",""
"null","","html-keyboard-response","74","285036","0.0-74.0","","<img src=""img/set1/S3.jpg"" width=""540"" height = ""360"">","null","","","","","","","",""
"null","","html-keyboard-response","75","285237","0.0-75.0","","","null","","","","","","","",""
"491","","image-keyboard-response","76","285729","0.0-76.0","","img/set1/S3.jpg","72","3","random","72","random,structured_normal,structured_incentive,structured_load","2,1,3,4,2,3","true","",""
"null","","html-keyboard-response","77","286079","0.0-77.0","","<img src=""img/set1/S3.jpg"" width=""540"" height = ""360"" style=""border:16px solid orange"">","null","","","","","","","",""
"null","","html-keyboard-response","78","286280","0.0-78.0","","","null","","","","","","","",""
"909","","image-keyboard-response","79","287191","0.0-79.0","","img/set1/S2.jpg","68","2","random","68","random,structured_normal,structured_incentive,structured_load","2,1,3,4,2,3","true","",""
"null","","html-keyboard-response","80","287542","0.0-80.0","","<img src=""img/set1/S2.jpg"" width=""540"" height = ""360"" style=""border:16px solid orange"">","null","","","","","","","",""
"null","","html-keyboard-response","81","287744","0.0-81.0","","","null","","","","","","","",""
"832","","image-keyboard-response","82","288576","0.0-82.0","","img/set1/S4.jpg","72","4","random","74","random,structured_normal,structured_incentive,structured_load","2,1,3,4,2,3","false","",""
"null","","html-keyboard-response","83","288927","0.0-83.0","","<img src=""img/set1/S4.jpg"" width=""540"" height = ""360"">","null","","","","","","","",""
"null","","html-keyboard-response","84","289128","0.0-84.0","","","null","","","","","","","",""
"770","","image-keyboard-response","85","289899","0.0-85.0","","img/set1/S3.jpg","72","3","random","72","random,structured_normal,structured_incentive,structured_load","2,1,3,4,2,3","true","",""
"null","","html-keyboard-response","86","290250","0.0-86.0","","<img src=""img/set1/S3.jpg"" width=""540"" height = ""360"" style=""border:16px solid orange"">","null","","","","","","","",""
"null","","html-keyboard-response","87","290451","0.0-87.0","","","null","","","","","","","",""
"697","","image-keyboard-response","88","291149","0.0-88.0","","img/set1/S4.jpg","74","4","random","74","random,structured_normal,structured_incentive,structured_load","2,1,3,4,2,3","true","",""
"null","","html-keyboard-response","89","291501","0.0-89.0","","<img src=""img/set1/S4.jpg"" width=""540"" height = ""360"" style=""border:16px solid orange"">","null","","","","","","","",""
"null","","html-keyboard-response","90","291702","0.0-90.0","","","null","","","","","","","",""
"738","","image-keyboard-response","91","292440","0.0-91.0","","img/set1/S3.jpg","72","3","random","72","random,structured_normal,structured_incentive,structured_load","2,1,3,4,2,3","true","",""
"null","","html-keyboard-response","92","292790","0.0-92.0","","<img src=""img/set1/S3.jpg"" width=""540"" height = ""360"" style=""border:16px solid orange"">","null","","","","","","","",""
"null","","html-keyboard-response","93","292991","0.0-93.0","","","null","","","","","","","",""
"594","","image-keyboard-response","94","293586","0.0-94.0","","img/set1/S3.jpg","72","3","random","72","random,structured_normal,structured_incentive,structured_load","2,1,3,4,2,3","true","",""
"null","","html-keyboard-response","95","293937","0.0-95.0","","<img src=""img/set1/S3.jpg"" width=""540"" height = ""360"" style=""border:16px solid orange"">","null","","","","","","","",""
"null","","html-keyboard-response","96","294137","0.0-96.0","","","null","","","","","","","",""
"602","","image-keyboard-response","97","294740","0.0-97.0","","img/set1/S3.jpg","72","3","random","72","random,structured_normal,structured_incentive,structured_load","2,1,3,4,2,3","true","",""
"null","","html-keyboard-response","98","295092","0.0-98.0","","<img src=""img/set1/S3.jpg"" width=""540"" height = ""360"" style=""border:16px solid orange"">","null","","","","","","","",""
"null","","html-keyboard-response","99","295292","0.0-99.0","","","null","","","","","","","",""
"911","","image-keyboard-response","100","296204","0.0-100.0","","img/set1/S1.jpg","74","1","random","83","random,structured_normal,structured_incentive,structured_load","2,1,3,4,2,3","false","",""
"null","","html-keyboard-response","101","296556","0.0-101.0","","<img src=""img/set1/S1.jpg"" width=""540"" height = ""360"">","null","","","","","","","",""
"null","","html-keyboard-response","102","296757","0.0-102.0","","","null","","","","","","","",""
"743","","image-keyboard-response","103","297500","0.0-103.0","","img/set1/S3.jpg","72","3","random","72","random,structured_normal,structured_incentive,structured_load","2,1,3,4,2,3","true","",""
"null","","html-keyboard-response","104","297851","0.0-104.0","","<img src=""img/set1/S3.jpg"" width=""540"" height = ""360"" style=""border:16px solid orange"">","null","","","","","","","",""
"null","","html-keyboard-response","105","298053","0.0-105.0","","","null","","","","","","","",""
"527","","image-keyboard-response","106","298580","0.0-106.0","","img/set1/S1.jpg","68","1","random","83","random,structured_normal,structured_incentive,structured_load","2,1,3,4,2,3","false","",""
"null","","html-keyboard-response","107","298931","0.0-107.0","","<img src=""img/set1/S1.jpg"" width=""540"" height = ""360"">","null","","","","","","","",""
"null","","html-keyboard-response","108","299131","0.0-108.0","","","null","","","","","","","",""
"618","","image-keyboard-response","109","299750","0.0-109.0","","img/set1/S3.jpg","72","3","random","72","random,structured_normal,structured_incentive,structured_load","2,1,3,4,2,3","true","",""
"null","","html-keyboard-response","110","300101","0.0-110.0","","<img src=""img/set1/S3.jpg"" width=""540"" height = ""360"" style=""border:16px solid orange"">","null","","","","","","","",""
"null","","html-keyboard-response","111","300302","0.0-111.0","","","null","","","","","","","",""
"645","","image-keyboard-response","112","300948","0.0-112.0","","img/set1/S4.jpg","68","4","random","74","random,structured_normal,structured_incentive,structured_load","2,1,3,4,2,3","false","",""
"null","","html-keyboard-response","113","301299","0.0-113.0","","<img src=""img/set1/S4.jpg"" width=""540"" height = ""360"">","null","","","","","","","",""
"null","","html-keyboard-response","114","301500","0.0-114.0","","","null","","","","","","","",""
"536","","image-keyboard-response","115","302036","0.0-115.0","","img/set1/S4.jpg","83","4","random","74","random,structured_normal,structured_incentive,structured_load","2,1,3,4,2,3","false","",""
"null","","html-keyboard-response","116","302387","0.0-116.0","","<img src=""img/set1/S4.jpg"" width=""540"" height = ""360"">","null","","","","","","","",""
"null","","html-keyboard-response","117","302587","0.0-117.0","","","null","","","","","","","",""
"852","","image-keyboard-response","118","303440","0.0-118.0","","img/set1/S1.jpg","68","1","random","83","random,structured_normal,structured_incentive,structured_load","2,1,3,4,2,3","false","",""
"null","","html-keyboard-response","119","303792","0.0-119.0","","<img src=""img/set1/S1.jpg"" width=""540"" height = ""360"">","null","","","","","","","",""
"null","","html-keyboard-response","120","303992","0.0-120.0","","","null","","","","","","","",""
"637","","image-keyboard-response","121","304631","0.0-121.0","","img/set1/S3.jpg","72","3","random","72","random,structured_normal,structured_incentive,structured_load","2,1,3,4,2,3","true","",""
"null","","html-keyboard-response","122","304981","0.0-122.0","","<img src=""img/set1/S3.jpg"" width=""540"" height = ""360"" style=""border:16px solid orange"">","null","","","","","","","",""
"null","","html-keyboard-response","123","305182","0.0-123.0","","","null","","","","","","","",""
"1054","","image-keyboard-response","124","306236","0.0-124.0","","img/set1/S1.jpg","74","1","random","83","random,structured_normal,structured_incentive,structured_load","2,1,3,4,2,3","false","",""
"null","","html-keyboard-response","125","306589","0.0-125.0","","<img src=""img/set1/S1.jpg"" width=""540"" height = ""360"">","null","","","","","","","",""
"null","","html-keyboard-response","126","306790","0.0-126.0","","","null","","","","","","","",""
"614","","image-keyboard-response","127","307405","0.0-127.0","","img/set1/S2.jpg","68","2","random","68","random,structured_normal,structured_incentive,structured_load","2,1,3,4,2,3","true","",""
"null","","html-keyboard-response","128","307756","0.0-128.0","","<img src=""img/set1/S2.jpg"" width=""540"" height = ""360"" style=""border:16px solid orange"">","null","","","","","","","",""
"null","","html-keyboard-response","129","307957","0.0-129.0","","","null","","","","","","","",""
"652","","image-keyboard-response","130","308608","0.0-130.0","","img/set1/S2.jpg","68","2","random","68","random,structured_normal,structured_incentive,structured_load","2,1,3,4,2,3","true","",""
"null","","html-keyboard-response","131","308959","0.0-131.0","","<img src=""img/set1/S2.jpg"" width=""540"" height = ""360"" style=""border:16px solid orange"">","null","","","","","","","",""
"null","","html-keyboard-response","132","309159","0.0-132.0","","","null","","","","","","","",""
"489","","image-keyboard-response","133","309649","0.0-133.0","","img/set1/S2.jpg","68","2","random","68","random,structured_normal,structured_incentive,structured_load","2,1,3,4,2,3","true","",""
"null","","html-keyboard-response","134","310001","0.0-134.0","","<img src=""img/set1/S2.jpg"" width=""540"" height = ""360"" style=""border:16px solid orange"">","null","","","","","","","",""
"null","","html-keyboard-response","135","310201","0.0-135.0","","","null","","","","","","","",""
"1110","","image-keyboard-response","136","311312","0.0-136.0","","img/set1/S1.jpg","83","1","random","83","random,structured_normal,structured_incentive,structured_load","2,1,3,4,2,3","true","",""
"null","","html-keyboard-response","137","311664","0.0-137.0","","<img src=""img/set1/S1.jpg"" width=""540"" height = ""360"" style=""border:16px solid orange"">","null","","","","","","","",""
"null","","html-keyboard-response","138","311865","0.0-138.0","","","null","","","","","","","",""
"1447","","image-keyboard-response","139","313312","0.0-139.0","","img/set1/S4.jpg","72","4","random","74","random,structured_normal,structured_incentive,structured_load","2,1,3,4,2,3","false","",""
"null","","html-keyboard-response","140","313663","0.0-140.0","","<img src=""img/set1/S4.jpg"" width=""540"" height = ""360"">","null","","","","","","","",""
"null","","html-keyboard-response","141","313863","0.0-141.0","","","null","","","","","","","",""
"639","","image-keyboard-response","142","314503","0.0-142.0","","img/set1/S4.jpg","74","4","random","74","random,structured_normal,structured_incentive,structured_load","2,1,3,4,2,3","true","",""
"null","","html-keyboard-response","143","314855","0.0-143.0","","<img src=""img/set1/S4.jpg"" width=""540"" height = ""360"" style=""border:16px solid orange"">","null","","","","","","","",""
"null","","html-keyboard-response","144","315056","0.0-144.0","","","null","","","","","","","",""
"713","","image-keyboard-response","145","315769","0.0-145.0","","img/set1/S2.jpg","68","2","random","68","random,structured_normal,structured_incentive,structured_load","2,1,3,4,2,3","true","",""
"null","","html-keyboard-response","146","316120","0.0-146.0","","<img src=""img/set1/S2.jpg"" width=""540"" height = ""360"" style=""border:16px solid orange"">","null","","","","","","","",""
"null","","html-keyboard-response","147","316321","0.0-147.0","","","null","","","","","","","",""
"538","","image-keyboard-response","148","316858","0.0-148.0","","img/set1/S2.jpg","68","2","random","68","random,structured_normal,structured_incentive,structured_load","2,1,3,4,2,3","true","",""
"null","","html-keyboard-response","149","317210","0.0-149.0","","<img src=""img/set1/S2.jpg"" width=""540"" height = ""360"" style=""border:16px solid orange"">","null","","","","","","","",""
"null","","html-keyboard-response","150","317413","0.0-150.0","","","null","","","","","","","",""
"460","","image-keyboard-response","151","317873","0.0-151.0","","img/set1/S2.jpg","68","2","random","68","random,structured_normal,structured_incentive,structured_load","2,1,3,4,2,3","true","",""
"null","","html-keyboard-response","152","318224","0.0-152.0","","<img src=""img/set1/S2.jpg"" width=""540"" height = ""360"" style=""border:16px solid orange"">","null","","","","","","","",""
"null","","html-keyboard-response","153","318426","0.0-153.0","","","null","","","","","","","",""
"666","","image-keyboard-response","154","319093","0.0-154.0","","img/set1/S4.jpg","74","4","random","74","random,structured_normal,structured_incentive,structured_load","2,1,3,4,2,3","true","",""
"null","","html-keyboard-response","155","319444","0.0-155.0","","<img src=""img/set1/S4.jpg"" width=""540"" height = ""360"" style=""border:16px solid orange"">","null","","","","","","","",""
"null","","html-keyboard-response","156","319644","0.0-156.0","","","null","","","","","","","",""
"696","","image-keyboard-response","157","320341","0.0-157.0","","img/set1/S1.jpg","72","1","random","83","random,structured_normal,structured_incentive,structured_load","2,1,3,4,2,3","false","",""
"null","","html-keyboard-response","158","320693","0.0-158.0","","<img src=""img/set1/S1.jpg"" width=""540"" height = ""360"">","null","","","","","","","",""
"null","","html-keyboard-response","159","320893","0.0-159.0","","","null","","","","","","","",""
"562","","image-keyboard-response","160","321456","0.0-160.0","","img/set1/S1.jpg","83","1","random","83","random,structured_normal,structured_incentive,structured_load","2,1,3,4,2,3","true","",""
"null","","html-keyboard-response","161","321808","0.0-161.0","","<img src=""img/set1/S1.jpg"" width=""540"" height = ""360"" style=""border:16px solid orange"">","null","","","","","","","",""
"null","","html-keyboard-response","162","322009","0.0-162.0","","","null","","","","","","","",""
"609","","image-keyboard-response","163","322618","0.0-163.0","","img/set1/S4.jpg","74","4","random","74","random,structured_normal,structured_incentive,structured_load","2,1,3,4,2,3","true","",""
"null","","html-keyboard-response","164","322969","0.0-164.0","","<img src=""img/set1/S4.jpg"" width=""540"" height = ""360"" style=""border:16px solid orange"">","null","","","","","","","",""
"null","","html-keyboard-response","165","323170","0.0-165.0","","","null","","","","","","","",""
"931","","image-keyboard-response","166","324101","0.0-166.0","","img/set1/S3.jpg","72","3","random","72","random,structured_normal,structured_incentive,structured_load","2,1,3,4,2,3","true","",""
"null","","html-keyboard-response","167","324453","0.0-167.0","","<img src=""img/set1/S3.jpg"" width=""540"" height = ""360"" style=""border:16px solid orange"">","null","","","","","","","",""
"null","","html-keyboard-response","168","324654","0.0-168.0","","","null","","","","","","","",""
"642","","image-keyboard-response","169","325296","0.0-169.0","","img/set1/S1.jpg","83","1","random","83","random,structured_normal,structured_incentive,structured_load","2,1,3,4,2,3","true","",""
"null","","html-keyboard-response","170","325647","0.0-170.0","","<img src=""img/set1/S1.jpg"" width=""540"" height = ""360"" style=""border:16px solid orange"">","null","","","","","","","",""
"null","","html-keyboard-response","171","325848","0.0-171.0","","","null","","","","","","","",""
"971","","image-keyboard-response","172","326820","0.0-172.0","","img/set1/S4.jpg","68","4","random","74","random,structured_normal,structured_incentive,structured_load","2,1,3,4,2,3","false","",""
"null","","html-keyboard-response","173","327171","0.0-173.0","","<img src=""img/set1/S4.jpg"" width=""540"" height = ""360"">","null","","","","","","","",""
"null","","html-keyboard-response","174","327373","0.0-174.0","","","null","","","","","","","",""
"675","","image-keyboard-response","175","328048","0.0-175.0","","img/set1/S3.jpg","68","3","random","72","random,structured_normal,structured_incentive,structured_load","2,1,3,4,2,3","false","",""
"null","","html-keyboard-response","176","328398","0.0-176.0","","<img src=""img/set1/S3.jpg"" width=""540"" height = ""360"">","null","","","","","","","",""
"null","","html-keyboard-response","177","328599","0.0-177.0","","","null","","","","","","","",""
"657","","image-keyboard-response","178","329256","0.0-178.0","","img/set1/S2.jpg","68","2","random","68","random,structured_normal,structured_incentive,structured_load","2,1,3,4,2,3","true","",""
"null","","html-keyboard-response","179","329607","0.0-179.0","","<img src=""img/set1/S2.jpg"" width=""540"" height = ""360"" style=""border:16px solid orange"">","null","","","","","","","",""
"null","","html-keyboard-response","180","329808","0.0-180.0","","","null","","","","","","","",""
"607","","image-keyboard-response","181","330417","0.0-181.0","","img/set1/S3.jpg","72","3","random","72","random,structured_normal,structured_incentive,structured_load","2,1,3,4,2,3","true","",""
"null","","html-keyboard-response","182","330769","0.0-182.0","","<img src=""img/set1/S3.jpg"" width=""540"" height = ""360"" style=""border:16px solid orange"">","null","","","","","","","",""
"null","","html-keyboard-response","183","330969","0.0-183.0","","","null","","","","","","","",""
"433","","image-keyboard-response","184","331403","0.0-184.0","","img/set1/S3.jpg","72","3","random","72","random,structured_normal,structured_incentive,structured_load","2,1,3,4,2,3","true","",""
"null","","html-keyboard-response","185","331755","0.0-185.0","","<img src=""img/set1/S3.jpg"" width=""540"" height = ""360"" style=""border:16px solid orange"">","null","","","","","","","",""
"null","","html-keyboard-response","186","331956","0.0-186.0","","","null","","","","","","","",""
"739","","image-keyboard-response","187","332695","0.0-187.0","","img/set1/S4.jpg","74","4","random","74","random,structured_normal,structured_incentive,structured_load","2,1,3,4,2,3","true","",""
"null","","html-keyboard-response","188","333046","0.0-188.0","","<img src=""img/set1/S4.jpg"" width=""540"" height = ""360"" style=""border:16px solid orange"">","null","","","","","","","",""
"null","","html-keyboard-response","189","333247","0.0-189.0","","","null","","","","","","","",""
"582","","image-keyboard-response","190","333829","0.0-190.0","","img/set1/S2.jpg","68","2","random","68","random,structured_normal,structured_incentive,structured_load","2,1,3,4,2,3","true","",""
"null","","html-keyboard-response","191","334181","0.0-191.0","","<img src=""img/set1/S2.jpg"" width=""540"" height = ""360"" style=""border:16px solid orange"">","null","","","","","","","",""
"null","","html-keyboard-response","192","334383","0.0-192.0","","","null","","","","","","","",""
"618","","image-keyboard-response","193","335002","0.0-193.0","","img/set1/S2.jpg","68","2","random","68","random,structured_normal,structured_incentive,structured_load","2,1,3,4,2,3","true","",""
"null","","html-keyboard-response","194","335352","0.0-194.0","","<img src=""img/set1/S2.jpg"" width=""540"" height = ""360"" style=""border:16px solid orange"">","null","","","","","","","",""
"null","","html-keyboard-response","195","335554","0.0-195.0","","","null","","","","","","","",""
"704","","image-keyboard-response","196","336259","0.0-196.0","","img/set1/S3.jpg","72","3","random","72","random,structured_normal,structured_incentive,structured_load","2,1,3,4,2,3","true","",""
"null","","html-keyboard-response","197","336611","0.0-197.0","","<img src=""img/set1/S3.jpg"" width=""540"" height = ""360"" style=""border:16px solid orange"">","null","","","","","","","",""
"null","","html-keyboard-response","198","336812","0.0-198.0","","","null","","","","","","","",""
"534","","image-keyboard-response","199","337346","0.0-199.0","","img/set1/S2.jpg","68","2","random","68","random,structured_normal,structured_incentive,structured_load","2,1,3,4,2,3","true","",""
"null","","html-keyboard-response","200","337699","0.0-200.0","","<img src=""img/set1/S2.jpg"" width=""540"" height = ""360"" style=""border:16px solid orange"">","null","","","","","","","",""
"null","","html-keyboard-response","201","337899","0.0-201.0","","","null","","","","","","","",""
"489","","image-keyboard-response","202","338389","0.0-202.0","","img/set1/S2.jpg","68","2","random","68","random,structured_normal,structured_incentive,structured_load","2,1,3,4,2,3","true","",""
"null","","html-keyboard-response","203","338739","0.0-203.0","","<img src=""img/set1/S2.jpg"" width=""540"" height = ""360"" style=""border:16px solid orange"">","null","","","","","","","",""
"null","","html-keyboard-response","204","338941","0.0-204.0","","","null","","","","","","","",""
"746","","image-keyboard-response","205","339687","0.0-205.0","","img/set1/S1.jpg","83","1","random","83","random,structured_normal,structured_incentive,structured_load","2,1,3,4,2,3","true","",""
"null","","html-keyboard-response","206","340039","0.0-206.0","","<img src=""img/set1/S1.jpg"" width=""540"" height = ""360"" style=""border:16px solid orange"">","null","","","","","","","",""
"null","","html-keyboard-response","207","340240","0.0-207.0","","","null","","","","","","","",""
"786","","image-keyboard-response","208","341025","0.0-208.0","","img/set1/S4.jpg","74","4","random","74","random,structured_normal,structured_incentive,structured_load","2,1,3,4,2,3","true","",""
"null","","html-keyboard-response","209","341377","0.0-209.0","","<img src=""img/set1/S4.jpg"" width=""540"" height = ""360"" style=""border:16px solid orange"">","null","","","","","","","",""
"null","","html-keyboard-response","210","341578","0.0-210.0","","","null","","","","","","","",""
"461","","image-keyboard-response","211","342040","0.0-211.0","","img/set1/S3.jpg","72","3","random","72","random,structured_normal,structured_incentive,structured_load","2,1,3,4,2,3","true","",""
"null","","html-keyboard-response","212","342392","0.0-212.0","","<img src=""img/set1/S3.jpg"" width=""540"" height = ""360"" style=""border:16px solid orange"">","null","","","","","","","",""
"null","","html-keyboard-response","213","342593","0.0-213.0","","","null","","","","","","","",""
"457","","image-keyboard-response","214","343050","0.0-214.0","","img/set1/S4.jpg","74","4","random","74","random,structured_normal,structured_incentive,structured_load","2,1,3,4,2,3","true","",""
"null","","html-keyboard-response","215","343401","0.0-215.0","","<img src=""img/set1/S4.jpg"" width=""540"" height = ""360"" style=""border:16px solid orange"">","null","","","","","","","",""
"null","","html-keyboard-response","216","343601","0.0-216.0","","","null","","","","","","","",""
"764","","image-keyboard-response","217","344366","0.0-217.0","","img/set1/S4.jpg","72","4","random","74","random,structured_normal,structured_incentive,structured_load","2,1,3,4,2,3","false","",""
"null","","html-keyboard-response","218","344717","0.0-218.0","","<img src=""img/set1/S4.jpg"" width=""540"" height = ""360"">","null","","","","","","","",""
"null","","html-keyboard-response","219","344918","0.0-219.0","","","null","","","","","","","",""
"572","","image-keyboard-response","220","345491","0.0-220.0","","img/set1/S4.jpg","74","4","random","74","random,structured_normal,structured_incentive,structured_load","2,1,3,4,2,3","true","",""
"null","","html-keyboard-response","221","345842","0.0-221.0","","<img src=""img/set1/S4.jpg"" width=""540"" height = ""360"" style=""border:16px solid orange"">","null","","","","","","","",""
"null","","html-keyboard-response","222","346043","0.0-222.0","","","null","","","","","","","",""
"673","","image-keyboard-response","223","346717","0.0-223.0","","img/set1/S1.jpg","83","1","random","83","random,structured_normal,structured_incentive,structured_load","2,1,3,4,2,3","true","",""
"null","","html-keyboard-response","224","347068","0.0-224.0","","<img src=""img/set1/S1.jpg"" width=""540"" height = ""360"" style=""border:16px solid orange"">","null","","","","","","","",""
"null","","html-keyboard-response","225","347270","0.0-225.0","","","null","","","","","","","",""
"512","","image-keyboard-response","226","347782","0.0-226.0","","img/set1/S3.jpg","68","3","random","72","random,structured_normal,structured_incentive,structured_load","2,1,3,4,2,3","false","",""
"null","","html-keyboard-response","227","348134","0.0-227.0","","<img src=""img/set1/S3.jpg"" width=""540"" height = ""360"">","null","","","","","","","",""
"null","","html-keyboard-response","228","348335","0.0-228.0","","","null","","","","","","","",""
"548","","image-keyboard-response","229","348883","0.0-229.0","","img/set1/S2.jpg","68","2","random","68","random,structured_normal,structured_incentive,structured_load","2,1,3,4,2,3","true","",""
"null","","html-keyboard-response","230","349236","0.0-230.0","","<img src=""img/set1/S2.jpg"" width=""540"" height = ""360"" style=""border:16px solid orange"">","null","","","","","","","",""
"null","","html-keyboard-response","231","349436","0.0-231.0","","","null","","","","","","","",""
"735","","image-keyboard-response","232","350172","0.0-232.0","","img/set1/S1.jpg","83","1","random","83","random,structured_normal,structured_incentive,structured_load","2,1,3,4,2,3","true","",""
"null","","html-keyboard-response","233","350522","0.0-233.0","","<img src=""img/set1/S1.jpg"" width=""540"" height = ""360"" style=""border:16px solid orange"">","null","","","","","","","",""
"null","","html-keyboard-response","234","350723","0.0-234.0","","","null","","","","","","","",""
"569","","image-keyboard-response","235","351293","0.0-235.0","","img/set1/S3.jpg","72","3","random","72","random,structured_normal,structured_incentive,structured_load","2,1,3,4,2,3","true","",""
"null","","html-keyboard-response","236","351644","0.0-236.0","","<img src=""img/set1/S3.jpg"" width=""540"" height = ""360"" style=""border:16px solid orange"">","null","","","","","","","",""
"null","","html-keyboard-response","237","351845","0.0-237.0","","","null","","","","","","","",""
"487","","image-keyboard-response","238","352333","0.0-238.0","","img/set1/S3.jpg","72","3","random","72","random,structured_normal,structured_incentive,structured_load","2,1,3,4,2,3","true","",""
"null","","html-keyboard-response","239","352684","0.0-239.0","","<img src=""img/set1/S3.jpg"" width=""540"" height = ""360"" style=""border:16px solid orange"">","null","","","","","","","",""
"null","","html-keyboard-response","240","352885","0.0-240.0","","","null","","","","","","","",""
"748","","image-keyboard-response","241","353633","0.0-241.0","","img/set1/S1.jpg","83","1","random","83","random,structured_normal,structured_incentive,structured_load","2,1,3,4,2,3","true","",""
"null","","html-keyboard-response","242","353984","0.0-242.0","","<img src=""img/set1/S1.jpg"" width=""540"" height = ""360"" style=""border:16px solid orange"">","null","","","","","","","",""
"null","","html-keyboard-response","243","354186","0.0-243.0","","","null","","","","","","","",""
"663","","image-keyboard-response","244","354849","0.0-244.0","","img/set1/S3.jpg","72","3","random","72","random,structured_normal,structured_incentive,structured_load","2,1,3,4,2,3","true","",""
"null","","html-keyboard-response","245","355201","0.0-245.0","","<img src=""img/set1/S3.jpg"" width=""540"" height = ""360"" style=""border:16px solid orange"">","null","","","","","","","",""
"null","","html-keyboard-response","246","355402","0.0-246.0","","","null","","","","","","","",""
"705","","image-keyboard-response","247","356107","0.0-247.0","","img/set1/S4.jpg","74","4","random","74","random,structured_normal,structured_incentive,structured_load","2,1,3,4,2,3","true","",""
"null","","html-keyboard-response","248","356458","0.0-248.0","","<img src=""img/set1/S4.jpg"" width=""540"" height = ""360"" style=""border:16px solid orange"">","null","","","","","","","",""
"null","","html-keyboard-response","249","356660","0.0-249.0","","","null","","","","","","","",""
"751","","image-keyboard-response","250","357412","0.0-250.0","","img/set1/S3.jpg","68","3","random","72","random,structured_normal,structured_incentive,structured_load","2,1,3,4,2,3","false","",""
"null","","html-keyboard-response","251","357764","0.0-251.0","","<img src=""img/set1/S3.jpg"" width=""540"" height = ""360"">","null","","","","","","","",""
"null","","html-keyboard-response","252","357964","0.0-252.0","","","null","","","","","","","",""
"619","","image-keyboard-response","253","358584","0.0-253.0","","img/set1/S1.jpg","83","1","random","83","random,structured_normal,structured_incentive,structured_load","2,1,3,4,2,3","true","",""
"null","","html-keyboard-response","254","358935","0.0-254.0","","<img src=""img/set1/S1.jpg"" width=""540"" height = ""360"" style=""border:16px solid orange"">","null","","","","","","","",""
"null","","html-keyboard-response","255","359136","0.0-255.0","","","null","","","","","","","",""
"664","","image-keyboard-response","256","359801","0.0-256.0","","img/set1/S1.jpg","83","1","random","83","random,structured_normal,structured_incentive,structured_load","2,1,3,4,2,3","true","",""
"null","","html-keyboard-response","257","360152","0.0-257.0","","<img src=""img/set1/S1.jpg"" width=""540"" height = ""360"" style=""border:16px solid orange"">","null","","","","","","","",""
"null","","html-keyboard-response","258","360352","0.0-258.0","","","null","","","","","","","",""
"917","","image-keyboard-response","259","361269","0.0-259.0","","img/set1/S4.jpg","74","4","random","74","random,structured_normal,structured_incentive,structured_load","2,1,3,4,2,3","true","",""
"null","","html-keyboard-response","260","361622","0.0-260.0","","<img src=""img/set1/S4.jpg"" width=""540"" height = ""360"" style=""border:16px solid orange"">","null","","","","","","","",""
"null","","html-keyboard-response","261","361822","0.0-261.0","","","null","","","","","","","",""
"802","","image-keyboard-response","262","362625","0.0-262.0","","img/set1/S3.jpg","72","3","random","72","random,structured_normal,structured_incentive,structured_load","2,1,3,4,2,3","true","",""
"null","","html-keyboard-response","263","362976","0.0-263.0","","<img src=""img/set1/S3.jpg"" width=""540"" height = ""360"" style=""border:16px solid orange"">","null","","","","","","","",""
"null","","html-keyboard-response","264","363178","0.0-264.0","","","null","","","","","","","",""
"751","","image-keyboard-response","265","363929","0.0-265.0","","img/set1/S4.jpg","74","4","random","74","random,structured_normal,structured_incentive,structured_load","2,1,3,4,2,3","true","",""
"null","","html-keyboard-response","266","364280","0.0-266.0","","<img src=""img/set1/S4.jpg"" width=""540"" height = ""360"" style=""border:16px solid orange"">","null","","","","","","","",""
"null","","html-keyboard-response","267","364481","0.0-267.0","","","null","","","","","","","",""
"634","","image-keyboard-response","268","365116","0.0-268.0","","img/set1/S2.jpg","68","2","random","68","random,structured_normal,structured_incentive,structured_load","2,1,3,4,2,3","true","",""
"null","","html-keyboard-response","269","365467","0.0-269.0","","<img src=""img/set1/S2.jpg"" width=""540"" height = ""360"" style=""border:16px solid orange"">","null","","","","","","","",""
"null","","html-keyboard-response","270","365668","0.0-270.0","","","null","","","","","","","",""
"548","","image-keyboard-response","271","366217","0.0-271.0","","img/set1/S2.jpg","68","2","random","68","random,structured_normal,structured_incentive,structured_load","2,1,3,4,2,3","true","",""
"null","","html-keyboard-response","272","366568","0.0-272.0","","<img src=""img/set1/S2.jpg"" width=""540"" height = ""360"" style=""border:16px solid orange"">","null","","","","","","","",""
"null","","html-keyboard-response","273","366770","0.0-273.0","","","null","","","","","","","",""
"452","","image-keyboard-response","274","367222","0.0-274.0","","img/set1/S2.jpg","68","2","random","68","random,structured_normal,structured_incentive,structured_load","2,1,3,4,2,3","true","",""
"null","","html-keyboard-response","275","367573","0.0-275.0","","<img src=""img/set1/S2.jpg"" width=""540"" height = ""360"" style=""border:16px solid orange"">","null","","","","","","","",""
"null","","html-keyboard-response","276","367774","0.0-276.0","","","null","","","","","","","",""
"721","","image-keyboard-response","277","368495","0.0-277.0","","img/set1/S3.jpg","74","3","random","72","random,structured_normal,structured_incentive,structured_load","2,1,3,4,2,3","false","",""
"null","","html-keyboard-response","278","368846","0.0-278.0","","<img src=""img/set1/S3.jpg"" width=""540"" height = ""360"">","null","","","","","","","",""
"null","","html-keyboard-response","279","369048","0.0-279.0","","","null","","","","","","","",""
"788","","image-keyboard-response","280","369836","0.0-280.0","","img/set1/S4.jpg","74","4","random","74","random,structured_normal,structured_incentive,structured_load","2,1,3,4,2,3","true","",""
"null","","html-keyboard-response","281","370188","0.0-281.0","","<img src=""img/set1/S4.jpg"" width=""540"" height = ""360"" style=""border:16px solid orange"">","null","","","","","","","",""
"null","","html-keyboard-response","282","370389","0.0-282.0","","","null","","","","","","","",""
"597","","image-keyboard-response","283","370987","0.0-283.0","","img/set1/S2.jpg","68","2","random","68","random,structured_normal,structured_incentive,structured_load","2,1,3,4,2,3","true","",""
"null","","html-keyboard-response","284","371338","0.0-284.0","","<img src=""img/set1/S2.jpg"" width=""540"" height = ""360"" style=""border:16px solid orange"">","null","","","","","","","",""
"null","","html-keyboard-response","285","371539","0.0-285.0","","","null","","","","","","","",""
"529","","image-keyboard-response","286","372068","0.0-286.0","","img/set1/S4.jpg","72","4","random","74","random,structured_normal,structured_incentive,structured_load","2,1,3,4,2,3","false","",""
"null","","html-keyboard-response","287","372420","0.0-287.0","","<img src=""img/set1/S4.jpg"" width=""540"" height = ""360"">","null","","","","","","","",""
"null","","html-keyboard-response","288","372622","0.0-288.0","","","null","","","","","","","",""
"694","","image-keyboard-response","289","373316","0.0-289.0","","img/set1/S1.jpg","83","1","random","83","random,structured_normal,structured_incentive,structured_load","2,1,3,4,2,3","true","",""
"null","","html-keyboard-response","290","373668","0.0-290.0","","<img src=""img/set1/S1.jpg"" width=""540"" height = ""360"" style=""border:16px solid orange"">","null","","","","","","","",""
"null","","html-keyboard-response","291","373868","0.0-291.0","","","null","","","","","","","",""
"527","","image-keyboard-response","292","374396","0.0-292.0","","img/set1/S2.jpg","68","2","random","68","random,structured_normal,structured_incentive,structured_load","2,1,3,4,2,3","true","",""
"null","","html-keyboard-response","293","374747","0.0-293.0","","<img src=""img/set1/S2.jpg"" width=""540"" height = ""360"" style=""border:16px solid orange"">","null","","","","","","","",""
"null","","html-keyboard-response","294","374948","0.0-294.0","","","null","","","","","","","",""
"775","","image-keyboard-response","295","375723","0.0-295.0","","img/set1/S3.jpg","72","3","random","72","random,structured_normal,structured_incentive,structured_load","2,1,3,4,2,3","true","",""
"null","","html-keyboard-response","296","376075","0.0-296.0","","<img src=""img/set1/S3.jpg"" width=""540"" height = ""360"" style=""border:16px solid orange"">","null","","","","","","","",""
"null","","html-keyboard-response","297","376276","0.0-297.0","","","null","","","","","","","",""
"614","","image-keyboard-response","298","376892","0.0-298.0","","img/set1/S1.jpg","83","1","random","83","random,structured_normal,structured_incentive,structured_load","2,1,3,4,2,3","true","",""
"null","","html-keyboard-response","299","377243","0.0-299.0","","<img src=""img/set1/S1.jpg"" width=""540"" height = ""360"" style=""border:16px solid orange"">","null","","","","","","","",""
"null","","html-keyboard-response","300","377443","0.0-300.0","","","null","","","","","","","",""
"582","","image-keyboard-response","301","378026","0.0-301.0","","img/set1/S1.jpg","83","1","random","83","random,structured_normal,structured_incentive,structured_load","2,1,3,4,2,3","true","",""
"null","","html-keyboard-response","302","378377","0.0-302.0","","<img src=""img/set1/S1.jpg"" width=""540"" height = ""360"" style=""border:16px solid orange"">","null","","","","","","","",""
"null","","html-keyboard-response","303","378578","0.0-303.0","","","null","","","","","","","",""
"477","","image-keyboard-response","304","379057","0.0-304.0","","img/set1/S1.jpg","83","1","random","83","random,structured_normal,structured_incentive,structured_load","2,1,3,4,2,3","true","",""
"null","","html-keyboard-response","305","379408","0.0-305.0","","<img src=""img/set1/S1.jpg"" width=""540"" height = ""360"" style=""border:16px solid orange"">","null","","","","","","","",""
"null","","html-keyboard-response","306","379608","0.0-306.0","","","null","","","","","","","",""
"854","","image-keyboard-response","307","380462","0.0-307.0","","img/set1/S3.jpg","72","3","random","72","random,structured_normal,structured_incentive,structured_load","2,1,3,4,2,3","true","",""
"null","","html-keyboard-response","308","380813","0.0-308.0","","<img src=""img/set1/S3.jpg"" width=""540"" height = ""360"" style=""border:16px solid orange"">","null","","","","","","","",""
"null","","html-keyboard-response","309","381015","0.0-309.0","","","null","","","","","","","",""
"570","","image-keyboard-response","310","381584","0.0-310.0","","img/set1/S1.jpg","83","1","random","83","random,structured_normal,structured_incentive,structured_load","2,1,3,4,2,3","true","",""
"null","","html-keyboard-response","311","381936","0.0-311.0","","<img src=""img/set1/S1.jpg"" width=""540"" height = ""360"" style=""border:16px solid orange"">","null","","","","","","","",""
"null","","html-keyboard-response","312","382136","0.0-312.0","","","null","","","","","","","",""
"662","","image-keyboard-response","313","382799","0.0-313.0","","img/set1/S4.jpg","74","4","random","74","random,structured_normal,structured_incentive,structured_load","2,1,3,4,2,3","true","",""
"null","","html-keyboard-response","314","383151","0.0-314.0","","<img src=""img/set1/S4.jpg"" width=""540"" height = ""360"" style=""border:16px solid orange"">","null","","","","","","","",""
"null","","html-keyboard-response","315","383351","0.0-315.0","","","null","","","","","","","",""
"665","","image-keyboard-response","316","384017","0.0-316.0","","img/set1/S1.jpg","83","1","random","83","random,structured_normal,structured_incentive,structured_load","2,1,3,4,2,3","true","",""
"null","","html-keyboard-response","317","384368","0.0-317.0","","<img src=""img/set1/S1.jpg"" width=""540"" height = ""360"" style=""border:16px solid orange"">","null","","","","","","","",""
"null","","html-keyboard-response","318","384569","0.0-318.0","","","null","","","","","","","",""
"449","","image-keyboard-response","319","385018","0.0-319.0","","img/set1/S1.jpg","83","1","random","83","random,structured_normal,structured_incentive,structured_load","2,1,3,4,2,3","true","",""
"null","","html-keyboard-response","320","385370","0.0-320.0","","<img src=""img/set1/S1.jpg"" width=""540"" height = ""360"" style=""border:16px solid orange"">","null","","","","","","","",""
"null","","html-keyboard-response","321","385570","0.0-321.0","","","null","","","","","","","",""
"628","","image-keyboard-response","322","386199","0.0-322.0","","img/set1/S2.jpg","68","2","random","68","random,structured_normal,structured_incentive,structured_load","2,1,3,4,2,3","true","",""
"null","","html-keyboard-response","323","386551","0.0-323.0","","<img src=""img/set1/S2.jpg"" width=""540"" height = ""360"" style=""border:16px solid orange"">","null","","","","","","","",""
"null","","html-keyboard-response","324","386752","0.0-324.0","","","null","","","","","","","",""
"789","","image-keyboard-response","325","387542","0.0-325.0","","img/set1/S1.jpg","83","1","random","83","random,structured_normal,structured_incentive,structured_load","2,1,3,4,2,3","true","",""
"null","","html-keyboard-response","326","387893","0.0-326.0","","<img src=""img/set1/S1.jpg"" width=""540"" height = ""360"" style=""border:16px solid orange"">","null","","","","","","","",""
"null","","html-keyboard-response","327","388095","0.0-327.0","","","null","","","","","","","",""
"573","","image-keyboard-response","328","388669","0.0-328.0","","img/set1/S4.jpg","74","4","random","74","random,structured_normal,structured_incentive,structured_load","2,1,3,4,2,3","true","",""
"null","","html-keyboard-response","329","389020","0.0-329.0","","<img src=""img/set1/S4.jpg"" width=""540"" height = ""360"" style=""border:16px solid orange"">","null","","","","","","","",""
"null","","html-keyboard-response","330","389220","0.0-330.0","","","null","","","","","","","",""
"878","","image-keyboard-response","331","390100","0.0-331.0","","img/set1/S3.jpg","72","3","random","72","random,structured_normal,structured_incentive,structured_load","2,1,3,4,2,3","true","",""
"null","","html-keyboard-response","332","390451","0.0-332.0","","<img src=""img/set1/S3.jpg"" width=""540"" height = ""360"" style=""border:16px solid orange"">","null","","","","","","","",""
"null","","html-keyboard-response","333","390652","0.0-333.0","","","null","","","","","","","",""
"631","","image-keyboard-response","334","391284","0.0-334.0","","img/set1/S4.jpg","74","4","random","74","random,structured_normal,structured_incentive,structured_load","2,1,3,4,2,3","true","",""
"null","","html-keyboard-response","335","391634","0.0-335.0","","<img src=""img/set1/S4.jpg"" width=""540"" height = ""360"" style=""border:16px solid orange"">","null","","","","","","","",""
"null","","html-keyboard-response","336","391835","0.0-336.0","","","null","","","","","","","",""
"544","","image-keyboard-response","337","392380","0.0-337.0","","img/set1/S2.jpg","68","2","random","68","random,structured_normal,structured_incentive,structured_load","2,1,3,4,2,3","true","",""
"null","","html-keyboard-response","338","392732","0.0-338.0","","<img src=""img/set1/S2.jpg"" width=""540"" height = ""360"" style=""border:16px solid orange"">","null","","","","","","","",""
"null","","html-keyboard-response","339","392932","0.0-339.0","","","null","","","","","","","",""
"769","","image-keyboard-response","340","393701","0.0-340.0","","img/set1/S3.jpg","72","3","random","72","random,structured_normal,structured_incentive,structured_load","2,1,3,4,2,3","true","",""
"null","","html-keyboard-response","341","394052","0.0-341.0","","<img src=""img/set1/S3.jpg"" width=""540"" height = ""360"" style=""border:16px solid orange"">","null","","","","","","","",""
"null","","html-keyboard-response","342","394253","0.0-342.0","","","null","","","","","","","",""
"506","","image-keyboard-response","343","394760","0.0-343.0","","img/set1/S1.jpg","83","1","random","83","random,structured_normal,structured_incentive,structured_load","2,1,3,4,2,3","true","",""
"null","","html-keyboard-response","344","395111","0.0-344.0","","<img src=""img/set1/S1.jpg"" width=""540"" height = ""360"" style=""border:16px solid orange"">","null","","","","","","","",""
"null","","html-keyboard-response","345","395313","0.0-345.0","","","null","","","","","","","",""
"748","","image-keyboard-response","346","396061","0.0-346.0","","img/set1/S3.jpg","72","3","random","72","random,structured_normal,structured_incentive,structured_load","2,1,3,4,2,3","true","",""
"null","","html-keyboard-response","347","396412","0.0-347.0","","<img src=""img/set1/S3.jpg"" width=""540"" height = ""360"" style=""border:16px solid orange"">","null","","","","","","","",""
"null","","html-keyboard-response","348","396613","0.0-348.0","","","null","","","","","","","",""
"586","","image-keyboard-response","349","397200","0.0-349.0","","img/set1/S1.jpg","83","1","random","83","random,structured_normal,structured_incentive,structured_load","2,1,3,4,2,3","true","",""
"null","","html-keyboard-response","350","397553","0.0-350.0","","<img src=""img/set1/S1.jpg"" width=""540"" height = ""360"" style=""border:16px solid orange"">","null","","","","","","","",""
"null","","html-keyboard-response","351","397753","0.0-351.0","","","null","","","","","","","",""
"580","","image-keyboard-response","352","398333","0.0-352.0","","img/set1/S3.jpg","72","3","random","72","random,structured_normal,structured_incentive,structured_load","2,1,3,4,2,3","true","",""
"null","","html-keyboard-response","353","398684","0.0-353.0","","<img src=""img/set1/S3.jpg"" width=""540"" height = ""360"" style=""border:16px solid orange"">","null","","","","","","","",""
"null","","html-keyboard-response","354","398886","0.0-354.0","","","null","","","","","","","",""
"520","","image-keyboard-response","355","399406","0.0-355.0","","img/set1/S2.jpg","68","2","random","68","random,structured_normal,structured_incentive,structured_load","2,1,3,4,2,3","true","",""
"null","","html-keyboard-response","356","399756","0.0-356.0","","<img src=""img/set1/S2.jpg"" width=""540"" height = ""360"" style=""border:16px solid orange"">","null","","","","","","","",""
"null","","html-keyboard-response","357","399958","0.0-357.0","","","null","","","","","","","",""
"577","","image-keyboard-response","358","400536","0.0-358.0","","img/set1/S4.jpg","74","4","random","74","random,structured_normal,structured_incentive,structured_load","2,1,3,4,2,3","true","",""
"null","","html-keyboard-response","359","400887","0.0-359.0","","<img src=""img/set1/S4.jpg"" width=""540"" height = ""360"" style=""border:16px solid orange"">","null","","","","","","","",""
"null","","html-keyboard-response","360","401088","0.0-360.0","","","null","","","","","","","",""
"557","","image-keyboard-response","361","401647","0.0-361.0","","img/set1/S1.jpg","83","1","random","83","random,structured_normal,structured_incentive,structured_load","2,1,3,4,2,3","true","",""
"null","","html-keyboard-response","362","401997","0.0-362.0","","<img src=""img/set1/S1.jpg"" width=""540"" height = ""360"" style=""border:16px solid orange"">","null","","","","","","","",""
"null","","html-keyboard-response","363","402198","0.0-363.0","","","null","","","","","","","",""
"14193","","html-keyboard-response","364","416392","0.0-364.0","","<p class=""center-content"">You have completed a block! </p><p class=""center-content"">Press any key on the keyboard to continue, </p><p class=""center-content"">or wait for the automatic progression to the next block after one minute.</p>","222","","","","","","","",""
"25032","","instructions","365","441425","0.0-365.0","[{""page_index"":0,""viewing_time"":25032}]","","","","","","","","","",""
"4039","","instructions","366","445466","0.0-366.0","[{""page_index"":0,""viewing_time"":4039}]","","","","","","","","","",""
"798","","image-keyboard-response","367","446263","0.0-367.0","","img/set2/S2.jpg","83","2","structured_normal","68","random,structured_normal,structured_incentive,structured_load","2,1,3,4,2,3","false","",""
"null","","html-keyboard-response","368","446614","0.0-368.0","","<img src=""img/set2/S2.jpg"" width=""540"" height = ""360"">","null","","","","","","","",""
"null","","html-keyboard-response","369","446816","0.0-369.0","","","null","","","","","","","",""
"931","","image-keyboard-response","370","447747","0.0-370.0","","img/set2/S1.jpg","83","1","structured_normal","83","random,structured_normal,structured_incentive,structured_load","2,1,3,4,2,3","true","",""
"null","","html-keyboard-response","371","448098","0.0-371.0","","<img src=""img/set2/S1.jpg"" width=""540"" height = ""360"" style=""border:16px solid orange"">","null","","","","","","","",""
"null","","html-keyboard-response","372","448298","0.0-372.0","","","null","","","","","","","",""
"730","","image-keyboard-response","373","449029","0.0-373.0","","img/set2/S4.jpg","74","4","structured_normal","74","random,structured_normal,structured_incentive,structured_load","2,1,3,4,2,3","true","",""
"null","","html-keyboard-response","374","449380","0.0-374.0","","<img src=""img/set2/S4.jpg"" width=""540"" height = ""360"" style=""border:16px solid orange"">","null","","","","","","","",""
"null","","html-keyboard-response","375","449582","0.0-375.0","","","null","","","","","","","",""
"928","","image-keyboard-response","376","450511","0.0-376.0","","img/set2/S2.jpg","83","2","structured_normal","68","random,structured_normal,structured_incentive,structured_load","2,1,3,4,2,3","false","",""
"null","","html-keyboard-response","377","450863","0.0-377.0","","<img src=""img/set2/S2.jpg"" width=""540"" height = ""360"">","null","","","","","","","",""
"null","","html-keyboard-response","378","451065","0.0-378.0","","","null","","","","","","","",""
"470","","image-keyboard-response","379","451535","0.0-379.0","","img/set2/S1.jpg","83","1","structured_normal","83","random,structured_normal,structured_incentive,structured_load","2,1,3,4,2,3","true","",""
"null","","html-keyboard-response","380","451886","0.0-380.0","","<img src=""img/set2/S1.jpg"" width=""540"" height = ""360"" style=""border:16px solid orange"">","null","","","","","","","",""
"null","","html-keyboard-response","381","452088","0.0-381.0","","","null","","","","","","","",""
"549","","image-keyboard-response","382","452637","0.0-382.0","","img/set2/S4.jpg","74","4","structured_normal","74","random,structured_normal,structured_incentive,structured_load","2,1,3,4,2,3","true","",""
"null","","html-keyboard-response","383","452988","0.0-383.0","","<img src=""img/set2/S4.jpg"" width=""540"" height = ""360"" style=""border:16px solid orange"">","null","","","","","","","",""
"null","","html-keyboard-response","384","453190","0.0-384.0","","","null","","","","","","","",""
"558","","image-keyboard-response","385","453749","0.0-385.0","","img/set2/S2.jpg","68","2","structured_normal","68","random,structured_normal,structured_incentive,structured_load","2,1,3,4,2,3","true","",""
"null","","html-keyboard-response","386","454099","0.0-386.0","","<img src=""img/set2/S2.jpg"" width=""540"" height = ""360"" style=""border:16px solid orange"">","null","","","","","","","",""
"null","","html-keyboard-response","387","454300","0.0-387.0","","","null","","","","","","","",""
"596","","image-keyboard-response","388","454896","0.0-388.0","","img/set2/S1.jpg","83","1","structured_normal","83","random,structured_normal,structured_incentive,structured_load","2,1,3,4,2,3","true","",""
"null","","html-keyboard-response","389","455248","0.0-389.0","","<img src=""img/set2/S1.jpg"" width=""540"" height = ""360"" style=""border:16px solid orange"">","null","","","","","","","",""
"null","","html-keyboard-response","390","455449","0.0-390.0","","","null","","","","","","","",""
"670","","image-keyboard-response","391","456118","0.0-391.0","","img/set2/S4.jpg","74","4","structured_normal","74","random,structured_normal,structured_incentive,structured_load","2,1,3,4,2,3","true","",""
"null","","html-keyboard-response","392","456469","0.0-392.0","","<img src=""img/set2/S4.jpg"" width=""540"" height = ""360"" style=""border:16px solid orange"">","null","","","","","","","",""
"null","","html-keyboard-response","393","456671","0.0-393.0","","","null","","","","","","","",""
"678","","image-keyboard-response","394","457350","0.0-394.0","","img/set2/S3.jpg","72","3","structured_normal","72","random,structured_normal,structured_incentive,structured_load","2,1,3,4,2,3","true","",""
"null","","html-keyboard-response","395","457701","0.0-395.0","","<img src=""img/set2/S3.jpg"" width=""540"" height = ""360"" style=""border:16px solid orange"">","null","","","","","","","",""
"null","","html-keyboard-response","396","457902","0.0-396.0","","","null","","","","","","","",""
"580","","image-keyboard-response","397","458483","0.0-397.0","","img/set2/S3.jpg","72","3","structured_normal","72","random,structured_normal,structured_incentive,structured_load","2,1,3,4,2,3","true","",""
"null","","html-keyboard-response","398","458835","0.0-398.0","","<img src=""img/set2/S3.jpg"" width=""540"" height = ""360"" style=""border:16px solid orange"">","null","","","","","","","",""
"null","","html-keyboard-response","399","459035","0.0-399.0","","","null","","","","","","","",""
"508","","image-keyboard-response","400","459544","0.0-400.0","","img/set2/S3.jpg","72","3","structured_normal","72","random,structured_normal,structured_incentive,structured_load","2,1,3,4,2,3","true","",""
"null","","html-keyboard-response","401","459895","0.0-401.0","","<img src=""img/set2/S3.jpg"" width=""540"" height = ""360"" style=""border:16px solid orange"">","null","","","","","","","",""
"null","","html-keyboard-response","402","460096","0.0-402.0","","","null","","","","","","","",""
"464","","image-keyboard-response","403","460561","0.0-403.0","","img/set2/S3.jpg","72","3","structured_normal","72","random,structured_normal,structured_incentive,structured_load","2,1,3,4,2,3","true","",""
"null","","html-keyboard-response","404","460912","0.0-404.0","","<img src=""img/set2/S3.jpg"" width=""540"" height = ""360"" style=""border:16px solid orange"">","null","","","","","","","",""
"null","","html-keyboard-response","405","461113","0.0-405.0","","","null","","","","","","","",""
"748","","image-keyboard-response","406","461861","0.0-406.0","","img/set2/S4.jpg","74","4","structured_normal","74","random,structured_normal,structured_incentive,structured_load","2,1,3,4,2,3","true","",""
"null","","html-keyboard-response","407","462212","0.0-407.0","","<img src=""img/set2/S4.jpg"" width=""540"" height = ""360"" style=""border:16px solid orange"">","null","","","","","","","",""
"null","","html-keyboard-response","408","462413","0.0-408.0","","","null","","","","","","","",""
"750","","image-keyboard-response","409","463163","0.0-409.0","","img/set2/S2.jpg","68","2","structured_normal","68","random,structured_normal,structured_incentive,structured_load","2,1,3,4,2,3","true","",""
"null","","html-keyboard-response","410","463513","0.0-410.0","","<img src=""img/set2/S2.jpg"" width=""540"" height = ""360"" style=""border:16px solid orange"">","null","","","","","","","",""
"null","","html-keyboard-response","411","463715","0.0-411.0","","","null","","","","","","","",""
"421","","image-keyboard-response","412","464136","0.0-412.0","","img/set2/S1.jpg","83","1","structured_normal","83","random,structured_normal,structured_incentive,structured_load","2,1,3,4,2,3","true","",""
"null","","html-keyboard-response","413","464487","0.0-413.0","","<img src=""img/set2/S1.jpg"" width=""540"" height = ""360"" style=""border:16px solid orange"">","null","","","","","","","",""
"null","","html-keyboard-response","414","464688","0.0-414.0","","","null","","","","","","","",""
"790","","image-keyboard-response","415","465480","0.0-415.0","","img/set2/S2.jpg","68","2","structured_normal","68","random,structured_normal,structured_incentive,structured_load","2,1,3,4,2,3","true","",""
"null","","html-keyboard-response","416","465831","0.0-416.0","","<img src=""img/set2/S2.jpg"" width=""540"" height = ""360"" style=""border:16px solid orange"">","null","","","","","","","",""
"null","","html-keyboard-response","417","466032","0.0-417.0","","","null","","","","","","","",""
"623","","image-keyboard-response","418","466656","0.0-418.0","","img/set2/S1.jpg","83","1","structured_normal","83","random,structured_normal,structured_incentive,structured_load","2,1,3,4,2,3","true","",""
"null","","html-keyboard-response","419","467007","0.0-419.0","","<img src=""img/set2/S1.jpg"" width=""540"" height = ""360"" style=""border:16px solid orange"">","null","","","","","","","",""
"null","","html-keyboard-response","420","467208","0.0-420.0","","","null","","","","","","","",""
"685","","image-keyboard-response","421","467893","0.0-421.0","","img/set2/S4.jpg","74","4","structured_normal","74","random,structured_normal,structured_incentive,structured_load","2,1,3,4,2,3","true","",""
"null","","html-keyboard-response","422","468245","0.0-422.0","","<img src=""img/set2/S4.jpg"" width=""540"" height = ""360"" style=""border:16px solid orange"">","null","","","","","","","",""
"null","","html-keyboard-response","423","468446","0.0-423.0","","","null","","","","","","","",""
"794","","image-keyboard-response","424","469240","0.0-424.0","","img/set2/S2.jpg","83","2","structured_normal","68","random,structured_normal,structured_incentive,structured_load","2,1,3,4,2,3","false","",""
"null","","html-keyboard-response","425","469592","0.0-425.0","","<img src=""img/set2/S2.jpg"" width=""540"" height = ""360"">","null","","","","","","","",""
"null","","html-keyboard-response","426","469794","0.0-426.0","","","null","","","","","","","",""
"566","","image-keyboard-response","427","470361","0.0-427.0","","img/set2/S1.jpg","83","1","structured_normal","83","random,structured_normal,structured_incentive,structured_load","2,1,3,4,2,3","true","",""
"null","","html-keyboard-response","428","470712","0.0-428.0","","<img src=""img/set2/S1.jpg"" width=""540"" height = ""360"" style=""border:16px solid orange"">","null","","","","","","","",""
"null","","html-keyboard-response","429","470912","0.0-429.0","","","null","","","","","","","",""
"517","","image-keyboard-response","430","471430","0.0-430.0","","img/set2/S2.jpg","68","2","structured_normal","68","random,structured_normal,structured_incentive,structured_load","2,1,3,4,2,3","true","",""
"null","","html-keyboard-response","431","471782","0.0-431.0","","<img src=""img/set2/S2.jpg"" width=""540"" height = ""360"" style=""border:16px solid orange"">","null","","","","","","","",""
"null","","html-keyboard-response","432","471982","0.0-432.0","","","null","","","","","","","",""
"582","","image-keyboard-response","433","472566","0.0-433.0","","img/set2/S1.jpg","83","1","structured_normal","83","random,structured_normal,structured_incentive,structured_load","2,1,3,4,2,3","true","",""
"null","","html-keyboard-response","434","472917","0.0-434.0","","<img src=""img/set2/S1.jpg"" width=""540"" height = ""360"" style=""border:16px solid orange"">","null","","","","","","","",""
"null","","html-keyboard-response","435","473118","0.0-435.0","","","null","","","","","","","",""
"750","","image-keyboard-response","436","473869","0.0-436.0","","img/set2/S3.jpg","72","3","structured_normal","72","random,structured_normal,structured_incentive,structured_load","2,1,3,4,2,3","true","",""
"null","","html-keyboard-response","437","474220","0.0-437.0","","<img src=""img/set2/S3.jpg"" width=""540"" height = ""360"" style=""border:16px solid orange"">","null","","","","","","","",""
"null","","html-keyboard-response","438","474422","0.0-438.0","","","null","","","","","","","",""
"454","","image-keyboard-response","439","474876","0.0-439.0","","img/set2/S4.jpg","74","4","structured_normal","74","random,structured_normal,structured_incentive,structured_load","2,1,3,4,2,3","true","",""
"null","","html-keyboard-response","440","475227","0.0-440.0","","<img src=""img/set2/S4.jpg"" width=""540"" height = ""360"" style=""border:16px solid orange"">","null","","","","","","","",""
"null","","html-keyboard-response","441","475428","0.0-441.0","","","null","","","","","","","",""
"982","","image-keyboard-response","442","476410","0.0-442.0","","img/set2/S2.jpg","68","2","structured_normal","68","random,structured_normal,structured_incentive,structured_load","2,1,3,4,2,3","true","",""
"null","","html-keyboard-response","443","476762","0.0-443.0","","<img src=""img/set2/S2.jpg"" width=""540"" height = ""360"" style=""border:16px solid orange"">","null","","","","","","","",""
"null","","html-keyboard-response","444","476962","0.0-444.0","","","null","","","","","","","",""
"515","","image-keyboard-response","445","477478","0.0-445.0","","img/set2/S1.jpg","83","1","structured_normal","83","random,structured_normal,structured_incentive,structured_load","2,1,3,4,2,3","true","",""
"null","","html-keyboard-response","446","477830","0.0-446.0","","<img src=""img/set2/S1.jpg"" width=""540"" height = ""360"" style=""border:16px solid orange"">","null","","","","","","","",""
"null","","html-keyboard-response","447","478030","0.0-447.0","","","null","","","","","","","",""
"722","","image-keyboard-response","448","478753","0.0-448.0","","img/set2/S4.jpg","74","4","structured_normal","74","random,structured_normal,structured_incentive,structured_load","2,1,3,4,2,3","true","",""
"null","","html-keyboard-response","449","479104","0.0-449.0","","<img src=""img/set2/S4.jpg"" width=""540"" height = ""360"" style=""border:16px solid orange"">","null","","","","","","","",""
"null","","html-keyboard-response","450","479305","0.0-450.0","","","null","","","","","","","",""
"1029","","image-keyboard-response","451","480334","0.0-451.0","","img/set2/S2.jpg","68","2","structured_normal","68","random,structured_normal,structured_incentive,structured_load","2,1,3,4,2,3","true","",""
"null","","html-keyboard-response","452","480685","0.0-452.0","","<img src=""img/set2/S2.jpg"" width=""540"" height = ""360"" style=""border:16px solid orange"">","null","","","","","","","",""
"null","","html-keyboard-response","453","480887","0.0-453.0","","","null","","","","","","","",""
"512","","image-keyboard-response","454","481398","0.0-454.0","","img/set2/S1.jpg","83","1","structured_normal","83","random,structured_normal,structured_incentive,structured_load","2,1,3,4,2,3","true","",""
"null","","html-keyboard-response","455","481748","0.0-455.0","","<img src=""img/set2/S1.jpg"" width=""540"" height = ""360"" style=""border:16px solid orange"">","null","","","","","","","",""
"null","","html-keyboard-response","456","481949","0.0-456.0","","","null","","","","","","","",""
"595","","image-keyboard-response","457","482544","0.0-457.0","","img/set2/S4.jpg","74","4","structured_normal","74","random,structured_normal,structured_incentive,structured_load","2,1,3,4,2,3","true","",""
"null","","html-keyboard-response","458","482895","0.0-458.0","","<img src=""img/set2/S4.jpg"" width=""540"" height = ""360"" style=""border:16px solid orange"">","null","","","","","","","",""
"null","","html-keyboard-response","459","483096","0.0-459.0","","","null","","","","","","","",""
"692","","image-keyboard-response","460","483789","0.0-460.0","","img/set2/S3.jpg","72","3","structured_normal","72","random,structured_normal,structured_incentive,structured_load","2,1,3,4,2,3","true","",""
"null","","html-keyboard-response","461","484140","0.0-461.0","","<img src=""img/set2/S3.jpg"" width=""540"" height = ""360"" style=""border:16px solid orange"">","null","","","","","","","",""
"null","","html-keyboard-response","462","484342","0.0-462.0","","","null","","","","","","","",""
"713","","image-keyboard-response","463","485057","0.0-463.0","","img/set2/S4.jpg","74","4","structured_normal","74","random,structured_normal,structured_incentive,structured_load","2,1,3,4,2,3","true","",""
"null","","html-keyboard-response","464","485409","0.0-464.0","","<img src=""img/set2/S4.jpg"" width=""540"" height = ""360"" style=""border:16px solid orange"">","null","","","","","","","",""
"null","","html-keyboard-response","465","485609","0.0-465.0","","","null","","","","","","","",""
"607","","image-keyboard-response","466","486217","0.0-466.0","","img/set2/S4.jpg","74","4","structured_normal","74","random,structured_normal,structured_incentive,structured_load","2,1,3,4,2,3","true","",""
"null","","html-keyboard-response","467","486567","0.0-467.0","","<img src=""img/set2/S4.jpg"" width=""540"" height = ""360"" style=""border:16px solid orange"">","null","","","","","","","",""
"null","","html-keyboard-response","468","486769","0.0-468.0","","","null","","","","","","","",""
"480","","image-keyboard-response","469","487250","0.0-469.0","","img/set2/S4.jpg","74","4","structured_normal","74","random,structured_normal,structured_incentive,structured_load","2,1,3,4,2,3","true","",""
"null","","html-keyboard-response","470","487600","0.0-470.0","","<img src=""img/set2/S4.jpg"" width=""540"" height = ""360"" style=""border:16px solid orange"">","null","","","","","","","",""
"null","","html-keyboard-response","471","487801","0.0-471.0","","","null","","","","","","","",""
"810","","image-keyboard-response","472","488611","0.0-472.0","","img/set2/S2.jpg","68","2","structured_normal","68","random,structured_normal,structured_incentive,structured_load","2,1,3,4,2,3","true","",""
"null","","html-keyboard-response","473","488963","0.0-473.0","","<img src=""img/set2/S2.jpg"" width=""540"" height = ""360"" style=""border:16px solid orange"">","null","","","","","","","",""
"null","","html-keyboard-response","474","489164","0.0-474.0","","","null","","","","","","","",""
"578","","image-keyboard-response","475","489744","0.0-475.0","","img/set2/S1.jpg","83","1","structured_normal","83","random,structured_normal,structured_incentive,structured_load","2,1,3,4,2,3","true","",""
"null","","html-keyboard-response","476","490096","0.0-476.0","","<img src=""img/set2/S1.jpg"" width=""540"" height = ""360"" style=""border:16px solid orange"">","null","","","","","","","",""
"null","","html-keyboard-response","477","490296","0.0-477.0","","","null","","","","","","","",""
"570","","image-keyboard-response","478","490867","0.0-478.0","","img/set2/S4.jpg","74","4","structured_normal","74","random,structured_normal,structured_incentive,structured_load","2,1,3,4,2,3","true","",""
"null","","html-keyboard-response","479","491218","0.0-479.0","","<img src=""img/set2/S4.jpg"" width=""540"" height = ""360"" style=""border:16px solid orange"">","null","","","","","","","",""
"null","","html-keyboard-response","480","491419","0.0-480.0","","","null","","","","","","","",""
"519","","image-keyboard-response","481","491939","0.0-481.0","","img/set2/S3.jpg","72","3","structured_normal","72","random,structured_normal,structured_incentive,structured_load","2,1,3,4,2,3","true","",""
"null","","html-keyboard-response","482","492291","0.0-482.0","","<img src=""img/set2/S3.jpg"" width=""540"" height = ""360"" style=""border:16px solid orange"">","null","","","","","","","",""
"null","","html-keyboard-response","483","492492","0.0-483.0","","","null","","","","","","","",""
"603","","image-keyboard-response","484","493096","0.0-484.0","","img/set2/S4.jpg","74","4","structured_normal","74","random,structured_normal,structured_incentive,structured_load","2,1,3,4,2,3","true","",""
"null","","html-keyboard-response","485","493447","0.0-485.0","","<img src=""img/set2/S4.jpg"" width=""540"" height = ""360"" style=""border:16px solid orange"">","null","","","","","","","",""
"null","","html-keyboard-response","486","493648","0.0-486.0","","","null","","","","","","","",""
"503","","image-keyboard-response","487","494151","0.0-487.0","","img/set2/S3.jpg","72","3","structured_normal","72","random,structured_normal,structured_incentive,structured_load","2,1,3,4,2,3","true","",""
"null","","html-keyboard-response","488","494504","0.0-488.0","","<img src=""img/set2/S3.jpg"" width=""540"" height = ""360"" style=""border:16px solid orange"">","null","","","","","","","",""
"null","","html-keyboard-response","489","494705","0.0-489.0","","","null","","","","","","","",""
"737","","image-keyboard-response","490","495443","0.0-490.0","","img/set2/S2.jpg","68","2","structured_normal","68","random,structured_normal,structured_incentive,structured_load","2,1,3,4,2,3","true","",""
"null","","html-keyboard-response","491","495794","0.0-491.0","","<img src=""img/set2/S2.jpg"" width=""540"" height = ""360"" style=""border:16px solid orange"">","null","","","","","","","",""
"null","","html-keyboard-response","492","495995","0.0-492.0","","","null","","","","","","","",""
"503","","image-keyboard-response","493","496499","0.0-493.0","","img/set2/S1.jpg","83","1","structured_normal","83","random,structured_normal,structured_incentive,structured_load","2,1,3,4,2,3","true","",""
"null","","html-keyboard-response","494","496850","0.0-494.0","","<img src=""img/set2/S1.jpg"" width=""540"" height = ""360"" style=""border:16px solid orange"">","null","","","","","","","",""
"null","","html-keyboard-response","495","497051","0.0-495.0","","","null","","","","","","","",""
"605","","image-keyboard-response","496","497656","0.0-496.0","","img/set2/S2.jpg","68","2","structured_normal","68","random,structured_normal,structured_incentive,structured_load","2,1,3,4,2,3","true","",""
"null","","html-keyboard-response","497","498008","0.0-497.0","","<img src=""img/set2/S2.jpg"" width=""540"" height = ""360"" style=""border:16px solid orange"">","null","","","","","","","",""
"null","","html-keyboard-response","498","498209","0.0-498.0","","","null","","","","","","","",""
"478","","image-keyboard-response","499","498689","0.0-499.0","","img/set2/S1.jpg","83","1","structured_normal","83","random,structured_normal,structured_incentive,structured_load","2,1,3,4,2,3","true","",""
"null","","html-keyboard-response","500","499040","0.0-500.0","","<img src=""img/set2/S1.jpg"" width=""540"" height = ""360"" style=""border:16px solid orange"">","null","","","","","","","",""
"null","","html-keyboard-response","501","499241","0.0-501.0","","","null","","","","","","","",""
"748","","image-keyboard-response","502","499990","0.0-502.0","","img/set2/S2.jpg","68","2","structured_normal","68","random,structured_normal,structured_incentive,structured_load","2,1,3,4,2,3","true","",""
"null","","html-keyboard-response","503","500342","0.0-503.0","","<img src=""img/set2/S2.jpg"" width=""540"" height = ""360"" style=""border:16px solid orange"">","null","","","","","","","",""
"null","","html-keyboard-response","504","500544","0.0-504.0","","","null","","","","","","","",""
"537","","image-keyboard-response","505","501080","0.0-505.0","","img/set2/S1.jpg","83","1","structured_normal","83","random,structured_normal,structured_incentive,structured_load","2,1,3,4,2,3","true","",""
"null","","html-keyboard-response","506","501432","0.0-506.0","","<img src=""img/set2/S1.jpg"" width=""540"" height = ""360"" style=""border:16px solid orange"">","null","","","","","","","",""
"null","","html-keyboard-response","507","501633","0.0-507.0","","","null","","","","","","","",""
"617","","image-keyboard-response","508","502250","0.0-508.0","","img/set2/S4.jpg","74","4","structured_normal","74","random,structured_normal,structured_incentive,structured_load","2,1,3,4,2,3","true","",""
"null","","html-keyboard-response","509","502601","0.0-509.0","","<img src=""img/set2/S4.jpg"" width=""540"" height = ""360"" style=""border:16px solid orange"">","null","","","","","","","",""
"null","","html-keyboard-response","510","502802","0.0-510.0","","","null","","","","","","","",""
"552","","image-keyboard-response","511","503355","0.0-511.0","","img/set2/S3.jpg","72","3","structured_normal","72","random,structured_normal,structured_incentive,structured_load","2,1,3,4,2,3","true","",""
"null","","html-keyboard-response","512","503707","0.0-512.0","","<img src=""img/set2/S3.jpg"" width=""540"" height = ""360"" style=""border:16px solid orange"">","null","","","","","","","",""
"null","","html-keyboard-response","513","503907","0.0-513.0","","","null","","","","","","","",""
"481","","image-keyboard-response","514","504389","0.0-514.0","","img/set2/S3.jpg","72","3","structured_normal","72","random,structured_normal,structured_incentive,structured_load","2,1,3,4,2,3","true","",""
"null","","html-keyboard-response","515","504740","0.0-515.0","","<img src=""img/set2/S3.jpg"" width=""540"" height = ""360"" style=""border:16px solid orange"">","null","","","","","","","",""
"null","","html-keyboard-response","516","504941","0.0-516.0","","","null","","","","","","","",""
"443","","image-keyboard-response","517","505387","0.0-517.0","","img/set2/S3.jpg","72","3","structured_normal","72","random,structured_normal,structured_incentive,structured_load","2,1,3,4,2,3","true","",""
"null","","html-keyboard-response","518","505738","0.0-518.0","","<img src=""img/set2/S3.jpg"" width=""540"" height = ""360"" style=""border:16px solid orange"">","null","","","","","","","",""
"null","","html-keyboard-response","519","505940","0.0-519.0","","","null","","","","","","","",""
"617","","image-keyboard-response","520","506557","0.0-520.0","","img/set2/S4.jpg","74","4","structured_normal","74","random,structured_normal,structured_incentive,structured_load","2,1,3,4,2,3","true","",""
"null","","html-keyboard-response","521","506909","0.0-521.0","","<img src=""img/set2/S4.jpg"" width=""540"" height = ""360"" style=""border:16px solid orange"">","null","","","","","","","",""
"null","","html-keyboard-response","522","507110","0.0-522.0","","","null","","","","","","","",""
"611","","image-keyboard-response","523","507722","0.0-523.0","","img/set2/S3.jpg","72","3","structured_normal","72","random,structured_normal,structured_incentive,structured_load","2,1,3,4,2,3","true","",""
"null","","html-keyboard-response","524","508072","0.0-524.0","","<img src=""img/set2/S3.jpg"" width=""540"" height = ""360"" style=""border:16px solid orange"">","null","","","","","","","",""
"null","","html-keyboard-response","525","508274","0.0-525.0","","","null","","","","","","","",""
"551","","image-keyboard-response","526","508825","0.0-526.0","","img/set2/S2.jpg","68","2","structured_normal","68","random,structured_normal,structured_incentive,structured_load","2,1,3,4,2,3","true","",""
"null","","html-keyboard-response","527","509175","0.0-527.0","","<img src=""img/set2/S2.jpg"" width=""540"" height = ""360"" style=""border:16px solid orange"">","null","","","","","","","",""
"null","","html-keyboard-response","528","509376","0.0-528.0","","","null","","","","","","","",""
"437","","image-keyboard-response","529","509814","0.0-529.0","","img/set2/S1.jpg","83","1","structured_normal","83","random,structured_normal,structured_incentive,structured_load","2,1,3,4,2,3","true","",""
"null","","html-keyboard-response","530","510165","0.0-530.0","","<img src=""img/set2/S1.jpg"" width=""540"" height = ""360"" style=""border:16px solid orange"">","null","","","","","","","",""
"null","","html-keyboard-response","531","510365","0.0-531.0","","","null","","","","","","","",""
"673","","image-keyboard-response","532","511039","0.0-532.0","","img/set2/S4.jpg","74","4","structured_normal","74","random,structured_normal,structured_incentive,structured_load","2,1,3,4,2,3","true","",""
"null","","html-keyboard-response","533","511391","0.0-533.0","","<img src=""img/set2/S4.jpg"" width=""540"" height = ""360"" style=""border:16px solid orange"">","null","","","","","","","",""
"null","","html-keyboard-response","534","511592","0.0-534.0","","","null","","","","","","","",""
"590","","image-keyboard-response","535","512182","0.0-535.0","","img/set2/S2.jpg","68","2","structured_normal","68","random,structured_normal,structured_incentive,structured_load","2,1,3,4,2,3","true","",""
"null","","html-keyboard-response","536","512534","0.0-536.0","","<img src=""img/set2/S2.jpg"" width=""540"" height = ""360"" style=""border:16px solid orange"">","null","","","","","","","",""
"null","","html-keyboard-response","537","512735","0.0-537.0","","","null","","","","","","","",""
"471","","image-keyboard-response","538","513207","0.0-538.0","","img/set2/S1.jpg","83","1","structured_normal","83","random,structured_normal,structured_incentive,structured_load","2,1,3,4,2,3","true","",""
"null","","html-keyboard-response","539","513560","0.0-539.0","","<img src=""img/set2/S1.jpg"" width=""540"" height = ""360"" style=""border:16px solid orange"">","null","","","","","","","",""
"null","","html-keyboard-response","540","513760","0.0-540.0","","","null","","","","","","","",""
"639","","image-keyboard-response","541","514400","0.0-541.0","","img/set2/S2.jpg","68","2","structured_normal","68","random,structured_normal,structured_incentive,structured_load","2,1,3,4,2,3","true","",""
"null","","html-keyboard-response","542","514751","0.0-542.0","","<img src=""img/set2/S2.jpg"" width=""540"" height = ""360"" style=""border:16px solid orange"">","null","","","","","","","",""
"null","","html-keyboard-response","543","514952","0.0-543.0","","","null","","","","","","","",""
"526","","image-keyboard-response","544","515480","0.0-544.0","","img/set2/S1.jpg","83","1","structured_normal","83","random,structured_normal,structured_incentive,structured_load","2,1,3,4,2,3","true","",""
"null","","html-keyboard-response","545","515831","0.0-545.0","","<img src=""img/set2/S1.jpg"" width=""540"" height = ""360"" style=""border:16px solid orange"">","null","","","","","","","",""
"null","","html-keyboard-response","546","516033","0.0-546.0","","","null","","","","","","","",""
"673","","image-keyboard-response","547","516706","0.0-547.0","","img/set2/S3.jpg","72","3","structured_normal","72","random,structured_normal,structured_incentive,structured_load","2,1,3,4,2,3","true","",""
"null","","html-keyboard-response","548","517058","0.0-548.0","","<img src=""img/set2/S3.jpg"" width=""540"" height = ""360"" style=""border:16px solid orange"">","null","","","","","","","",""
"null","","html-keyboard-response","549","517259","0.0-549.0","","","null","","","","","","","",""
"653","","image-keyboard-response","550","517912","0.0-550.0","","img/set2/S4.jpg","74","4","structured_normal","74","random,structured_normal,structured_incentive,structured_load","2,1,3,4,2,3","true","",""
"null","","html-keyboard-response","551","518263","0.0-551.0","","<img src=""img/set2/S4.jpg"" width=""540"" height = ""360"" style=""border:16px solid orange"">","null","","","","","","","",""
"null","","html-keyboard-response","552","518465","0.0-552.0","","","null","","","","","","","",""
"610","","image-keyboard-response","553","519076","0.0-553.0","","img/set2/S2.jpg","68","2","structured_normal","68","random,structured_normal,structured_incentive,structured_load","2,1,3,4,2,3","true","",""
"null","","html-keyboard-response","554","519428","0.0-554.0","","<img src=""img/set2/S2.jpg"" width=""540"" height = ""360"" style=""border:16px solid orange"">","null","","","","","","","",""
"null","","html-keyboard-response","555","519628","0.0-555.0","","","null","","","","","","","",""
"510","","image-keyboard-response","556","520138","0.0-556.0","","img/set2/S1.jpg","83","1","structured_normal","83","random,structured_normal,structured_incentive,structured_load","2,1,3,4,2,3","true","",""
"null","","html-keyboard-response","557","520489","0.0-557.0","","<img src=""img/set2/S1.jpg"" width=""540"" height = ""360"" style=""border:16px solid orange"">","null","","","","","","","",""
"null","","html-keyboard-response","558","520689","0.0-558.0","","","null","","","","","","","",""
"617","","image-keyboard-response","559","521307","0.0-559.0","","img/set2/S2.jpg","68","2","structured_normal","68","random,structured_normal,structured_incentive,structured_load","2,1,3,4,2,3","true","",""
"null","","html-keyboard-response","560","521657","0.0-560.0","","<img src=""img/set2/S2.jpg"" width=""540"" height = ""360"" style=""border:16px solid orange"">","null","","","","","","","",""
"null","","html-keyboard-response","561","521859","0.0-561.0","","","null","","","","","","","",""
"532","","image-keyboard-response","562","522391","0.0-562.0","","img/set2/S1.jpg","83","1","structured_normal","83","random,structured_normal,structured_incentive,structured_load","2,1,3,4,2,3","true","",""
"null","","html-keyboard-response","563","522742","0.0-563.0","","<img src=""img/set2/S1.jpg"" width=""540"" height = ""360"" style=""border:16px solid orange"">","null","","","","","","","",""
"null","","html-keyboard-response","564","522944","0.0-564.0","","","null","","","","","","","",""
"556","","image-keyboard-response","565","523501","0.0-565.0","","img/set2/S4.jpg","72","4","structured_normal","74","random,structured_normal,structured_incentive,structured_load","2,1,3,4,2,3","false","",""
"null","","html-keyboard-response","566","523852","0.0-566.0","","<img src=""img/set2/S4.jpg"" width=""540"" height = ""360"">","null","","","","","","","",""
"null","","html-keyboard-response","567","524053","0.0-567.0","","","null","","","","","","","",""
"655","","image-keyboard-response","568","524708","0.0-568.0","","img/set2/S3.jpg","72","3","structured_normal","72","random,structured_normal,structured_incentive,structured_load","2,1,3,4,2,3","true","",""
"null","","html-keyboard-response","569","525060","0.0-569.0","","<img src=""img/set2/S3.jpg"" width=""540"" height = ""360"" style=""border:16px solid orange"">","null","","","","","","","",""
"null","","html-keyboard-response","570","525262","0.0-570.0","","","null","","","","","","","",""
"587","","image-keyboard-response","571","525849","0.0-571.0","","img/set2/S3.jpg","72","3","structured_normal","72","random,structured_normal,structured_incentive,structured_load","2,1,3,4,2,3","true","",""
"null","","html-keyboard-response","572","526199","0.0-572.0","","<img src=""img/set2/S3.jpg"" width=""540"" height = ""360"" style=""border:16px solid orange"">","null","","","","","","","",""
"null","","html-keyboard-response","573","526400","0.0-573.0","","","null","","","","","","","",""
"505","","image-keyboard-response","574","526906","0.0-574.0","","img/set2/S4.jpg","74","4","structured_normal","74","random,structured_normal,structured_incentive,structured_load","2,1,3,4,2,3","true","",""
"null","","html-keyboard-response","575","527258","0.0-575.0","","<img src=""img/set2/S4.jpg"" width=""540"" height = ""360"" style=""border:16px solid orange"">","null","","","","","","","",""
"null","","html-keyboard-response","576","527460","0.0-576.0","","","null","","","","","","","",""
"466","","image-keyboard-response","577","527927","0.0-577.0","","img/set2/S4.jpg","74","4","structured_normal","74","random,structured_normal,structured_incentive,structured_load","2,1,3,4,2,3","true","",""
"null","","html-keyboard-response","578","528277","0.0-578.0","","<img src=""img/set2/S4.jpg"" width=""540"" height = ""360"" style=""border:16px solid orange"">","null","","","","","","","",""
"null","","html-keyboard-response","579","528478","0.0-579.0","","","null","","","","","","","",""
"445","","image-keyboard-response","580","528924","0.0-580.0","","img/set2/S4.jpg","74","4","structured_normal","74","random,structured_normal,structured_incentive,structured_load","2,1,3,4,2,3","true","",""
"null","","html-keyboard-response","581","529275","0.0-581.0","","<img src=""img/set2/S4.jpg"" width=""540"" height = ""360"" style=""border:16px solid orange"">","null","","","","","","","",""
"null","","html-keyboard-response","582","529476","0.0-582.0","","","null","","","","","","","",""
"400","","image-keyboard-response","583","529877","0.0-583.0","","img/set2/S4.jpg","74","4","structured_normal","74","random,structured_normal,structured_incentive,structured_load","2,1,3,4,2,3","true","",""
"null","","html-keyboard-response","584","530227","0.0-584.0","","<img src=""img/set2/S4.jpg"" width=""540"" height = ""360"" style=""border:16px solid orange"">","null","","","","","","","",""
"null","","html-keyboard-response","585","530430","0.0-585.0","","","null","","","","","","","",""
"524","","image-keyboard-response","586","530955","0.0-586.0","","img/set2/S3.jpg","72","3","structured_normal","72","random,structured_normal,structured_incentive,structured_load","2,1,3,4,2,3","true","",""
"null","","html-keyboard-response","587","531306","0.0-587.0","","<img src=""img/set2/S3.jpg"" width=""540"" height = ""360"" style=""border:16px solid orange"">","null","","","","","","","",""
"null","","html-keyboard-response","588","531507","0.0-588.0","","","null","","","","","","","",""
"472","","image-keyboard-response","589","531981","0.0-589.0","","img/set2/S2.jpg","68","2","structured_normal","68","random,structured_normal,structured_incentive,structured_load","2,1,3,4,2,3","true","",""
"null","","html-keyboard-response","590","532333","0.0-590.0","","<img src=""img/set2/S2.jpg"" width=""540"" height = ""360"" style=""border:16px solid orange"">","null","","","","","","","",""
"null","","html-keyboard-response","591","532535","0.0-591.0","","","null","","","","","","","",""
"634","","image-keyboard-response","592","533169","0.0-592.0","","img/set2/S1.jpg","83","1","structured_normal","83","random,structured_normal,structured_incentive,structured_load","2,1,3,4,2,3","true","",""
"null","","html-keyboard-response","593","533520","0.0-593.0","","<img src=""img/set2/S1.jpg"" width=""540"" height = ""360"" style=""border:16px solid orange"">","null","","","","","","","",""
"null","","html-keyboard-response","594","533721","0.0-594.0","","","null","","","","","","","",""
"609","","image-keyboard-response","595","534330","0.0-595.0","","img/set2/S3.jpg","72","3","structured_normal","72","random,structured_normal,structured_incentive,structured_load","2,1,3,4,2,3","true","",""
"null","","html-keyboard-response","596","534682","0.0-596.0","","<img src=""img/set2/S3.jpg"" width=""540"" height = ""360"" style=""border:16px solid orange"">","null","","","","","","","",""
"null","","html-keyboard-response","597","534883","0.0-597.0","","","null","","","","","","","",""
"437","","image-keyboard-response","598","535319","0.0-598.0","","img/set2/S3.jpg","72","3","structured_normal","72","random,structured_normal,structured_incentive,structured_load","2,1,3,4,2,3","true","",""
"null","","html-keyboard-response","599","535672","0.0-599.0","","<img src=""img/set2/S3.jpg"" width=""540"" height = ""360"" style=""border:16px solid orange"">","null","","","","","","","",""
"null","","html-keyboard-response","600","535872","0.0-600.0","","","null","","","","","","","",""
"401","","image-keyboard-response","601","536274","0.0-601.0","","img/set2/S3.jpg","72","3","structured_normal","72","random,structured_normal,structured_incentive,structured_load","2,1,3,4,2,3","true","",""
"null","","html-keyboard-response","602","536625","0.0-602.0","","<img src=""img/set2/S3.jpg"" width=""540"" height = ""360"" style=""border:16px solid orange"">","null","","","","","","","",""
"null","","html-keyboard-response","603","536825","0.0-603.0","","","null","","","","","","","",""
"383","","image-keyboard-response","604","537210","0.0-604.0","","img/set2/S3.jpg","72","3","structured_normal","72","random,structured_normal,structured_incentive,structured_load","2,1,3,4,2,3","true","",""
