"rt","url","trial_type","trial_index","time_elapsed","internal_node_id","assignmentID","mturkID","hitID","view_history","stimulus","key_press","state","test_part","correct_response","order_block","order_chunk","order_freq","correct","responses","question_order","bonus"
"9074","consent.html","external-html","0","9231","0.0-0.0","33F859I567ZN9EQHU38SF1K96ECBHM","ALKQPW0O9C98N","3ZXV7Q5FJBAKJ3TNMBBLYHIS0EBCFB","","","","","","","","","","","","",""
"53564.59999999404","","instructions","1","62798","0.0-1.0","33F859I567ZN9EQHU38SF1K96ECBHM","ALKQPW0O9C98N","3ZXV7Q5FJBAKJ3TNMBBLYHIS0EBCFB","[{""page_index"":0,""viewing_time"":4876.299999982119},{""page_index"":1,""viewing_time"":7319.800000011921},{""page_index"":2,""viewing_time"":6624.199999988079},{""page_index"":3,""viewing_time"":10047.700000017881},{""page_index"":4,""viewing_time"":7616},{""page_index"":5,""viewing_time"":10408},{""page_index"":6,""viewing_time"":6671.899999976158}]","","","","","","","","","","","",""
"6614.199999988079","","instructions","2","69413","0.0-2.0","33F859I567ZN9EQHU38SF1K96ECBHM","ALKQPW0O9C98N","3ZXV7Q5FJBAKJ3TNMBBLYHIS0EBCFB","[{""page_index"":0,""viewing_time"":6614}]","","","","","","","","","","","",""
"4991.300000011921","","instructions","3","74405","0.0-3.0","33F859I567ZN9EQHU38SF1K96ECBHM","ALKQPW0O9C98N","3ZXV7Q5FJBAKJ3TNMBBLYHIS0EBCFB","[{""page_index"":0,""viewing_time"":4991.0999999940395}]","","","","","","","","","","","",""
"814.6999999880791","","image-keyboard-response","4","75221","0.0-4.0","33F859I567ZN9EQHU38SF1K96ECBHM","ALKQPW0O9C98N","3ZXV7Q5FJBAKJ3TNMBBLYHIS0EBCFB","","img/set1/S3.jpg","83","3","random","72","random,structured_normal,structured_load,structured_incentive","4,2,1,2,2,3","3,2,1,4","false","","",""
"null","","html-keyboard-response","5","75573","0.0-5.0","33F859I567ZN9EQHU38SF1K96ECBHM","ALKQPW0O9C98N","3ZXV7Q5FJBAKJ3TNMBBLYHIS0EBCFB","","<img src=""img/set1/S3.jpg"" width=""540"" height = ""360"">","null","","","","","","","","","",""
"null","","html-keyboard-response","6","75775","0.0-6.0","33F859I567ZN9EQHU38SF1K96ECBHM","ALKQPW0O9C98N","3ZXV7Q5FJBAKJ3TNMBBLYHIS0EBCFB","","","null","","","","","","","","","",""
"556.7999999821186","","image-keyboard-response","7","76333","0.0-7.0","33F859I567ZN9EQHU38SF1K96ECBHM","ALKQPW0O9C98N","3ZXV7Q5FJBAKJ3TNMBBLYHIS0EBCFB","","img/set1/S4.jpg","68","4","random","74","random,structured_normal,structured_load,structured_incentive","4,2,1,2,2,3","3,2,1,4","false","","",""
"null","","html-keyboard-response","8","76685","0.0-8.0","33F859I567ZN9EQHU38SF1K96ECBHM","ALKQPW0O9C98N","3ZXV7Q5FJBAKJ3TNMBBLYHIS0EBCFB","","<img src=""img/set1/S4.jpg"" width=""540"" height = ""360"">","null","","","","","","","","","",""
"null","","html-keyboard-response","9","76887","0.0-9.0","33F859I567ZN9EQHU38SF1K96ECBHM","ALKQPW0O9C98N","3ZXV7Q5FJBAKJ3TNMBBLYHIS0EBCFB","","","null","","","","","","","","","",""
"404.2999999821186","","image-keyboard-response","10","77293","0.0-10.0","33F859I567ZN9EQHU38SF1K96ECBHM","ALKQPW0O9C98N","3ZXV7Q5FJBAKJ3TNMBBLYHIS0EBCFB","","img/set1/S2.jpg","72","2","random","68","random,structured_normal,structured_load,structured_incentive","4,2,1,2,2,3","3,2,1,4","false","","",""
"null","","html-keyboard-response","11","77645","0.0-11.0","33F859I567ZN9EQHU38SF1K96ECBHM","ALKQPW0O9C98N","3ZXV7Q5FJBAKJ3TNMBBLYHIS0EBCFB","","<img src=""img/set1/S2.jpg"" width=""540"" height = ""360"">","null","","","","","","","","","",""
"null","","html-keyboard-response","12","77846","0.0-12.0","33F859I567ZN9EQHU38SF1K96ECBHM","ALKQPW0O9C98N","3ZXV7Q5FJBAKJ3TNMBBLYHIS0EBCFB","","","null","","","","","","","","","",""
"269.7999999821186","","image-keyboard-response","13","78117","0.0-13.0","33F859I567ZN9EQHU38SF1K96ECBHM","ALKQPW0O9C98N","3ZXV7Q5FJBAKJ3TNMBBLYHIS0EBCFB","","img/set1/S3.jpg","74","3","random","72","random,structured_normal,structured_load,structured_incentive","4,2,1,2,2,3","3,2,1,4","false","","",""
"null","","html-keyboard-response","14","78468","0.0-14.0","33F859I567ZN9EQHU38SF1K96ECBHM","ALKQPW0O9C98N","3ZXV7Q5FJBAKJ3TNMBBLYHIS0EBCFB","","<img src=""img/set1/S3.jpg"" width=""540"" height = ""360"">","null","","","","","","","","","",""
"null","","html-keyboard-response","15","78669","0.0-15.0","33F859I567ZN9EQHU38SF1K96ECBHM","ALKQPW0O9C98N","3ZXV7Q5FJBAKJ3TNMBBLYHIS0EBCFB","","","null","","","","","","","","","",""
"311.30000001192093","","image-keyboard-response","16","78981","0.0-16.0","33F859I567ZN9EQHU38SF1K96ECBHM","ALKQPW0O9C98N","3ZXV7Q5FJBAKJ3TNMBBLYHIS0EBCFB","","img/set1/S2.jpg","74","2","random","68","random,structured_normal,structured_load,structured_incentive","4,2,1,2,2,3","3,2,1,4","false","","",""
"null","","html-keyboard-response","17","79333","0.0-17.0","33F859I567ZN9EQHU38SF1K96ECBHM","ALKQPW0O9C98N","3ZXV7Q5FJBAKJ3TNMBBLYHIS0EBCFB","","<img src=""img/set1/S2.jpg"" width=""540"" height = ""360"">","null","","","","","","","","","",""
"null","","html-keyboard-response","18","79534","0.0-18.0","33F859I567ZN9EQHU38SF1K96ECBHM","ALKQPW0O9C98N","3ZXV7Q5FJBAKJ3TNMBBLYHIS0EBCFB","","","null","","","","","","","","","",""
"294","","image-keyboard-response","19","79829","0.0-19.0","33F859I567ZN9EQHU38SF1K96ECBHM","ALKQPW0O9C98N","3ZXV7Q5FJBAKJ3TNMBBLYHIS0EBCFB","","img/set1/S4.jpg","72","4","random","74","random,structured_normal,structured_load,structured_incentive","4,2,1,2,2,3","3,2,1,4","false","","",""
"null","","html-keyboard-response","20","80181","0.0-20.0","33F859I567ZN9EQHU38SF1K96ECBHM","ALKQPW0O9C98N","3ZXV7Q5FJBAKJ3TNMBBLYHIS0EBCFB","","<img src=""img/set1/S4.jpg"" width=""540"" height = ""360"">","null","","","","","","","","","",""
"null","","html-keyboard-response","21","80382","0.0-21.0","33F859I567ZN9EQHU38SF1K96ECBHM","ALKQPW0O9C98N","3ZXV7Q5FJBAKJ3TNMBBLYHIS0EBCFB","","","null","","","","","","","","","",""
"302","","image-keyboard-response","22","80685","0.0-22.0","33F859I567ZN9EQHU38SF1K96ECBHM","ALKQPW0O9C98N","3ZXV7Q5FJBAKJ3TNMBBLYHIS0EBCFB","","img/set1/S4.jpg","83","4","random","74","random,structured_normal,structured_load,structured_incentive","4,2,1,2,2,3","3,2,1,4","false","","",""
"null","","html-keyboard-response","23","81036","0.0-23.0","33F859I567ZN9EQHU38SF1K96ECBHM","ALKQPW0O9C98N","3ZXV7Q5FJBAKJ3TNMBBLYHIS0EBCFB","","<img src=""img/set1/S4.jpg"" width=""540"" height = ""360"">","null","","","","","","","","","",""
"null","","html-keyboard-response","24","81238","0.0-24.0","33F859I567ZN9EQHU38SF1K96ECBHM","ALKQPW0O9C98N","3ZXV7Q5FJBAKJ3TNMBBLYHIS0EBCFB","","","null","","","","","","","","","",""
"301.5","","image-keyboard-response","25","81540","0.0-25.0","33F859I567ZN9EQHU38SF1K96ECBHM","ALKQPW0O9C98N","3ZXV7Q5FJBAKJ3TNMBBLYHIS0EBCFB","","img/set1/S2.jpg","83","2","random","68","random,structured_normal,structured_load,structured_incentive","4,2,1,2,2,3","3,2,1,4","false","","",""
"null","","html-keyboard-response","26","81892","0.0-26.0","33F859I567ZN9EQHU38SF1K96ECBHM","ALKQPW0O9C98N","3ZXV7Q5FJBAKJ3TNMBBLYHIS0EBCFB","","<img src=""img/set1/S2.jpg"" width=""540"" height = ""360"">","null","","","","","","","","","",""
"null","","html-keyboard-response","27","82093","0.0-27.0","33F859I567ZN9EQHU38SF1K96ECBHM","ALKQPW0O9C98N","3ZXV7Q5FJBAKJ3TNMBBLYHIS0EBCFB","","","null","","","","","","","","","",""
"455","","image-keyboard-response","28","82549","0.0-28.0","33F859I567ZN9EQHU38SF1K96ECBHM","ALKQPW0O9C98N","3ZXV7Q5FJBAKJ3TNMBBLYHIS0EBCFB","","img/set1/S1.jpg","68","1","random","83","random,structured_normal,structured_load,structured_incentive","4,2,1,2,2,3","3,2,1,4","false","","",""
"null","","html-keyboard-response","29","82902","0.0-29.0","33F859I567ZN9EQHU38SF1K96ECBHM","ALKQPW0O9C98N","3ZXV7Q5FJBAKJ3TNMBBLYHIS0EBCFB","","<img src=""img/set1/S1.jpg"" width=""540"" height = ""360"">","null","","","","","","","","","",""
"null","","html-keyboard-response","30","83103","0.0-30.0","33F859I567ZN9EQHU38SF1K96ECBHM","ALKQPW0O9C98N","3ZXV7Q5FJBAKJ3TNMBBLYHIS0EBCFB","","","null","","","","","","","","","",""
"316.2000000178814","","image-keyboard-response","31","83420","0.0-31.0","33F859I567ZN9EQHU38SF1K96ECBHM","ALKQPW0O9C98N","3ZXV7Q5FJBAKJ3TNMBBLYHIS0EBCFB","","img/set1/S2.jpg","72","2","random","68","random,structured_normal,structured_load,structured_incentive","4,2,1,2,2,3","3,2,1,4","false","","",""
"null","","html-keyboard-response","32","83773","0.0-32.0","33F859I567ZN9EQHU38SF1K96ECBHM","ALKQPW0O9C98N","3ZXV7Q5FJBAKJ3TNMBBLYHIS0EBCFB","","<img src=""img/set1/S2.jpg"" width=""540"" height = ""360"">","null","","","","","","","","","",""
"null","","html-keyboard-response","33","83974","0.0-33.0","33F859I567ZN9EQHU38SF1K96ECBHM","ALKQPW0O9C98N","3ZXV7Q5FJBAKJ3TNMBBLYHIS0EBCFB","","","null","","","","","","","","","",""
"373.90000000596046","","image-keyboard-response","34","84349","0.0-34.0","33F859I567ZN9EQHU38SF1K96ECBHM","ALKQPW0O9C98N","3ZXV7Q5FJBAKJ3TNMBBLYHIS0EBCFB","","img/set1/S2.jpg","74","2","random","68","random,structured_normal,structured_load,structured_incentive","4,2,1,2,2,3","3,2,1,4","false","","",""
"null","","html-keyboard-response","35","84700","0.0-35.0","33F859I567ZN9EQHU38SF1K96ECBHM","ALKQPW0O9C98N","3ZXV7Q5FJBAKJ3TNMBBLYHIS0EBCFB","","<img src=""img/set1/S2.jpg"" width=""540"" height = ""360"">","null","","","","","","","","","",""
"null","","html-keyboard-response","36","84902","0.0-36.0","33F859I567ZN9EQHU38SF1K96ECBHM","ALKQPW0O9C98N","3ZXV7Q5FJBAKJ3TNMBBLYHIS0EBCFB","","","null","","","","","","","","","",""
"606.1999999880791","","image-keyboard-response","37","85509","0.0-37.0","33F859I567ZN9EQHU38SF1K96ECBHM","ALKQPW0O9C98N","3ZXV7Q5FJBAKJ3TNMBBLYHIS0EBCFB","","img/set1/S4.jpg","72","4","random","74","random,structured_normal,structured_load,structured_incentive","4,2,1,2,2,3","3,2,1,4","false","","",""
"null","","html-keyboard-response","38","85860","0.0-38.0","33F859I567ZN9EQHU38SF1K96ECBHM","ALKQPW0O9C98N","3ZXV7Q5FJBAKJ3TNMBBLYHIS0EBCFB","","<img src=""img/set1/S4.jpg"" width=""540"" height = ""360"">","null","","","","","","","","","",""
"null","","html-keyboard-response","39","86061","0.0-39.0","33F859I567ZN9EQHU38SF1K96ECBHM","ALKQPW0O9C98N","3ZXV7Q5FJBAKJ3TNMBBLYHIS0EBCFB","","","null","","","","","","","","","",""
"463","","image-keyboard-response","40","86524","0.0-40.0","33F859I567ZN9EQHU38SF1K96ECBHM","ALKQPW0O9C98N","3ZXV7Q5FJBAKJ3TNMBBLYHIS0EBCFB","","img/set1/S3.jpg","68","3","random","72","random,structured_normal,structured_load,structured_incentive","4,2,1,2,2,3","3,2,1,4","false","","",""
"null","","html-keyboard-response","41","86876","0.0-41.0","33F859I567ZN9EQHU38SF1K96ECBHM","ALKQPW0O9C98N","3ZXV7Q5FJBAKJ3TNMBBLYHIS0EBCFB","","<img src=""img/set1/S3.jpg"" width=""540"" height = ""360"">","null","","","","","","","","","",""
"null","","html-keyboard-response","42","87078","0.0-42.0","33F859I567ZN9EQHU38SF1K96ECBHM","ALKQPW0O9C98N","3ZXV7Q5FJBAKJ3TNMBBLYHIS0EBCFB","","","null","","","","","","","","","",""
"301.90000000596046","","image-keyboard-response","43","87380","0.0-43.0","33F859I567ZN9EQHU38SF1K96ECBHM","ALKQPW0O9C98N","3ZXV7Q5FJBAKJ3TNMBBLYHIS0EBCFB","","img/set1/S3.jpg","83","3","random","72","random,structured_normal,structured_load,structured_incentive","4,2,1,2,2,3","3,2,1,4","false","","",""
"null","","html-keyboard-response","44","87732","0.0-44.0","33F859I567ZN9EQHU38SF1K96ECBHM","ALKQPW0O9C98N","3ZXV7Q5FJBAKJ3TNMBBLYHIS0EBCFB","","<img src=""img/set1/S3.jpg"" width=""540"" height = ""360"">","null","","","","","","","","","",""
"null","","html-keyboard-response","45","87934","0.0-45.0","33F859I567ZN9EQHU38SF1K96ECBHM","ALKQPW0O9C98N","3ZXV7Q5FJBAKJ3TNMBBLYHIS0EBCFB","","","null","","","","","","","","","",""
"349.7000000178814","","image-keyboard-response","46","88284","0.0-46.0","33F859I567ZN9EQHU38SF1K96ECBHM","ALKQPW0O9C98N","3ZXV7Q5FJBAKJ3TNMBBLYHIS0EBCFB","","img/set1/S3.jpg","72","3","random","72","random,structured_normal,structured_load,structured_incentive","4,2,1,2,2,3","3,2,1,4","true","","",""
"null","","html-keyboard-response","47","88640","0.0-47.0","33F859I567ZN9EQHU38SF1K96ECBHM","ALKQPW0O9C98N","3ZXV7Q5FJBAKJ3TNMBBLYHIS0EBCFB","","<img src=""img/set1/S3.jpg"" width=""540"" height = ""360"" style=""border:16px solid orange"">","null","","","","","","","","","",""
"null","","html-keyboard-response","48","88842","0.0-48.0","33F859I567ZN9EQHU38SF1K96ECBHM","ALKQPW0O9C98N","3ZXV7Q5FJBAKJ3TNMBBLYHIS0EBCFB","","","null","","","","","","","","","",""
"530.2000000178814","","image-keyboard-response","49","89373","0.0-49.0","33F859I567ZN9EQHU38SF1K96ECBHM","ALKQPW0O9C98N","3ZXV7Q5FJBAKJ3TNMBBLYHIS0EBCFB","","img/set1/S1.jpg","74","1","random","83","random,structured_normal,structured_load,structured_incentive","4,2,1,2,2,3","3,2,1,4","false","","",""
"null","","html-keyboard-response","50","89724","0.0-50.0","33F859I567ZN9EQHU38SF1K96ECBHM","ALKQPW0O9C98N","3ZXV7Q5FJBAKJ3TNMBBLYHIS0EBCFB","","<img src=""img/set1/S1.jpg"" width=""540"" height = ""360"">","null","","","","","","","","","",""
"null","","html-keyboard-response","51","89926","0.0-51.0","33F859I567ZN9EQHU38SF1K96ECBHM","ALKQPW0O9C98N","3ZXV7Q5FJBAKJ3TNMBBLYHIS0EBCFB","","","null","","","","","","","","","",""
"373.59999999403954","","image-keyboard-response","52","90301","0.0-52.0","33F859I567ZN9EQHU38SF1K96ECBHM","ALKQPW0O9C98N","3ZXV7Q5FJBAKJ3TNMBBLYHIS0EBCFB","","img/set1/S4.jpg","72","4","random","74","random,structured_normal,structured_load,structured_incentive","4,2,1,2,2,3","3,2,1,4","false","","",""
"null","","html-keyboard-response","53","90652","0.0-53.0","33F859I567ZN9EQHU38SF1K96ECBHM","ALKQPW0O9C98N","3ZXV7Q5FJBAKJ3TNMBBLYHIS0EBCFB","","<img src=""img/set1/S4.jpg"" width=""540"" height = ""360"">","null","","","","","","","","","",""
"null","","html-keyboard-response","54","90854","0.0-54.0","33F859I567ZN9EQHU38SF1K96ECBHM","ALKQPW0O9C98N","3ZXV7Q5FJBAKJ3TNMBBLYHIS0EBCFB","","","null","","","","","","","","","",""
"349.90000000596046","","image-keyboard-response","55","91204","0.0-55.0","33F859I567ZN9EQHU38SF1K96ECBHM","ALKQPW0O9C98N","3ZXV7Q5FJBAKJ3TNMBBLYHIS0EBCFB","","img/set1/S4.jpg","68","4","random","74","random,structured_normal,structured_load,structured_incentive","4,2,1,2,2,3","3,2,1,4","false","","",""
"null","","html-keyboard-response","56","91556","0.0-56.0","33F859I567ZN9EQHU38SF1K96ECBHM","ALKQPW0O9C98N","3ZXV7Q5FJBAKJ3TNMBBLYHIS0EBCFB","","<img src=""img/set1/S4.jpg"" width=""540"" height = ""360"">","null","","","","","","","","","",""
"null","","html-keyboard-response","57","91757","0.0-57.0","33F859I567ZN9EQHU38SF1K96ECBHM","ALKQPW0O9C98N","3ZXV7Q5FJBAKJ3TNMBBLYHIS0EBCFB","","","null","","","","","","","","","",""
"254.80000001192093","","image-keyboard-response","58","92012","0.0-58.0","33F859I567ZN9EQHU38SF1K96ECBHM","ALKQPW0O9C98N","3ZXV7Q5FJBAKJ3TNMBBLYHIS0EBCFB","","img/set1/S1.jpg","83","1","random","83","random,structured_normal,structured_load,structured_incentive","4,2,1,2,2,3","3,2,1,4","true","","",""
"null","","html-keyboard-response","59","92365","0.0-59.0","33F859I567ZN9EQHU38SF1K96ECBHM","ALKQPW0O9C98N","3ZXV7Q5FJBAKJ3TNMBBLYHIS0EBCFB","","<img src=""img/set1/S1.jpg"" width=""540"" height = ""360"" style=""border:16px solid orange"">","null","","","","","","","","","",""
"null","","html-keyboard-response","60","92567","0.0-60.0","33F859I567ZN9EQHU38SF1K96ECBHM","ALKQPW0O9C98N","3ZXV7Q5FJBAKJ3TNMBBLYHIS0EBCFB","","","null","","","","","","","","","",""
"668.9000000059605","","image-keyboard-response","61","93236","0.0-61.0","33F859I567ZN9EQHU38SF1K96ECBHM","ALKQPW0O9C98N","3ZXV7Q5FJBAKJ3TNMBBLYHIS0EBCFB","","img/set1/S3.jpg","72","3","random","72","random,structured_normal,structured_load,structured_incentive","4,2,1,2,2,3","3,2,1,4","true","","",""
"null","","html-keyboard-response","62","93589","0.0-62.0","33F859I567ZN9EQHU38SF1K96ECBHM","ALKQPW0O9C98N","3ZXV7Q5FJBAKJ3TNMBBLYHIS0EBCFB","","<img src=""img/set1/S3.jpg"" width=""540"" height = ""360"" style=""border:16px solid orange"">","null","","","","","","","","","",""
"null","","html-keyboard-response","63","93789","0.0-63.0","33F859I567ZN9EQHU38SF1K96ECBHM","ALKQPW0O9C98N","3ZXV7Q5FJBAKJ3TNMBBLYHIS0EBCFB","","","null","","","","","","","","","",""
"534.0999999940395","","image-keyboard-response","64","94324","0.0-64.0","33F859I567ZN9EQHU38SF1K96ECBHM","ALKQPW0O9C98N","3ZXV7Q5FJBAKJ3TNMBBLYHIS0EBCFB","","img/set1/S3.jpg","72","3","random","72","random,structured_normal,structured_load,structured_incentive","4,2,1,2,2,3","3,2,1,4","true","","",""
"null","","html-keyboard-response","65","94677","0.0-65.0","33F859I567ZN9EQHU38SF1K96ECBHM","ALKQPW0O9C98N","3ZXV7Q5FJBAKJ3TNMBBLYHIS0EBCFB","","<img src=""img/set1/S3.jpg"" width=""540"" height = ""360"" style=""border:16px solid orange"">","null","","","","","","","","","",""
"null","","html-keyboard-response","66","94878","0.0-66.0","33F859I567ZN9EQHU38SF1K96ECBHM","ALKQPW0O9C98N","3ZXV7Q5FJBAKJ3TNMBBLYHIS0EBCFB","","","null","","","","","","","","","",""
"581.1999999880791","","image-keyboard-response","67","95460","0.0-67.0","33F859I567ZN9EQHU38SF1K96ECBHM","ALKQPW0O9C98N","3ZXV7Q5FJBAKJ3TNMBBLYHIS0EBCFB","","img/set1/S1.jpg","68","1","random","83","random,structured_normal,structured_load,structured_incentive","4,2,1,2,2,3","3,2,1,4","false","","",""
"null","","html-keyboard-response","68","95813","0.0-68.0","33F859I567ZN9EQHU38SF1K96ECBHM","ALKQPW0O9C98N","3ZXV7Q5FJBAKJ3TNMBBLYHIS0EBCFB","","<img src=""img/set1/S1.jpg"" width=""540"" height = ""360"">","null","","","","","","","","","",""
"null","","html-keyboard-response","69","96015","0.0-69.0","33F859I567ZN9EQHU38SF1K96ECBHM","ALKQPW0O9C98N","3ZXV7Q5FJBAKJ3TNMBBLYHIS0EBCFB","","","null","","","","","","","","","",""
"723.6000000238419","","image-keyboard-response","70","96741","0.0-70.0","33F859I567ZN9EQHU38SF1K96ECBHM","ALKQPW0O9C98N","3ZXV7Q5FJBAKJ3TNMBBLYHIS0EBCFB","","img/set1/S4.jpg","83","4","random","74","random,structured_normal,structured_load,structured_incentive","4,2,1,2,2,3","3,2,1,4","false","","",""
"null","","html-keyboard-response","71","97092","0.0-71.0","33F859I567ZN9EQHU38SF1K96ECBHM","ALKQPW0O9C98N","3ZXV7Q5FJBAKJ3TNMBBLYHIS0EBCFB","","<img src=""img/set1/S4.jpg"" width=""540"" height = ""360"">","null","","","","","","","","","",""
"null","","html-keyboard-response","72","97294","0.0-72.0","33F859I567ZN9EQHU38SF1K96ECBHM","ALKQPW0O9C98N","3ZXV7Q5FJBAKJ3TNMBBLYHIS0EBCFB","","","null","","","","","","","","","",""
"462.09999999403954","","image-keyboard-response","73","97757","0.0-73.0","33F859I567ZN9EQHU38SF1K96ECBHM","ALKQPW0O9C98N","3ZXV7Q5FJBAKJ3TNMBBLYHIS0EBCFB","","img/set1/S4.jpg","72","4","random","74","random,structured_normal,structured_load,structured_incentive","4,2,1,2,2,3","3,2,1,4","false","","",""
"null","","html-keyboard-response","74","98109","0.0-74.0","33F859I567ZN9EQHU38SF1K96ECBHM","ALKQPW0O9C98N","3ZXV7Q5FJBAKJ3TNMBBLYHIS0EBCFB","","<img src=""img/set1/S4.jpg"" width=""540"" height = ""360"">","null","","","","","","","","","",""
"null","","html-keyboard-response","75","98311","0.0-75.0","33F859I567ZN9EQHU38SF1K96ECBHM","ALKQPW0O9C98N","3ZXV7Q5FJBAKJ3TNMBBLYHIS0EBCFB","","","null","","","","","","","","","",""
"772.5999999940395","","image-keyboard-response","76","99084","0.0-76.0","33F859I567ZN9EQHU38SF1K96ECBHM","ALKQPW0O9C98N","3ZXV7Q5FJBAKJ3TNMBBLYHIS0EBCFB","","img/set1/S2.jpg","72","2","random","68","random,structured_normal,structured_load,structured_incentive","4,2,1,2,2,3","3,2,1,4","false","","",""
"null","","html-keyboard-response","77","99435","0.0-77.0","33F859I567ZN9EQHU38SF1K96ECBHM","ALKQPW0O9C98N","3ZXV7Q5FJBAKJ3TNMBBLYHIS0EBCFB","","<img src=""img/set1/S2.jpg"" width=""540"" height = ""360"">","null","","","","","","","","","",""
"null","","html-keyboard-response","78","99637","0.0-78.0","33F859I567ZN9EQHU38SF1K96ECBHM","ALKQPW0O9C98N","3ZXV7Q5FJBAKJ3TNMBBLYHIS0EBCFB","","","null","","","","","","","","","",""
"366.2000000178814","","image-keyboard-response","79","100004","0.0-79.0","33F859I567ZN9EQHU38SF1K96ECBHM","ALKQPW0O9C98N","3ZXV7Q5FJBAKJ3TNMBBLYHIS0EBCFB","","img/set1/S1.jpg","68","1","random","83","random,structured_normal,structured_load,structured_incentive","4,2,1,2,2,3","3,2,1,4","false","","",""
"null","","html-keyboard-response","80","100356","0.0-80.0","33F859I567ZN9EQHU38SF1K96ECBHM","ALKQPW0O9C98N","3ZXV7Q5FJBAKJ3TNMBBLYHIS0EBCFB","","<img src=""img/set1/S1.jpg"" width=""540"" height = ""360"">","null","","","","","","","","","",""
"null","","html-keyboard-response","81","100557","0.0-81.0","33F859I567ZN9EQHU38SF1K96ECBHM","ALKQPW0O9C98N","3ZXV7Q5FJBAKJ3TNMBBLYHIS0EBCFB","","","null","","","","","","","","","",""
"470.7999999821186","","image-keyboard-response","82","101028","0.0-82.0","33F859I567ZN9EQHU38SF1K96ECBHM","ALKQPW0O9C98N","3ZXV7Q5FJBAKJ3TNMBBLYHIS0EBCFB","","img/set1/S2.jpg","74","2","random","68","random,structured_normal,structured_load,structured_incentive","4,2,1,2,2,3","3,2,1,4","false","","",""
"null","","html-keyboard-response","83","101380","0.0-83.0","33F859I567ZN9EQHU38SF1K96ECBHM","ALKQPW0O9C98N","3ZXV7Q5FJBAKJ3TNMBBLYHIS0EBCFB","","<img src=""img/set1/S2.jpg"" width=""540"" height = ""360"">","null","","","","","","","","","",""
"null","","html-keyboard-response","84","101580","0.0-84.0","33F859I567ZN9EQHU38SF1K96ECBHM","ALKQPW0O9C98N","3ZXV7Q5FJBAKJ3TNMBBLYHIS0EBCFB","","","null","","","","","","","","","",""
"583.0999999940395","","image-keyboard-response","85","102164","0.0-85.0","33F859I567ZN9EQHU38SF1K96ECBHM","ALKQPW0O9C98N","3ZXV7Q5FJBAKJ3TNMBBLYHIS0EBCFB","","img/set1/S2.jpg","74","2","random","68","random,structured_normal,structured_load,structured_incentive","4,2,1,2,2,3","3,2,1,4","false","","",""
"null","","html-keyboard-response","86","102516","0.0-86.0","33F859I567ZN9EQHU38SF1K96ECBHM","ALKQPW0O9C98N","3ZXV7Q5FJBAKJ3TNMBBLYHIS0EBCFB","","<img src=""img/set1/S2.jpg"" width=""540"" height = ""360"">","null","","","","","","","","","",""
"null","","html-keyboard-response","87","102717","0.0-87.0","33F859I567ZN9EQHU38SF1K96ECBHM","ALKQPW0O9C98N","3ZXV7Q5FJBAKJ3TNMBBLYHIS0EBCFB","","","null","","","","","","","","","",""
"702.3000000119209","","image-keyboard-response","88","103420","0.0-88.0","33F859I567ZN9EQHU38SF1K96ECBHM","ALKQPW0O9C98N","3ZXV7Q5FJBAKJ3TNMBBLYHIS0EBCFB","","img/set1/S3.jpg","72","3","random","72","random,structured_normal,structured_load,structured_incentive","4,2,1,2,2,3","3,2,1,4","true","","",""
"null","","html-keyboard-response","89","103771","0.0-89.0","33F859I567ZN9EQHU38SF1K96ECBHM","ALKQPW0O9C98N","3ZXV7Q5FJBAKJ3TNMBBLYHIS0EBCFB","","<img src=""img/set1/S3.jpg"" width=""540"" height = ""360"" style=""border:16px solid orange"">","null","","","","","","","","","",""
"null","","html-keyboard-response","90","103973","0.0-90.0","33F859I567ZN9EQHU38SF1K96ECBHM","ALKQPW0O9C98N","3ZXV7Q5FJBAKJ3TNMBBLYHIS0EBCFB","","","null","","","","","","","","","",""
"550.3000000119209","","image-keyboard-response","91","104524","0.0-91.0","33F859I567ZN9EQHU38SF1K96ECBHM","ALKQPW0O9C98N","3ZXV7Q5FJBAKJ3TNMBBLYHIS0EBCFB","","img/set1/S4.jpg","83","4","random","74","random,structured_normal,structured_load,structured_incentive","4,2,1,2,2,3","3,2,1,4","false","","",""
"null","","html-keyboard-response","92","104877","0.0-92.0","33F859I567ZN9EQHU38SF1K96ECBHM","ALKQPW0O9C98N","3ZXV7Q5FJBAKJ3TNMBBLYHIS0EBCFB","","<img src=""img/set1/S4.jpg"" width=""540"" height = ""360"">","null","","","","","","","","","",""
"null","","html-keyboard-response","93","105079","0.0-93.0","33F859I567ZN9EQHU38SF1K96ECBHM","ALKQPW0O9C98N","3ZXV7Q5FJBAKJ3TNMBBLYHIS0EBCFB","","","null","","","","","","","","","",""
"948.3000000119209","","image-keyboard-response","94","106028","0.0-94.0","33F859I567ZN9EQHU38SF1K96ECBHM","ALKQPW0O9C98N","3ZXV7Q5FJBAKJ3TNMBBLYHIS0EBCFB","","img/set1/S3.jpg","74","3","random","72","random,structured_normal,structured_load,structured_incentive","4,2,1,2,2,3","3,2,1,4","false","","",""
"null","","html-keyboard-response","95","106381","0.0-95.0","33F859I567ZN9EQHU38SF1K96ECBHM","ALKQPW0O9C98N","3ZXV7Q5FJBAKJ3TNMBBLYHIS0EBCFB","","<img src=""img/set1/S3.jpg"" width=""540"" height = ""360"">","null","","","","","","","","","",""
"null","","html-keyboard-response","96","106582","0.0-96.0","33F859I567ZN9EQHU38SF1K96ECBHM","ALKQPW0O9C98N","3ZXV7Q5FJBAKJ3TNMBBLYHIS0EBCFB","","","null","","","","","","","","","",""
"797.4000000059605","","image-keyboard-response","97","107380","0.0-97.0","33F859I567ZN9EQHU38SF1K96ECBHM","ALKQPW0O9C98N","3ZXV7Q5FJBAKJ3TNMBBLYHIS0EBCFB","","img/set1/S4.jpg","83","4","random","74","random,structured_normal,structured_load,structured_incentive","4,2,1,2,2,3","3,2,1,4","false","","",""
"null","","html-keyboard-response","98","107732","0.0-98.0","33F859I567ZN9EQHU38SF1K96ECBHM","ALKQPW0O9C98N","3ZXV7Q5FJBAKJ3TNMBBLYHIS0EBCFB","","<img src=""img/set1/S4.jpg"" width=""540"" height = ""360"">","null","","","","","","","","","",""
"null","","html-keyboard-response","99","107933","0.0-99.0","33F859I567ZN9EQHU38SF1K96ECBHM","ALKQPW0O9C98N","3ZXV7Q5FJBAKJ3TNMBBLYHIS0EBCFB","","","null","","","","","","","","","",""
"494.59999999403954","","image-keyboard-response","100","108428","0.0-100.0","33F859I567ZN9EQHU38SF1K96ECBHM","ALKQPW0O9C98N","3ZXV7Q5FJBAKJ3TNMBBLYHIS0EBCFB","","img/set1/S4.jpg","68","4","random","74","random,structured_normal,structured_load,structured_incentive","4,2,1,2,2,3","3,2,1,4","false","","",""
"null","","html-keyboard-response","101","108779","0.0-101.0","33F859I567ZN9EQHU38SF1K96ECBHM","ALKQPW0O9C98N","3ZXV7Q5FJBAKJ3TNMBBLYHIS0EBCFB","","<img src=""img/set1/S4.jpg"" width=""540"" height = ""360"">","null","","","","","","","","","",""
"null","","html-keyboard-response","102","108981","0.0-102.0","33F859I567ZN9EQHU38SF1K96ECBHM","ALKQPW0O9C98N","3ZXV7Q5FJBAKJ3TNMBBLYHIS0EBCFB","","","null","","","","","","","","","",""
"350.40000000596046","","image-keyboard-response","103","109332","0.0-103.0","33F859I567ZN9EQHU38SF1K96ECBHM","ALKQPW0O9C98N","3ZXV7Q5FJBAKJ3TNMBBLYHIS0EBCFB","","img/set1/S2.jpg","72","2","random","68","random,structured_normal,structured_load,structured_incentive","4,2,1,2,2,3","3,2,1,4","false","","",""
"null","","html-keyboard-response","104","109683","0.0-104.0","33F859I567ZN9EQHU38SF1K96ECBHM","ALKQPW0O9C98N","3ZXV7Q5FJBAKJ3TNMBBLYHIS0EBCFB","","<img src=""img/set1/S2.jpg"" width=""540"" height = ""360"">","null","","","","","","","","","",""
"null","","html-keyboard-response","105","109885","0.0-105.0","33F859I567ZN9EQHU38SF1K96ECBHM","ALKQPW0O9C98N","3ZXV7Q5FJBAKJ3TNMBBLYHIS0EBCFB","","","null","","","","","","","","","",""
"455","","image-keyboard-response","106","110340","0.0-106.0","33F859I567ZN9EQHU38SF1K96ECBHM","ALKQPW0O9C98N","3ZXV7Q5FJBAKJ3TNMBBLYHIS0EBCFB","","img/set1/S3.jpg","74","3","random","72","random,structured_normal,structured_load,structured_incentive","4,2,1,2,2,3","3,2,1,4","false","","",""
"null","","html-keyboard-response","107","110691","0.0-107.0","33F859I567ZN9EQHU38SF1K96ECBHM","ALKQPW0O9C98N","3ZXV7Q5FJBAKJ3TNMBBLYHIS0EBCFB","","<img src=""img/set1/S3.jpg"" width=""540"" height = ""360"">","null","","","","","","","","","",""
"null","","html-keyboard-response","108","110893","0.0-108.0","33F859I567ZN9EQHU38SF1K96ECBHM","ALKQPW0O9C98N","3ZXV7Q5FJBAKJ3TNMBBLYHIS0EBCFB","","","null","","","","","","","","","",""
"590.3000000119209","","image-keyboard-response","109","111484","0.0-109.0","33F859I567ZN9EQHU38SF1K96ECBHM","ALKQPW0O9C98N","3ZXV7Q5FJBAKJ3TNMBBLYHIS0EBCFB","","img/set1/S3.jpg","74","3","random","72","random,structured_normal,structured_load,structured_incentive","4,2,1,2,2,3","3,2,1,4","false","","",""
"null","","html-keyboard-response","110","111837","0.0-110.0","33F859I567ZN9EQHU38SF1K96ECBHM","ALKQPW0O9C98N","3ZXV7Q5FJBAKJ3TNMBBLYHIS0EBCFB","","<img src=""img/set1/S3.jpg"" width=""540"" height = ""360"">","null","","","","","","","","","",""
"null","","html-keyboard-response","111","112039","0.0-111.0","33F859I567ZN9EQHU38SF1K96ECBHM","ALKQPW0O9C98N","3ZXV7Q5FJBAKJ3TNMBBLYHIS0EBCFB","","","null","","","","","","","","","",""
"900.7000000178814","","image-keyboard-response","112","112940","0.0-112.0","33F859I567ZN9EQHU38SF1K96ECBHM","ALKQPW0O9C98N","3ZXV7Q5FJBAKJ3TNMBBLYHIS0EBCFB","","img/set1/S2.jpg","72","2","random","68","random,structured_normal,structured_load,structured_incentive","4,2,1,2,2,3","3,2,1,4","false","","",""
"null","","html-keyboard-response","113","113292","0.0-113.0","33F859I567ZN9EQHU38SF1K96ECBHM","ALKQPW0O9C98N","3ZXV7Q5FJBAKJ3TNMBBLYHIS0EBCFB","","<img src=""img/set1/S2.jpg"" width=""540"" height = ""360"">","null","","","","","","","","","",""
"null","","html-keyboard-response","114","113494","0.0-114.0","33F859I567ZN9EQHU38SF1K96ECBHM","ALKQPW0O9C98N","3ZXV7Q5FJBAKJ3TNMBBLYHIS0EBCFB","","","null","","","","","","","","","",""
"1013.5999999940395","","image-keyboard-response","115","114508","0.0-115.0","33F859I567ZN9EQHU38SF1K96ECBHM","ALKQPW0O9C98N","3ZXV7Q5FJBAKJ3TNMBBLYHIS0EBCFB","","img/set1/S2.jpg","68","2","random","68","random,structured_normal,structured_load,structured_incentive","4,2,1,2,2,3","3,2,1,4","true","","",""
"null","","html-keyboard-response","116","114861","0.0-116.0","33F859I567ZN9EQHU38SF1K96ECBHM","ALKQPW0O9C98N","3ZXV7Q5FJBAKJ3TNMBBLYHIS0EBCFB","","<img src=""img/set1/S2.jpg"" width=""540"" height = ""360"" style=""border:16px solid orange"">","null","","","","","","","","","",""
"null","","html-keyboard-response","117","115062","0.0-117.0","33F859I567ZN9EQHU38SF1K96ECBHM","ALKQPW0O9C98N","3ZXV7Q5FJBAKJ3TNMBBLYHIS0EBCFB","","","null","","","","","","","","","",""
"1085.5999999940395","","image-keyboard-response","118","116148","0.0-118.0","33F859I567ZN9EQHU38SF1K96ECBHM","ALKQPW0O9C98N","3ZXV7Q5FJBAKJ3TNMBBLYHIS0EBCFB","","img/set1/S1.jpg","74","1","random","83","random,structured_normal,structured_load,structured_incentive","4,2,1,2,2,3","3,2,1,4","false","","",""
"null","","html-keyboard-response","119","116500","0.0-119.0","33F859I567ZN9EQHU38SF1K96ECBHM","ALKQPW0O9C98N","3ZXV7Q5FJBAKJ3TNMBBLYHIS0EBCFB","","<img src=""img/set1/S1.jpg"" width=""540"" height = ""360"">","null","","","","","","","","","",""
"null","","html-keyboard-response","120","116702","0.0-120.0","33F859I567ZN9EQHU38SF1K96ECBHM","ALKQPW0O9C98N","3ZXV7Q5FJBAKJ3TNMBBLYHIS0EBCFB","","","null","","","","","","","","","",""
"757.4000000059605","","image-keyboard-response","121","117460","0.0-121.0","33F859I567ZN9EQHU38SF1K96ECBHM","ALKQPW0O9C98N","3ZXV7Q5FJBAKJ3TNMBBLYHIS0EBCFB","","img/set1/S4.jpg","83","4","random","74","random,structured_normal,structured_load,structured_incentive","4,2,1,2,2,3","3,2,1,4","false","","",""
"null","","html-keyboard-response","122","117811","0.0-122.0","33F859I567ZN9EQHU38SF1K96ECBHM","ALKQPW0O9C98N","3ZXV7Q5FJBAKJ3TNMBBLYHIS0EBCFB","","<img src=""img/set1/S4.jpg"" width=""540"" height = ""360"">","null","","","","","","","","","",""
"null","","html-keyboard-response","123","118012","0.0-123.0","33F859I567ZN9EQHU38SF1K96ECBHM","ALKQPW0O9C98N","3ZXV7Q5FJBAKJ3TNMBBLYHIS0EBCFB","","","null","","","","","","","","","",""
"767.3000000119209","","image-keyboard-response","124","118780","0.0-124.0","33F859I567ZN9EQHU38SF1K96ECBHM","ALKQPW0O9C98N","3ZXV7Q5FJBAKJ3TNMBBLYHIS0EBCFB","","img/set1/S3.jpg","68","3","random","72","random,structured_normal,structured_load,structured_incentive","4,2,1,2,2,3","3,2,1,4","false","","",""
"null","","html-keyboard-response","125","119132","0.0-125.0","33F859I567ZN9EQHU38SF1K96ECBHM","ALKQPW0O9C98N","3ZXV7Q5FJBAKJ3TNMBBLYHIS0EBCFB","","<img src=""img/set1/S3.jpg"" width=""540"" height = ""360"">","null","","","","","","","","","",""
"null","","html-keyboard-response","126","119333","0.0-126.0","33F859I567ZN9EQHU38SF1K96ECBHM","ALKQPW0O9C98N","3ZXV7Q5FJBAKJ3TNMBBLYHIS0EBCFB","","","null","","","","","","","","","",""
"870.1000000238419","","image-keyboard-response","127","120204","0.0-127.0","33F859I567ZN9EQHU38SF1K96ECBHM","ALKQPW0O9C98N","3ZXV7Q5FJBAKJ3TNMBBLYHIS0EBCFB","","img/set1/S3.jpg","72","3","random","72","random,structured_normal,structured_load,structured_incentive","4,2,1,2,2,3","3,2,1,4","true","","",""
"null","","html-keyboard-response","128","120556","0.0-128.0","33F859I567ZN9EQHU38SF1K96ECBHM","ALKQPW0O9C98N","3ZXV7Q5FJBAKJ3TNMBBLYHIS0EBCFB","","<img src=""img/set1/S3.jpg"" width=""540"" height = ""360"" style=""border:16px solid orange"">","null","","","","","","","","","",""
"null","","html-keyboard-response","129","120758","0.0-129.0","33F859I567ZN9EQHU38SF1K96ECBHM","ALKQPW0O9C98N","3ZXV7Q5FJBAKJ3TNMBBLYHIS0EBCFB","","","null","","","","","","","","","",""
"965.1999999880791","","image-keyboard-response","130","121724","0.0-130.0","33F859I567ZN9EQHU38SF1K96ECBHM","ALKQPW0O9C98N","3ZXV7Q5FJBAKJ3TNMBBLYHIS0EBCFB","","img/set1/S2.jpg","68","2","random","68","random,structured_normal,structured_load,structured_incentive","4,2,1,2,2,3","3,2,1,4","true","","",""
"null","","html-keyboard-response","131","122076","0.0-131.0","33F859I567ZN9EQHU38SF1K96ECBHM","ALKQPW0O9C98N","3ZXV7Q5FJBAKJ3TNMBBLYHIS0EBCFB","","<img src=""img/set1/S2.jpg"" width=""540"" height = ""360"" style=""border:16px solid orange"">","null","","","","","","","","","",""
"null","","html-keyboard-response","132","122278","0.0-132.0","33F859I567ZN9EQHU38SF1K96ECBHM","ALKQPW0O9C98N","3ZXV7Q5FJBAKJ3TNMBBLYHIS0EBCFB","","","null","","","","","","","","","",""
"565.7000000178814","","image-keyboard-response","133","122844","0.0-133.0","33F859I567ZN9EQHU38SF1K96ECBHM","ALKQPW0O9C98N","3ZXV7Q5FJBAKJ3TNMBBLYHIS0EBCFB","","img/set1/S2.jpg","68","2","random","68","random,structured_normal,structured_load,structured_incentive","4,2,1,2,2,3","3,2,1,4","true","","",""
"null","","html-keyboard-response","134","123195","0.0-134.0","33F859I567ZN9EQHU38SF1K96ECBHM","ALKQPW0O9C98N","3ZXV7Q5FJBAKJ3TNMBBLYHIS0EBCFB","","<img src=""img/set1/S2.jpg"" width=""540"" height = ""360"" style=""border:16px solid orange"">","null","","","","","","","","","",""
"null","","html-keyboard-response","135","123396","0.0-135.0","33F859I567ZN9EQHU38SF1K96ECBHM","ALKQPW0O9C98N","3ZXV7Q5FJBAKJ3TNMBBLYHIS0EBCFB","","","null","","","","","","","","","",""
"767","","image-keyboard-response","136","124164","0.0-136.0","33F859I567ZN9EQHU38SF1K96ECBHM","ALKQPW0O9C98N","3ZXV7Q5FJBAKJ3TNMBBLYHIS0EBCFB","","img/set1/S1.jpg","74","1","random","83","random,structured_normal,structured_load,structured_incentive","4,2,1,2,2,3","3,2,1,4","false","","",""
"null","","html-keyboard-response","137","124517","0.0-137.0","33F859I567ZN9EQHU38SF1K96ECBHM","ALKQPW0O9C98N","3ZXV7Q5FJBAKJ3TNMBBLYHIS0EBCFB","","<img src=""img/set1/S1.jpg"" width=""540"" height = ""360"">","null","","","","","","","","","",""
"null","","html-keyboard-response","138","124718","0.0-138.0","33F859I567ZN9EQHU38SF1K96ECBHM","ALKQPW0O9C98N","3ZXV7Q5FJBAKJ3TNMBBLYHIS0EBCFB","","","null","","","","","","","","","",""
"885.3000000119209","","image-keyboard-response","139","125604","0.0-139.0","33F859I567ZN9EQHU38SF1K96ECBHM","ALKQPW0O9C98N","3ZXV7Q5FJBAKJ3TNMBBLYHIS0EBCFB","","img/set1/S4.jpg","72","4","random","74","random,structured_normal,structured_load,structured_incentive","4,2,1,2,2,3","3,2,1,4","false","","",""
"null","","html-keyboard-response","140","125956","0.0-140.0","33F859I567ZN9EQHU38SF1K96ECBHM","ALKQPW0O9C98N","3ZXV7Q5FJBAKJ3TNMBBLYHIS0EBCFB","","<img src=""img/set1/S4.jpg"" width=""540"" height = ""360"">","null","","","","","","","","","",""
"null","","html-keyboard-response","141","126158","0.0-141.0","33F859I567ZN9EQHU38SF1K96ECBHM","ALKQPW0O9C98N","3ZXV7Q5FJBAKJ3TNMBBLYHIS0EBCFB","","","null","","","","","","","","","",""
"1189.2999999821186","","image-keyboard-response","142","127348","0.0-142.0","33F859I567ZN9EQHU38SF1K96ECBHM","ALKQPW0O9C98N","3ZXV7Q5FJBAKJ3TNMBBLYHIS0EBCFB","","img/set1/S1.jpg","68","1","random","83","random,structured_normal,structured_load,structured_incentive","4,2,1,2,2,3","3,2,1,4","false","","",""
"null","","html-keyboard-response","143","127699","0.0-143.0","33F859I567ZN9EQHU38SF1K96ECBHM","ALKQPW0O9C98N","3ZXV7Q5FJBAKJ3TNMBBLYHIS0EBCFB","","<img src=""img/set1/S1.jpg"" width=""540"" height = ""360"">","null","","","","","","","","","",""
"null","","html-keyboard-response","144","127900","0.0-144.0","33F859I567ZN9EQHU38SF1K96ECBHM","ALKQPW0O9C98N","3ZXV7Q5FJBAKJ3TNMBBLYHIS0EBCFB","","","null","","","","","","","","","",""
"767.7000000178814","","image-keyboard-response","145","128669","0.0-145.0","33F859I567ZN9EQHU38SF1K96ECBHM","ALKQPW0O9C98N","3ZXV7Q5FJBAKJ3TNMBBLYHIS0EBCFB","","img/set1/S2.jpg","72","2","random","68","random,structured_normal,structured_load,structured_incentive","4,2,1,2,2,3","3,2,1,4","false","","",""
"null","","html-keyboard-response","146","129020","0.0-146.0","33F859I567ZN9EQHU38SF1K96ECBHM","ALKQPW0O9C98N","3ZXV7Q5FJBAKJ3TNMBBLYHIS0EBCFB","","<img src=""img/set1/S2.jpg"" width=""540"" height = ""360"">","null","","","","","","","","","",""
"null","","html-keyboard-response","147","129222","0.0-147.0","33F859I567ZN9EQHU38SF1K96ECBHM","ALKQPW0O9C98N","3ZXV7Q5FJBAKJ3TNMBBLYHIS0EBCFB","","","null","","","","","","","","","",""
"1061.300000011921","","image-keyboard-response","148","130284","0.0-148.0","33F859I567ZN9EQHU38SF1K96ECBHM","ALKQPW0O9C98N","3ZXV7Q5FJBAKJ3TNMBBLYHIS0EBCFB","","img/set1/S4.jpg","68","4","random","74","random,structured_normal,structured_load,structured_incentive","4,2,1,2,2,3","3,2,1,4","false","","",""
"null","","html-keyboard-response","149","130636","0.0-149.0","33F859I567ZN9EQHU38SF1K96ECBHM","ALKQPW0O9C98N","3ZXV7Q5FJBAKJ3TNMBBLYHIS0EBCFB","","<img src=""img/set1/S4.jpg"" width=""540"" height = ""360"">","null","","","","","","","","","",""
"null","","html-keyboard-response","150","130838","0.0-150.0","33F859I567ZN9EQHU38SF1K96ECBHM","ALKQPW0O9C98N","3ZXV7Q5FJBAKJ3TNMBBLYHIS0EBCFB","","","null","","","","","","","","","",""
"948.8000000119209","","image-keyboard-response","151","131788","0.0-151.0","33F859I567ZN9EQHU38SF1K96ECBHM","ALKQPW0O9C98N","3ZXV7Q5FJBAKJ3TNMBBLYHIS0EBCFB","","img/set1/S3.jpg","68","3","random","72","random,structured_normal,structured_load,structured_incentive","4,2,1,2,2,3","3,2,1,4","false","","",""
"null","","html-keyboard-response","152","132141","0.0-152.0","33F859I567ZN9EQHU38SF1K96ECBHM","ALKQPW0O9C98N","3ZXV7Q5FJBAKJ3TNMBBLYHIS0EBCFB","","<img src=""img/set1/S3.jpg"" width=""540"" height = ""360"">","null","","","","","","","","","",""
"null","","html-keyboard-response","153","132342","0.0-153.0","33F859I567ZN9EQHU38SF1K96ECBHM","ALKQPW0O9C98N","3ZXV7Q5FJBAKJ3TNMBBLYHIS0EBCFB","","","null","","","","","","","","","",""
"966.5","","image-keyboard-response","154","133309","0.0-154.0","33F859I567ZN9EQHU38SF1K96ECBHM","ALKQPW0O9C98N","3ZXV7Q5FJBAKJ3TNMBBLYHIS0EBCFB","","img/set1/S1.jpg","74","1","random","83","random,structured_normal,structured_load,structured_incentive","4,2,1,2,2,3","3,2,1,4","false","","",""
"null","","html-keyboard-response","155","133661","0.0-155.0","33F859I567ZN9EQHU38SF1K96ECBHM","ALKQPW0O9C98N","3ZXV7Q5FJBAKJ3TNMBBLYHIS0EBCFB","","<img src=""img/set1/S1.jpg"" width=""540"" height = ""360"">","null","","","","","","","","","",""
"null","","html-keyboard-response","156","133862","0.0-156.0","33F859I567ZN9EQHU38SF1K96ECBHM","ALKQPW0O9C98N","3ZXV7Q5FJBAKJ3TNMBBLYHIS0EBCFB","","","null","","","","","","","","","",""
"748.7000000178814","","image-keyboard-response","157","134612","0.0-157.0","33F859I567ZN9EQHU38SF1K96ECBHM","ALKQPW0O9C98N","3ZXV7Q5FJBAKJ3TNMBBLYHIS0EBCFB","","img/set1/S2.jpg","72","2","random","68","random,structured_normal,structured_load,structured_incentive","4,2,1,2,2,3","3,2,1,4","false","","",""
"null","","html-keyboard-response","158","134963","0.0-158.0","33F859I567ZN9EQHU38SF1K96ECBHM","ALKQPW0O9C98N","3ZXV7Q5FJBAKJ3TNMBBLYHIS0EBCFB","","<img src=""img/set1/S2.jpg"" width=""540"" height = ""360"">","null","","","","","","","","","",""
"null","","html-keyboard-response","159","135165","0.0-159.0","33F859I567ZN9EQHU38SF1K96ECBHM","ALKQPW0O9C98N","3ZXV7Q5FJBAKJ3TNMBBLYHIS0EBCFB","","","null","","","","","","","","","",""
"598.5999999940395","","image-keyboard-response","160","135764","0.0-160.0","33F859I567ZN9EQHU38SF1K96ECBHM","ALKQPW0O9C98N","3ZXV7Q5FJBAKJ3TNMBBLYHIS0EBCFB","","img/set1/S2.jpg","68","2","random","68","random,structured_normal,structured_load,structured_incentive","4,2,1,2,2,3","3,2,1,4","true","","",""
"null","","html-keyboard-response","161","136116","0.0-161.0","33F859I567ZN9EQHU38SF1K96ECBHM","ALKQPW0O9C98N","3ZXV7Q5FJBAKJ3TNMBBLYHIS0EBCFB","","<img src=""img/set1/S2.jpg"" width=""540"" height = ""360"" style=""border:16px solid orange"">","null","","","","","","","","","",""
"null","","html-keyboard-response","162","136317","0.0-162.0","33F859I567ZN9EQHU38SF1K96ECBHM","ALKQPW0O9C98N","3ZXV7Q5FJBAKJ3TNMBBLYHIS0EBCFB","","","null","","","","","","","","","",""
"781.8000000119209","","image-keyboard-response","163","137100","0.0-163.0","33F859I567ZN9EQHU38SF1K96ECBHM","ALKQPW0O9C98N","3ZXV7Q5FJBAKJ3TNMBBLYHIS0EBCFB","","img/set1/S1.jpg","72","1","random","83","random,structured_normal,structured_load,structured_incentive","4,2,1,2,2,3","3,2,1,4","false","","",""
"null","","html-keyboard-response","164","137451","0.0-164.0","33F859I567ZN9EQHU38SF1K96ECBHM","ALKQPW0O9C98N","3ZXV7Q5FJBAKJ3TNMBBLYHIS0EBCFB","","<img src=""img/set1/S1.jpg"" width=""540"" height = ""360"">","null","","","","","","","","","",""
"null","","html-keyboard-response","165","137653","0.0-165.0","33F859I567ZN9EQHU38SF1K96ECBHM","ALKQPW0O9C98N","3ZXV7Q5FJBAKJ3TNMBBLYHIS0EBCFB","","","null","","","","","","","","","",""
"1086.199999988079","","image-keyboard-response","166","138740","0.0-166.0","33F859I567ZN9EQHU38SF1K96ECBHM","ALKQPW0O9C98N","3ZXV7Q5FJBAKJ3TNMBBLYHIS0EBCFB","","img/set1/S3.jpg","72","3","random","72","random,structured_normal,structured_load,structured_incentive","4,2,1,2,2,3","3,2,1,4","true","","",""
"null","","html-keyboard-response","167","139091","0.0-167.0","33F859I567ZN9EQHU38SF1K96ECBHM","ALKQPW0O9C98N","3ZXV7Q5FJBAKJ3TNMBBLYHIS0EBCFB","","<img src=""img/set1/S3.jpg"" width=""540"" height = ""360"" style=""border:16px solid orange"">","null","","","","","","","","","",""
"null","","html-keyboard-response","168","139293","0.0-168.0","33F859I567ZN9EQHU38SF1K96ECBHM","ALKQPW0O9C98N","3ZXV7Q5FJBAKJ3TNMBBLYHIS0EBCFB","","","null","","","","","","","","","",""
"582.3999999761581","","image-keyboard-response","169","139876","0.0-169.0","33F859I567ZN9EQHU38SF1K96ECBHM","ALKQPW0O9C98N","3ZXV7Q5FJBAKJ3TNMBBLYHIS0EBCFB","","img/set1/S2.jpg","68","2","random","68","random,structured_normal,structured_load,structured_incentive","4,2,1,2,2,3","3,2,1,4","true","","",""
"null","","html-keyboard-response","170","140228","0.0-170.0","33F859I567ZN9EQHU38SF1K96ECBHM","ALKQPW0O9C98N","3ZXV7Q5FJBAKJ3TNMBBLYHIS0EBCFB","","<img src=""img/set1/S2.jpg"" width=""540"" height = ""360"" style=""border:16px solid orange"">","null","","","","","","","","","",""
"null","","html-keyboard-response","171","140429","0.0-171.0","33F859I567ZN9EQHU38SF1K96ECBHM","ALKQPW0O9C98N","3ZXV7Q5FJBAKJ3TNMBBLYHIS0EBCFB","","","null","","","","","","","","","",""
"621.6999999880791","","image-keyboard-response","172","141052","0.0-172.0","33F859I567ZN9EQHU38SF1K96ECBHM","ALKQPW0O9C98N","3ZXV7Q5FJBAKJ3TNMBBLYHIS0EBCFB","","img/set1/S2.jpg","68","2","random","68","random,structured_normal,structured_load,structured_incentive","4,2,1,2,2,3","3,2,1,4","true","","",""
"null","","html-keyboard-response","173","141403","0.0-173.0","33F859I567ZN9EQHU38SF1K96ECBHM","ALKQPW0O9C98N","3ZXV7Q5FJBAKJ3TNMBBLYHIS0EBCFB","","<img src=""img/set1/S2.jpg"" width=""540"" height = ""360"" style=""border:16px solid orange"">","null","","","","","","","","","",""
"null","","html-keyboard-response","174","141604","0.0-174.0","33F859I567ZN9EQHU38SF1K96ECBHM","ALKQPW0O9C98N","3ZXV7Q5FJBAKJ3TNMBBLYHIS0EBCFB","","","null","","","","","","","","","",""
"639.1000000238419","","image-keyboard-response","175","142244","0.0-175.0","33F859I567ZN9EQHU38SF1K96ECBHM","ALKQPW0O9C98N","3ZXV7Q5FJBAKJ3TNMBBLYHIS0EBCFB","","img/set1/S1.jpg","83","1","random","83","random,structured_normal,structured_load,structured_incentive","4,2,1,2,2,3","3,2,1,4","true","","",""
"null","","html-keyboard-response","176","142596","0.0-176.0","33F859I567ZN9EQHU38SF1K96ECBHM","ALKQPW0O9C98N","3ZXV7Q5FJBAKJ3TNMBBLYHIS0EBCFB","","<img src=""img/set1/S1.jpg"" width=""540"" height = ""360"" style=""border:16px solid orange"">","null","","","","","","","","","",""
"null","","html-keyboard-response","177","142798","0.0-177.0","33F859I567ZN9EQHU38SF1K96ECBHM","ALKQPW0O9C98N","3ZXV7Q5FJBAKJ3TNMBBLYHIS0EBCFB","","","null","","","","","","","","","",""
"893.2999999821186","","image-keyboard-response","178","143692","0.0-178.0","33F859I567ZN9EQHU38SF1K96ECBHM","ALKQPW0O9C98N","3ZXV7Q5FJBAKJ3TNMBBLYHIS0EBCFB","","img/set1/S4.jpg","74","4","random","74","random,structured_normal,structured_load,structured_incentive","4,2,1,2,2,3","3,2,1,4","true","","",""
"null","","html-keyboard-response","179","144043","0.0-179.0","33F859I567ZN9EQHU38SF1K96ECBHM","ALKQPW0O9C98N","3ZXV7Q5FJBAKJ3TNMBBLYHIS0EBCFB","","<img src=""img/set1/S4.jpg"" width=""540"" height = ""360"" style=""border:16px solid orange"">","null","","","","","","","","","",""
"null","","html-keyboard-response","180","144245","0.0-180.0","33F859I567ZN9EQHU38SF1K96ECBHM","ALKQPW0O9C98N","3ZXV7Q5FJBAKJ3TNMBBLYHIS0EBCFB","","","null","","","","","","","","","",""
"790.5","","image-keyboard-response","181","145036","0.0-181.0","33F859I567ZN9EQHU38SF1K96ECBHM","ALKQPW0O9C98N","3ZXV7Q5FJBAKJ3TNMBBLYHIS0EBCFB","","img/set1/S2.jpg","68","2","random","68","random,structured_normal,structured_load,structured_incentive","4,2,1,2,2,3","3,2,1,4","true","","",""
"null","","html-keyboard-response","182","145387","0.0-182.0","33F859I567ZN9EQHU38SF1K96ECBHM","ALKQPW0O9C98N","3ZXV7Q5FJBAKJ3TNMBBLYHIS0EBCFB","","<img src=""img/set1/S2.jpg"" width=""540"" height = ""360"" style=""border:16px solid orange"">","null","","","","","","","","","",""
"null","","html-keyboard-response","183","145588","0.0-183.0","33F859I567ZN9EQHU38SF1K96ECBHM","ALKQPW0O9C98N","3ZXV7Q5FJBAKJ3TNMBBLYHIS0EBCFB","","","null","","","","","","","","","",""
"550.5","","image-keyboard-response","184","146140","0.0-184.0","33F859I567ZN9EQHU38SF1K96ECBHM","ALKQPW0O9C98N","3ZXV7Q5FJBAKJ3TNMBBLYHIS0EBCFB","","img/set1/S2.jpg","68","2","random","68","random,structured_normal,structured_load,structured_incentive","4,2,1,2,2,3","3,2,1,4","true","","",""
"null","","html-keyboard-response","185","146491","0.0-185.0","33F859I567ZN9EQHU38SF1K96ECBHM","ALKQPW0O9C98N","3ZXV7Q5FJBAKJ3TNMBBLYHIS0EBCFB","","<img src=""img/set1/S2.jpg"" width=""540"" height = ""360"" style=""border:16px solid orange"">","null","","","","","","","","","",""
"null","","html-keyboard-response","186","146693","0.0-186.0","33F859I567ZN9EQHU38SF1K96ECBHM","ALKQPW0O9C98N","3ZXV7Q5FJBAKJ3TNMBBLYHIS0EBCFB","","","null","","","","","","","","","",""
"685.5","","image-keyboard-response","187","147380","0.0-187.0","33F859I567ZN9EQHU38SF1K96ECBHM","ALKQPW0O9C98N","3ZXV7Q5FJBAKJ3TNMBBLYHIS0EBCFB","","img/set1/S1.jpg","74","1","random","83","random,structured_normal,structured_load,structured_incentive","4,2,1,2,2,3","3,2,1,4","false","","",""
"null","","html-keyboard-response","188","147732","0.0-188.0","33F859I567ZN9EQHU38SF1K96ECBHM","ALKQPW0O9C98N","3ZXV7Q5FJBAKJ3TNMBBLYHIS0EBCFB","","<img src=""img/set1/S1.jpg"" width=""540"" height = ""360"">","null","","","","","","","","","",""
"null","","html-keyboard-response","189","147934","0.0-189.0","33F859I567ZN9EQHU38SF1K96ECBHM","ALKQPW0O9C98N","3ZXV7Q5FJBAKJ3TNMBBLYHIS0EBCFB","","","null","","","","","","","","","",""
"661.5","","image-keyboard-response","190","148596","0.0-190.0","33F859I567ZN9EQHU38SF1K96ECBHM","ALKQPW0O9C98N","3ZXV7Q5FJBAKJ3TNMBBLYHIS0EBCFB","","img/set1/S3.jpg","72","3","random","72","random,structured_normal,structured_load,structured_incentive","4,2,1,2,2,3","3,2,1,4","true","","",""
"null","","html-keyboard-response","191","148947","0.0-191.0","33F859I567ZN9EQHU38SF1K96ECBHM","ALKQPW0O9C98N","3ZXV7Q5FJBAKJ3TNMBBLYHIS0EBCFB","","<img src=""img/set1/S3.jpg"" width=""540"" height = ""360"" style=""border:16px solid orange"">","null","","","","","","","","","",""
"null","","html-keyboard-response","192","149149","0.0-192.0","33F859I567ZN9EQHU38SF1K96ECBHM","ALKQPW0O9C98N","3ZXV7Q5FJBAKJ3TNMBBLYHIS0EBCFB","","","null","","","","","","","","","",""
"558.2999999821186","","image-keyboard-response","193","149708","0.0-193.0","33F859I567ZN9EQHU38SF1K96ECBHM","ALKQPW0O9C98N","3ZXV7Q5FJBAKJ3TNMBBLYHIS0EBCFB","","img/set1/S3.jpg","72","3","random","72","random,structured_normal,structured_load,structured_incentive","4,2,1,2,2,3","3,2,1,4","true","","",""
"null","","html-keyboard-response","194","150059","0.0-194.0","33F859I567ZN9EQHU38SF1K96ECBHM","ALKQPW0O9C98N","3ZXV7Q5FJBAKJ3TNMBBLYHIS0EBCFB","","<img src=""img/set1/S3.jpg"" width=""540"" height = ""360"" style=""border:16px solid orange"">","null","","","","","","","","","",""
"null","","html-keyboard-response","195","150260","0.0-195.0","33F859I567ZN9EQHU38SF1K96ECBHM","ALKQPW0O9C98N","3ZXV7Q5FJBAKJ3TNMBBLYHIS0EBCFB","","","null","","","","","","","","","",""
"440","","image-keyboard-response","196","150700","0.0-196.0","33F859I567ZN9EQHU38SF1K96ECBHM","ALKQPW0O9C98N","3ZXV7Q5FJBAKJ3TNMBBLYHIS0EBCFB","","img/set1/S3.jpg","72","3","random","72","random,structured_normal,structured_load,structured_incentive","4,2,1,2,2,3","3,2,1,4","true","","",""
"null","","html-keyboard-response","197","151051","0.0-197.0","33F859I567ZN9EQHU38SF1K96ECBHM","ALKQPW0O9C98N","3ZXV7Q5FJBAKJ3TNMBBLYHIS0EBCFB","","<img src=""img/set1/S3.jpg"" width=""540"" height = ""360"" style=""border:16px solid orange"">","null","","","","","","","","","",""
"null","","html-keyboard-response","198","151253","0.0-198.0","33F859I567ZN9EQHU38SF1K96ECBHM","ALKQPW0O9C98N","3ZXV7Q5FJBAKJ3TNMBBLYHIS0EBCFB","","","null","","","","","","","","","",""
"486.5","","image-keyboard-response","199","151740","0.0-199.0","33F859I567ZN9EQHU38SF1K96ECBHM","ALKQPW0O9C98N","3ZXV7Q5FJBAKJ3TNMBBLYHIS0EBCFB","","img/set1/S3.jpg","72","3","random","72","random,structured_normal,structured_load,structured_incentive","4,2,1,2,2,3","3,2,1,4","true","","",""
"null","","html-keyboard-response","200","152093","0.0-200.0","33F859I567ZN9EQHU38SF1K96ECBHM","ALKQPW0O9C98N","3ZXV7Q5FJBAKJ3TNMBBLYHIS0EBCFB","","<img src=""img/set1/S3.jpg"" width=""540"" height = ""360"" style=""border:16px solid orange"">","null","","","","","","","","","",""
"null","","html-keyboard-response","201","152295","0.0-201.0","33F859I567ZN9EQHU38SF1K96ECBHM","ALKQPW0O9C98N","3ZXV7Q5FJBAKJ3TNMBBLYHIS0EBCFB","","","null","","","","","","","","","",""
"636.3000000119209","","image-keyboard-response","202","152932","0.0-202.0","33F859I567ZN9EQHU38SF1K96ECBHM","ALKQPW0O9C98N","3ZXV7Q5FJBAKJ3TNMBBLYHIS0EBCFB","","img/set1/S4.jpg","83","4","random","74","random,structured_normal,structured_load,structured_incentive","4,2,1,2,2,3","3,2,1,4","false","","",""
"null","","html-keyboard-response","203","153285","0.0-203.0","33F859I567ZN9EQHU38SF1K96ECBHM","ALKQPW0O9C98N","3ZXV7Q5FJBAKJ3TNMBBLYHIS0EBCFB","","<img src=""img/set1/S4.jpg"" width=""540"" height = ""360"">","null","","","","","","","","","",""
"null","","html-keyboard-response","204","153486","0.0-204.0","33F859I567ZN9EQHU38SF1K96ECBHM","ALKQPW0O9C98N","3ZXV7Q5FJBAKJ3TNMBBLYHIS0EBCFB","","","null","","","","","","","","","",""
"989.0999999940395","","image-keyboard-response","205","154476","0.0-205.0","33F859I567ZN9EQHU38SF1K96ECBHM","ALKQPW0O9C98N","3ZXV7Q5FJBAKJ3TNMBBLYHIS0EBCFB","","img/set1/S1.jpg","83","1","random","83","random,structured_normal,structured_load,structured_incentive","4,2,1,2,2,3","3,2,1,4","true","","",""
"null","","html-keyboard-response","206","154827","0.0-206.0","33F859I567ZN9EQHU38SF1K96ECBHM","ALKQPW0O9C98N","3ZXV7Q5FJBAKJ3TNMBBLYHIS0EBCFB","","<img src=""img/set1/S1.jpg"" width=""540"" height = ""360"" style=""border:16px solid orange"">","null","","","","","","","","","",""
"null","","html-keyboard-response","207","155028","0.0-207.0","33F859I567ZN9EQHU38SF1K96ECBHM","ALKQPW0O9C98N","3ZXV7Q5FJBAKJ3TNMBBLYHIS0EBCFB","","","null","","","","","","","","","",""
"502.90000000596046","","image-keyboard-response","208","155532","0.0-208.0","33F859I567ZN9EQHU38SF1K96ECBHM","ALKQPW0O9C98N","3ZXV7Q5FJBAKJ3TNMBBLYHIS0EBCFB","","img/set1/S1.jpg","83","1","random","83","random,structured_normal,structured_load,structured_incentive","4,2,1,2,2,3","3,2,1,4","true","","",""
"null","","html-keyboard-response","209","155884","0.0-209.0","33F859I567ZN9EQHU38SF1K96ECBHM","ALKQPW0O9C98N","3ZXV7Q5FJBAKJ3TNMBBLYHIS0EBCFB","","<img src=""img/set1/S1.jpg"" width=""540"" height = ""360"" style=""border:16px solid orange"">","null","","","","","","","","","",""
"null","","html-keyboard-response","210","156086","0.0-210.0","33F859I567ZN9EQHU38SF1K96ECBHM","ALKQPW0O9C98N","3ZXV7Q5FJBAKJ3TNMBBLYHIS0EBCFB","","","null","","","","","","","","","",""
"645","","image-keyboard-response","211","156731","0.0-211.0","33F859I567ZN9EQHU38SF1K96ECBHM","ALKQPW0O9C98N","3ZXV7Q5FJBAKJ3TNMBBLYHIS0EBCFB","","img/set1/S4.jpg","74","4","random","74","random,structured_normal,structured_load,structured_incentive","4,2,1,2,2,3","3,2,1,4","true","","",""
"null","","html-keyboard-response","212","157085","0.0-212.0","33F859I567ZN9EQHU38SF1K96ECBHM","ALKQPW0O9C98N","3ZXV7Q5FJBAKJ3TNMBBLYHIS0EBCFB","","<img src=""img/set1/S4.jpg"" width=""540"" height = ""360"" style=""border:16px solid orange"">","null","","","","","","","","","",""
"null","","html-keyboard-response","213","157286","0.0-213.0","33F859I567ZN9EQHU38SF1K96ECBHM","ALKQPW0O9C98N","3ZXV7Q5FJBAKJ3TNMBBLYHIS0EBCFB","","","null","","","","","","","","","",""
"756.5","","image-keyboard-response","214","158044","0.0-214.0","33F859I567ZN9EQHU38SF1K96ECBHM","ALKQPW0O9C98N","3ZXV7Q5FJBAKJ3TNMBBLYHIS0EBCFB","","img/set1/S2.jpg","68","2","random","68","random,structured_normal,structured_load,structured_incentive","4,2,1,2,2,3","3,2,1,4","true","","",""
"null","","html-keyboard-response","215","158396","0.0-215.0","33F859I567ZN9EQHU38SF1K96ECBHM","ALKQPW0O9C98N","3ZXV7Q5FJBAKJ3TNMBBLYHIS0EBCFB","","<img src=""img/set1/S2.jpg"" width=""540"" height = ""360"" style=""border:16px solid orange"">","null","","","","","","","","","",""
"null","","html-keyboard-response","216","158598","0.0-216.0","33F859I567ZN9EQHU38SF1K96ECBHM","ALKQPW0O9C98N","3ZXV7Q5FJBAKJ3TNMBBLYHIS0EBCFB","","","null","","","","","","","","","",""
"709.5","","image-keyboard-response","217","159308","0.0-217.0","33F859I567ZN9EQHU38SF1K96ECBHM","ALKQPW0O9C98N","3ZXV7Q5FJBAKJ3TNMBBLYHIS0EBCFB","","img/set1/S1.jpg","83","1","random","83","random,structured_normal,structured_load,structured_incentive","4,2,1,2,2,3","3,2,1,4","true","","",""
"null","","html-keyboard-response","218","159660","0.0-218.0","33F859I567ZN9EQHU38SF1K96ECBHM","ALKQPW0O9C98N","3ZXV7Q5FJBAKJ3TNMBBLYHIS0EBCFB","","<img src=""img/set1/S1.jpg"" width=""540"" height = ""360"" style=""border:16px solid orange"">","null","","","","","","","","","",""
"null","","html-keyboard-response","219","159862","0.0-219.0","33F859I567ZN9EQHU38SF1K96ECBHM","ALKQPW0O9C98N","3ZXV7Q5FJBAKJ3TNMBBLYHIS0EBCFB","","","null","","","","","","","","","",""
"620.8000000119209","","image-keyboard-response","220","160484","0.0-220.0","33F859I567ZN9EQHU38SF1K96ECBHM","ALKQPW0O9C98N","3ZXV7Q5FJBAKJ3TNMBBLYHIS0EBCFB","","img/set1/S2.jpg","68","2","random","68","random,structured_normal,structured_load,structured_incentive","4,2,1,2,2,3","3,2,1,4","true","","",""
"null","","html-keyboard-response","221","160836","0.0-221.0","33F859I567ZN9EQHU38SF1K96ECBHM","ALKQPW0O9C98N","3ZXV7Q5FJBAKJ3TNMBBLYHIS0EBCFB","","<img src=""img/set1/S2.jpg"" width=""540"" height = ""360"" style=""border:16px solid orange"">","null","","","","","","","","","",""
"null","","html-keyboard-response","222","161037","0.0-222.0","33F859I567ZN9EQHU38SF1K96ECBHM","ALKQPW0O9C98N","3ZXV7Q5FJBAKJ3TNMBBLYHIS0EBCFB","","","null","","","","","","","","","",""
"646.1999999880791","","image-keyboard-response","223","161684","0.0-223.0","33F859I567ZN9EQHU38SF1K96ECBHM","ALKQPW0O9C98N","3ZXV7Q5FJBAKJ3TNMBBLYHIS0EBCFB","","img/set1/S1.jpg","83","1","random","83","random,structured_normal,structured_load,structured_incentive","4,2,1,2,2,3","3,2,1,4","true","","",""
"null","","html-keyboard-response","224","162035","0.0-224.0","33F859I567ZN9EQHU38SF1K96ECBHM","ALKQPW0O9C98N","3ZXV7Q5FJBAKJ3TNMBBLYHIS0EBCFB","","<img src=""img/set1/S1.jpg"" width=""540"" height = ""360"" style=""border:16px solid orange"">","null","","","","","","","","","",""
"null","","html-keyboard-response","225","162236","0.0-225.0","33F859I567ZN9EQHU38SF1K96ECBHM","ALKQPW0O9C98N","3ZXV7Q5FJBAKJ3TNMBBLYHIS0EBCFB","","","null","","","","","","","","","",""
"607.1999999880791","","image-keyboard-response","226","162844","0.0-226.0","33F859I567ZN9EQHU38SF1K96ECBHM","ALKQPW0O9C98N","3ZXV7Q5FJBAKJ3TNMBBLYHIS0EBCFB","","img/set1/S4.jpg","74","4","random","74","random,structured_normal,structured_load,structured_incentive","4,2,1,2,2,3","3,2,1,4","true","","",""
"null","","html-keyboard-response","227","163196","0.0-227.0","33F859I567ZN9EQHU38SF1K96ECBHM","ALKQPW0O9C98N","3ZXV7Q5FJBAKJ3TNMBBLYHIS0EBCFB","","<img src=""img/set1/S4.jpg"" width=""540"" height = ""360"" style=""border:16px solid orange"">","null","","","","","","","","","",""
"null","","html-keyboard-response","228","163397","0.0-228.0","33F859I567ZN9EQHU38SF1K96ECBHM","ALKQPW0O9C98N","3ZXV7Q5FJBAKJ3TNMBBLYHIS0EBCFB","","","null","","","","","","","","","",""
"422.09999999403954","","image-keyboard-response","229","163820","0.0-229.0","33F859I567ZN9EQHU38SF1K96ECBHM","ALKQPW0O9C98N","3ZXV7Q5FJBAKJ3TNMBBLYHIS0EBCFB","","img/set1/S4.jpg","74","4","random","74","random,structured_normal,structured_load,structured_incentive","4,2,1,2,2,3","3,2,1,4","true","","",""
"null","","html-keyboard-response","230","164171","0.0-230.0","33F859I567ZN9EQHU38SF1K96ECBHM","ALKQPW0O9C98N","3ZXV7Q5FJBAKJ3TNMBBLYHIS0EBCFB","","<img src=""img/set1/S4.jpg"" width=""540"" height = ""360"" style=""border:16px solid orange"">","null","","","","","","","","","",""
"null","","html-keyboard-response","231","164374","0.0-231.0","33F859I567ZN9EQHU38SF1K96ECBHM","ALKQPW0O9C98N","3ZXV7Q5FJBAKJ3TNMBBLYHIS0EBCFB","","","null","","","","","","","","","",""
"469.39999997615814","","image-keyboard-response","232","164844","0.0-232.0","33F859I567ZN9EQHU38SF1K96ECBHM","ALKQPW0O9C98N","3ZXV7Q5FJBAKJ3TNMBBLYHIS0EBCFB","","img/set1/S4.jpg","74","4","random","74","random,structured_normal,structured_load,structured_incentive","4,2,1,2,2,3","3,2,1,4","true","","",""
"null","","html-keyboard-response","233","165196","0.0-233.0","33F859I567ZN9EQHU38SF1K96ECBHM","ALKQPW0O9C98N","3ZXV7Q5FJBAKJ3TNMBBLYHIS0EBCFB","","<img src=""img/set1/S4.jpg"" width=""540"" height = ""360"" style=""border:16px solid orange"">","null","","","","","","","","","",""
"null","","html-keyboard-response","234","165397","0.0-234.0","33F859I567ZN9EQHU38SF1K96ECBHM","ALKQPW0O9C98N","3ZXV7Q5FJBAKJ3TNMBBLYHIS0EBCFB","","","null","","","","","","","","","",""
"845.8000000119209","","image-keyboard-response","235","166244","0.0-235.0","33F859I567ZN9EQHU38SF1K96ECBHM","ALKQPW0O9C98N","3ZXV7Q5FJBAKJ3TNMBBLYHIS0EBCFB","","img/set1/S1.jpg","83","1","random","83","random,structured_normal,structured_load,structured_incentive","4,2,1,2,2,3","3,2,1,4","true","","",""
"null","","html-keyboard-response","236","166596","0.0-236.0","33F859I567ZN9EQHU38SF1K96ECBHM","ALKQPW0O9C98N","3ZXV7Q5FJBAKJ3TNMBBLYHIS0EBCFB","","<img src=""img/set1/S1.jpg"" width=""540"" height = ""360"" style=""border:16px solid orange"">","null","","","","","","","","","",""
"null","","html-keyboard-response","237","166797","0.0-237.0","33F859I567ZN9EQHU38SF1K96ECBHM","ALKQPW0O9C98N","3ZXV7Q5FJBAKJ3TNMBBLYHIS0EBCFB","","","null","","","","","","","","","",""
"437.69999998807907","","image-keyboard-response","238","167236","0.0-238.0","33F859I567ZN9EQHU38SF1K96ECBHM","ALKQPW0O9C98N","3ZXV7Q5FJBAKJ3TNMBBLYHIS0EBCFB","","img/set1/S1.jpg","83","1","random","83","random,structured_normal,structured_load,structured_incentive","4,2,1,2,2,3","3,2,1,4","true","","",""
"null","","html-keyboard-response","239","167587","0.0-239.0","33F859I567ZN9EQHU38SF1K96ECBHM","ALKQPW0O9C98N","3ZXV7Q5FJBAKJ3TNMBBLYHIS0EBCFB","","<img src=""img/set1/S1.jpg"" width=""540"" height = ""360"" style=""border:16px solid orange"">","null","","","","","","","","","",""
"null","","html-keyboard-response","240","167789","0.0-240.0","33F859I567ZN9EQHU38SF1K96ECBHM","ALKQPW0O9C98N","3ZXV7Q5FJBAKJ3TNMBBLYHIS0EBCFB","","","null","","","","","","","","","",""
"669.8000000119209","","image-keyboard-response","241","168460","0.0-241.0","33F859I567ZN9EQHU38SF1K96ECBHM","ALKQPW0O9C98N","3ZXV7Q5FJBAKJ3TNMBBLYHIS0EBCFB","","img/set1/S3.jpg","74","3","random","72","random,structured_normal,structured_load,structured_incentive","4,2,1,2,2,3","3,2,1,4","false","","",""
"null","","html-keyboard-response","242","168811","0.0-242.0","33F859I567ZN9EQHU38SF1K96ECBHM","ALKQPW0O9C98N","3ZXV7Q5FJBAKJ3TNMBBLYHIS0EBCFB","","<img src=""img/set1/S3.jpg"" width=""540"" height = ""360"">","null","","","","","","","","","",""
"null","","html-keyboard-response","243","169013","0.0-243.0","33F859I567ZN9EQHU38SF1K96ECBHM","ALKQPW0O9C98N","3ZXV7Q5FJBAKJ3TNMBBLYHIS0EBCFB","","","null","","","","","","","","","",""
"870.2999999821186","","image-keyboard-response","244","169884","0.0-244.0","33F859I567ZN9EQHU38SF1K96ECBHM","ALKQPW0O9C98N","3ZXV7Q5FJBAKJ3TNMBBLYHIS0EBCFB","","img/set1/S1.jpg","83","1","random","83","random,structured_normal,structured_load,structured_incentive","4,2,1,2,2,3","3,2,1,4","true","","",""
"null","","html-keyboard-response","245","170236","0.0-245.0","33F859I567ZN9EQHU38SF1K96ECBHM","ALKQPW0O9C98N","3ZXV7Q5FJBAKJ3TNMBBLYHIS0EBCFB","","<img src=""img/set1/S1.jpg"" width=""540"" height = ""360"" style=""border:16px solid orange"">","null","","","","","","","","","",""
"null","","html-keyboard-response","246","170442","0.0-246.0","33F859I567ZN9EQHU38SF1K96ECBHM","ALKQPW0O9C98N","3ZXV7Q5FJBAKJ3TNMBBLYHIS0EBCFB","","","null","","","","","","","","","",""
"825","","image-keyboard-response","247","171268","0.0-247.0","33F859I567ZN9EQHU38SF1K96ECBHM","ALKQPW0O9C98N","3ZXV7Q5FJBAKJ3TNMBBLYHIS0EBCFB","","img/set1/S4.jpg","74","4","random","74","random,structured_normal,structured_load,structured_incentive","4,2,1,2,2,3","3,2,1,4","true","","",""
"null","","html-keyboard-response","248","171620","0.0-248.0","33F859I567ZN9EQHU38SF1K96ECBHM","ALKQPW0O9C98N","3ZXV7Q5FJBAKJ3TNMBBLYHIS0EBCFB","","<img src=""img/set1/S4.jpg"" width=""540"" height = ""360"" style=""border:16px solid orange"">","null","","","","","","","","","",""
"null","","html-keyboard-response","249","171821","0.0-249.0","33F859I567ZN9EQHU38SF1K96ECBHM","ALKQPW0O9C98N","3ZXV7Q5FJBAKJ3TNMBBLYHIS0EBCFB","","","null","","","","","","","","","",""
"782.1999999880791","","image-keyboard-response","250","172604","0.0-250.0","33F859I567ZN9EQHU38SF1K96ECBHM","ALKQPW0O9C98N","3ZXV7Q5FJBAKJ3TNMBBLYHIS0EBCFB","","img/set1/S3.jpg","68","3","random","72","random,structured_normal,structured_load,structured_incentive","4,2,1,2,2,3","3,2,1,4","false","","",""
"null","","html-keyboard-response","251","172956","0.0-251.0","33F859I567ZN9EQHU38SF1K96ECBHM","ALKQPW0O9C98N","3ZXV7Q5FJBAKJ3TNMBBLYHIS0EBCFB","","<img src=""img/set1/S3.jpg"" width=""540"" height = ""360"">","null","","","","","","","","","",""
"null","","html-keyboard-response","252","173158","0.0-252.0","33F859I567ZN9EQHU38SF1K96ECBHM","ALKQPW0O9C98N","3ZXV7Q5FJBAKJ3TNMBBLYHIS0EBCFB","","","null","","","","","","","","","",""
"733.2999999821186","","image-keyboard-response","253","173892","0.0-253.0","33F859I567ZN9EQHU38SF1K96ECBHM","ALKQPW0O9C98N","3ZXV7Q5FJBAKJ3TNMBBLYHIS0EBCFB","","img/set1/S4.jpg","74","4","random","74","random,structured_normal,structured_load,structured_incentive","4,2,1,2,2,3","3,2,1,4","true","","",""
"null","","html-keyboard-response","254","174244","0.0-254.0","33F859I567ZN9EQHU38SF1K96ECBHM","ALKQPW0O9C98N","3ZXV7Q5FJBAKJ3TNMBBLYHIS0EBCFB","","<img src=""img/set1/S4.jpg"" width=""540"" height = ""360"" style=""border:16px solid orange"">","null","","","","","","","","","",""
"null","","html-keyboard-response","255","174445","0.0-255.0","33F859I567ZN9EQHU38SF1K96ECBHM","ALKQPW0O9C98N","3ZXV7Q5FJBAKJ3TNMBBLYHIS0EBCFB","","","null","","","","","","","","","",""
"414.19999998807907","","image-keyboard-response","256","174860","0.0-256.0","33F859I567ZN9EQHU38SF1K96ECBHM","ALKQPW0O9C98N","3ZXV7Q5FJBAKJ3TNMBBLYHIS0EBCFB","","img/set1/S4.jpg","74","4","random","74","random,structured_normal,structured_load,structured_incentive","4,2,1,2,2,3","3,2,1,4","true","","",""
"null","","html-keyboard-response","257","175212","0.0-257.0","33F859I567ZN9EQHU38SF1K96ECBHM","ALKQPW0O9C98N","3ZXV7Q5FJBAKJ3TNMBBLYHIS0EBCFB","","<img src=""img/set1/S4.jpg"" width=""540"" height = ""360"" style=""border:16px solid orange"">","null","","","","","","","","","",""
"null","","html-keyboard-response","258","175414","0.0-258.0","33F859I567ZN9EQHU38SF1K96ECBHM","ALKQPW0O9C98N","3ZXV7Q5FJBAKJ3TNMBBLYHIS0EBCFB","","","null","","","","","","","","","",""
"445.09999999403954","","image-keyboard-response","259","175860","0.0-259.0","33F859I567ZN9EQHU38SF1K96ECBHM","ALKQPW0O9C98N","3ZXV7Q5FJBAKJ3TNMBBLYHIS0EBCFB","","img/set1/S4.jpg","74","4","random","74","random,structured_normal,structured_load,structured_incentive","4,2,1,2,2,3","3,2,1,4","true","","",""
"null","","html-keyboard-response","260","176211","0.0-260.0","33F859I567ZN9EQHU38SF1K96ECBHM","ALKQPW0O9C98N","3ZXV7Q5FJBAKJ3TNMBBLYHIS0EBCFB","","<img src=""img/set1/S4.jpg"" width=""540"" height = ""360"" style=""border:16px solid orange"">","null","","","","","","","","","",""
"null","","html-keyboard-response","261","176413","0.0-261.0","33F859I567ZN9EQHU38SF1K96ECBHM","ALKQPW0O9C98N","3ZXV7Q5FJBAKJ3TNMBBLYHIS0EBCFB","","","null","","","","","","","","","",""
"413.90000000596046","","image-keyboard-response","262","176828","0.0-262.0","33F859I567ZN9EQHU38SF1K96ECBHM","ALKQPW0O9C98N","3ZXV7Q5FJBAKJ3TNMBBLYHIS0EBCFB","","img/set1/S4.jpg","74","4","random","74","random,structured_normal,structured_load,structured_incentive","4,2,1,2,2,3","3,2,1,4","true","","",""
"null","","html-keyboard-response","263","177179","0.0-263.0","33F859I567ZN9EQHU38SF1K96ECBHM","ALKQPW0O9C98N","3ZXV7Q5FJBAKJ3TNMBBLYHIS0EBCFB","","<img src=""img/set1/S4.jpg"" width=""540"" height = ""360"" style=""border:16px solid orange"">","null","","","","","","","","","",""
"null","","html-keyboard-response","264","177380","0.0-264.0","33F859I567ZN9EQHU38SF1K96ECBHM","ALKQPW0O9C98N","3ZXV7Q5FJBAKJ3TNMBBLYHIS0EBCFB","","","null","","","","","","","","","",""
"398.7000000178814","","image-keyboard-response","265","177780","0.0-265.0","33F859I567ZN9EQHU38SF1K96ECBHM","ALKQPW0O9C98N","3ZXV7Q5FJBAKJ3TNMBBLYHIS0EBCFB","","img/set1/S4.jpg","74","4","random","74","random,structured_normal,structured_load,structured_incentive","4,2,1,2,2,3","3,2,1,4","true","","",""
"null","","html-keyboard-response","266","178131","0.0-266.0","33F859I567ZN9EQHU38SF1K96ECBHM","ALKQPW0O9C98N","3ZXV7Q5FJBAKJ3TNMBBLYHIS0EBCFB","","<img src=""img/set1/S4.jpg"" width=""540"" height = ""360"" style=""border:16px solid orange"">","null","","","","","","","","","",""
"null","","html-keyboard-response","267","178333","0.0-267.0","33F859I567ZN9EQHU38SF1K96ECBHM","ALKQPW0O9C98N","3ZXV7Q5FJBAKJ3TNMBBLYHIS0EBCFB","","","null","","","","","","","","","",""
"413.80000001192093","","image-keyboard-response","268","178748","0.0-268.0","33F859I567ZN9EQHU38SF1K96ECBHM","ALKQPW0O9C98N","3ZXV7Q5FJBAKJ3TNMBBLYHIS0EBCFB","","img/set1/S4.jpg","74","4","random","74","random,structured_normal,structured_load,structured_incentive","4,2,1,2,2,3","3,2,1,4","true","","",""
"null","","html-keyboard-response","269","179100","0.0-269.0","33F859I567ZN9EQHU38SF1K96ECBHM","ALKQPW0O9C98N","3ZXV7Q5FJBAKJ3TNMBBLYHIS0EBCFB","","<img src=""img/set1/S4.jpg"" width=""540"" height = ""360"" style=""border:16px solid orange"">","null","","","","","","","","","",""
"null","","html-keyboard-response","270","179302","0.0-270.0","33F859I567ZN9EQHU38SF1K96ECBHM","ALKQPW0O9C98N","3ZXV7Q5FJBAKJ3TNMBBLYHIS0EBCFB","","","null","","","","","","","","","",""
"981","","image-keyboard-response","271","180284","0.0-271.0","33F859I567ZN9EQHU38SF1K96ECBHM","ALKQPW0O9C98N","3ZXV7Q5FJBAKJ3TNMBBLYHIS0EBCFB","","img/set1/S2.jpg","68","2","random","68","random,structured_normal,structured_load,structured_incentive","4,2,1,2,2,3","3,2,1,4","true","","",""
"null","","html-keyboard-response","272","180635","0.0-272.0","33F859I567ZN9EQHU38SF1K96ECBHM","ALKQPW0O9C98N","3ZXV7Q5FJBAKJ3TNMBBLYHIS0EBCFB","","<img src=""img/set1/S2.jpg"" width=""540"" height = ""360"" style=""border:16px solid orange"">","null","","","","","","","","","",""
"null","","html-keyboard-response","273","180836","0.0-273.0","33F859I567ZN9EQHU38SF1K96ECBHM","ALKQPW0O9C98N","3ZXV7Q5FJBAKJ3TNMBBLYHIS0EBCFB","","","null","","","","","","","","","",""
"630.4000000059605","","image-keyboard-response","274","181468","0.0-274.0","33F859I567ZN9EQHU38SF1K96ECBHM","ALKQPW0O9C98N","3ZXV7Q5FJBAKJ3TNMBBLYHIS0EBCFB","","img/set1/S1.jpg","72","1","random","83","random,structured_normal,structured_load,structured_incentive","4,2,1,2,2,3","3,2,1,4","false","","",""
"null","","html-keyboard-response","275","181820","0.0-275.0","33F859I567ZN9EQHU38SF1K96ECBHM","ALKQPW0O9C98N","3ZXV7Q5FJBAKJ3TNMBBLYHIS0EBCFB","","<img src=""img/set1/S1.jpg"" width=""540"" height = ""360"">","null","","","","","","","","","",""
"null","","html-keyboard-response","276","182021","0.0-276.0","33F859I567ZN9EQHU38SF1K96ECBHM","ALKQPW0O9C98N","3ZXV7Q5FJBAKJ3TNMBBLYHIS0EBCFB","","","null","","","","","","","","","",""
"989.5999999940395","","image-keyboard-response","277","183012","0.0-277.0","33F859I567ZN9EQHU38SF1K96ECBHM","ALKQPW0O9C98N","3ZXV7Q5FJBAKJ3TNMBBLYHIS0EBCFB","","img/set1/S2.jpg","72","2","random","68","random,structured_normal,structured_load,structured_incentive","4,2,1,2,2,3","3,2,1,4","false","","",""
"null","","html-keyboard-response","278","183363","0.0-278.0","33F859I567ZN9EQHU38SF1K96ECBHM","ALKQPW0O9C98N","3ZXV7Q5FJBAKJ3TNMBBLYHIS0EBCFB","","<img src=""img/set1/S2.jpg"" width=""540"" height = ""360"">","null","","","","","","","","","",""
"null","","html-keyboard-response","279","183564","0.0-279.0","33F859I567ZN9EQHU38SF1K96ECBHM","ALKQPW0O9C98N","3ZXV7Q5FJBAKJ3TNMBBLYHIS0EBCFB","","","null","","","","","","","","","",""
"511.39999997615814","","image-keyboard-response","280","184076","0.0-280.0","33F859I567ZN9EQHU38SF1K96ECBHM","ALKQPW0O9C98N","3ZXV7Q5FJBAKJ3TNMBBLYHIS0EBCFB","","img/set1/S2.jpg","68","2","random","68","random,structured_normal,structured_load,structured_incentive","4,2,1,2,2,3","3,2,1,4","true","","",""
"null","","html-keyboard-response","281","184428","0.0-281.0","33F859I567ZN9EQHU38SF1K96ECBHM","ALKQPW0O9C98N","3ZXV7Q5FJBAKJ3TNMBBLYHIS0EBCFB","","<img src=""img/set1/S2.jpg"" width=""540"" height = ""360"" style=""border:16px solid orange"">","null","","","","","","","","","",""
"null","","html-keyboard-response","282","184630","0.0-282.0","33F859I567ZN9EQHU38SF1K96ECBHM","ALKQPW0O9C98N","3ZXV7Q5FJBAKJ3TNMBBLYHIS0EBCFB","","","null","","","","","","","","","",""
"1277.0999999940395","","image-keyboard-response","283","185908","0.0-283.0","33F859I567ZN9EQHU38SF1K96ECBHM","ALKQPW0O9C98N","3ZXV7Q5FJBAKJ3TNMBBLYHIS0EBCFB","","img/set1/S3.jpg","83","3","random","72","random,structured_normal,structured_load,structured_incentive","4,2,1,2,2,3","3,2,1,4","false","","",""
"null","","html-keyboard-response","284","186260","0.0-284.0","33F859I567ZN9EQHU38SF1K96ECBHM","ALKQPW0O9C98N","3ZXV7Q5FJBAKJ3TNMBBLYHIS0EBCFB","","<img src=""img/set1/S3.jpg"" width=""540"" height = ""360"">","null","","","","","","","","","",""
"null","","html-keyboard-response","285","186461","0.0-285.0","33F859I567ZN9EQHU38SF1K96ECBHM","ALKQPW0O9C98N","3ZXV7Q5FJBAKJ3TNMBBLYHIS0EBCFB","","","null","","","","","","","","","",""
"757.5","","image-keyboard-response","286","187220","0.0-286.0","33F859I567ZN9EQHU38SF1K96ECBHM","ALKQPW0O9C98N","3ZXV7Q5FJBAKJ3TNMBBLYHIS0EBCFB","","img/set1/S2.jpg","68","2","random","68","random,structured_normal,structured_load,structured_incentive","4,2,1,2,2,3","3,2,1,4","true","","",""
"null","","html-keyboard-response","287","187572","0.0-287.0","33F859I567ZN9EQHU38SF1K96ECBHM","ALKQPW0O9C98N","3ZXV7Q5FJBAKJ3TNMBBLYHIS0EBCFB","","<img src=""img/set1/S2.jpg"" width=""540"" height = ""360"" style=""border:16px solid orange"">","null","","","","","","","","","",""
"null","","html-keyboard-response","288","187774","0.0-288.0","33F859I567ZN9EQHU38SF1K96ECBHM","ALKQPW0O9C98N","3ZXV7Q5FJBAKJ3TNMBBLYHIS0EBCFB","","","null","","","","","","","","","",""
"860.8000000119209","","image-keyboard-response","289","188636","0.0-289.0","33F859I567ZN9EQHU38SF1K96ECBHM","ALKQPW0O9C98N","3ZXV7Q5FJBAKJ3TNMBBLYHIS0EBCFB","","img/set1/S1.jpg","83","1","random","83","random,structured_normal,structured_load,structured_incentive","4,2,1,2,2,3","3,2,1,4","true","","",""
"null","","html-keyboard-response","290","188987","0.0-290.0","33F859I567ZN9EQHU38SF1K96ECBHM","ALKQPW0O9C98N","3ZXV7Q5FJBAKJ3TNMBBLYHIS0EBCFB","","<img src=""img/set1/S1.jpg"" width=""540"" height = ""360"" style=""border:16px solid orange"">","null","","","","","","","","","",""
"null","","html-keyboard-response","291","189188","0.0-291.0","33F859I567ZN9EQHU38SF1K96ECBHM","ALKQPW0O9C98N","3ZXV7Q5FJBAKJ3TNMBBLYHIS0EBCFB","","","null","","","","","","","","","",""
"518.4000000059605","","image-keyboard-response","292","189708","0.0-292.0","33F859I567ZN9EQHU38SF1K96ECBHM","ALKQPW0O9C98N","3ZXV7Q5FJBAKJ3TNMBBLYHIS0EBCFB","","img/set1/S1.jpg","83","1","random","83","random,structured_normal,structured_load,structured_incentive","4,2,1,2,2,3","3,2,1,4","true","","",""
"null","","html-keyboard-response","293","190059","0.0-293.0","33F859I567ZN9EQHU38SF1K96ECBHM","ALKQPW0O9C98N","3ZXV7Q5FJBAKJ3TNMBBLYHIS0EBCFB","","<img src=""img/set1/S1.jpg"" width=""540"" height = ""360"" style=""border:16px solid orange"">","null","","","","","","","","","",""
"null","","html-keyboard-response","294","190261","0.0-294.0","33F859I567ZN9EQHU38SF1K96ECBHM","ALKQPW0O9C98N","3ZXV7Q5FJBAKJ3TNMBBLYHIS0EBCFB","","","null","","","","","","","","","",""
"669.7000000178814","","image-keyboard-response","295","190932","0.0-295.0","33F859I567ZN9EQHU38SF1K96ECBHM","ALKQPW0O9C98N","3ZXV7Q5FJBAKJ3TNMBBLYHIS0EBCFB","","img/set1/S4.jpg","74","4","random","74","random,structured_normal,structured_load,structured_incentive","4,2,1,2,2,3","3,2,1,4","true","","",""
"null","","html-keyboard-response","296","191283","0.0-296.0","33F859I567ZN9EQHU38SF1K96ECBHM","ALKQPW0O9C98N","3ZXV7Q5FJBAKJ3TNMBBLYHIS0EBCFB","","<img src=""img/set1/S4.jpg"" width=""540"" height = ""360"" style=""border:16px solid orange"">","null","","","","","","","","","",""
"null","","html-keyboard-response","297","191485","0.0-297.0","33F859I567ZN9EQHU38SF1K96ECBHM","ALKQPW0O9C98N","3ZXV7Q5FJBAKJ3TNMBBLYHIS0EBCFB","","","null","","","","","","","","","",""
"990.0999999940395","","image-keyboard-response","298","192476","0.0-298.0","33F859I567ZN9EQHU38SF1K96ECBHM","ALKQPW0O9C98N","3ZXV7Q5FJBAKJ3TNMBBLYHIS0EBCFB","","img/set1/S2.jpg","72","2","random","68","random,structured_normal,structured_load,structured_incentive","4,2,1,2,2,3","3,2,1,4","false","","",""
"null","","html-keyboard-response","299","192827","0.0-299.0","33F859I567ZN9EQHU38SF1K96ECBHM","ALKQPW0O9C98N","3ZXV7Q5FJBAKJ3TNMBBLYHIS0EBCFB","","<img src=""img/set1/S2.jpg"" width=""540"" height = ""360"">","null","","","","","","","","","",""
"null","","html-keyboard-response","300","193029","0.0-300.0","33F859I567ZN9EQHU38SF1K96ECBHM","ALKQPW0O9C98N","3ZXV7Q5FJBAKJ3TNMBBLYHIS0EBCFB","","","null","","","","","","","","","",""
"1062.4000000059605","","image-keyboard-response","301","194092","0.0-301.0","33F859I567ZN9EQHU38SF1K96ECBHM","ALKQPW0O9C98N","3ZXV7Q5FJBAKJ3TNMBBLYHIS0EBCFB","","img/set1/S1.jpg","83","1","random","83","random,structured_normal,structured_load,structured_incentive","4,2,1,2,2,3","3,2,1,4","true","","",""
"null","","html-keyboard-response","302","194444","0.0-302.0","33F859I567ZN9EQHU38SF1K96ECBHM","ALKQPW0O9C98N","3ZXV7Q5FJBAKJ3TNMBBLYHIS0EBCFB","","<img src=""img/set1/S1.jpg"" width=""540"" height = ""360"" style=""border:16px solid orange"">","null","","","","","","","","","",""
"null","","html-keyboard-response","303","194645","0.0-303.0","33F859I567ZN9EQHU38SF1K96ECBHM","ALKQPW0O9C98N","3ZXV7Q5FJBAKJ3TNMBBLYHIS0EBCFB","","","null","","","","","","","","","",""
"845.8000000119209","","image-keyboard-response","304","195492","0.0-304.0","33F859I567ZN9EQHU38SF1K96ECBHM","ALKQPW0O9C98N","3ZXV7Q5FJBAKJ3TNMBBLYHIS0EBCFB","","img/set1/S2.jpg","68","2","random","68","random,structured_normal,structured_load,structured_incentive","4,2,1,2,2,3","3,2,1,4","true","","",""
"null","","html-keyboard-response","305","195843","0.0-305.0","33F859I567ZN9EQHU38SF1K96ECBHM","ALKQPW0O9C98N","3ZXV7Q5FJBAKJ3TNMBBLYHIS0EBCFB","","<img src=""img/set1/S2.jpg"" width=""540"" height = ""360"" style=""border:16px solid orange"">","null","","","","","","","","","",""
"null","","html-keyboard-response","306","196045","0.0-306.0","33F859I567ZN9EQHU38SF1K96ECBHM","ALKQPW0O9C98N","3ZXV7Q5FJBAKJ3TNMBBLYHIS0EBCFB","","","null","","","","","","","","","",""
"806.0999999940395","","image-keyboard-response","307","196852","0.0-307.0","33F859I567ZN9EQHU38SF1K96ECBHM","ALKQPW0O9C98N","3ZXV7Q5FJBAKJ3TNMBBLYHIS0EBCFB","","img/set1/S1.jpg","83","1","random","83","random,structured_normal,structured_load,structured_incentive","4,2,1,2,2,3","3,2,1,4","true","","",""
"null","","html-keyboard-response","308","197203","0.0-308.0","33F859I567ZN9EQHU38SF1K96ECBHM","ALKQPW0O9C98N","3ZXV7Q5FJBAKJ3TNMBBLYHIS0EBCFB","","<img src=""img/set1/S1.jpg"" width=""540"" height = ""360"" style=""border:16px solid orange"">","null","","","","","","","","","",""
"null","","html-keyboard-response","309","197405","0.0-309.0","33F859I567ZN9EQHU38SF1K96ECBHM","ALKQPW0O9C98N","3ZXV7Q5FJBAKJ3TNMBBLYHIS0EBCFB","","","null","","","","","","","","","",""
"541.9000000059605","","image-keyboard-response","310","197948","0.0-310.0","33F859I567ZN9EQHU38SF1K96ECBHM","ALKQPW0O9C98N","3ZXV7Q5FJBAKJ3TNMBBLYHIS0EBCFB","","img/set1/S1.jpg","83","1","random","83","random,structured_normal,structured_load,structured_incentive","4,2,1,2,2,3","3,2,1,4","true","","",""
"null","","html-keyboard-response","311","198300","0.0-311.0","33F859I567ZN9EQHU38SF1K96ECBHM","ALKQPW0O9C98N","3ZXV7Q5FJBAKJ3TNMBBLYHIS0EBCFB","","<img src=""img/set1/S1.jpg"" width=""540"" height = ""360"" style=""border:16px solid orange"">","null","","","","","","","","","",""
"null","","html-keyboard-response","312","198501","0.0-312.0","33F859I567ZN9EQHU38SF1K96ECBHM","ALKQPW0O9C98N","3ZXV7Q5FJBAKJ3TNMBBLYHIS0EBCFB","","","null","","","","","","","","","",""
"685.5999999940395","","image-keyboard-response","313","199188","0.0-313.0","33F859I567ZN9EQHU38SF1K96ECBHM","ALKQPW0O9C98N","3ZXV7Q5FJBAKJ3TNMBBLYHIS0EBCFB","","img/set1/S3.jpg","74","3","random","72","random,structured_normal,structured_load,structured_incentive","4,2,1,2,2,3","3,2,1,4","false","","",""
"null","","html-keyboard-response","314","199539","0.0-314.0","33F859I567ZN9EQHU38SF1K96ECBHM","ALKQPW0O9C98N","3ZXV7Q5FJBAKJ3TNMBBLYHIS0EBCFB","","<img src=""img/set1/S3.jpg"" width=""540"" height = ""360"">","null","","","","","","","","","",""
"null","","html-keyboard-response","315","199740","0.0-315.0","33F859I567ZN9EQHU38SF1K96ECBHM","ALKQPW0O9C98N","3ZXV7Q5FJBAKJ3TNMBBLYHIS0EBCFB","","","null","","","","","","","","","",""
"591.3000000119209","","image-keyboard-response","316","200332","0.0-316.0","33F859I567ZN9EQHU38SF1K96ECBHM","ALKQPW0O9C98N","3ZXV7Q5FJBAKJ3TNMBBLYHIS0EBCFB","","img/set1/S1.jpg","83","1","random","83","random,structured_normal,structured_load,structured_incentive","4,2,1,2,2,3","3,2,1,4","true","","",""
"null","","html-keyboard-response","317","200683","0.0-317.0","33F859I567ZN9EQHU38SF1K96ECBHM","ALKQPW0O9C98N","3ZXV7Q5FJBAKJ3TNMBBLYHIS0EBCFB","","<img src=""img/set1/S1.jpg"" width=""540"" height = ""360"" style=""border:16px solid orange"">","null","","","","","","","","","",""
"null","","html-keyboard-response","318","200885","0.0-318.0","33F859I567ZN9EQHU38SF1K96ECBHM","ALKQPW0O9C98N","3ZXV7Q5FJBAKJ3TNMBBLYHIS0EBCFB","","","null","","","","","","","","","",""
"878.1000000238419","","image-keyboard-response","319","201764","0.0-319.0","33F859I567ZN9EQHU38SF1K96ECBHM","ALKQPW0O9C98N","3ZXV7Q5FJBAKJ3TNMBBLYHIS0EBCFB","","img/set1/S2.jpg","68","2","random","68","random,structured_normal,structured_load,structured_incentive","4,2,1,2,2,3","3,2,1,4","true","","",""
"null","","html-keyboard-response","320","202115","0.0-320.0","33F859I567ZN9EQHU38SF1K96ECBHM","ALKQPW0O9C98N","3ZXV7Q5FJBAKJ3TNMBBLYHIS0EBCFB","","<img src=""img/set1/S2.jpg"" width=""540"" height = ""360"" style=""border:16px solid orange"">","null","","","","","","","","","",""
"null","","html-keyboard-response","321","202318","0.0-321.0","33F859I567ZN9EQHU38SF1K96ECBHM","ALKQPW0O9C98N","3ZXV7Q5FJBAKJ3TNMBBLYHIS0EBCFB","","","null","","","","","","","","","",""
"789.0999999940395","","image-keyboard-response","322","203108","0.0-322.0","33F859I567ZN9EQHU38SF1K96ECBHM","ALKQPW0O9C98N","3ZXV7Q5FJBAKJ3TNMBBLYHIS0EBCFB","","img/set1/S1.jpg","83","1","random","83","random,structured_normal,structured_load,structured_incentive","4,2,1,2,2,3","3,2,1,4","true","","",""
"null","","html-keyboard-response","323","203459","0.0-323.0","33F859I567ZN9EQHU38SF1K96ECBHM","ALKQPW0O9C98N","3ZXV7Q5FJBAKJ3TNMBBLYHIS0EBCFB","","<img src=""img/set1/S1.jpg"" width=""540"" height = ""360"" style=""border:16px solid orange"">","null","","","","","","","","","",""
"null","","html-keyboard-response","324","203661","0.0-324.0","33F859I567ZN9EQHU38SF1K96ECBHM","ALKQPW0O9C98N","3ZXV7Q5FJBAKJ3TNMBBLYHIS0EBCFB","","","null","","","","","","","","","",""
"590","","image-keyboard-response","325","204252","0.0-325.0","33F859I567ZN9EQHU38SF1K96ECBHM","ALKQPW0O9C98N","3ZXV7Q5FJBAKJ3TNMBBLYHIS0EBCFB","","img/set1/S2.jpg","68","2","random","68","random,structured_normal,structured_load,structured_incentive","4,2,1,2,2,3","3,2,1,4","true","","",""
"null","","html-keyboard-response","326","204603","0.0-326.0","33F859I567ZN9EQHU38SF1K96ECBHM","ALKQPW0O9C98N","3ZXV7Q5FJBAKJ3TNMBBLYHIS0EBCFB","","<img src=""img/set1/S2.jpg"" width=""540"" height = ""360"" style=""border:16px solid orange"">","null","","","","","","","","","",""
"null","","html-keyboard-response","327","204804","0.0-327.0","33F859I567ZN9EQHU38SF1K96ECBHM","ALKQPW0O9C98N","3ZXV7Q5FJBAKJ3TNMBBLYHIS0EBCFB","","","null","","","","","","","","","",""
"886.7000000178814","","image-keyboard-response","328","205692","0.0-328.0","33F859I567ZN9EQHU38SF1K96ECBHM","ALKQPW0O9C98N","3ZXV7Q5FJBAKJ3TNMBBLYHIS0EBCFB","","img/set1/S4.jpg","74","4","random","74","random,structured_normal,structured_load,structured_incentive","4,2,1,2,2,3","3,2,1,4","true","","",""
"null","","html-keyboard-response","329","206042","0.0-329.0","33F859I567ZN9EQHU38SF1K96ECBHM","ALKQPW0O9C98N","3ZXV7Q5FJBAKJ3TNMBBLYHIS0EBCFB","","<img src=""img/set1/S4.jpg"" width=""540"" height = ""360"" style=""border:16px solid orange"">","null","","","","","","","","","",""
"null","","html-keyboard-response","330","206243","0.0-330.0","33F859I567ZN9EQHU38SF1K96ECBHM","ALKQPW0O9C98N","3ZXV7Q5FJBAKJ3TNMBBLYHIS0EBCFB","","","null","","","","","","","","","",""
"687.3000000119209","","image-keyboard-response","331","206932","0.0-331.0","33F859I567ZN9EQHU38SF1K96ECBHM","ALKQPW0O9C98N","3ZXV7Q5FJBAKJ3TNMBBLYHIS0EBCFB","","img/set1/S1.jpg","83","1","random","83","random,structured_normal,structured_load,structured_incentive","4,2,1,2,2,3","3,2,1,4","true","","",""
"null","","html-keyboard-response","332","207283","0.0-332.0","33F859I567ZN9EQHU38SF1K96ECBHM","ALKQPW0O9C98N","3ZXV7Q5FJBAKJ3TNMBBLYHIS0EBCFB","","<img src=""img/set1/S1.jpg"" width=""540"" height = ""360"" style=""border:16px solid orange"">","null","","","","","","","","","",""
"null","","html-keyboard-response","333","207485","0.0-333.0","33F859I567ZN9EQHU38SF1K96ECBHM","ALKQPW0O9C98N","3ZXV7Q5FJBAKJ3TNMBBLYHIS0EBCFB","","","null","","","","","","","","","",""
"453.5","","image-keyboard-response","334","207940","0.0-334.0","33F859I567ZN9EQHU38SF1K96ECBHM","ALKQPW0O9C98N","3ZXV7Q5FJBAKJ3TNMBBLYHIS0EBCFB","","img/set1/S1.jpg","83","1","random","83","random,structured_normal,structured_load,structured_incentive","4,2,1,2,2,3","3,2,1,4","true","","",""
"null","","html-keyboard-response","335","208291","0.0-335.0","33F859I567ZN9EQHU38SF1K96ECBHM","ALKQPW0O9C98N","3ZXV7Q5FJBAKJ3TNMBBLYHIS0EBCFB","","<img src=""img/set1/S1.jpg"" width=""540"" height = ""360"" style=""border:16px solid orange"">","null","","","","","","","","","",""
"null","","html-keyboard-response","336","208492","0.0-336.0","33F859I567ZN9EQHU38SF1K96ECBHM","ALKQPW0O9C98N","3ZXV7Q5FJBAKJ3TNMBBLYHIS0EBCFB","","","null","","","","","","","","","",""
"750.5","","image-keyboard-response","337","209243","0.0-337.0","33F859I567ZN9EQHU38SF1K96ECBHM","ALKQPW0O9C98N","3ZXV7Q5FJBAKJ3TNMBBLYHIS0EBCFB","","img/set1/S4.jpg","74","4","random","74","random,structured_normal,structured_load,structured_incentive","4,2,1,2,2,3","3,2,1,4","true","","",""
"null","","html-keyboard-response","338","209595","0.0-338.0","33F859I567ZN9EQHU38SF1K96ECBHM","ALKQPW0O9C98N","3ZXV7Q5FJBAKJ3TNMBBLYHIS0EBCFB","","<img src=""img/set1/S4.jpg"" width=""540"" height = ""360"" style=""border:16px solid orange"">","null","","","","","","","","","",""
"null","","html-keyboard-response","339","209797","0.0-339.0","33F859I567ZN9EQHU38SF1K96ECBHM","ALKQPW0O9C98N","3ZXV7Q5FJBAKJ3TNMBBLYHIS0EBCFB","","","null","","","","","","","","","",""
"365.40000000596046","","image-keyboard-response","340","210163","0.0-340.0","33F859I567ZN9EQHU38SF1K96ECBHM","ALKQPW0O9C98N","3ZXV7Q5FJBAKJ3TNMBBLYHIS0EBCFB","","img/set1/S4.jpg","74","4","random","74","random,structured_normal,structured_load,structured_incentive","4,2,1,2,2,3","3,2,1,4","true","","",""
"null","","html-keyboard-response","341","210515","0.0-341.0","33F859I567ZN9EQHU38SF1K96ECBHM","ALKQPW0O9C98N","3ZXV7Q5FJBAKJ3TNMBBLYHIS0EBCFB","","<img src=""img/set1/S4.jpg"" width=""540"" height = ""360"" style=""border:16px solid orange"">","null","","","","","","","","","",""
"null","","html-keyboard-response","342","210716","0.0-342.0","33F859I567ZN9EQHU38SF1K96ECBHM","ALKQPW0O9C98N","3ZXV7Q5FJBAKJ3TNMBBLYHIS0EBCFB","","","null","","","","","","","","","",""
"742.5999999940395","","image-keyboard-response","343","211459","0.0-343.0","33F859I567ZN9EQHU38SF1K96ECBHM","ALKQPW0O9C98N","3ZXV7Q5FJBAKJ3TNMBBLYHIS0EBCFB","","img/set1/S3.jpg","72","3","random","72","random,structured_normal,structured_load,structured_incentive","4,2,1,2,2,3","3,2,1,4","true","","",""
"null","","html-keyboard-response","344","211811","0.0-344.0","33F859I567ZN9EQHU38SF1K96ECBHM","ALKQPW0O9C98N","3ZXV7Q5FJBAKJ3TNMBBLYHIS0EBCFB","","<img src=""img/set1/S3.jpg"" width=""540"" height = ""360"" style=""border:16px solid orange"">","null","","","","","","","","","",""
"null","","html-keyboard-response","345","212012","0.0-345.0","33F859I567ZN9EQHU38SF1K96ECBHM","ALKQPW0O9C98N","3ZXV7Q5FJBAKJ3TNMBBLYHIS0EBCFB","","","null","","","","","","","","","",""
"1318.6000000238419","","image-keyboard-response","346","213331","0.0-346.0","33F859I567ZN9EQHU38SF1K96ECBHM","ALKQPW0O9C98N","3ZXV7Q5FJBAKJ3TNMBBLYHIS0EBCFB","","img/set1/S1.jpg","83","1","random","83","random,structured_normal,structured_load,structured_incentive","4,2,1,2,2,3","3,2,1,4","true","","",""
"null","","html-keyboard-response","347","213683","0.0-347.0","33F859I567ZN9EQHU38SF1K96ECBHM","ALKQPW0O9C98N","3ZXV7Q5FJBAKJ3TNMBBLYHIS0EBCFB","","<img src=""img/set1/S1.jpg"" width=""540"" height = ""360"" style=""border:16px solid orange"">","null","","","","","","","","","",""
"null","","html-keyboard-response","348","213884","0.0-348.0","33F859I567ZN9EQHU38SF1K96ECBHM","ALKQPW0O9C98N","3ZXV7Q5FJBAKJ3TNMBBLYHIS0EBCFB","","","null","","","","","","","","","",""
"894.9000000059605","","image-keyboard-response","349","214780","0.0-349.0","33F859I567ZN9EQHU38SF1K96ECBHM","ALKQPW0O9C98N","3ZXV7Q5FJBAKJ3TNMBBLYHIS0EBCFB","","img/set1/S3.jpg","72","3","random","72","random,structured_normal,structured_load,structured_incentive","4,2,1,2,2,3","3,2,1,4","true","","",""
"null","","html-keyboard-response","350","215132","0.0-350.0","33F859I567ZN9EQHU38SF1K96ECBHM","ALKQPW0O9C98N","3ZXV7Q5FJBAKJ3TNMBBLYHIS0EBCFB","","<img src=""img/set1/S3.jpg"" width=""540"" height = ""360"" style=""border:16px solid orange"">","null","","","","","","","","","",""
"null","","html-keyboard-response","351","215334","0.0-351.0","33F859I567ZN9EQHU38SF1K96ECBHM","ALKQPW0O9C98N","3ZXV7Q5FJBAKJ3TNMBBLYHIS0EBCFB","","","null","","","","","","","","","",""
"388.30000001192093","","image-keyboard-response","352","215723","0.0-352.0","33F859I567ZN9EQHU38SF1K96ECBHM","ALKQPW0O9C98N","3ZXV7Q5FJBAKJ3TNMBBLYHIS0EBCFB","","img/set1/S2.jpg","68","2","random","68","random,structured_normal,structured_load,structured_incentive","4,2,1,2,2,3","3,2,1,4","true","","",""
"null","","html-keyboard-response","353","216075","0.0-353.0","33F859I567ZN9EQHU38SF1K96ECBHM","ALKQPW0O9C98N","3ZXV7Q5FJBAKJ3TNMBBLYHIS0EBCFB","","<img src=""img/set1/S2.jpg"" width=""540"" height = ""360"" style=""border:16px solid orange"">","null","","","","","","","","","",""
"null","","html-keyboard-response","354","216276","0.0-354.0","33F859I567ZN9EQHU38SF1K96ECBHM","ALKQPW0O9C98N","3ZXV7Q5FJBAKJ3TNMBBLYHIS0EBCFB","","","null","","","","","","","","","",""
"494.40000000596046","","image-keyboard-response","355","216771","0.0-355.0","33F859I567ZN9EQHU38SF1K96ECBHM","ALKQPW0O9C98N","3ZXV7Q5FJBAKJ3TNMBBLYHIS0EBCFB","","img/set1/S2.jpg","72","2","random","68","random,structured_normal,structured_load,structured_incentive","4,2,1,2,2,3","3,2,1,4","false","","",""
"null","","html-keyboard-response","356","217123","0.0-356.0","33F859I567ZN9EQHU38SF1K96ECBHM","ALKQPW0O9C98N","3ZXV7Q5FJBAKJ3TNMBBLYHIS0EBCFB","","<img src=""img/set1/S2.jpg"" width=""540"" height = ""360"">","null","","","","","","","","","",""
"null","","html-keyboard-response","357","217324","0.0-357.0","33F859I567ZN9EQHU38SF1K96ECBHM","ALKQPW0O9C98N","3ZXV7Q5FJBAKJ3TNMBBLYHIS0EBCFB","","","null","","","","","","","","","",""
"654.0999999940395","","image-keyboard-response","358","217979","0.0-358.0","33F859I567ZN9EQHU38SF1K96ECBHM","ALKQPW0O9C98N","3ZXV7Q5FJBAKJ3TNMBBLYHIS0EBCFB","","img/set1/S4.jpg","74","4","random","74","random,structured_normal,structured_load,structured_incentive","4,2,1,2,2,3","3,2,1,4","true","","",""
"null","","html-keyboard-response","359","218332","0.0-359.0","33F859I567ZN9EQHU38SF1K96ECBHM","ALKQPW0O9C98N","3ZXV7Q5FJBAKJ3TNMBBLYHIS0EBCFB","","<img src=""img/set1/S4.jpg"" width=""540"" height = ""360"" style=""border:16px solid orange"">","null","","","","","","","","","",""
"null","","html-keyboard-response","360","218534","0.0-360.0","33F859I567ZN9EQHU38SF1K96ECBHM","ALKQPW0O9C98N","3ZXV7Q5FJBAKJ3TNMBBLYHIS0EBCFB","","","null","","","","","","","","","",""
"589.2000000178814","","image-keyboard-response","361","219124","0.0-361.0","33F859I567ZN9EQHU38SF1K96ECBHM","ALKQPW0O9C98N","3ZXV7Q5FJBAKJ3TNMBBLYHIS0EBCFB","","img/set1/S1.jpg","83","1","random","83","random,structured_normal,structured_load,structured_incentive","4,2,1,2,2,3","3,2,1,4","true","","",""
"null","","html-keyboard-response","362","219475","0.0-362.0","33F859I567ZN9EQHU38SF1K96ECBHM","ALKQPW0O9C98N","3ZXV7Q5FJBAKJ3TNMBBLYHIS0EBCFB","","<img src=""img/set1/S1.jpg"" width=""540"" height = ""360"" style=""border:16px solid orange"">","null","","","","","","","","","",""
"null","","html-keyboard-response","363","219677","0.0-363.0","33F859I567ZN9EQHU38SF1K96ECBHM","ALKQPW0O9C98N","3ZXV7Q5FJBAKJ3TNMBBLYHIS0EBCFB","","","null","","","","","","","","","",""
"557","","image-keyboard-response","364","220235","0.0-364.0","33F859I567ZN9EQHU38SF1K96ECBHM","ALKQPW0O9C98N","3ZXV7Q5FJBAKJ3TNMBBLYHIS0EBCFB","","img/set1/S1.jpg","83","1","random","83","random,structured_normal,structured_load,structured_incentive","4,2,1,2,2,3","3,2,1,4","true","","",""
"null","","html-keyboard-response","365","220587","0.0-365.0","33F859I567ZN9EQHU38SF1K96ECBHM","ALKQPW0O9C98N","3ZXV7Q5FJBAKJ3TNMBBLYHIS0EBCFB","","<img src=""img/set1/S1.jpg"" width=""540"" height = ""360"" style=""border:16px solid orange"">","null","","","","","","","","","",""
"null","","html-keyboard-response","366","220789","0.0-366.0","33F859I567ZN9EQHU38SF1K96ECBHM","ALKQPW0O9C98N","3ZXV7Q5FJBAKJ3TNMBBLYHIS0EBCFB","","","null","","","","","","","","","",""
"381.59999999403954","","image-keyboard-response","367","221171","0.0-367.0","33F859I567ZN9EQHU38SF1K96ECBHM","ALKQPW0O9C98N","3ZXV7Q5FJBAKJ3TNMBBLYHIS0EBCFB","","img/set1/S1.jpg","83","1","random","83","random,structured_normal,structured_load,structured_incentive","4,2,1,2,2,3","3,2,1,4","true","","",""
"null","","html-keyboard-response","368","221524","0.0-368.0","33F859I567ZN9EQHU38SF1K96ECBHM","ALKQPW0O9C98N","3ZXV7Q5FJBAKJ3TNMBBLYHIS0EBCFB","","<img src=""img/set1/S1.jpg"" width=""540"" height = ""360"" style=""border:16px solid orange"">","null","","","","","","","","","",""
"null","","html-keyboard-response","369","221726","0.0-369.0","33F859I567ZN9EQHU38SF1K96ECBHM","ALKQPW0O9C98N","3ZXV7Q5FJBAKJ3TNMBBLYHIS0EBCFB","","","null","","","","","","","","","",""
"333","","image-keyboard-response","370","222059","0.0-370.0","33F859I567ZN9EQHU38SF1K96ECBHM","ALKQPW0O9C98N","3ZXV7Q5FJBAKJ3TNMBBLYHIS0EBCFB","","img/set1/S2.jpg","83","2","random","68","random,structured_normal,structured_load,structured_incentive","4,2,1,2,2,3","3,2,1,4","false","","",""
"null","","html-keyboard-response","371","222412","0.0-371.0","33F859I567ZN9EQHU38SF1K96ECBHM","ALKQPW0O9C98N","3ZXV7Q5FJBAKJ3TNMBBLYHIS0EBCFB","","<img src=""img/set1/S2.jpg"" width=""540"" height = ""360"">","null","","","","","","","","","",""
"null","","html-keyboard-response","372","222613","0.0-372.0","33F859I567ZN9EQHU38SF1K96ECBHM","ALKQPW0O9C98N","3ZXV7Q5FJBAKJ3TNMBBLYHIS0EBCFB","","","null","","","","","","","","","",""
"845","","image-keyboard-response","373","223459","0.0-373.0","33F859I567ZN9EQHU38SF1K96ECBHM","ALKQPW0O9C98N","3ZXV7Q5FJBAKJ3TNMBBLYHIS0EBCFB","","img/set1/S3.jpg","74","3","random","72","random,structured_normal,structured_load,structured_incentive","4,2,1,2,2,3","3,2,1,4","false","","",""
"null","","html-keyboard-response","374","223810","0.0-374.0","33F859I567ZN9EQHU38SF1K96ECBHM","ALKQPW0O9C98N","3ZXV7Q5FJBAKJ3TNMBBLYHIS0EBCFB","","<img src=""img/set1/S3.jpg"" width=""540"" height = ""360"">","null","","","","","","","","","",""
"null","","html-keyboard-response","375","224012","0.0-375.0","33F859I567ZN9EQHU38SF1K96ECBHM","ALKQPW0O9C98N","3ZXV7Q5FJBAKJ3TNMBBLYHIS0EBCFB","","","null","","","","","","","","","",""
"518.2999999821186","","image-keyboard-response","376","224531","0.0-376.0","33F859I567ZN9EQHU38SF1K96ECBHM","ALKQPW0O9C98N","3ZXV7Q5FJBAKJ3TNMBBLYHIS0EBCFB","","img/set1/S3.jpg","72","3","random","72","random,structured_normal,structured_load,structured_incentive","4,2,1,2,2,3","3,2,1,4","true","","",""
"null","","html-keyboard-response","377","224882","0.0-377.0","33F859I567ZN9EQHU38SF1K96ECBHM","ALKQPW0O9C98N","3ZXV7Q5FJBAKJ3TNMBBLYHIS0EBCFB","","<img src=""img/set1/S3.jpg"" width=""540"" height = ""360"" style=""border:16px solid orange"">","null","","","","","","","","","",""
"null","","html-keyboard-response","378","225084","0.0-378.0","33F859I567ZN9EQHU38SF1K96ECBHM","ALKQPW0O9C98N","3ZXV7Q5FJBAKJ3TNMBBLYHIS0EBCFB","","","null","","","","","","","","","",""
"630.6999999880791","","image-keyboard-response","379","225716","0.0-379.0","33F859I567ZN9EQHU38SF1K96ECBHM","ALKQPW0O9C98N","3ZXV7Q5FJBAKJ3TNMBBLYHIS0EBCFB","","img/set1/S2.jpg","68","2","random","68","random,structured_normal,structured_load,structured_incentive","4,2,1,2,2,3","3,2,1,4","true","","",""
"null","","html-keyboard-response","380","226067","0.0-380.0","33F859I567ZN9EQHU38SF1K96ECBHM","ALKQPW0O9C98N","3ZXV7Q5FJBAKJ3TNMBBLYHIS0EBCFB","","<img src=""img/set1/S2.jpg"" width=""540"" height = ""360"" style=""border:16px solid orange"">","null","","","","","","","","","",""
"null","","html-keyboard-response","381","226268","0.0-381.0","33F859I567ZN9EQHU38SF1K96ECBHM","ALKQPW0O9C98N","3ZXV7Q5FJBAKJ3TNMBBLYHIS0EBCFB","","","null","","","","","","","","","",""
"454.2999999821186","","image-keyboard-response","382","226723","0.0-382.0","33F859I567ZN9EQHU38SF1K96ECBHM","ALKQPW0O9C98N","3ZXV7Q5FJBAKJ3TNMBBLYHIS0EBCFB","","img/set1/S3.jpg","72","3","random","72","random,structured_normal,structured_load,structured_incentive","4,2,1,2,2,3","3,2,1,4","true","","",""
"null","","html-keyboard-response","383","227075","0.0-383.0","33F859I567ZN9EQHU38SF1K96ECBHM","ALKQPW0O9C98N","3ZXV7Q5FJBAKJ3TNMBBLYHIS0EBCFB","","<img src=""img/set1/S3.jpg"" width=""540"" height = ""360"" style=""border:16px solid orange"">","null","","","","","","","","","",""
"null","","html-keyboard-response","384","227276","0.0-384.0","33F859I567ZN9EQHU38SF1K96ECBHM","ALKQPW0O9C98N","3ZXV7Q5FJBAKJ3TNMBBLYHIS0EBCFB","","","null","","","","","","","","","",""
"662.5","","image-keyboard-response","385","227939","0.0-385.0","33F859I567ZN9EQHU38SF1K96ECBHM","ALKQPW0O9C98N","3ZXV7Q5FJBAKJ3TNMBBLYHIS0EBCFB","","img/set1/S1.jpg","83","1","random","83","random,structured_normal,structured_load,structured_incentive","4,2,1,2,2,3","3,2,1,4","true","","",""
"null","","html-keyboard-response","386","228291","0.0-386.0","33F859I567ZN9EQHU38SF1K96ECBHM","ALKQPW0O9C98N","3ZXV7Q5FJBAKJ3TNMBBLYHIS0EBCFB","","<img src=""img/set1/S1.jpg"" width=""540"" height = ""360"" style=""border:16px solid orange"">","null","","","","","","","","","",""
"null","","html-keyboard-response","387","228492","0.0-387.0","33F859I567ZN9EQHU38SF1K96ECBHM","ALKQPW0O9C98N","3ZXV7Q5FJBAKJ3TNMBBLYHIS0EBCFB","","","null","","","","","","","","","",""
"422.2999999821186","","image-keyboard-response","388","228915","0.0-388.0","33F859I567ZN9EQHU38SF1K96ECBHM","ALKQPW0O9C98N","3ZXV7Q5FJBAKJ3TNMBBLYHIS0EBCFB","","img/set1/S1.jpg","83","1","random","83","random,structured_normal,structured_load,structured_incentive","4,2,1,2,2,3","3,2,1,4","true","","",""
"null","","html-keyboard-response","389","229268","0.0-389.0","33F859I567ZN9EQHU38SF1K96ECBHM","ALKQPW0O9C98N","3ZXV7Q5FJBAKJ3TNMBBLYHIS0EBCFB","","<img src=""img/set1/S1.jpg"" width=""540"" height = ""360"" style=""border:16px solid orange"">","null","","","","","","","","","",""
"null","","html-keyboard-response","390","229469","0.0-390.0","33F859I567ZN9EQHU38SF1K96ECBHM","ALKQPW0O9C98N","3ZXV7Q5FJBAKJ3TNMBBLYHIS0EBCFB","","","null","","","","","","","","","",""
"677.1999999880791","","image-keyboard-response","391","230147","0.0-391.0","33F859I567ZN9EQHU38SF1K96ECBHM","ALKQPW0O9C98N","3ZXV7Q5FJBAKJ3TNMBBLYHIS0EBCFB","","img/set1/S3.jpg","72","3","random","72","random,structured_normal,structured_load,structured_incentive","4,2,1,2,2,3","3,2,1,4","true","","",""
"null","","html-keyboard-response","392","230499","0.0-392.0","33F859I567ZN9EQHU38SF1K96ECBHM","ALKQPW0O9C98N","3ZXV7Q5FJBAKJ3TNMBBLYHIS0EBCFB","","<img src=""img/set1/S3.jpg"" width=""540"" height = ""360"" style=""border:16px solid orange"">","null","","","","","","","","","",""
