"rt","url","trial_type","trial_index","time_elapsed","internal_node_id","assignmentID","mturkID","hitID","view_history","stimulus","key_press","state","test_part","correct_response","order_block","order_chunk","order_freq","correct","responses","question_order","bonus"
"37222.200000047684","consent.html","external-html","0","37327","0.0-0.0","37M28K1J0RZEHAGFCPBHW3GI1OVJA4","AM65LGXJBTJ0I","3ZXV7Q5FJBAKJ3TNMBBLYHIS0EBCFB","","","","","","","","","","","","",""
"127181.89999997616","","instructions","1","164510","0.0-1.0","37M28K1J0RZEHAGFCPBHW3GI1OVJA4","AM65LGXJBTJ0I","3ZXV7Q5FJBAKJ3TNMBBLYHIS0EBCFB","[{""page_index"":0,""viewing_time"":7337.299999952316},{""page_index"":1,""viewing_time"":13947.899999976158},{""page_index"":2,""viewing_time"":9409.300000071526},{""page_index"":3,""viewing_time"":9730.799999952316},{""page_index"":4,""viewing_time"":5939.700000047684},{""page_index"":5,""viewing_time"":10526.299999952316},{""page_index"":6,""viewing_time"":70289.89999997616}]","","","","","","","","","","","",""
"11268.700000047684","","instructions","2","175780","0.0-2.0","37M28K1J0RZEHAGFCPBHW3GI1OVJA4","AM65LGXJBTJ0I","3ZXV7Q5FJBAKJ3TNMBBLYHIS0EBCFB","[{""page_index"":0,""viewing_time"":11268.5}]","","","","","","","","","","","",""
"5269.100000023842","","instructions","3","181050","0.0-3.0","37M28K1J0RZEHAGFCPBHW3GI1OVJA4","AM65LGXJBTJ0I","3ZXV7Q5FJBAKJ3TNMBBLYHIS0EBCFB","[{""page_index"":0,""viewing_time"":5268.899999976158}]","","","","","","","","","","","",""
"2032.8999999761581","","image-keyboard-response","4","183085","0.0-4.0","37M28K1J0RZEHAGFCPBHW3GI1OVJA4","AM65LGXJBTJ0I","3ZXV7Q5FJBAKJ3TNMBBLYHIS0EBCFB","","img/set1/S1.jpg","72","1","structured_normal","83","structured_normal,structured_incentive,random,structured_load","1,2,4,2,2,3","1,2,3,4","false","","",""
"null","","html-keyboard-response","5","183438","0.0-5.0","37M28K1J0RZEHAGFCPBHW3GI1OVJA4","AM65LGXJBTJ0I","3ZXV7Q5FJBAKJ3TNMBBLYHIS0EBCFB","","<img src=""img/set1/S1.jpg"" width=""540"" height = ""360"">","null","","","","","","","","","",""
"null","","html-keyboard-response","6","183641","0.0-6.0","37M28K1J0RZEHAGFCPBHW3GI1OVJA4","AM65LGXJBTJ0I","3ZXV7Q5FJBAKJ3TNMBBLYHIS0EBCFB","","","null","","","","","","","","","",""
"810","","image-keyboard-response","7","184453","0.0-7.0","37M28K1J0RZEHAGFCPBHW3GI1OVJA4","AM65LGXJBTJ0I","3ZXV7Q5FJBAKJ3TNMBBLYHIS0EBCFB","","img/set1/S2.jpg","83","2","structured_normal","68","structured_normal,structured_incentive,random,structured_load","1,2,4,2,2,3","1,2,3,4","false","","",""
"null","","html-keyboard-response","8","184804","0.0-8.0","37M28K1J0RZEHAGFCPBHW3GI1OVJA4","AM65LGXJBTJ0I","3ZXV7Q5FJBAKJ3TNMBBLYHIS0EBCFB","","<img src=""img/set1/S2.jpg"" width=""540"" height = ""360"">","null","","","","","","","","","",""
"null","","html-keyboard-response","9","185006","0.0-9.0","37M28K1J0RZEHAGFCPBHW3GI1OVJA4","AM65LGXJBTJ0I","3ZXV7Q5FJBAKJ3TNMBBLYHIS0EBCFB","","","null","","","","","","","","","",""
"537.1000000238419","","image-keyboard-response","10","185544","0.0-10.0","37M28K1J0RZEHAGFCPBHW3GI1OVJA4","AM65LGXJBTJ0I","3ZXV7Q5FJBAKJ3TNMBBLYHIS0EBCFB","","img/set1/S1.jpg","68","1","structured_normal","83","structured_normal,structured_incentive,random,structured_load","1,2,4,2,2,3","1,2,3,4","false","","",""
"null","","html-keyboard-response","11","185896","0.0-11.0","37M28K1J0RZEHAGFCPBHW3GI1OVJA4","AM65LGXJBTJ0I","3ZXV7Q5FJBAKJ3TNMBBLYHIS0EBCFB","","<img src=""img/set1/S1.jpg"" width=""540"" height = ""360"">","null","","","","","","","","","",""
"null","","html-keyboard-response","12","186098","0.0-12.0","37M28K1J0RZEHAGFCPBHW3GI1OVJA4","AM65LGXJBTJ0I","3ZXV7Q5FJBAKJ3TNMBBLYHIS0EBCFB","","","null","","","","","","","","","",""
"645.6000000238419","","image-keyboard-response","13","186744","0.0-13.0","37M28K1J0RZEHAGFCPBHW3GI1OVJA4","AM65LGXJBTJ0I","3ZXV7Q5FJBAKJ3TNMBBLYHIS0EBCFB","","img/set1/S2.jpg","74","2","structured_normal","68","structured_normal,structured_incentive,random,structured_load","1,2,4,2,2,3","1,2,3,4","false","","",""
"null","","html-keyboard-response","14","187097","0.0-14.0","37M28K1J0RZEHAGFCPBHW3GI1OVJA4","AM65LGXJBTJ0I","3ZXV7Q5FJBAKJ3TNMBBLYHIS0EBCFB","","<img src=""img/set1/S2.jpg"" width=""540"" height = ""360"">","null","","","","","","","","","",""
"null","","html-keyboard-response","15","187299","0.0-15.0","37M28K1J0RZEHAGFCPBHW3GI1OVJA4","AM65LGXJBTJ0I","3ZXV7Q5FJBAKJ3TNMBBLYHIS0EBCFB","","","null","","","","","","","","","",""
"1075.1000000238419","","image-keyboard-response","16","188375","0.0-16.0","37M28K1J0RZEHAGFCPBHW3GI1OVJA4","AM65LGXJBTJ0I","3ZXV7Q5FJBAKJ3TNMBBLYHIS0EBCFB","","img/set1/S3.jpg","72","3","structured_normal","72","structured_normal,structured_incentive,random,structured_load","1,2,4,2,2,3","1,2,3,4","true","","",""
"null","","html-keyboard-response","17","188728","0.0-17.0","37M28K1J0RZEHAGFCPBHW3GI1OVJA4","AM65LGXJBTJ0I","3ZXV7Q5FJBAKJ3TNMBBLYHIS0EBCFB","","<img src=""img/set1/S3.jpg"" width=""540"" height = ""360"" style=""border:16px solid orange"">","null","","","","","","","","","",""
"null","","html-keyboard-response","18","188935","0.0-18.0","37M28K1J0RZEHAGFCPBHW3GI1OVJA4","AM65LGXJBTJ0I","3ZXV7Q5FJBAKJ3TNMBBLYHIS0EBCFB","","","null","","","","","","","","","",""
"399.89999997615814","","image-keyboard-response","19","189336","0.0-19.0","37M28K1J0RZEHAGFCPBHW3GI1OVJA4","AM65LGXJBTJ0I","3ZXV7Q5FJBAKJ3TNMBBLYHIS0EBCFB","","img/set1/S3.jpg","83","3","structured_normal","72","structured_normal,structured_incentive,random,structured_load","1,2,4,2,2,3","1,2,3,4","false","","",""
"null","","html-keyboard-response","20","189688","0.0-20.0","37M28K1J0RZEHAGFCPBHW3GI1OVJA4","AM65LGXJBTJ0I","3ZXV7Q5FJBAKJ3TNMBBLYHIS0EBCFB","","<img src=""img/set1/S3.jpg"" width=""540"" height = ""360"">","null","","","","","","","","","",""
"null","","html-keyboard-response","21","189890","0.0-21.0","37M28K1J0RZEHAGFCPBHW3GI1OVJA4","AM65LGXJBTJ0I","3ZXV7Q5FJBAKJ3TNMBBLYHIS0EBCFB","","","null","","","","","","","","","",""
"636.2999999523163","","image-keyboard-response","22","190527","0.0-22.0","37M28K1J0RZEHAGFCPBHW3GI1OVJA4","AM65LGXJBTJ0I","3ZXV7Q5FJBAKJ3TNMBBLYHIS0EBCFB","","img/set1/S4.jpg","68","4","structured_normal","74","structured_normal,structured_incentive,random,structured_load","1,2,4,2,2,3","1,2,3,4","false","","",""
"null","","html-keyboard-response","23","190879","0.0-23.0","37M28K1J0RZEHAGFCPBHW3GI1OVJA4","AM65LGXJBTJ0I","3ZXV7Q5FJBAKJ3TNMBBLYHIS0EBCFB","","<img src=""img/set1/S4.jpg"" width=""540"" height = ""360"">","null","","","","","","","","","",""
"null","","html-keyboard-response","24","191080","0.0-24.0","37M28K1J0RZEHAGFCPBHW3GI1OVJA4","AM65LGXJBTJ0I","3ZXV7Q5FJBAKJ3TNMBBLYHIS0EBCFB","","","null","","","","","","","","","",""
"515.7000000476837","","image-keyboard-response","25","191597","0.0-25.0","37M28K1J0RZEHAGFCPBHW3GI1OVJA4","AM65LGXJBTJ0I","3ZXV7Q5FJBAKJ3TNMBBLYHIS0EBCFB","","img/set1/S4.jpg","72","4","structured_normal","74","structured_normal,structured_incentive,random,structured_load","1,2,4,2,2,3","1,2,3,4","false","","",""
"null","","html-keyboard-response","26","191949","0.0-26.0","37M28K1J0RZEHAGFCPBHW3GI1OVJA4","AM65LGXJBTJ0I","3ZXV7Q5FJBAKJ3TNMBBLYHIS0EBCFB","","<img src=""img/set1/S4.jpg"" width=""540"" height = ""360"">","null","","","","","","","","","",""
"null","","html-keyboard-response","27","192151","0.0-27.0","37M28K1J0RZEHAGFCPBHW3GI1OVJA4","AM65LGXJBTJ0I","3ZXV7Q5FJBAKJ3TNMBBLYHIS0EBCFB","","","null","","","","","","","","","",""
"879.3000000715256","","image-keyboard-response","28","193031","0.0-28.0","37M28K1J0RZEHAGFCPBHW3GI1OVJA4","AM65LGXJBTJ0I","3ZXV7Q5FJBAKJ3TNMBBLYHIS0EBCFB","","img/set1/S3.jpg","72","3","structured_normal","72","structured_normal,structured_incentive,random,structured_load","1,2,4,2,2,3","1,2,3,4","true","","",""
"null","","html-keyboard-response","29","193383","0.0-29.0","37M28K1J0RZEHAGFCPBHW3GI1OVJA4","AM65LGXJBTJ0I","3ZXV7Q5FJBAKJ3TNMBBLYHIS0EBCFB","","<img src=""img/set1/S3.jpg"" width=""540"" height = ""360"" style=""border:16px solid orange"">","null","","","","","","","","","",""
"null","","html-keyboard-response","30","193584","0.0-30.0","37M28K1J0RZEHAGFCPBHW3GI1OVJA4","AM65LGXJBTJ0I","3ZXV7Q5FJBAKJ3TNMBBLYHIS0EBCFB","","","null","","","","","","","","","",""
"2045.3999999761581","","image-keyboard-response","31","195630","0.0-31.0","37M28K1J0RZEHAGFCPBHW3GI1OVJA4","AM65LGXJBTJ0I","3ZXV7Q5FJBAKJ3TNMBBLYHIS0EBCFB","","img/set1/S4.jpg","72","4","structured_normal","74","structured_normal,structured_incentive,random,structured_load","1,2,4,2,2,3","1,2,3,4","false","","",""
"null","","html-keyboard-response","32","195981","0.0-32.0","37M28K1J0RZEHAGFCPBHW3GI1OVJA4","AM65LGXJBTJ0I","3ZXV7Q5FJBAKJ3TNMBBLYHIS0EBCFB","","<img src=""img/set1/S4.jpg"" width=""540"" height = ""360"">","null","","","","","","","","","",""
"null","","html-keyboard-response","33","196183","0.0-33.0","37M28K1J0RZEHAGFCPBHW3GI1OVJA4","AM65LGXJBTJ0I","3ZXV7Q5FJBAKJ3TNMBBLYHIS0EBCFB","","","null","","","","","","","","","",""
"487.7999999523163","","image-keyboard-response","34","196672","0.0-34.0","37M28K1J0RZEHAGFCPBHW3GI1OVJA4","AM65LGXJBTJ0I","3ZXV7Q5FJBAKJ3TNMBBLYHIS0EBCFB","","img/set1/S1.jpg","83","1","structured_normal","83","structured_normal,structured_incentive,random,structured_load","1,2,4,2,2,3","1,2,3,4","true","","",""
"null","","html-keyboard-response","35","197024","0.0-35.0","37M28K1J0RZEHAGFCPBHW3GI1OVJA4","AM65LGXJBTJ0I","3ZXV7Q5FJBAKJ3TNMBBLYHIS0EBCFB","","<img src=""img/set1/S1.jpg"" width=""540"" height = ""360"" style=""border:16px solid orange"">","null","","","","","","","","","",""
"null","","html-keyboard-response","36","197225","0.0-36.0","37M28K1J0RZEHAGFCPBHW3GI1OVJA4","AM65LGXJBTJ0I","3ZXV7Q5FJBAKJ3TNMBBLYHIS0EBCFB","","","null","","","","","","","","","",""
"659.1999999284744","","image-keyboard-response","37","197885","0.0-37.0","37M28K1J0RZEHAGFCPBHW3GI1OVJA4","AM65LGXJBTJ0I","3ZXV7Q5FJBAKJ3TNMBBLYHIS0EBCFB","","img/set1/S4.jpg","83","4","structured_normal","74","structured_normal,structured_incentive,random,structured_load","1,2,4,2,2,3","1,2,3,4","false","","",""
"null","","html-keyboard-response","38","198237","0.0-38.0","37M28K1J0RZEHAGFCPBHW3GI1OVJA4","AM65LGXJBTJ0I","3ZXV7Q5FJBAKJ3TNMBBLYHIS0EBCFB","","<img src=""img/set1/S4.jpg"" width=""540"" height = ""360"">","null","","","","","","","","","",""
"null","","html-keyboard-response","39","198439","0.0-39.0","37M28K1J0RZEHAGFCPBHW3GI1OVJA4","AM65LGXJBTJ0I","3ZXV7Q5FJBAKJ3TNMBBLYHIS0EBCFB","","","null","","","","","","","","","",""
"625","","image-keyboard-response","40","199065","0.0-40.0","37M28K1J0RZEHAGFCPBHW3GI1OVJA4","AM65LGXJBTJ0I","3ZXV7Q5FJBAKJ3TNMBBLYHIS0EBCFB","","img/set1/S4.jpg","72","4","structured_normal","74","structured_normal,structured_incentive,random,structured_load","1,2,4,2,2,3","1,2,3,4","false","","",""
"null","","html-keyboard-response","41","199417","0.0-41.0","37M28K1J0RZEHAGFCPBHW3GI1OVJA4","AM65LGXJBTJ0I","3ZXV7Q5FJBAKJ3TNMBBLYHIS0EBCFB","","<img src=""img/set1/S4.jpg"" width=""540"" height = ""360"">","null","","","","","","","","","",""
"null","","html-keyboard-response","42","199619","0.0-42.0","37M28K1J0RZEHAGFCPBHW3GI1OVJA4","AM65LGXJBTJ0I","3ZXV7Q5FJBAKJ3TNMBBLYHIS0EBCFB","","","null","","","","","","","","","",""
"634","","image-keyboard-response","43","200254","0.0-43.0","37M28K1J0RZEHAGFCPBHW3GI1OVJA4","AM65LGXJBTJ0I","3ZXV7Q5FJBAKJ3TNMBBLYHIS0EBCFB","","img/set1/S3.jpg","83","3","structured_normal","72","structured_normal,structured_incentive,random,structured_load","1,2,4,2,2,3","1,2,3,4","false","","",""
"null","","html-keyboard-response","44","200606","0.0-44.0","37M28K1J0RZEHAGFCPBHW3GI1OVJA4","AM65LGXJBTJ0I","3ZXV7Q5FJBAKJ3TNMBBLYHIS0EBCFB","","<img src=""img/set1/S3.jpg"" width=""540"" height = ""360"">","null","","","","","","","","","",""
"null","","html-keyboard-response","45","200807","0.0-45.0","37M28K1J0RZEHAGFCPBHW3GI1OVJA4","AM65LGXJBTJ0I","3ZXV7Q5FJBAKJ3TNMBBLYHIS0EBCFB","","","null","","","","","","","","","",""
"395","","image-keyboard-response","46","201203","0.0-46.0","37M28K1J0RZEHAGFCPBHW3GI1OVJA4","AM65LGXJBTJ0I","3ZXV7Q5FJBAKJ3TNMBBLYHIS0EBCFB","","img/set1/S1.jpg","68","1","structured_normal","83","structured_normal,structured_incentive,random,structured_load","1,2,4,2,2,3","1,2,3,4","false","","",""
"null","","html-keyboard-response","47","201556","0.0-47.0","37M28K1J0RZEHAGFCPBHW3GI1OVJA4","AM65LGXJBTJ0I","3ZXV7Q5FJBAKJ3TNMBBLYHIS0EBCFB","","<img src=""img/set1/S1.jpg"" width=""540"" height = ""360"">","null","","","","","","","","","",""
"null","","html-keyboard-response","48","201758","0.0-48.0","37M28K1J0RZEHAGFCPBHW3GI1OVJA4","AM65LGXJBTJ0I","3ZXV7Q5FJBAKJ3TNMBBLYHIS0EBCFB","","","null","","","","","","","","","",""
"446.7000000476837","","image-keyboard-response","49","202206","0.0-49.0","37M28K1J0RZEHAGFCPBHW3GI1OVJA4","AM65LGXJBTJ0I","3ZXV7Q5FJBAKJ3TNMBBLYHIS0EBCFB","","img/set1/S2.jpg","74","2","structured_normal","68","structured_normal,structured_incentive,random,structured_load","1,2,4,2,2,3","1,2,3,4","false","","",""
"null","","html-keyboard-response","50","202568","0.0-50.0","37M28K1J0RZEHAGFCPBHW3GI1OVJA4","AM65LGXJBTJ0I","3ZXV7Q5FJBAKJ3TNMBBLYHIS0EBCFB","","<img src=""img/set1/S2.jpg"" width=""540"" height = ""360"">","null","","","","","","","","","",""
"null","","html-keyboard-response","51","202769","0.0-51.0","37M28K1J0RZEHAGFCPBHW3GI1OVJA4","AM65LGXJBTJ0I","3ZXV7Q5FJBAKJ3TNMBBLYHIS0EBCFB","","","null","","","","","","","","","",""
"626.3999999761581","","image-keyboard-response","52","203396","0.0-52.0","37M28K1J0RZEHAGFCPBHW3GI1OVJA4","AM65LGXJBTJ0I","3ZXV7Q5FJBAKJ3TNMBBLYHIS0EBCFB","","img/set1/S1.jpg","72","1","structured_normal","83","structured_normal,structured_incentive,random,structured_load","1,2,4,2,2,3","1,2,3,4","false","","",""
"null","","html-keyboard-response","53","203749","0.0-53.0","37M28K1J0RZEHAGFCPBHW3GI1OVJA4","AM65LGXJBTJ0I","3ZXV7Q5FJBAKJ3TNMBBLYHIS0EBCFB","","<img src=""img/set1/S1.jpg"" width=""540"" height = ""360"">","null","","","","","","","","","",""
"null","","html-keyboard-response","54","203951","0.0-54.0","37M28K1J0RZEHAGFCPBHW3GI1OVJA4","AM65LGXJBTJ0I","3ZXV7Q5FJBAKJ3TNMBBLYHIS0EBCFB","","","null","","","","","","","","","",""
"656.8999999761581","","image-keyboard-response","55","204609","0.0-55.0","37M28K1J0RZEHAGFCPBHW3GI1OVJA4","AM65LGXJBTJ0I","3ZXV7Q5FJBAKJ3TNMBBLYHIS0EBCFB","","img/set1/S2.jpg","72","2","structured_normal","68","structured_normal,structured_incentive,random,structured_load","1,2,4,2,2,3","1,2,3,4","false","","",""
"null","","html-keyboard-response","56","204961","0.0-56.0","37M28K1J0RZEHAGFCPBHW3GI1OVJA4","AM65LGXJBTJ0I","3ZXV7Q5FJBAKJ3TNMBBLYHIS0EBCFB","","<img src=""img/set1/S2.jpg"" width=""540"" height = ""360"">","null","","","","","","","","","",""
"null","","html-keyboard-response","57","205162","0.0-57.0","37M28K1J0RZEHAGFCPBHW3GI1OVJA4","AM65LGXJBTJ0I","3ZXV7Q5FJBAKJ3TNMBBLYHIS0EBCFB","","","null","","","","","","","","","",""
"497.10000002384186","","image-keyboard-response","58","205660","0.0-58.0","37M28K1J0RZEHAGFCPBHW3GI1OVJA4","AM65LGXJBTJ0I","3ZXV7Q5FJBAKJ3TNMBBLYHIS0EBCFB","","img/set1/S4.jpg","74","4","structured_normal","74","structured_normal,structured_incentive,random,structured_load","1,2,4,2,2,3","1,2,3,4","true","","",""
"null","","html-keyboard-response","59","206017","0.0-59.0","37M28K1J0RZEHAGFCPBHW3GI1OVJA4","AM65LGXJBTJ0I","3ZXV7Q5FJBAKJ3TNMBBLYHIS0EBCFB","","<img src=""img/set1/S4.jpg"" width=""540"" height = ""360"" style=""border:16px solid orange"">","null","","","","","","","","","",""
"null","","html-keyboard-response","60","206219","0.0-60.0","37M28K1J0RZEHAGFCPBHW3GI1OVJA4","AM65LGXJBTJ0I","3ZXV7Q5FJBAKJ3TNMBBLYHIS0EBCFB","","","null","","","","","","","","","",""
"619.1000000238419","","image-keyboard-response","61","206839","0.0-61.0","37M28K1J0RZEHAGFCPBHW3GI1OVJA4","AM65LGXJBTJ0I","3ZXV7Q5FJBAKJ3TNMBBLYHIS0EBCFB","","img/set1/S4.jpg","74","4","structured_normal","74","structured_normal,structured_incentive,random,structured_load","1,2,4,2,2,3","1,2,3,4","true","","",""
"null","","html-keyboard-response","62","207191","0.0-62.0","37M28K1J0RZEHAGFCPBHW3GI1OVJA4","AM65LGXJBTJ0I","3ZXV7Q5FJBAKJ3TNMBBLYHIS0EBCFB","","<img src=""img/set1/S4.jpg"" width=""540"" height = ""360"" style=""border:16px solid orange"">","null","","","","","","","","","",""
"null","","html-keyboard-response","63","207393","0.0-63.0","37M28K1J0RZEHAGFCPBHW3GI1OVJA4","AM65LGXJBTJ0I","3ZXV7Q5FJBAKJ3TNMBBLYHIS0EBCFB","","","null","","","","","","","","","",""
"938.3999999761581","","image-keyboard-response","64","208332","0.0-64.0","37M28K1J0RZEHAGFCPBHW3GI1OVJA4","AM65LGXJBTJ0I","3ZXV7Q5FJBAKJ3TNMBBLYHIS0EBCFB","","img/set1/S2.jpg","72","2","structured_normal","68","structured_normal,structured_incentive,random,structured_load","1,2,4,2,2,3","1,2,3,4","false","","",""
"null","","html-keyboard-response","65","208690","0.0-65.0","37M28K1J0RZEHAGFCPBHW3GI1OVJA4","AM65LGXJBTJ0I","3ZXV7Q5FJBAKJ3TNMBBLYHIS0EBCFB","","<img src=""img/set1/S2.jpg"" width=""540"" height = ""360"">","null","","","","","","","","","",""
"null","","html-keyboard-response","66","208892","0.0-66.0","37M28K1J0RZEHAGFCPBHW3GI1OVJA4","AM65LGXJBTJ0I","3ZXV7Q5FJBAKJ3TNMBBLYHIS0EBCFB","","","null","","","","","","","","","",""
"791.6000000238419","","image-keyboard-response","67","209685","0.0-67.0","37M28K1J0RZEHAGFCPBHW3GI1OVJA4","AM65LGXJBTJ0I","3ZXV7Q5FJBAKJ3TNMBBLYHIS0EBCFB","","img/set1/S1.jpg","83","1","structured_normal","83","structured_normal,structured_incentive,random,structured_load","1,2,4,2,2,3","1,2,3,4","true","","",""
"null","","html-keyboard-response","68","210038","0.0-68.0","37M28K1J0RZEHAGFCPBHW3GI1OVJA4","AM65LGXJBTJ0I","3ZXV7Q5FJBAKJ3TNMBBLYHIS0EBCFB","","<img src=""img/set1/S1.jpg"" width=""540"" height = ""360"" style=""border:16px solid orange"">","null","","","","","","","","","",""
"null","","html-keyboard-response","69","210240","0.0-69.0","37M28K1J0RZEHAGFCPBHW3GI1OVJA4","AM65LGXJBTJ0I","3ZXV7Q5FJBAKJ3TNMBBLYHIS0EBCFB","","","null","","","","","","","","","",""
"968.1999999284744","","image-keyboard-response","70","211210","0.0-70.0","37M28K1J0RZEHAGFCPBHW3GI1OVJA4","AM65LGXJBTJ0I","3ZXV7Q5FJBAKJ3TNMBBLYHIS0EBCFB","","img/set1/S2.jpg","72","2","structured_normal","68","structured_normal,structured_incentive,random,structured_load","1,2,4,2,2,3","1,2,3,4","false","","",""
"null","","html-keyboard-response","71","211563","0.0-71.0","37M28K1J0RZEHAGFCPBHW3GI1OVJA4","AM65LGXJBTJ0I","3ZXV7Q5FJBAKJ3TNMBBLYHIS0EBCFB","","<img src=""img/set1/S2.jpg"" width=""540"" height = ""360"">","null","","","","","","","","","",""
"null","","html-keyboard-response","72","211764","0.0-72.0","37M28K1J0RZEHAGFCPBHW3GI1OVJA4","AM65LGXJBTJ0I","3ZXV7Q5FJBAKJ3TNMBBLYHIS0EBCFB","","","null","","","","","","","","","",""
"650.8999999761581","","image-keyboard-response","73","212416","0.0-73.0","37M28K1J0RZEHAGFCPBHW3GI1OVJA4","AM65LGXJBTJ0I","3ZXV7Q5FJBAKJ3TNMBBLYHIS0EBCFB","","img/set1/S4.jpg","72","4","structured_normal","74","structured_normal,structured_incentive,random,structured_load","1,2,4,2,2,3","1,2,3,4","false","","",""
"null","","html-keyboard-response","74","212768","0.0-74.0","37M28K1J0RZEHAGFCPBHW3GI1OVJA4","AM65LGXJBTJ0I","3ZXV7Q5FJBAKJ3TNMBBLYHIS0EBCFB","","<img src=""img/set1/S4.jpg"" width=""540"" height = ""360"">","null","","","","","","","","","",""
"null","","html-keyboard-response","75","212981","0.0-75.0","37M28K1J0RZEHAGFCPBHW3GI1OVJA4","AM65LGXJBTJ0I","3ZXV7Q5FJBAKJ3TNMBBLYHIS0EBCFB","","","null","","","","","","","","","",""
"837.1999999284744","","image-keyboard-response","76","213819","0.0-76.0","37M28K1J0RZEHAGFCPBHW3GI1OVJA4","AM65LGXJBTJ0I","3ZXV7Q5FJBAKJ3TNMBBLYHIS0EBCFB","","img/set1/S3.jpg","72","3","structured_normal","72","structured_normal,structured_incentive,random,structured_load","1,2,4,2,2,3","1,2,3,4","true","","",""
"null","","html-keyboard-response","77","214171","0.0-77.0","37M28K1J0RZEHAGFCPBHW3GI1OVJA4","AM65LGXJBTJ0I","3ZXV7Q5FJBAKJ3TNMBBLYHIS0EBCFB","","<img src=""img/set1/S3.jpg"" width=""540"" height = ""360"" style=""border:16px solid orange"">","null","","","","","","","","","",""
"null","","html-keyboard-response","78","214373","0.0-78.0","37M28K1J0RZEHAGFCPBHW3GI1OVJA4","AM65LGXJBTJ0I","3ZXV7Q5FJBAKJ3TNMBBLYHIS0EBCFB","","","null","","","","","","","","","",""
"642.8000000715256","","image-keyboard-response","79","215017","0.0-79.0","37M28K1J0RZEHAGFCPBHW3GI1OVJA4","AM65LGXJBTJ0I","3ZXV7Q5FJBAKJ3TNMBBLYHIS0EBCFB","","img/set1/S4.jpg","83","4","structured_normal","74","structured_normal,structured_incentive,random,structured_load","1,2,4,2,2,3","1,2,3,4","false","","",""
"null","","html-keyboard-response","80","215369","0.0-80.0","37M28K1J0RZEHAGFCPBHW3GI1OVJA4","AM65LGXJBTJ0I","3ZXV7Q5FJBAKJ3TNMBBLYHIS0EBCFB","","<img src=""img/set1/S4.jpg"" width=""540"" height = ""360"">","null","","","","","","","","","",""
"null","","html-keyboard-response","81","215570","0.0-81.0","37M28K1J0RZEHAGFCPBHW3GI1OVJA4","AM65LGXJBTJ0I","3ZXV7Q5FJBAKJ3TNMBBLYHIS0EBCFB","","","null","","","","","","","","","",""
"673.1999999284744","","image-keyboard-response","82","216244","0.0-82.0","37M28K1J0RZEHAGFCPBHW3GI1OVJA4","AM65LGXJBTJ0I","3ZXV7Q5FJBAKJ3TNMBBLYHIS0EBCFB","","img/set1/S3.jpg","72","3","structured_normal","72","structured_normal,structured_incentive,random,structured_load","1,2,4,2,2,3","1,2,3,4","true","","",""
"null","","html-keyboard-response","83","216596","0.0-83.0","37M28K1J0RZEHAGFCPBHW3GI1OVJA4","AM65LGXJBTJ0I","3ZXV7Q5FJBAKJ3TNMBBLYHIS0EBCFB","","<img src=""img/set1/S3.jpg"" width=""540"" height = ""360"" style=""border:16px solid orange"">","null","","","","","","","","","",""
"null","","html-keyboard-response","84","216798","0.0-84.0","37M28K1J0RZEHAGFCPBHW3GI1OVJA4","AM65LGXJBTJ0I","3ZXV7Q5FJBAKJ3TNMBBLYHIS0EBCFB","","","null","","","","","","","","","",""
"785.1000000238419","","image-keyboard-response","85","217584","0.0-85.0","37M28K1J0RZEHAGFCPBHW3GI1OVJA4","AM65LGXJBTJ0I","3ZXV7Q5FJBAKJ3TNMBBLYHIS0EBCFB","","img/set1/S1.jpg","74","1","structured_normal","83","structured_normal,structured_incentive,random,structured_load","1,2,4,2,2,3","1,2,3,4","false","","",""
"null","","html-keyboard-response","86","217942","0.0-86.0","37M28K1J0RZEHAGFCPBHW3GI1OVJA4","AM65LGXJBTJ0I","3ZXV7Q5FJBAKJ3TNMBBLYHIS0EBCFB","","<img src=""img/set1/S1.jpg"" width=""540"" height = ""360"">","null","","","","","","","","","",""
"null","","html-keyboard-response","87","218144","0.0-87.0","37M28K1J0RZEHAGFCPBHW3GI1OVJA4","AM65LGXJBTJ0I","3ZXV7Q5FJBAKJ3TNMBBLYHIS0EBCFB","","","null","","","","","","","","","",""
"975","","image-keyboard-response","88","219120","0.0-88.0","37M28K1J0RZEHAGFCPBHW3GI1OVJA4","AM65LGXJBTJ0I","3ZXV7Q5FJBAKJ3TNMBBLYHIS0EBCFB","","img/set1/S2.jpg","74","2","structured_normal","68","structured_normal,structured_incentive,random,structured_load","1,2,4,2,2,3","1,2,3,4","false","","",""
"null","","html-keyboard-response","89","219472","0.0-89.0","37M28K1J0RZEHAGFCPBHW3GI1OVJA4","AM65LGXJBTJ0I","3ZXV7Q5FJBAKJ3TNMBBLYHIS0EBCFB","","<img src=""img/set1/S2.jpg"" width=""540"" height = ""360"">","null","","","","","","","","","",""
"null","","html-keyboard-response","90","219674","0.0-90.0","37M28K1J0RZEHAGFCPBHW3GI1OVJA4","AM65LGXJBTJ0I","3ZXV7Q5FJBAKJ3TNMBBLYHIS0EBCFB","","","null","","","","","","","","","",""
"490.1999999284744","","image-keyboard-response","91","220165","0.0-91.0","37M28K1J0RZEHAGFCPBHW3GI1OVJA4","AM65LGXJBTJ0I","3ZXV7Q5FJBAKJ3TNMBBLYHIS0EBCFB","","img/set1/S3.jpg","68","3","structured_normal","72","structured_normal,structured_incentive,random,structured_load","1,2,4,2,2,3","1,2,3,4","false","","",""
"null","","html-keyboard-response","92","220517","0.0-92.0","37M28K1J0RZEHAGFCPBHW3GI1OVJA4","AM65LGXJBTJ0I","3ZXV7Q5FJBAKJ3TNMBBLYHIS0EBCFB","","<img src=""img/set1/S3.jpg"" width=""540"" height = ""360"">","null","","","","","","","","","",""
"null","","html-keyboard-response","93","220719","0.0-93.0","37M28K1J0RZEHAGFCPBHW3GI1OVJA4","AM65LGXJBTJ0I","3ZXV7Q5FJBAKJ3TNMBBLYHIS0EBCFB","","","null","","","","","","","","","",""
"1041.1999999284744","","image-keyboard-response","94","221761","0.0-94.0","37M28K1J0RZEHAGFCPBHW3GI1OVJA4","AM65LGXJBTJ0I","3ZXV7Q5FJBAKJ3TNMBBLYHIS0EBCFB","","img/set1/S4.jpg","72","4","structured_normal","74","structured_normal,structured_incentive,random,structured_load","1,2,4,2,2,3","1,2,3,4","false","","",""
"null","","html-keyboard-response","95","222113","0.0-95.0","37M28K1J0RZEHAGFCPBHW3GI1OVJA4","AM65LGXJBTJ0I","3ZXV7Q5FJBAKJ3TNMBBLYHIS0EBCFB","","<img src=""img/set1/S4.jpg"" width=""540"" height = ""360"">","null","","","","","","","","","",""
"null","","html-keyboard-response","96","222315","0.0-96.0","37M28K1J0RZEHAGFCPBHW3GI1OVJA4","AM65LGXJBTJ0I","3ZXV7Q5FJBAKJ3TNMBBLYHIS0EBCFB","","","null","","","","","","","","","",""
"500.89999997615814","","image-keyboard-response","97","222817","0.0-97.0","37M28K1J0RZEHAGFCPBHW3GI1OVJA4","AM65LGXJBTJ0I","3ZXV7Q5FJBAKJ3TNMBBLYHIS0EBCFB","","img/set1/S4.jpg","74","4","structured_normal","74","structured_normal,structured_incentive,random,structured_load","1,2,4,2,2,3","1,2,3,4","true","","",""
"null","","html-keyboard-response","98","223170","0.0-98.0","37M28K1J0RZEHAGFCPBHW3GI1OVJA4","AM65LGXJBTJ0I","3ZXV7Q5FJBAKJ3TNMBBLYHIS0EBCFB","","<img src=""img/set1/S4.jpg"" width=""540"" height = ""360"" style=""border:16px solid orange"">","null","","","","","","","","","",""
"null","","html-keyboard-response","99","223372","0.0-99.0","37M28K1J0RZEHAGFCPBHW3GI1OVJA4","AM65LGXJBTJ0I","3ZXV7Q5FJBAKJ3TNMBBLYHIS0EBCFB","","","null","","","","","","","","","",""
"808.8999999761581","","image-keyboard-response","100","224182","0.0-100.0","37M28K1J0RZEHAGFCPBHW3GI1OVJA4","AM65LGXJBTJ0I","3ZXV7Q5FJBAKJ3TNMBBLYHIS0EBCFB","","img/set1/S3.jpg","72","3","structured_normal","72","structured_normal,structured_incentive,random,structured_load","1,2,4,2,2,3","1,2,3,4","true","","",""
"null","","html-keyboard-response","101","224535","0.0-101.0","37M28K1J0RZEHAGFCPBHW3GI1OVJA4","AM65LGXJBTJ0I","3ZXV7Q5FJBAKJ3TNMBBLYHIS0EBCFB","","<img src=""img/set1/S3.jpg"" width=""540"" height = ""360"" style=""border:16px solid orange"">","null","","","","","","","","","",""
"null","","html-keyboard-response","102","224737","0.0-102.0","37M28K1J0RZEHAGFCPBHW3GI1OVJA4","AM65LGXJBTJ0I","3ZXV7Q5FJBAKJ3TNMBBLYHIS0EBCFB","","","null","","","","","","","","","",""
"668.2999999523163","","image-keyboard-response","103","225406","0.0-103.0","37M28K1J0RZEHAGFCPBHW3GI1OVJA4","AM65LGXJBTJ0I","3ZXV7Q5FJBAKJ3TNMBBLYHIS0EBCFB","","img/set1/S4.jpg","74","4","structured_normal","74","structured_normal,structured_incentive,random,structured_load","1,2,4,2,2,3","1,2,3,4","true","","",""
"null","","html-keyboard-response","104","225759","0.0-104.0","37M28K1J0RZEHAGFCPBHW3GI1OVJA4","AM65LGXJBTJ0I","3ZXV7Q5FJBAKJ3TNMBBLYHIS0EBCFB","","<img src=""img/set1/S4.jpg"" width=""540"" height = ""360"" style=""border:16px solid orange"">","null","","","","","","","","","",""
"null","","html-keyboard-response","105","225961","0.0-105.0","37M28K1J0RZEHAGFCPBHW3GI1OVJA4","AM65LGXJBTJ0I","3ZXV7Q5FJBAKJ3TNMBBLYHIS0EBCFB","","","null","","","","","","","","","",""
"429.2000000476837","","image-keyboard-response","106","226391","0.0-106.0","37M28K1J0RZEHAGFCPBHW3GI1OVJA4","AM65LGXJBTJ0I","3ZXV7Q5FJBAKJ3TNMBBLYHIS0EBCFB","","img/set1/S3.jpg","72","3","structured_normal","72","structured_normal,structured_incentive,random,structured_load","1,2,4,2,2,3","1,2,3,4","true","","",""
"null","","html-keyboard-response","107","226743","0.0-107.0","37M28K1J0RZEHAGFCPBHW3GI1OVJA4","AM65LGXJBTJ0I","3ZXV7Q5FJBAKJ3TNMBBLYHIS0EBCFB","","<img src=""img/set1/S3.jpg"" width=""540"" height = ""360"" style=""border:16px solid orange"">","null","","","","","","","","","",""
"null","","html-keyboard-response","108","226945","0.0-108.0","37M28K1J0RZEHAGFCPBHW3GI1OVJA4","AM65LGXJBTJ0I","3ZXV7Q5FJBAKJ3TNMBBLYHIS0EBCFB","","","null","","","","","","","","","",""
"874.8000000715256","","image-keyboard-response","109","227821","0.0-109.0","37M28K1J0RZEHAGFCPBHW3GI1OVJA4","AM65LGXJBTJ0I","3ZXV7Q5FJBAKJ3TNMBBLYHIS0EBCFB","","img/set1/S4.jpg","74","4","structured_normal","74","structured_normal,structured_incentive,random,structured_load","1,2,4,2,2,3","1,2,3,4","true","","",""
"null","","html-keyboard-response","110","228173","0.0-110.0","37M28K1J0RZEHAGFCPBHW3GI1OVJA4","AM65LGXJBTJ0I","3ZXV7Q5FJBAKJ3TNMBBLYHIS0EBCFB","","<img src=""img/set1/S4.jpg"" width=""540"" height = ""360"" style=""border:16px solid orange"">","null","","","","","","","","","",""
"null","","html-keyboard-response","111","228374","0.0-111.0","37M28K1J0RZEHAGFCPBHW3GI1OVJA4","AM65LGXJBTJ0I","3ZXV7Q5FJBAKJ3TNMBBLYHIS0EBCFB","","","null","","","","","","","","","",""
"567.8999999761581","","image-keyboard-response","112","228943","0.0-112.0","37M28K1J0RZEHAGFCPBHW3GI1OVJA4","AM65LGXJBTJ0I","3ZXV7Q5FJBAKJ3TNMBBLYHIS0EBCFB","","img/set1/S1.jpg","83","1","structured_normal","83","structured_normal,structured_incentive,random,structured_load","1,2,4,2,2,3","1,2,3,4","true","","",""
"null","","html-keyboard-response","113","229295","0.0-113.0","37M28K1J0RZEHAGFCPBHW3GI1OVJA4","AM65LGXJBTJ0I","3ZXV7Q5FJBAKJ3TNMBBLYHIS0EBCFB","","<img src=""img/set1/S1.jpg"" width=""540"" height = ""360"" style=""border:16px solid orange"">","null","","","","","","","","","",""
"null","","html-keyboard-response","114","229496","0.0-114.0","37M28K1J0RZEHAGFCPBHW3GI1OVJA4","AM65LGXJBTJ0I","3ZXV7Q5FJBAKJ3TNMBBLYHIS0EBCFB","","","null","","","","","","","","","",""
"803","","image-keyboard-response","115","230300","0.0-115.0","37M28K1J0RZEHAGFCPBHW3GI1OVJA4","AM65LGXJBTJ0I","3ZXV7Q5FJBAKJ3TNMBBLYHIS0EBCFB","","img/set1/S4.jpg","72","4","structured_normal","74","structured_normal,structured_incentive,random,structured_load","1,2,4,2,2,3","1,2,3,4","false","","",""
"null","","html-keyboard-response","116","230652","0.0-116.0","37M28K1J0RZEHAGFCPBHW3GI1OVJA4","AM65LGXJBTJ0I","3ZXV7Q5FJBAKJ3TNMBBLYHIS0EBCFB","","<img src=""img/set1/S4.jpg"" width=""540"" height = ""360"">","null","","","","","","","","","",""
"null","","html-keyboard-response","117","230854","0.0-117.0","37M28K1J0RZEHAGFCPBHW3GI1OVJA4","AM65LGXJBTJ0I","3ZXV7Q5FJBAKJ3TNMBBLYHIS0EBCFB","","","null","","","","","","","","","",""
"808.1000000238419","","image-keyboard-response","118","231663","0.0-118.0","37M28K1J0RZEHAGFCPBHW3GI1OVJA4","AM65LGXJBTJ0I","3ZXV7Q5FJBAKJ3TNMBBLYHIS0EBCFB","","img/set1/S1.jpg","68","1","structured_normal","83","structured_normal,structured_incentive,random,structured_load","1,2,4,2,2,3","1,2,3,4","false","","",""
"null","","html-keyboard-response","119","232015","0.0-119.0","37M28K1J0RZEHAGFCPBHW3GI1OVJA4","AM65LGXJBTJ0I","3ZXV7Q5FJBAKJ3TNMBBLYHIS0EBCFB","","<img src=""img/set1/S1.jpg"" width=""540"" height = ""360"">","null","","","","","","","","","",""
"null","","html-keyboard-response","120","232217","0.0-120.0","37M28K1J0RZEHAGFCPBHW3GI1OVJA4","AM65LGXJBTJ0I","3ZXV7Q5FJBAKJ3TNMBBLYHIS0EBCFB","","","null","","","","","","","","","",""
"878.5","","image-keyboard-response","121","233096","0.0-121.0","37M28K1J0RZEHAGFCPBHW3GI1OVJA4","AM65LGXJBTJ0I","3ZXV7Q5FJBAKJ3TNMBBLYHIS0EBCFB","","img/set1/S2.jpg","83","2","structured_normal","68","structured_normal,structured_incentive,random,structured_load","1,2,4,2,2,3","1,2,3,4","false","","",""
"null","","html-keyboard-response","122","233448","0.0-122.0","37M28K1J0RZEHAGFCPBHW3GI1OVJA4","AM65LGXJBTJ0I","3ZXV7Q5FJBAKJ3TNMBBLYHIS0EBCFB","","<img src=""img/set1/S2.jpg"" width=""540"" height = ""360"">","null","","","","","","","","","",""
"null","","html-keyboard-response","123","233649","0.0-123.0","37M28K1J0RZEHAGFCPBHW3GI1OVJA4","AM65LGXJBTJ0I","3ZXV7Q5FJBAKJ3TNMBBLYHIS0EBCFB","","","null","","","","","","","","","",""
"1140","","image-keyboard-response","124","234790","0.0-124.0","37M28K1J0RZEHAGFCPBHW3GI1OVJA4","AM65LGXJBTJ0I","3ZXV7Q5FJBAKJ3TNMBBLYHIS0EBCFB","","img/set1/S1.jpg","68","1","structured_normal","83","structured_normal,structured_incentive,random,structured_load","1,2,4,2,2,3","1,2,3,4","false","","",""
"null","","html-keyboard-response","125","235142","0.0-125.0","37M28K1J0RZEHAGFCPBHW3GI1OVJA4","AM65LGXJBTJ0I","3ZXV7Q5FJBAKJ3TNMBBLYHIS0EBCFB","","<img src=""img/set1/S1.jpg"" width=""540"" height = ""360"">","null","","","","","","","","","",""
"null","","html-keyboard-response","126","235344","0.0-126.0","37M28K1J0RZEHAGFCPBHW3GI1OVJA4","AM65LGXJBTJ0I","3ZXV7Q5FJBAKJ3TNMBBLYHIS0EBCFB","","","null","","","","","","","","","",""
"836.2000000476837","","image-keyboard-response","127","236181","0.0-127.0","37M28K1J0RZEHAGFCPBHW3GI1OVJA4","AM65LGXJBTJ0I","3ZXV7Q5FJBAKJ3TNMBBLYHIS0EBCFB","","img/set1/S2.jpg","68","2","structured_normal","68","structured_normal,structured_incentive,random,structured_load","1,2,4,2,2,3","1,2,3,4","true","","",""
"null","","html-keyboard-response","128","236534","0.0-128.0","37M28K1J0RZEHAGFCPBHW3GI1OVJA4","AM65LGXJBTJ0I","3ZXV7Q5FJBAKJ3TNMBBLYHIS0EBCFB","","<img src=""img/set1/S2.jpg"" width=""540"" height = ""360"" style=""border:16px solid orange"">","null","","","","","","","","","",""
"null","","html-keyboard-response","129","236736","0.0-129.0","37M28K1J0RZEHAGFCPBHW3GI1OVJA4","AM65LGXJBTJ0I","3ZXV7Q5FJBAKJ3TNMBBLYHIS0EBCFB","","","null","","","","","","","","","",""
"554.5","","image-keyboard-response","130","237291","0.0-130.0","37M28K1J0RZEHAGFCPBHW3GI1OVJA4","AM65LGXJBTJ0I","3ZXV7Q5FJBAKJ3TNMBBLYHIS0EBCFB","","img/set1/S1.jpg","83","1","structured_normal","83","structured_normal,structured_incentive,random,structured_load","1,2,4,2,2,3","1,2,3,4","true","","",""
"null","","html-keyboard-response","131","237643","0.0-131.0","37M28K1J0RZEHAGFCPBHW3GI1OVJA4","AM65LGXJBTJ0I","3ZXV7Q5FJBAKJ3TNMBBLYHIS0EBCFB","","<img src=""img/set1/S1.jpg"" width=""540"" height = ""360"" style=""border:16px solid orange"">","null","","","","","","","","","",""
"null","","html-keyboard-response","132","237845","0.0-132.0","37M28K1J0RZEHAGFCPBHW3GI1OVJA4","AM65LGXJBTJ0I","3ZXV7Q5FJBAKJ3TNMBBLYHIS0EBCFB","","","null","","","","","","","","","",""
"671.8000000715256","","image-keyboard-response","133","238518","0.0-133.0","37M28K1J0RZEHAGFCPBHW3GI1OVJA4","AM65LGXJBTJ0I","3ZXV7Q5FJBAKJ3TNMBBLYHIS0EBCFB","","img/set1/S2.jpg","68","2","structured_normal","68","structured_normal,structured_incentive,random,structured_load","1,2,4,2,2,3","1,2,3,4","true","","",""
"null","","html-keyboard-response","134","238870","0.0-134.0","37M28K1J0RZEHAGFCPBHW3GI1OVJA4","AM65LGXJBTJ0I","3ZXV7Q5FJBAKJ3TNMBBLYHIS0EBCFB","","<img src=""img/set1/S2.jpg"" width=""540"" height = ""360"" style=""border:16px solid orange"">","null","","","","","","","","","",""
"null","","html-keyboard-response","135","239072","0.0-135.0","37M28K1J0RZEHAGFCPBHW3GI1OVJA4","AM65LGXJBTJ0I","3ZXV7Q5FJBAKJ3TNMBBLYHIS0EBCFB","","","null","","","","","","","","","",""
"354.3000000715256","","image-keyboard-response","136","239427","0.0-136.0","37M28K1J0RZEHAGFCPBHW3GI1OVJA4","AM65LGXJBTJ0I","3ZXV7Q5FJBAKJ3TNMBBLYHIS0EBCFB","","img/set1/S1.jpg","83","1","structured_normal","83","structured_normal,structured_incentive,random,structured_load","1,2,4,2,2,3","1,2,3,4","true","","",""
"null","","html-keyboard-response","137","239778","0.0-137.0","37M28K1J0RZEHAGFCPBHW3GI1OVJA4","AM65LGXJBTJ0I","3ZXV7Q5FJBAKJ3TNMBBLYHIS0EBCFB","","<img src=""img/set1/S1.jpg"" width=""540"" height = ""360"" style=""border:16px solid orange"">","null","","","","","","","","","",""
"null","","html-keyboard-response","138","239980","0.0-138.0","37M28K1J0RZEHAGFCPBHW3GI1OVJA4","AM65LGXJBTJ0I","3ZXV7Q5FJBAKJ3TNMBBLYHIS0EBCFB","","","null","","","","","","","","","",""
"1235.2000000476837","","image-keyboard-response","139","241216","0.0-139.0","37M28K1J0RZEHAGFCPBHW3GI1OVJA4","AM65LGXJBTJ0I","3ZXV7Q5FJBAKJ3TNMBBLYHIS0EBCFB","","img/set1/S2.jpg","68","2","structured_normal","68","structured_normal,structured_incentive,random,structured_load","1,2,4,2,2,3","1,2,3,4","true","","",""
"null","","html-keyboard-response","140","241568","0.0-140.0","37M28K1J0RZEHAGFCPBHW3GI1OVJA4","AM65LGXJBTJ0I","3ZXV7Q5FJBAKJ3TNMBBLYHIS0EBCFB","","<img src=""img/set1/S2.jpg"" width=""540"" height = ""360"" style=""border:16px solid orange"">","null","","","","","","","","","",""
"null","","html-keyboard-response","141","241769","0.0-141.0","37M28K1J0RZEHAGFCPBHW3GI1OVJA4","AM65LGXJBTJ0I","3ZXV7Q5FJBAKJ3TNMBBLYHIS0EBCFB","","","null","","","","","","","","","",""
"960.8999999761581","","image-keyboard-response","142","242731","0.0-142.0","37M28K1J0RZEHAGFCPBHW3GI1OVJA4","AM65LGXJBTJ0I","3ZXV7Q5FJBAKJ3TNMBBLYHIS0EBCFB","","img/set1/S3.jpg","72","3","structured_normal","72","structured_normal,structured_incentive,random,structured_load","1,2,4,2,2,3","1,2,3,4","true","","",""
"null","","html-keyboard-response","143","243083","0.0-143.0","37M28K1J0RZEHAGFCPBHW3GI1OVJA4","AM65LGXJBTJ0I","3ZXV7Q5FJBAKJ3TNMBBLYHIS0EBCFB","","<img src=""img/set1/S3.jpg"" width=""540"" height = ""360"" style=""border:16px solid orange"">","null","","","","","","","","","",""
"null","","html-keyboard-response","144","243285","0.0-144.0","37M28K1J0RZEHAGFCPBHW3GI1OVJA4","AM65LGXJBTJ0I","3ZXV7Q5FJBAKJ3TNMBBLYHIS0EBCFB","","","null","","","","","","","","","",""
"999.1000000238419","","image-keyboard-response","145","244285","0.0-145.0","37M28K1J0RZEHAGFCPBHW3GI1OVJA4","AM65LGXJBTJ0I","3ZXV7Q5FJBAKJ3TNMBBLYHIS0EBCFB","","img/set1/S4.jpg","72","4","structured_normal","74","structured_normal,structured_incentive,random,structured_load","1,2,4,2,2,3","1,2,3,4","false","","",""
"null","","html-keyboard-response","146","244637","0.0-146.0","37M28K1J0RZEHAGFCPBHW3GI1OVJA4","AM65LGXJBTJ0I","3ZXV7Q5FJBAKJ3TNMBBLYHIS0EBCFB","","<img src=""img/set1/S4.jpg"" width=""540"" height = ""360"">","null","","","","","","","","","",""
"null","","html-keyboard-response","147","244838","0.0-147.0","37M28K1J0RZEHAGFCPBHW3GI1OVJA4","AM65LGXJBTJ0I","3ZXV7Q5FJBAKJ3TNMBBLYHIS0EBCFB","","","null","","","","","","","","","",""
"511.89999997615814","","image-keyboard-response","148","245351","0.0-148.0","37M28K1J0RZEHAGFCPBHW3GI1OVJA4","AM65LGXJBTJ0I","3ZXV7Q5FJBAKJ3TNMBBLYHIS0EBCFB","","img/set1/S1.jpg","74","1","structured_normal","83","structured_normal,structured_incentive,random,structured_load","1,2,4,2,2,3","1,2,3,4","false","","",""
"null","","html-keyboard-response","149","245703","0.0-149.0","37M28K1J0RZEHAGFCPBHW3GI1OVJA4","AM65LGXJBTJ0I","3ZXV7Q5FJBAKJ3TNMBBLYHIS0EBCFB","","<img src=""img/set1/S1.jpg"" width=""540"" height = ""360"">","null","","","","","","","","","",""
"null","","html-keyboard-response","150","245905","0.0-150.0","37M28K1J0RZEHAGFCPBHW3GI1OVJA4","AM65LGXJBTJ0I","3ZXV7Q5FJBAKJ3TNMBBLYHIS0EBCFB","","","null","","","","","","","","","",""
"344.39999997615814","","image-keyboard-response","151","246250","0.0-151.0","37M28K1J0RZEHAGFCPBHW3GI1OVJA4","AM65LGXJBTJ0I","3ZXV7Q5FJBAKJ3TNMBBLYHIS0EBCFB","","img/set1/S2.jpg","83","2","structured_normal","68","structured_normal,structured_incentive,random,structured_load","1,2,4,2,2,3","1,2,3,4","false","","",""
"null","","html-keyboard-response","152","246603","0.0-152.0","37M28K1J0RZEHAGFCPBHW3GI1OVJA4","AM65LGXJBTJ0I","3ZXV7Q5FJBAKJ3TNMBBLYHIS0EBCFB","","<img src=""img/set1/S2.jpg"" width=""540"" height = ""360"">","null","","","","","","","","","",""
"null","","html-keyboard-response","153","246804","0.0-153.0","37M28K1J0RZEHAGFCPBHW3GI1OVJA4","AM65LGXJBTJ0I","3ZXV7Q5FJBAKJ3TNMBBLYHIS0EBCFB","","","null","","","","","","","","","",""
"164","","image-keyboard-response","154","246969","0.0-154.0","37M28K1J0RZEHAGFCPBHW3GI1OVJA4","AM65LGXJBTJ0I","3ZXV7Q5FJBAKJ3TNMBBLYHIS0EBCFB","","img/set1/S2.jpg","68","2","structured_normal","68","structured_normal,structured_incentive,random,structured_load","1,2,4,2,2,3","1,2,3,4","true","","",""
"null","","html-keyboard-response","155","247321","0.0-155.0","37M28K1J0RZEHAGFCPBHW3GI1OVJA4","AM65LGXJBTJ0I","3ZXV7Q5FJBAKJ3TNMBBLYHIS0EBCFB","","<img src=""img/set1/S2.jpg"" width=""540"" height = ""360"" style=""border:16px solid orange"">","null","","","","","","","","","",""
"null","","html-keyboard-response","156","247523","0.0-156.0","37M28K1J0RZEHAGFCPBHW3GI1OVJA4","AM65LGXJBTJ0I","3ZXV7Q5FJBAKJ3TNMBBLYHIS0EBCFB","","","null","","","","","","","","","",""
"671.8000000715256","","image-keyboard-response","157","248196","0.0-157.0","37M28K1J0RZEHAGFCPBHW3GI1OVJA4","AM65LGXJBTJ0I","3ZXV7Q5FJBAKJ3TNMBBLYHIS0EBCFB","","img/set1/S4.jpg","72","4","structured_normal","74","structured_normal,structured_incentive,random,structured_load","1,2,4,2,2,3","1,2,3,4","false","","",""
"null","","html-keyboard-response","158","248548","0.0-158.0","37M28K1J0RZEHAGFCPBHW3GI1OVJA4","AM65LGXJBTJ0I","3ZXV7Q5FJBAKJ3TNMBBLYHIS0EBCFB","","<img src=""img/set1/S4.jpg"" width=""540"" height = ""360"">","null","","","","","","","","","",""
"null","","html-keyboard-response","159","248750","0.0-159.0","37M28K1J0RZEHAGFCPBHW3GI1OVJA4","AM65LGXJBTJ0I","3ZXV7Q5FJBAKJ3TNMBBLYHIS0EBCFB","","","null","","","","","","","","","",""
"1729.5","","image-keyboard-response","160","250481","0.0-160.0","37M28K1J0RZEHAGFCPBHW3GI1OVJA4","AM65LGXJBTJ0I","3ZXV7Q5FJBAKJ3TNMBBLYHIS0EBCFB","","img/set1/S1.jpg","83","1","structured_normal","83","structured_normal,structured_incentive,random,structured_load","1,2,4,2,2,3","1,2,3,4","true","","",""
"null","","html-keyboard-response","161","250833","0.0-161.0","37M28K1J0RZEHAGFCPBHW3GI1OVJA4","AM65LGXJBTJ0I","3ZXV7Q5FJBAKJ3TNMBBLYHIS0EBCFB","","<img src=""img/set1/S1.jpg"" width=""540"" height = ""360"" style=""border:16px solid orange"">","null","","","","","","","","","",""
"null","","html-keyboard-response","162","251034","0.0-162.0","37M28K1J0RZEHAGFCPBHW3GI1OVJA4","AM65LGXJBTJ0I","3ZXV7Q5FJBAKJ3TNMBBLYHIS0EBCFB","","","null","","","","","","","","","",""
"1152.0999999046326","","image-keyboard-response","163","252187","0.0-163.0","37M28K1J0RZEHAGFCPBHW3GI1OVJA4","AM65LGXJBTJ0I","3ZXV7Q5FJBAKJ3TNMBBLYHIS0EBCFB","","img/set1/S4.jpg","74","4","structured_normal","74","structured_normal,structured_incentive,random,structured_load","1,2,4,2,2,3","1,2,3,4","true","","",""
"null","","html-keyboard-response","164","252539","0.0-164.0","37M28K1J0RZEHAGFCPBHW3GI1OVJA4","AM65LGXJBTJ0I","3ZXV7Q5FJBAKJ3TNMBBLYHIS0EBCFB","","<img src=""img/set1/S4.jpg"" width=""540"" height = ""360"" style=""border:16px solid orange"">","null","","","","","","","","","",""
"null","","html-keyboard-response","165","252741","0.0-165.0","37M28K1J0RZEHAGFCPBHW3GI1OVJA4","AM65LGXJBTJ0I","3ZXV7Q5FJBAKJ3TNMBBLYHIS0EBCFB","","","null","","","","","","","","","",""
"740.8999999761581","","image-keyboard-response","166","253483","0.0-166.0","37M28K1J0RZEHAGFCPBHW3GI1OVJA4","AM65LGXJBTJ0I","3ZXV7Q5FJBAKJ3TNMBBLYHIS0EBCFB","","img/set1/S1.jpg","74","1","structured_normal","83","structured_normal,structured_incentive,random,structured_load","1,2,4,2,2,3","1,2,3,4","false","","",""
"null","","html-keyboard-response","167","253835","0.0-167.0","37M28K1J0RZEHAGFCPBHW3GI1OVJA4","AM65LGXJBTJ0I","3ZXV7Q5FJBAKJ3TNMBBLYHIS0EBCFB","","<img src=""img/set1/S1.jpg"" width=""540"" height = ""360"">","null","","","","","","","","","",""
"null","","html-keyboard-response","168","254037","0.0-168.0","37M28K1J0RZEHAGFCPBHW3GI1OVJA4","AM65LGXJBTJ0I","3ZXV7Q5FJBAKJ3TNMBBLYHIS0EBCFB","","","null","","","","","","","","","",""
"622.1999999284744","","image-keyboard-response","169","254660","0.0-169.0","37M28K1J0RZEHAGFCPBHW3GI1OVJA4","AM65LGXJBTJ0I","3ZXV7Q5FJBAKJ3TNMBBLYHIS0EBCFB","","img/set1/S2.jpg","83","2","structured_normal","68","structured_normal,structured_incentive,random,structured_load","1,2,4,2,2,3","1,2,3,4","false","","",""
"null","","html-keyboard-response","170","255012","0.0-170.0","37M28K1J0RZEHAGFCPBHW3GI1OVJA4","AM65LGXJBTJ0I","3ZXV7Q5FJBAKJ3TNMBBLYHIS0EBCFB","","<img src=""img/set1/S2.jpg"" width=""540"" height = ""360"">","null","","","","","","","","","",""
"null","","html-keyboard-response","171","255213","0.0-171.0","37M28K1J0RZEHAGFCPBHW3GI1OVJA4","AM65LGXJBTJ0I","3ZXV7Q5FJBAKJ3TNMBBLYHIS0EBCFB","","","null","","","","","","","","","",""
"873.8999999761581","","image-keyboard-response","172","256088","0.0-172.0","37M28K1J0RZEHAGFCPBHW3GI1OVJA4","AM65LGXJBTJ0I","3ZXV7Q5FJBAKJ3TNMBBLYHIS0EBCFB","","img/set1/S3.jpg","72","3","structured_normal","72","structured_normal,structured_incentive,random,structured_load","1,2,4,2,2,3","1,2,3,4","true","","",""
"null","","html-keyboard-response","173","256441","0.0-173.0","37M28K1J0RZEHAGFCPBHW3GI1OVJA4","AM65LGXJBTJ0I","3ZXV7Q5FJBAKJ3TNMBBLYHIS0EBCFB","","<img src=""img/set1/S3.jpg"" width=""540"" height = ""360"" style=""border:16px solid orange"">","null","","","","","","","","","",""
"null","","html-keyboard-response","174","256643","0.0-174.0","37M28K1J0RZEHAGFCPBHW3GI1OVJA4","AM65LGXJBTJ0I","3ZXV7Q5FJBAKJ3TNMBBLYHIS0EBCFB","","","null","","","","","","","","","",""
"1108.0999999046326","","image-keyboard-response","175","257752","0.0-175.0","37M28K1J0RZEHAGFCPBHW3GI1OVJA4","AM65LGXJBTJ0I","3ZXV7Q5FJBAKJ3TNMBBLYHIS0EBCFB","","img/set1/S4.jpg","74","4","structured_normal","74","structured_normal,structured_incentive,random,structured_load","1,2,4,2,2,3","1,2,3,4","true","","",""
"null","","html-keyboard-response","176","258104","0.0-176.0","37M28K1J0RZEHAGFCPBHW3GI1OVJA4","AM65LGXJBTJ0I","3ZXV7Q5FJBAKJ3TNMBBLYHIS0EBCFB","","<img src=""img/set1/S4.jpg"" width=""540"" height = ""360"" style=""border:16px solid orange"">","null","","","","","","","","","",""
"null","","html-keyboard-response","177","258305","0.0-177.0","37M28K1J0RZEHAGFCPBHW3GI1OVJA4","AM65LGXJBTJ0I","3ZXV7Q5FJBAKJ3TNMBBLYHIS0EBCFB","","","null","","","","","","","","","",""
"752","","image-keyboard-response","178","259058","0.0-178.0","37M28K1J0RZEHAGFCPBHW3GI1OVJA4","AM65LGXJBTJ0I","3ZXV7Q5FJBAKJ3TNMBBLYHIS0EBCFB","","img/set1/S3.jpg","72","3","structured_normal","72","structured_normal,structured_incentive,random,structured_load","1,2,4,2,2,3","1,2,3,4","true","","",""
"null","","html-keyboard-response","179","259409","0.0-179.0","37M28K1J0RZEHAGFCPBHW3GI1OVJA4","AM65LGXJBTJ0I","3ZXV7Q5FJBAKJ3TNMBBLYHIS0EBCFB","","<img src=""img/set1/S3.jpg"" width=""540"" height = ""360"" style=""border:16px solid orange"">","null","","","","","","","","","",""
"null","","html-keyboard-response","180","259611","0.0-180.0","37M28K1J0RZEHAGFCPBHW3GI1OVJA4","AM65LGXJBTJ0I","3ZXV7Q5FJBAKJ3TNMBBLYHIS0EBCFB","","","null","","","","","","","","","",""
"704.6999999284744","","image-keyboard-response","181","260317","0.0-181.0","37M28K1J0RZEHAGFCPBHW3GI1OVJA4","AM65LGXJBTJ0I","3ZXV7Q5FJBAKJ3TNMBBLYHIS0EBCFB","","img/set1/S1.jpg","83","1","structured_normal","83","structured_normal,structured_incentive,random,structured_load","1,2,4,2,2,3","1,2,3,4","true","","",""
"null","","html-keyboard-response","182","260674","0.0-182.0","37M28K1J0RZEHAGFCPBHW3GI1OVJA4","AM65LGXJBTJ0I","3ZXV7Q5FJBAKJ3TNMBBLYHIS0EBCFB","","<img src=""img/set1/S1.jpg"" width=""540"" height = ""360"" style=""border:16px solid orange"">","null","","","","","","","","","",""
"null","","html-keyboard-response","183","260876","0.0-183.0","37M28K1J0RZEHAGFCPBHW3GI1OVJA4","AM65LGXJBTJ0I","3ZXV7Q5FJBAKJ3TNMBBLYHIS0EBCFB","","","null","","","","","","","","","",""
"656.7999999523163","","image-keyboard-response","184","261534","0.0-184.0","37M28K1J0RZEHAGFCPBHW3GI1OVJA4","AM65LGXJBTJ0I","3ZXV7Q5FJBAKJ3TNMBBLYHIS0EBCFB","","img/set1/S2.jpg","72","2","structured_normal","68","structured_normal,structured_incentive,random,structured_load","1,2,4,2,2,3","1,2,3,4","false","","",""
"null","","html-keyboard-response","185","261886","0.0-185.0","37M28K1J0RZEHAGFCPBHW3GI1OVJA4","AM65LGXJBTJ0I","3ZXV7Q5FJBAKJ3TNMBBLYHIS0EBCFB","","<img src=""img/set1/S2.jpg"" width=""540"" height = ""360"">","null","","","","","","","","","",""
"null","","html-keyboard-response","186","262088","0.0-186.0","37M28K1J0RZEHAGFCPBHW3GI1OVJA4","AM65LGXJBTJ0I","3ZXV7Q5FJBAKJ3TNMBBLYHIS0EBCFB","","","null","","","","","","","","","",""
"1379.2000000476837","","image-keyboard-response","187","263468","0.0-187.0","37M28K1J0RZEHAGFCPBHW3GI1OVJA4","AM65LGXJBTJ0I","3ZXV7Q5FJBAKJ3TNMBBLYHIS0EBCFB","","img/set1/S3.jpg","72","3","structured_normal","72","structured_normal,structured_incentive,random,structured_load","1,2,4,2,2,3","1,2,3,4","true","","",""
"null","","html-keyboard-response","188","263820","0.0-188.0","37M28K1J0RZEHAGFCPBHW3GI1OVJA4","AM65LGXJBTJ0I","3ZXV7Q5FJBAKJ3TNMBBLYHIS0EBCFB","","<img src=""img/set1/S3.jpg"" width=""540"" height = ""360"" style=""border:16px solid orange"">","null","","","","","","","","","",""
"null","","html-keyboard-response","189","264021","0.0-189.0","37M28K1J0RZEHAGFCPBHW3GI1OVJA4","AM65LGXJBTJ0I","3ZXV7Q5FJBAKJ3TNMBBLYHIS0EBCFB","","","null","","","","","","","","","",""
"564.2999999523163","","image-keyboard-response","190","264586","0.0-190.0","37M28K1J0RZEHAGFCPBHW3GI1OVJA4","AM65LGXJBTJ0I","3ZXV7Q5FJBAKJ3TNMBBLYHIS0EBCFB","","img/set1/S3.jpg","72","3","structured_normal","72","structured_normal,structured_incentive,random,structured_load","1,2,4,2,2,3","1,2,3,4","true","","",""
"null","","html-keyboard-response","191","264937","0.0-191.0","37M28K1J0RZEHAGFCPBHW3GI1OVJA4","AM65LGXJBTJ0I","3ZXV7Q5FJBAKJ3TNMBBLYHIS0EBCFB","","<img src=""img/set1/S3.jpg"" width=""540"" height = ""360"" style=""border:16px solid orange"">","null","","","","","","","","","",""
"null","","html-keyboard-response","192","265139","0.0-192.0","37M28K1J0RZEHAGFCPBHW3GI1OVJA4","AM65LGXJBTJ0I","3ZXV7Q5FJBAKJ3TNMBBLYHIS0EBCFB","","","null","","","","","","","","","",""
"1090.1000000238419","","image-keyboard-response","193","266230","0.0-193.0","37M28K1J0RZEHAGFCPBHW3GI1OVJA4","AM65LGXJBTJ0I","3ZXV7Q5FJBAKJ3TNMBBLYHIS0EBCFB","","img/set1/S1.jpg","83","1","structured_normal","83","structured_normal,structured_incentive,random,structured_load","1,2,4,2,2,3","1,2,3,4","true","","",""
"null","","html-keyboard-response","194","266583","0.0-194.0","37M28K1J0RZEHAGFCPBHW3GI1OVJA4","AM65LGXJBTJ0I","3ZXV7Q5FJBAKJ3TNMBBLYHIS0EBCFB","","<img src=""img/set1/S1.jpg"" width=""540"" height = ""360"" style=""border:16px solid orange"">","null","","","","","","","","","",""
"null","","html-keyboard-response","195","266784","0.0-195.0","37M28K1J0RZEHAGFCPBHW3GI1OVJA4","AM65LGXJBTJ0I","3ZXV7Q5FJBAKJ3TNMBBLYHIS0EBCFB","","","null","","","","","","","","","",""
"660.6000000238419","","image-keyboard-response","196","267445","0.0-196.0","37M28K1J0RZEHAGFCPBHW3GI1OVJA4","AM65LGXJBTJ0I","3ZXV7Q5FJBAKJ3TNMBBLYHIS0EBCFB","","img/set1/S2.jpg","68","2","structured_normal","68","structured_normal,structured_incentive,random,structured_load","1,2,4,2,2,3","1,2,3,4","true","","",""
"null","","html-keyboard-response","197","267797","0.0-197.0","37M28K1J0RZEHAGFCPBHW3GI1OVJA4","AM65LGXJBTJ0I","3ZXV7Q5FJBAKJ3TNMBBLYHIS0EBCFB","","<img src=""img/set1/S2.jpg"" width=""540"" height = ""360"" style=""border:16px solid orange"">","null","","","","","","","","","",""
"null","","html-keyboard-response","198","268004","0.0-198.0","37M28K1J0RZEHAGFCPBHW3GI1OVJA4","AM65LGXJBTJ0I","3ZXV7Q5FJBAKJ3TNMBBLYHIS0EBCFB","","","null","","","","","","","","","",""
"500","","image-keyboard-response","199","268505","0.0-199.0","37M28K1J0RZEHAGFCPBHW3GI1OVJA4","AM65LGXJBTJ0I","3ZXV7Q5FJBAKJ3TNMBBLYHIS0EBCFB","","img/set1/S1.jpg","83","1","structured_normal","83","structured_normal,structured_incentive,random,structured_load","1,2,4,2,2,3","1,2,3,4","true","","",""
"null","","html-keyboard-response","200","268857","0.0-200.0","37M28K1J0RZEHAGFCPBHW3GI1OVJA4","AM65LGXJBTJ0I","3ZXV7Q5FJBAKJ3TNMBBLYHIS0EBCFB","","<img src=""img/set1/S1.jpg"" width=""540"" height = ""360"" style=""border:16px solid orange"">","null","","","","","","","","","",""
"null","","html-keyboard-response","201","269059","0.0-201.0","37M28K1J0RZEHAGFCPBHW3GI1OVJA4","AM65LGXJBTJ0I","3ZXV7Q5FJBAKJ3TNMBBLYHIS0EBCFB","","","null","","","","","","","","","",""
"376.09999990463257","","image-keyboard-response","202","269436","0.0-202.0","37M28K1J0RZEHAGFCPBHW3GI1OVJA4","AM65LGXJBTJ0I","3ZXV7Q5FJBAKJ3TNMBBLYHIS0EBCFB","","img/set1/S2.jpg","68","2","structured_normal","68","structured_normal,structured_incentive,random,structured_load","1,2,4,2,2,3","1,2,3,4","true","","",""
"null","","html-keyboard-response","203","269787","0.0-203.0","37M28K1J0RZEHAGFCPBHW3GI1OVJA4","AM65LGXJBTJ0I","3ZXV7Q5FJBAKJ3TNMBBLYHIS0EBCFB","","<img src=""img/set1/S2.jpg"" width=""540"" height = ""360"" style=""border:16px solid orange"">","null","","","","","","","","","",""
"null","","html-keyboard-response","204","269989","0.0-204.0","37M28K1J0RZEHAGFCPBHW3GI1OVJA4","AM65LGXJBTJ0I","3ZXV7Q5FJBAKJ3TNMBBLYHIS0EBCFB","","","null","","","","","","","","","",""
"1049.8999999761581","","image-keyboard-response","205","271040","0.0-205.0","37M28K1J0RZEHAGFCPBHW3GI1OVJA4","AM65LGXJBTJ0I","3ZXV7Q5FJBAKJ3TNMBBLYHIS0EBCFB","","img/set1/S4.jpg","72","4","structured_normal","74","structured_normal,structured_incentive,random,structured_load","1,2,4,2,2,3","1,2,3,4","false","","",""
"null","","html-keyboard-response","206","271393","0.0-206.0","37M28K1J0RZEHAGFCPBHW3GI1OVJA4","AM65LGXJBTJ0I","3ZXV7Q5FJBAKJ3TNMBBLYHIS0EBCFB","","<img src=""img/set1/S4.jpg"" width=""540"" height = ""360"">","null","","","","","","","","","",""
"null","","html-keyboard-response","207","271595","0.0-207.0","37M28K1J0RZEHAGFCPBHW3GI1OVJA4","AM65LGXJBTJ0I","3ZXV7Q5FJBAKJ3TNMBBLYHIS0EBCFB","","","null","","","","","","","","","",""
"440.2999999523163","","image-keyboard-response","208","272037","0.0-208.0","37M28K1J0RZEHAGFCPBHW3GI1OVJA4","AM65LGXJBTJ0I","3ZXV7Q5FJBAKJ3TNMBBLYHIS0EBCFB","","img/set1/S4.jpg","74","4","structured_normal","74","structured_normal,structured_incentive,random,structured_load","1,2,4,2,2,3","1,2,3,4","true","","",""
"null","","html-keyboard-response","209","272389","0.0-209.0","37M28K1J0RZEHAGFCPBHW3GI1OVJA4","AM65LGXJBTJ0I","3ZXV7Q5FJBAKJ3TNMBBLYHIS0EBCFB","","<img src=""img/set1/S4.jpg"" width=""540"" height = ""360"" style=""border:16px solid orange"">","null","","","","","","","","","",""
"null","","html-keyboard-response","210","272591","0.0-210.0","37M28K1J0RZEHAGFCPBHW3GI1OVJA4","AM65LGXJBTJ0I","3ZXV7Q5FJBAKJ3TNMBBLYHIS0EBCFB","","","null","","","","","","","","","",""
"444.89999997615814","","image-keyboard-response","211","273037","0.0-211.0","37M28K1J0RZEHAGFCPBHW3GI1OVJA4","AM65LGXJBTJ0I","3ZXV7Q5FJBAKJ3TNMBBLYHIS0EBCFB","","img/set1/S3.jpg","72","3","structured_normal","72","structured_normal,structured_incentive,random,structured_load","1,2,4,2,2,3","1,2,3,4","true","","",""
"null","","html-keyboard-response","212","273390","0.0-212.0","37M28K1J0RZEHAGFCPBHW3GI1OVJA4","AM65LGXJBTJ0I","3ZXV7Q5FJBAKJ3TNMBBLYHIS0EBCFB","","<img src=""img/set1/S3.jpg"" width=""540"" height = ""360"" style=""border:16px solid orange"">","null","","","","","","","","","",""
"null","","html-keyboard-response","213","273591","0.0-213.0","37M28K1J0RZEHAGFCPBHW3GI1OVJA4","AM65LGXJBTJ0I","3ZXV7Q5FJBAKJ3TNMBBLYHIS0EBCFB","","","null","","","","","","","","","",""
"548.2999999523163","","image-keyboard-response","214","274140","0.0-214.0","37M28K1J0RZEHAGFCPBHW3GI1OVJA4","AM65LGXJBTJ0I","3ZXV7Q5FJBAKJ3TNMBBLYHIS0EBCFB","","img/set1/S3.jpg","72","3","structured_normal","72","structured_normal,structured_incentive,random,structured_load","1,2,4,2,2,3","1,2,3,4","true","","",""
"null","","html-keyboard-response","215","274491","0.0-215.0","37M28K1J0RZEHAGFCPBHW3GI1OVJA4","AM65LGXJBTJ0I","3ZXV7Q5FJBAKJ3TNMBBLYHIS0EBCFB","","<img src=""img/set1/S3.jpg"" width=""540"" height = ""360"" style=""border:16px solid orange"">","null","","","","","","","","","",""
"null","","html-keyboard-response","216","274693","0.0-216.0","37M28K1J0RZEHAGFCPBHW3GI1OVJA4","AM65LGXJBTJ0I","3ZXV7Q5FJBAKJ3TNMBBLYHIS0EBCFB","","","null","","","","","","","","","",""
"492.90000009536743","","image-keyboard-response","217","275187","0.0-217.0","37M28K1J0RZEHAGFCPBHW3GI1OVJA4","AM65LGXJBTJ0I","3ZXV7Q5FJBAKJ3TNMBBLYHIS0EBCFB","","img/set1/S3.jpg","72","3","structured_normal","72","structured_normal,structured_incentive,random,structured_load","1,2,4,2,2,3","1,2,3,4","true","","",""
"null","","html-keyboard-response","218","275540","0.0-218.0","37M28K1J0RZEHAGFCPBHW3GI1OVJA4","AM65LGXJBTJ0I","3ZXV7Q5FJBAKJ3TNMBBLYHIS0EBCFB","","<img src=""img/set1/S3.jpg"" width=""540"" height = ""360"" style=""border:16px solid orange"">","null","","","","","","","","","",""
"null","","html-keyboard-response","219","275741","0.0-219.0","37M28K1J0RZEHAGFCPBHW3GI1OVJA4","AM65LGXJBTJ0I","3ZXV7Q5FJBAKJ3TNMBBLYHIS0EBCFB","","","null","","","","","","","","","",""
"409.1999999284744","","image-keyboard-response","220","276151","0.0-220.0","37M28K1J0RZEHAGFCPBHW3GI1OVJA4","AM65LGXJBTJ0I","3ZXV7Q5FJBAKJ3TNMBBLYHIS0EBCFB","","img/set1/S3.jpg","72","3","structured_normal","72","structured_normal,structured_incentive,random,structured_load","1,2,4,2,2,3","1,2,3,4","true","","",""
"null","","html-keyboard-response","221","276503","0.0-221.0","37M28K1J0RZEHAGFCPBHW3GI1OVJA4","AM65LGXJBTJ0I","3ZXV7Q5FJBAKJ3TNMBBLYHIS0EBCFB","","<img src=""img/set1/S3.jpg"" width=""540"" height = ""360"" style=""border:16px solid orange"">","null","","","","","","","","","",""
"null","","html-keyboard-response","222","276705","0.0-222.0","37M28K1J0RZEHAGFCPBHW3GI1OVJA4","AM65LGXJBTJ0I","3ZXV7Q5FJBAKJ3TNMBBLYHIS0EBCFB","","","null","","","","","","","","","",""
"740.3000000715256","","image-keyboard-response","223","277446","0.0-223.0","37M28K1J0RZEHAGFCPBHW3GI1OVJA4","AM65LGXJBTJ0I","3ZXV7Q5FJBAKJ3TNMBBLYHIS0EBCFB","","img/set1/S1.jpg","83","1","structured_normal","83","structured_normal,structured_incentive,random,structured_load","1,2,4,2,2,3","1,2,3,4","true","","",""
"null","","html-keyboard-response","224","277799","0.0-224.0","37M28K1J0RZEHAGFCPBHW3GI1OVJA4","AM65LGXJBTJ0I","3ZXV7Q5FJBAKJ3TNMBBLYHIS0EBCFB","","<img src=""img/set1/S1.jpg"" width=""540"" height = ""360"" style=""border:16px solid orange"">","null","","","","","","","","","",""
"null","","html-keyboard-response","225","278001","0.0-225.0","37M28K1J0RZEHAGFCPBHW3GI1OVJA4","AM65LGXJBTJ0I","3ZXV7Q5FJBAKJ3TNMBBLYHIS0EBCFB","","","null","","","","","","","","","",""
"753.1000000238419","","image-keyboard-response","226","278755","0.0-226.0","37M28K1J0RZEHAGFCPBHW3GI1OVJA4","AM65LGXJBTJ0I","3ZXV7Q5FJBAKJ3TNMBBLYHIS0EBCFB","","img/set1/S2.jpg","68","2","structured_normal","68","structured_normal,structured_incentive,random,structured_load","1,2,4,2,2,3","1,2,3,4","true","","",""
"null","","html-keyboard-response","227","279108","0.0-227.0","37M28K1J0RZEHAGFCPBHW3GI1OVJA4","AM65LGXJBTJ0I","3ZXV7Q5FJBAKJ3TNMBBLYHIS0EBCFB","","<img src=""img/set1/S2.jpg"" width=""540"" height = ""360"" style=""border:16px solid orange"">","null","","","","","","","","","",""
"null","","html-keyboard-response","228","279314","0.0-228.0","37M28K1J0RZEHAGFCPBHW3GI1OVJA4","AM65LGXJBTJ0I","3ZXV7Q5FJBAKJ3TNMBBLYHIS0EBCFB","","","null","","","","","","","","","",""
"739.1000000238419","","image-keyboard-response","229","280054","0.0-229.0","37M28K1J0RZEHAGFCPBHW3GI1OVJA4","AM65LGXJBTJ0I","3ZXV7Q5FJBAKJ3TNMBBLYHIS0EBCFB","","img/set1/S4.jpg","74","4","structured_normal","74","structured_normal,structured_incentive,random,structured_load","1,2,4,2,2,3","1,2,3,4","true","","",""
"null","","html-keyboard-response","230","280406","0.0-230.0","37M28K1J0RZEHAGFCPBHW3GI1OVJA4","AM65LGXJBTJ0I","3ZXV7Q5FJBAKJ3TNMBBLYHIS0EBCFB","","<img src=""img/set1/S4.jpg"" width=""540"" height = ""360"" style=""border:16px solid orange"">","null","","","","","","","","","",""
"null","","html-keyboard-response","231","280608","0.0-231.0","37M28K1J0RZEHAGFCPBHW3GI1OVJA4","AM65LGXJBTJ0I","3ZXV7Q5FJBAKJ3TNMBBLYHIS0EBCFB","","","null","","","","","","","","","",""
"531.8999999761581","","image-keyboard-response","232","281141","0.0-232.0","37M28K1J0RZEHAGFCPBHW3GI1OVJA4","AM65LGXJBTJ0I","3ZXV7Q5FJBAKJ3TNMBBLYHIS0EBCFB","","img/set1/S3.jpg","72","3","structured_normal","72","structured_normal,structured_incentive,random,structured_load","1,2,4,2,2,3","1,2,3,4","true","","",""
"null","","html-keyboard-response","233","281494","0.0-233.0","37M28K1J0RZEHAGFCPBHW3GI1OVJA4","AM65LGXJBTJ0I","3ZXV7Q5FJBAKJ3TNMBBLYHIS0EBCFB","","<img src=""img/set1/S3.jpg"" width=""540"" height = ""360"" style=""border:16px solid orange"">","null","","","","","","","","","",""
"null","","html-keyboard-response","234","281696","0.0-234.0","37M28K1J0RZEHAGFCPBHW3GI1OVJA4","AM65LGXJBTJ0I","3ZXV7Q5FJBAKJ3TNMBBLYHIS0EBCFB","","","null","","","","","","","","","",""
"455.2999999523163","","image-keyboard-response","235","282152","0.0-235.0","37M28K1J0RZEHAGFCPBHW3GI1OVJA4","AM65LGXJBTJ0I","3ZXV7Q5FJBAKJ3TNMBBLYHIS0EBCFB","","img/set1/S3.jpg","72","3","structured_normal","72","structured_normal,structured_incentive,random,structured_load","1,2,4,2,2,3","1,2,3,4","true","","",""
"null","","html-keyboard-response","236","282504","0.0-236.0","37M28K1J0RZEHAGFCPBHW3GI1OVJA4","AM65LGXJBTJ0I","3ZXV7Q5FJBAKJ3TNMBBLYHIS0EBCFB","","<img src=""img/set1/S3.jpg"" width=""540"" height = ""360"" style=""border:16px solid orange"">","null","","","","","","","","","",""
"null","","html-keyboard-response","237","282706","0.0-237.0","37M28K1J0RZEHAGFCPBHW3GI1OVJA4","AM65LGXJBTJ0I","3ZXV7Q5FJBAKJ3TNMBBLYHIS0EBCFB","","","null","","","","","","","","","",""
"1796.9000000953674","","image-keyboard-response","238","284504","0.0-238.0","37M28K1J0RZEHAGFCPBHW3GI1OVJA4","AM65LGXJBTJ0I","3ZXV7Q5FJBAKJ3TNMBBLYHIS0EBCFB","","img/set1/S2.jpg","68","2","structured_normal","68","structured_normal,structured_incentive,random,structured_load","1,2,4,2,2,3","1,2,3,4","true","","",""
"null","","html-keyboard-response","239","284856","0.0-239.0","37M28K1J0RZEHAGFCPBHW3GI1OVJA4","AM65LGXJBTJ0I","3ZXV7Q5FJBAKJ3TNMBBLYHIS0EBCFB","","<img src=""img/set1/S2.jpg"" width=""540"" height = ""360"" style=""border:16px solid orange"">","null","","","","","","","","","",""
"null","","html-keyboard-response","240","285058","0.0-240.0","37M28K1J0RZEHAGFCPBHW3GI1OVJA4","AM65LGXJBTJ0I","3ZXV7Q5FJBAKJ3TNMBBLYHIS0EBCFB","","","null","","","","","","","","","",""
"1069.2000000476837","","image-keyboard-response","241","286128","0.0-241.0","37M28K1J0RZEHAGFCPBHW3GI1OVJA4","AM65LGXJBTJ0I","3ZXV7Q5FJBAKJ3TNMBBLYHIS0EBCFB","","img/set1/S4.jpg","74","4","structured_normal","74","structured_normal,structured_incentive,random,structured_load","1,2,4,2,2,3","1,2,3,4","true","","",""
"null","","html-keyboard-response","242","286480","0.0-242.0","37M28K1J0RZEHAGFCPBHW3GI1OVJA4","AM65LGXJBTJ0I","3ZXV7Q5FJBAKJ3TNMBBLYHIS0EBCFB","","<img src=""img/set1/S4.jpg"" width=""540"" height = ""360"" style=""border:16px solid orange"">","null","","","","","","","","","",""
"null","","html-keyboard-response","243","286682","0.0-243.0","37M28K1J0RZEHAGFCPBHW3GI1OVJA4","AM65LGXJBTJ0I","3ZXV7Q5FJBAKJ3TNMBBLYHIS0EBCFB","","","null","","","","","","","","","",""
"845","","image-keyboard-response","244","287528","0.0-244.0","37M28K1J0RZEHAGFCPBHW3GI1OVJA4","AM65LGXJBTJ0I","3ZXV7Q5FJBAKJ3TNMBBLYHIS0EBCFB","","img/set1/S2.jpg","68","2","structured_normal","68","structured_normal,structured_incentive,random,structured_load","1,2,4,2,2,3","1,2,3,4","true","","",""
"null","","html-keyboard-response","245","287880","0.0-245.0","37M28K1J0RZEHAGFCPBHW3GI1OVJA4","AM65LGXJBTJ0I","3ZXV7Q5FJBAKJ3TNMBBLYHIS0EBCFB","","<img src=""img/set1/S2.jpg"" width=""540"" height = ""360"" style=""border:16px solid orange"">","null","","","","","","","","","",""
"null","","html-keyboard-response","246","288082","0.0-246.0","37M28K1J0RZEHAGFCPBHW3GI1OVJA4","AM65LGXJBTJ0I","3ZXV7Q5FJBAKJ3TNMBBLYHIS0EBCFB","","","null","","","","","","","","","",""
"868.1999999284744","","image-keyboard-response","247","288951","0.0-247.0","37M28K1J0RZEHAGFCPBHW3GI1OVJA4","AM65LGXJBTJ0I","3ZXV7Q5FJBAKJ3TNMBBLYHIS0EBCFB","","img/set1/S1.jpg","83","1","structured_normal","83","structured_normal,structured_incentive,random,structured_load","1,2,4,2,2,3","1,2,3,4","true","","",""
"null","","html-keyboard-response","248","289303","0.0-248.0","37M28K1J0RZEHAGFCPBHW3GI1OVJA4","AM65LGXJBTJ0I","3ZXV7Q5FJBAKJ3TNMBBLYHIS0EBCFB","","<img src=""img/set1/S1.jpg"" width=""540"" height = ""360"" style=""border:16px solid orange"">","null","","","","","","","","","",""
"null","","html-keyboard-response","249","289504","0.0-249.0","37M28K1J0RZEHAGFCPBHW3GI1OVJA4","AM65LGXJBTJ0I","3ZXV7Q5FJBAKJ3TNMBBLYHIS0EBCFB","","","null","","","","","","","","","",""
"659.7999999523163","","image-keyboard-response","250","290165","0.0-250.0","37M28K1J0RZEHAGFCPBHW3GI1OVJA4","AM65LGXJBTJ0I","3ZXV7Q5FJBAKJ3TNMBBLYHIS0EBCFB","","img/set1/S2.jpg","68","2","structured_normal","68","structured_normal,structured_incentive,random,structured_load","1,2,4,2,2,3","1,2,3,4","true","","",""
"null","","html-keyboard-response","251","290517","0.0-251.0","37M28K1J0RZEHAGFCPBHW3GI1OVJA4","AM65LGXJBTJ0I","3ZXV7Q5FJBAKJ3TNMBBLYHIS0EBCFB","","<img src=""img/set1/S2.jpg"" width=""540"" height = ""360"" style=""border:16px solid orange"">","null","","","","","","","","","",""
"null","","html-keyboard-response","252","290722","0.0-252.0","37M28K1J0RZEHAGFCPBHW3GI1OVJA4","AM65LGXJBTJ0I","3ZXV7Q5FJBAKJ3TNMBBLYHIS0EBCFB","","","null","","","","","","","","","",""
"578.5","","image-keyboard-response","253","291301","0.0-253.0","37M28K1J0RZEHAGFCPBHW3GI1OVJA4","AM65LGXJBTJ0I","3ZXV7Q5FJBAKJ3TNMBBLYHIS0EBCFB","","img/set1/S3.jpg","72","3","structured_normal","72","structured_normal,structured_incentive,random,structured_load","1,2,4,2,2,3","1,2,3,4","true","","",""
"null","","html-keyboard-response","254","291654","0.0-254.0","37M28K1J0RZEHAGFCPBHW3GI1OVJA4","AM65LGXJBTJ0I","3ZXV7Q5FJBAKJ3TNMBBLYHIS0EBCFB","","<img src=""img/set1/S3.jpg"" width=""540"" height = ""360"" style=""border:16px solid orange"">","null","","","","","","","","","",""
"null","","html-keyboard-response","255","291856","0.0-255.0","37M28K1J0RZEHAGFCPBHW3GI1OVJA4","AM65LGXJBTJ0I","3ZXV7Q5FJBAKJ3TNMBBLYHIS0EBCFB","","","null","","","","","","","","","",""
"1012.7999999523163","","image-keyboard-response","256","292870","0.0-256.0","37M28K1J0RZEHAGFCPBHW3GI1OVJA4","AM65LGXJBTJ0I","3ZXV7Q5FJBAKJ3TNMBBLYHIS0EBCFB","","img/set1/S1.jpg","83","1","structured_normal","83","structured_normal,structured_incentive,random,structured_load","1,2,4,2,2,3","1,2,3,4","true","","",""
"null","","html-keyboard-response","257","293223","0.0-257.0","37M28K1J0RZEHAGFCPBHW3GI1OVJA4","AM65LGXJBTJ0I","3ZXV7Q5FJBAKJ3TNMBBLYHIS0EBCFB","","<img src=""img/set1/S1.jpg"" width=""540"" height = ""360"" style=""border:16px solid orange"">","null","","","","","","","","","",""
"null","","html-keyboard-response","258","293424","0.0-258.0","37M28K1J0RZEHAGFCPBHW3GI1OVJA4","AM65LGXJBTJ0I","3ZXV7Q5FJBAKJ3TNMBBLYHIS0EBCFB","","","null","","","","","","","","","",""
"972.5","","image-keyboard-response","259","294398","0.0-259.0","37M28K1J0RZEHAGFCPBHW3GI1OVJA4","AM65LGXJBTJ0I","3ZXV7Q5FJBAKJ3TNMBBLYHIS0EBCFB","","img/set1/S2.jpg","68","2","structured_normal","68","structured_normal,structured_incentive,random,structured_load","1,2,4,2,2,3","1,2,3,4","true","","",""
"null","","html-keyboard-response","260","294750","0.0-260.0","37M28K1J0RZEHAGFCPBHW3GI1OVJA4","AM65LGXJBTJ0I","3ZXV7Q5FJBAKJ3TNMBBLYHIS0EBCFB","","<img src=""img/set1/S2.jpg"" width=""540"" height = ""360"" style=""border:16px solid orange"">","null","","","","","","","","","",""
"null","","html-keyboard-response","261","294952","0.0-261.0","37M28K1J0RZEHAGFCPBHW3GI1OVJA4","AM65LGXJBTJ0I","3ZXV7Q5FJBAKJ3TNMBBLYHIS0EBCFB","","","null","","","","","","","","","",""
"803.5","","image-keyboard-response","262","295757","0.0-262.0","37M28K1J0RZEHAGFCPBHW3GI1OVJA4","AM65LGXJBTJ0I","3ZXV7Q5FJBAKJ3TNMBBLYHIS0EBCFB","","img/set1/S3.jpg","72","3","structured_normal","72","structured_normal,structured_incentive,random,structured_load","1,2,4,2,2,3","1,2,3,4","true","","",""
"null","","html-keyboard-response","263","296109","0.0-263.0","37M28K1J0RZEHAGFCPBHW3GI1OVJA4","AM65LGXJBTJ0I","3ZXV7Q5FJBAKJ3TNMBBLYHIS0EBCFB","","<img src=""img/set1/S3.jpg"" width=""540"" height = ""360"" style=""border:16px solid orange"">","null","","","","","","","","","",""
"null","","html-keyboard-response","264","296312","0.0-264.0","37M28K1J0RZEHAGFCPBHW3GI1OVJA4","AM65LGXJBTJ0I","3ZXV7Q5FJBAKJ3TNMBBLYHIS0EBCFB","","","null","","","","","","","","","",""
"580.1999999284744","","image-keyboard-response","265","296893","0.0-265.0","37M28K1J0RZEHAGFCPBHW3GI1OVJA4","AM65LGXJBTJ0I","3ZXV7Q5FJBAKJ3TNMBBLYHIS0EBCFB","","img/set1/S1.jpg","83","1","structured_normal","83","structured_normal,structured_incentive,random,structured_load","1,2,4,2,2,3","1,2,3,4","true","","",""
"null","","html-keyboard-response","266","297255","0.0-266.0","37M28K1J0RZEHAGFCPBHW3GI1OVJA4","AM65LGXJBTJ0I","3ZXV7Q5FJBAKJ3TNMBBLYHIS0EBCFB","","<img src=""img/set1/S1.jpg"" width=""540"" height = ""360"" style=""border:16px solid orange"">","null","","","","","","","","","",""
"null","","html-keyboard-response","267","297457","0.0-267.0","37M28K1J0RZEHAGFCPBHW3GI1OVJA4","AM65LGXJBTJ0I","3ZXV7Q5FJBAKJ3TNMBBLYHIS0EBCFB","","","null","","","","","","","","","",""
"952.1999999284744","","image-keyboard-response","268","298410","0.0-268.0","37M28K1J0RZEHAGFCPBHW3GI1OVJA4","AM65LGXJBTJ0I","3ZXV7Q5FJBAKJ3TNMBBLYHIS0EBCFB","","img/set1/S4.jpg","74","4","structured_normal","74","structured_normal,structured_incentive,random,structured_load","1,2,4,2,2,3","1,2,3,4","true","","",""
"null","","html-keyboard-response","269","298762","0.0-269.0","37M28K1J0RZEHAGFCPBHW3GI1OVJA4","AM65LGXJBTJ0I","3ZXV7Q5FJBAKJ3TNMBBLYHIS0EBCFB","","<img src=""img/set1/S4.jpg"" width=""540"" height = ""360"" style=""border:16px solid orange"">","null","","","","","","","","","",""
"null","","html-keyboard-response","270","298964","0.0-270.0","37M28K1J0RZEHAGFCPBHW3GI1OVJA4","AM65LGXJBTJ0I","3ZXV7Q5FJBAKJ3TNMBBLYHIS0EBCFB","","","null","","","","","","","","","",""
"626.6000000238419","","image-keyboard-response","271","299592","0.0-271.0","37M28K1J0RZEHAGFCPBHW3GI1OVJA4","AM65LGXJBTJ0I","3ZXV7Q5FJBAKJ3TNMBBLYHIS0EBCFB","","img/set1/S3.jpg","72","3","structured_normal","72","structured_normal,structured_incentive,random,structured_load","1,2,4,2,2,3","1,2,3,4","true","","",""
"null","","html-keyboard-response","272","299943","0.0-272.0","37M28K1J0RZEHAGFCPBHW3GI1OVJA4","AM65LGXJBTJ0I","3ZXV7Q5FJBAKJ3TNMBBLYHIS0EBCFB","","<img src=""img/set1/S3.jpg"" width=""540"" height = ""360"" style=""border:16px solid orange"">","null","","","","","","","","","",""
"null","","html-keyboard-response","273","300144","0.0-273.0","37M28K1J0RZEHAGFCPBHW3GI1OVJA4","AM65LGXJBTJ0I","3ZXV7Q5FJBAKJ3TNMBBLYHIS0EBCFB","","","null","","","","","","","","","",""
"1512.1000000238419","","image-keyboard-response","274","301657","0.0-274.0","37M28K1J0RZEHAGFCPBHW3GI1OVJA4","AM65LGXJBTJ0I","3ZXV7Q5FJBAKJ3TNMBBLYHIS0EBCFB","","img/set1/S1.jpg","83","1","structured_normal","83","structured_normal,structured_incentive,random,structured_load","1,2,4,2,2,3","1,2,3,4","true","","",""
"null","","html-keyboard-response","275","302009","0.0-275.0","37M28K1J0RZEHAGFCPBHW3GI1OVJA4","AM65LGXJBTJ0I","3ZXV7Q5FJBAKJ3TNMBBLYHIS0EBCFB","","<img src=""img/set1/S1.jpg"" width=""540"" height = ""360"" style=""border:16px solid orange"">","null","","","","","","","","","",""
"null","","html-keyboard-response","276","302210","0.0-276.0","37M28K1J0RZEHAGFCPBHW3GI1OVJA4","AM65LGXJBTJ0I","3ZXV7Q5FJBAKJ3TNMBBLYHIS0EBCFB","","","null","","","","","","","","","",""
"719","","image-keyboard-response","277","302930","0.0-277.0","37M28K1J0RZEHAGFCPBHW3GI1OVJA4","AM65LGXJBTJ0I","3ZXV7Q5FJBAKJ3TNMBBLYHIS0EBCFB","","img/set1/S2.jpg","68","2","structured_normal","68","structured_normal,structured_incentive,random,structured_load","1,2,4,2,2,3","1,2,3,4","true","","",""
"null","","html-keyboard-response","278","303283","0.0-278.0","37M28K1J0RZEHAGFCPBHW3GI1OVJA4","AM65LGXJBTJ0I","3ZXV7Q5FJBAKJ3TNMBBLYHIS0EBCFB","","<img src=""img/set1/S2.jpg"" width=""540"" height = ""360"" style=""border:16px solid orange"">","null","","","","","","","","","",""
"null","","html-keyboard-response","279","303485","0.0-279.0","37M28K1J0RZEHAGFCPBHW3GI1OVJA4","AM65LGXJBTJ0I","3ZXV7Q5FJBAKJ3TNMBBLYHIS0EBCFB","","","null","","","","","","","","","",""
"565.7999999523163","","image-keyboard-response","280","304052","0.0-280.0","37M28K1J0RZEHAGFCPBHW3GI1OVJA4","AM65LGXJBTJ0I","3ZXV7Q5FJBAKJ3TNMBBLYHIS0EBCFB","","img/set1/S1.jpg","83","1","structured_normal","83","structured_normal,structured_incentive,random,structured_load","1,2,4,2,2,3","1,2,3,4","true","","",""
"null","","html-keyboard-response","281","304404","0.0-281.0","37M28K1J0RZEHAGFCPBHW3GI1OVJA4","AM65LGXJBTJ0I","3ZXV7Q5FJBAKJ3TNMBBLYHIS0EBCFB","","<img src=""img/set1/S1.jpg"" width=""540"" height = ""360"" style=""border:16px solid orange"">","null","","","","","","","","","",""
"null","","html-keyboard-response","282","304606","0.0-282.0","37M28K1J0RZEHAGFCPBHW3GI1OVJA4","AM65LGXJBTJ0I","3ZXV7Q5FJBAKJ3TNMBBLYHIS0EBCFB","","","null","","","","","","","","","",""
"408.10000002384186","","image-keyboard-response","283","305015","0.0-283.0","37M28K1J0RZEHAGFCPBHW3GI1OVJA4","AM65LGXJBTJ0I","3ZXV7Q5FJBAKJ3TNMBBLYHIS0EBCFB","","img/set1/S2.jpg","68","2","structured_normal","68","structured_normal,structured_incentive,random,structured_load","1,2,4,2,2,3","1,2,3,4","true","","",""
"null","","html-keyboard-response","284","305366","0.0-284.0","37M28K1J0RZEHAGFCPBHW3GI1OVJA4","AM65LGXJBTJ0I","3ZXV7Q5FJBAKJ3TNMBBLYHIS0EBCFB","","<img src=""img/set1/S2.jpg"" width=""540"" height = ""360"" style=""border:16px solid orange"">","null","","","","","","","","","",""
"null","","html-keyboard-response","285","305568","0.0-285.0","37M28K1J0RZEHAGFCPBHW3GI1OVJA4","AM65LGXJBTJ0I","3ZXV7Q5FJBAKJ3TNMBBLYHIS0EBCFB","","","null","","","","","","","","","",""
"717.7999999523163","","image-keyboard-response","286","306287","0.0-286.0","37M28K1J0RZEHAGFCPBHW3GI1OVJA4","AM65LGXJBTJ0I","3ZXV7Q5FJBAKJ3TNMBBLYHIS0EBCFB","","img/set1/S3.jpg","72","3","structured_normal","72","structured_normal,structured_incentive,random,structured_load","1,2,4,2,2,3","1,2,3,4","true","","",""
"null","","html-keyboard-response","287","306639","0.0-287.0","37M28K1J0RZEHAGFCPBHW3GI1OVJA4","AM65LGXJBTJ0I","3ZXV7Q5FJBAKJ3TNMBBLYHIS0EBCFB","","<img src=""img/set1/S3.jpg"" width=""540"" height = ""360"" style=""border:16px solid orange"">","null","","","","","","","","","",""
"null","","html-keyboard-response","288","306841","0.0-288.0","37M28K1J0RZEHAGFCPBHW3GI1OVJA4","AM65LGXJBTJ0I","3ZXV7Q5FJBAKJ3TNMBBLYHIS0EBCFB","","","null","","","","","","","","","",""
"755.2999999523163","","image-keyboard-response","289","307597","0.0-289.0","37M28K1J0RZEHAGFCPBHW3GI1OVJA4","AM65LGXJBTJ0I","3ZXV7Q5FJBAKJ3TNMBBLYHIS0EBCFB","","img/set1/S4.jpg","74","4","structured_normal","74","structured_normal,structured_incentive,random,structured_load","1,2,4,2,2,3","1,2,3,4","true","","",""
"null","","html-keyboard-response","290","307949","0.0-290.0","37M28K1J0RZEHAGFCPBHW3GI1OVJA4","AM65LGXJBTJ0I","3ZXV7Q5FJBAKJ3TNMBBLYHIS0EBCFB","","<img src=""img/set1/S4.jpg"" width=""540"" height = ""360"" style=""border:16px solid orange"">","null","","","","","","","","","",""
"null","","html-keyboard-response","291","308151","0.0-291.0","37M28K1J0RZEHAGFCPBHW3GI1OVJA4","AM65LGXJBTJ0I","3ZXV7Q5FJBAKJ3TNMBBLYHIS0EBCFB","","","null","","","","","","","","","",""
"473.2000000476837","","image-keyboard-response","292","308625","0.0-292.0","37M28K1J0RZEHAGFCPBHW3GI1OVJA4","AM65LGXJBTJ0I","3ZXV7Q5FJBAKJ3TNMBBLYHIS0EBCFB","","img/set1/S4.jpg","74","4","structured_normal","74","structured_normal,structured_incentive,random,structured_load","1,2,4,2,2,3","1,2,3,4","true","","",""
"null","","html-keyboard-response","293","308977","0.0-293.0","37M28K1J0RZEHAGFCPBHW3GI1OVJA4","AM65LGXJBTJ0I","3ZXV7Q5FJBAKJ3TNMBBLYHIS0EBCFB","","<img src=""img/set1/S4.jpg"" width=""540"" height = ""360"" style=""border:16px solid orange"">","null","","","","","","","","","",""
"null","","html-keyboard-response","294","309179","0.0-294.0","37M28K1J0RZEHAGFCPBHW3GI1OVJA4","AM65LGXJBTJ0I","3ZXV7Q5FJBAKJ3TNMBBLYHIS0EBCFB","","","null","","","","","","","","","",""
"1480","","image-keyboard-response","295","310660","0.0-295.0","37M28K1J0RZEHAGFCPBHW3GI1OVJA4","AM65LGXJBTJ0I","3ZXV7Q5FJBAKJ3TNMBBLYHIS0EBCFB","","img/set1/S3.jpg","72","3","structured_normal","72","structured_normal,structured_incentive,random,structured_load","1,2,4,2,2,3","1,2,3,4","true","","",""
"null","","html-keyboard-response","296","311012","0.0-296.0","37M28K1J0RZEHAGFCPBHW3GI1OVJA4","AM65LGXJBTJ0I","3ZXV7Q5FJBAKJ3TNMBBLYHIS0EBCFB","","<img src=""img/set1/S3.jpg"" width=""540"" height = ""360"" style=""border:16px solid orange"">","null","","","","","","","","","",""
"null","","html-keyboard-response","297","311213","0.0-297.0","37M28K1J0RZEHAGFCPBHW3GI1OVJA4","AM65LGXJBTJ0I","3ZXV7Q5FJBAKJ3TNMBBLYHIS0EBCFB","","","null","","","","","","","","","",""
"524.2999999523163","","image-keyboard-response","298","311739","0.0-298.0","37M28K1J0RZEHAGFCPBHW3GI1OVJA4","AM65LGXJBTJ0I","3ZXV7Q5FJBAKJ3TNMBBLYHIS0EBCFB","","img/set1/S3.jpg","72","3","structured_normal","72","structured_normal,structured_incentive,random,structured_load","1,2,4,2,2,3","1,2,3,4","true","","",""
"null","","html-keyboard-response","299","312091","0.0-299.0","37M28K1J0RZEHAGFCPBHW3GI1OVJA4","AM65LGXJBTJ0I","3ZXV7Q5FJBAKJ3TNMBBLYHIS0EBCFB","","<img src=""img/set1/S3.jpg"" width=""540"" height = ""360"" style=""border:16px solid orange"">","null","","","","","","","","","",""
"null","","html-keyboard-response","300","312293","0.0-300.0","37M28K1J0RZEHAGFCPBHW3GI1OVJA4","AM65LGXJBTJ0I","3ZXV7Q5FJBAKJ3TNMBBLYHIS0EBCFB","","","null","","","","","","","","","",""
"518.3999999761581","","image-keyboard-response","301","312812","0.0-301.0","37M28K1J0RZEHAGFCPBHW3GI1OVJA4","AM65LGXJBTJ0I","3ZXV7Q5FJBAKJ3TNMBBLYHIS0EBCFB","","img/set1/S3.jpg","72","3","structured_normal","72","structured_normal,structured_incentive,random,structured_load","1,2,4,2,2,3","1,2,3,4","true","","",""
"null","","html-keyboard-response","302","313164","0.0-302.0","37M28K1J0RZEHAGFCPBHW3GI1OVJA4","AM65LGXJBTJ0I","3ZXV7Q5FJBAKJ3TNMBBLYHIS0EBCFB","","<img src=""img/set1/S3.jpg"" width=""540"" height = ""360"" style=""border:16px solid orange"">","null","","","","","","","","","",""
"null","","html-keyboard-response","303","313366","0.0-303.0","37M28K1J0RZEHAGFCPBHW3GI1OVJA4","AM65LGXJBTJ0I","3ZXV7Q5FJBAKJ3TNMBBLYHIS0EBCFB","","","null","","","","","","","","","",""
"1334","","image-keyboard-response","304","314701","0.0-304.0","37M28K1J0RZEHAGFCPBHW3GI1OVJA4","AM65LGXJBTJ0I","3ZXV7Q5FJBAKJ3TNMBBLYHIS0EBCFB","","img/set1/S4.jpg","74","4","structured_normal","74","structured_normal,structured_incentive,random,structured_load","1,2,4,2,2,3","1,2,3,4","true","","",""
"null","","html-keyboard-response","305","315053","0.0-305.0","37M28K1J0RZEHAGFCPBHW3GI1OVJA4","AM65LGXJBTJ0I","3ZXV7Q5FJBAKJ3TNMBBLYHIS0EBCFB","","<img src=""img/set1/S4.jpg"" width=""540"" height = ""360"" style=""border:16px solid orange"">","null","","","","","","","","","",""
"null","","html-keyboard-response","306","315255","0.0-306.0","37M28K1J0RZEHAGFCPBHW3GI1OVJA4","AM65LGXJBTJ0I","3ZXV7Q5FJBAKJ3TNMBBLYHIS0EBCFB","","","null","","","","","","","","","",""
"1119.3999999761581","","image-keyboard-response","307","316375","0.0-307.0","37M28K1J0RZEHAGFCPBHW3GI1OVJA4","AM65LGXJBTJ0I","3ZXV7Q5FJBAKJ3TNMBBLYHIS0EBCFB","","img/set1/S2.jpg","68","2","structured_normal","68","structured_normal,structured_incentive,random,structured_load","1,2,4,2,2,3","1,2,3,4","true","","",""
"null","","html-keyboard-response","308","316727","0.0-308.0","37M28K1J0RZEHAGFCPBHW3GI1OVJA4","AM65LGXJBTJ0I","3ZXV7Q5FJBAKJ3TNMBBLYHIS0EBCFB","","<img src=""img/set1/S2.jpg"" width=""540"" height = ""360"" style=""border:16px solid orange"">","null","","","","","","","","","",""
"null","","html-keyboard-response","309","316933","0.0-309.0","37M28K1J0RZEHAGFCPBHW3GI1OVJA4","AM65LGXJBTJ0I","3ZXV7Q5FJBAKJ3TNMBBLYHIS0EBCFB","","","null","","","","","","","","","",""
"696.1000000238419","","image-keyboard-response","310","317630","0.0-310.0","37M28K1J0RZEHAGFCPBHW3GI1OVJA4","AM65LGXJBTJ0I","3ZXV7Q5FJBAKJ3TNMBBLYHIS0EBCFB","","img/set1/S3.jpg","72","3","structured_normal","72","structured_normal,structured_incentive,random,structured_load","1,2,4,2,2,3","1,2,3,4","true","","",""
"null","","html-keyboard-response","311","317982","0.0-311.0","37M28K1J0RZEHAGFCPBHW3GI1OVJA4","AM65LGXJBTJ0I","3ZXV7Q5FJBAKJ3TNMBBLYHIS0EBCFB","","<img src=""img/set1/S3.jpg"" width=""540"" height = ""360"" style=""border:16px solid orange"">","null","","","","","","","","","",""
"null","","html-keyboard-response","312","318184","0.0-312.0","37M28K1J0RZEHAGFCPBHW3GI1OVJA4","AM65LGXJBTJ0I","3ZXV7Q5FJBAKJ3TNMBBLYHIS0EBCFB","","","null","","","","","","","","","",""
"1940.1999999284744","","image-keyboard-response","313","320125","0.0-313.0","37M28K1J0RZEHAGFCPBHW3GI1OVJA4","AM65LGXJBTJ0I","3ZXV7Q5FJBAKJ3TNMBBLYHIS0EBCFB","","img/set1/S4.jpg","72","4","structured_normal","74","structured_normal,structured_incentive,random,structured_load","1,2,4,2,2,3","1,2,3,4","false","","",""
"null","","html-keyboard-response","314","320478","0.0-314.0","37M28K1J0RZEHAGFCPBHW3GI1OVJA4","AM65LGXJBTJ0I","3ZXV7Q5FJBAKJ3TNMBBLYHIS0EBCFB","","<img src=""img/set1/S4.jpg"" width=""540"" height = ""360"">","null","","","","","","","","","",""
"null","","html-keyboard-response","315","320682","0.0-315.0","37M28K1J0RZEHAGFCPBHW3GI1OVJA4","AM65LGXJBTJ0I","3ZXV7Q5FJBAKJ3TNMBBLYHIS0EBCFB","","","null","","","","","","","","","",""
"735.8000000715256","","image-keyboard-response","316","321419","0.0-316.0","37M28K1J0RZEHAGFCPBHW3GI1OVJA4","AM65LGXJBTJ0I","3ZXV7Q5FJBAKJ3TNMBBLYHIS0EBCFB","","img/set1/S3.jpg","72","3","structured_normal","72","structured_normal,structured_incentive,random,structured_load","1,2,4,2,2,3","1,2,3,4","true","","",""
"null","","html-keyboard-response","317","321771","0.0-317.0","37M28K1J0RZEHAGFCPBHW3GI1OVJA4","AM65LGXJBTJ0I","3ZXV7Q5FJBAKJ3TNMBBLYHIS0EBCFB","","<img src=""img/set1/S3.jpg"" width=""540"" height = ""360"" style=""border:16px solid orange"">","null","","","","","","","","","",""
"null","","html-keyboard-response","318","321973","0.0-318.0","37M28K1J0RZEHAGFCPBHW3GI1OVJA4","AM65LGXJBTJ0I","3ZXV7Q5FJBAKJ3TNMBBLYHIS0EBCFB","","","null","","","","","","","","","",""
"410.10000002384186","","image-keyboard-response","319","322384","0.0-319.0","37M28K1J0RZEHAGFCPBHW3GI1OVJA4","AM65LGXJBTJ0I","3ZXV7Q5FJBAKJ3TNMBBLYHIS0EBCFB","","img/set1/S4.jpg","74","4","structured_normal","74","structured_normal,structured_incentive,random,structured_load","1,2,4,2,2,3","1,2,3,4","true","","",""
"null","","html-keyboard-response","320","322742","0.0-320.0","37M28K1J0RZEHAGFCPBHW3GI1OVJA4","AM65LGXJBTJ0I","3ZXV7Q5FJBAKJ3TNMBBLYHIS0EBCFB","","<img src=""img/set1/S4.jpg"" width=""540"" height = ""360"" style=""border:16px solid orange"">","null","","","","","","","","","",""
"null","","html-keyboard-response","321","322943","0.0-321.0","37M28K1J0RZEHAGFCPBHW3GI1OVJA4","AM65LGXJBTJ0I","3ZXV7Q5FJBAKJ3TNMBBLYHIS0EBCFB","","","null","","","","","","","","","",""
"638.5999999046326","","image-keyboard-response","322","323583","0.0-322.0","37M28K1J0RZEHAGFCPBHW3GI1OVJA4","AM65LGXJBTJ0I","3ZXV7Q5FJBAKJ3TNMBBLYHIS0EBCFB","","img/set1/S1.jpg","83","1","structured_normal","83","structured_normal,structured_incentive,random,structured_load","1,2,4,2,2,3","1,2,3,4","true","","",""
"null","","html-keyboard-response","323","323935","0.0-323.0","37M28K1J0RZEHAGFCPBHW3GI1OVJA4","AM65LGXJBTJ0I","3ZXV7Q5FJBAKJ3TNMBBLYHIS0EBCFB","","<img src=""img/set1/S1.jpg"" width=""540"" height = ""360"" style=""border:16px solid orange"">","null","","","","","","","","","",""
"null","","html-keyboard-response","324","324137","0.0-324.0","37M28K1J0RZEHAGFCPBHW3GI1OVJA4","AM65LGXJBTJ0I","3ZXV7Q5FJBAKJ3TNMBBLYHIS0EBCFB","","","null","","","","","","","","","",""
"592.6000000238419","","image-keyboard-response","325","324731","0.0-325.0","37M28K1J0RZEHAGFCPBHW3GI1OVJA4","AM65LGXJBTJ0I","3ZXV7Q5FJBAKJ3TNMBBLYHIS0EBCFB","","img/set1/S2.jpg","68","2","structured_normal","68","structured_normal,structured_incentive,random,structured_load","1,2,4,2,2,3","1,2,3,4","true","","",""
"null","","html-keyboard-response","326","325083","0.0-326.0","37M28K1J0RZEHAGFCPBHW3GI1OVJA4","AM65LGXJBTJ0I","3ZXV7Q5FJBAKJ3TNMBBLYHIS0EBCFB","","<img src=""img/set1/S2.jpg"" width=""540"" height = ""360"" style=""border:16px solid orange"">","null","","","","","","","","","",""
"null","","html-keyboard-response","327","325285","0.0-327.0","37M28K1J0RZEHAGFCPBHW3GI1OVJA4","AM65LGXJBTJ0I","3ZXV7Q5FJBAKJ3TNMBBLYHIS0EBCFB","","","null","","","","","","","","","",""
"957.5999999046326","","image-keyboard-response","328","326244","0.0-328.0","37M28K1J0RZEHAGFCPBHW3GI1OVJA4","AM65LGXJBTJ0I","3ZXV7Q5FJBAKJ3TNMBBLYHIS0EBCFB","","img/set1/S4.jpg","74","4","structured_normal","74","structured_normal,structured_incentive,random,structured_load","1,2,4,2,2,3","1,2,3,4","true","","",""
"null","","html-keyboard-response","329","326596","0.0-329.0","37M28K1J0RZEHAGFCPBHW3GI1OVJA4","AM65LGXJBTJ0I","3ZXV7Q5FJBAKJ3TNMBBLYHIS0EBCFB","","<img src=""img/set1/S4.jpg"" width=""540"" height = ""360"" style=""border:16px solid orange"">","null","","","","","","","","","",""
"null","","html-keyboard-response","330","326797","0.0-330.0","37M28K1J0RZEHAGFCPBHW3GI1OVJA4","AM65LGXJBTJ0I","3ZXV7Q5FJBAKJ3TNMBBLYHIS0EBCFB","","","null","","","","","","","","","",""
"614.1000000238419","","image-keyboard-response","331","327412","0.0-331.0","37M28K1J0RZEHAGFCPBHW3GI1OVJA4","AM65LGXJBTJ0I","3ZXV7Q5FJBAKJ3TNMBBLYHIS0EBCFB","","img/set1/S3.jpg","72","3","structured_normal","72","structured_normal,structured_incentive,random,structured_load","1,2,4,2,2,3","1,2,3,4","true","","",""
"null","","html-keyboard-response","332","327765","0.0-332.0","37M28K1J0RZEHAGFCPBHW3GI1OVJA4","AM65LGXJBTJ0I","3ZXV7Q5FJBAKJ3TNMBBLYHIS0EBCFB","","<img src=""img/set1/S3.jpg"" width=""540"" height = ""360"" style=""border:16px solid orange"">","null","","","","","","","","","",""
"null","","html-keyboard-response","333","327967","0.0-333.0","37M28K1J0RZEHAGFCPBHW3GI1OVJA4","AM65LGXJBTJ0I","3ZXV7Q5FJBAKJ3TNMBBLYHIS0EBCFB","","","null","","","","","","","","","",""
"695.6000000238419","","image-keyboard-response","334","328663","0.0-334.0","37M28K1J0RZEHAGFCPBHW3GI1OVJA4","AM65LGXJBTJ0I","3ZXV7Q5FJBAKJ3TNMBBLYHIS0EBCFB","","img/set1/S1.jpg","83","1","structured_normal","83","structured_normal,structured_incentive,random,structured_load","1,2,4,2,2,3","1,2,3,4","true","","",""
"null","","html-keyboard-response","335","329015","0.0-335.0","37M28K1J0RZEHAGFCPBHW3GI1OVJA4","AM65LGXJBTJ0I","3ZXV7Q5FJBAKJ3TNMBBLYHIS0EBCFB","","<img src=""img/set1/S1.jpg"" width=""540"" height = ""360"" style=""border:16px solid orange"">","null","","","","","","","","","",""
"null","","html-keyboard-response","336","329216","0.0-336.0","37M28K1J0RZEHAGFCPBHW3GI1OVJA4","AM65LGXJBTJ0I","3ZXV7Q5FJBAKJ3TNMBBLYHIS0EBCFB","","","null","","","","","","","","","",""
"581.2999999523163","","image-keyboard-response","337","329798","0.0-337.0","37M28K1J0RZEHAGFCPBHW3GI1OVJA4","AM65LGXJBTJ0I","3ZXV7Q5FJBAKJ3TNMBBLYHIS0EBCFB","","img/set1/S2.jpg","68","2","structured_normal","68","structured_normal,structured_incentive,random,structured_load","1,2,4,2,2,3","1,2,3,4","true","","",""
"null","","html-keyboard-response","338","330150","0.0-338.0","37M28K1J0RZEHAGFCPBHW3GI1OVJA4","AM65LGXJBTJ0I","3ZXV7Q5FJBAKJ3TNMBBLYHIS0EBCFB","","<img src=""img/set1/S2.jpg"" width=""540"" height = ""360"" style=""border:16px solid orange"">","null","","","","","","","","","",""
"null","","html-keyboard-response","339","330352","0.0-339.0","37M28K1J0RZEHAGFCPBHW3GI1OVJA4","AM65LGXJBTJ0I","3ZXV7Q5FJBAKJ3TNMBBLYHIS0EBCFB","","","null","","","","","","","","","",""
"749.7999999523163","","image-keyboard-response","340","331103","0.0-340.0","37M28K1J0RZEHAGFCPBHW3GI1OVJA4","AM65LGXJBTJ0I","3ZXV7Q5FJBAKJ3TNMBBLYHIS0EBCFB","","img/set1/S4.jpg","74","4","structured_normal","74","structured_normal,structured_incentive,random,structured_load","1,2,4,2,2,3","1,2,3,4","true","","",""
"null","","html-keyboard-response","341","331455","0.0-341.0","37M28K1J0RZEHAGFCPBHW3GI1OVJA4","AM65LGXJBTJ0I","3ZXV7Q5FJBAKJ3TNMBBLYHIS0EBCFB","","<img src=""img/set1/S4.jpg"" width=""540"" height = ""360"" style=""border:16px solid orange"">","null","","","","","","","","","",""
"null","","html-keyboard-response","342","331657","0.0-342.0","37M28K1J0RZEHAGFCPBHW3GI1OVJA4","AM65LGXJBTJ0I","3ZXV7Q5FJBAKJ3TNMBBLYHIS0EBCFB","","","null","","","","","","","","","",""
"557.2999999523163","","image-keyboard-response","343","332215","0.0-343.0","37M28K1J0RZEHAGFCPBHW3GI1OVJA4","AM65LGXJBTJ0I","3ZXV7Q5FJBAKJ3TNMBBLYHIS0EBCFB","","img/set1/S3.jpg","72","3","structured_normal","72","structured_normal,structured_incentive,random,structured_load","1,2,4,2,2,3","1,2,3,4","true","","",""
"null","","html-keyboard-response","344","332567","0.0-344.0","37M28K1J0RZEHAGFCPBHW3GI1OVJA4","AM65LGXJBTJ0I","3ZXV7Q5FJBAKJ3TNMBBLYHIS0EBCFB","","<img src=""img/set1/S3.jpg"" width=""540"" height = ""360"" style=""border:16px solid orange"">","null","","","","","","","","","",""
"null","","html-keyboard-response","345","332774","0.0-345.0","37M28K1J0RZEHAGFCPBHW3GI1OVJA4","AM65LGXJBTJ0I","3ZXV7Q5FJBAKJ3TNMBBLYHIS0EBCFB","","","null","","","","","","","","","",""
"876.1000000238419","","image-keyboard-response","346","333651","0.0-346.0","37M28K1J0RZEHAGFCPBHW3GI1OVJA4","AM65LGXJBTJ0I","3ZXV7Q5FJBAKJ3TNMBBLYHIS0EBCFB","","img/set1/S4.jpg","74","4","structured_normal","74","structured_normal,structured_incentive,random,structured_load","1,2,4,2,2,3","1,2,3,4","true","","",""
"null","","html-keyboard-response","347","334003","0.0-347.0","37M28K1J0RZEHAGFCPBHW3GI1OVJA4","AM65LGXJBTJ0I","3ZXV7Q5FJBAKJ3TNMBBLYHIS0EBCFB","","<img src=""img/set1/S4.jpg"" width=""540"" height = ""360"" style=""border:16px solid orange"">","null","","","","","","","","","",""
"null","","html-keyboard-response","348","334205","0.0-348.0","37M28K1J0RZEHAGFCPBHW3GI1OVJA4","AM65LGXJBTJ0I","3ZXV7Q5FJBAKJ3TNMBBLYHIS0EBCFB","","","null","","","","","","","","","",""
"773.6999999284744","","image-keyboard-response","349","334980","0.0-349.0","37M28K1J0RZEHAGFCPBHW3GI1OVJA4","AM65LGXJBTJ0I","3ZXV7Q5FJBAKJ3TNMBBLYHIS0EBCFB","","img/set1/S1.jpg","83","1","structured_normal","83","structured_normal,structured_incentive,random,structured_load","1,2,4,2,2,3","1,2,3,4","true","","",""
"null","","html-keyboard-response","350","335332","0.0-350.0","37M28K1J0RZEHAGFCPBHW3GI1OVJA4","AM65LGXJBTJ0I","3ZXV7Q5FJBAKJ3TNMBBLYHIS0EBCFB","","<img src=""img/set1/S1.jpg"" width=""540"" height = ""360"" style=""border:16px solid orange"">","null","","","","","","","","","",""
"null","","html-keyboard-response","351","335533","0.0-351.0","37M28K1J0RZEHAGFCPBHW3GI1OVJA4","AM65LGXJBTJ0I","3ZXV7Q5FJBAKJ3TNMBBLYHIS0EBCFB","","","null","","","","","","","","","",""
"652.8999999761581","","image-keyboard-response","352","336187","0.0-352.0","37M28K1J0RZEHAGFCPBHW3GI1OVJA4","AM65LGXJBTJ0I","3ZXV7Q5FJBAKJ3TNMBBLYHIS0EBCFB","","img/set1/S2.jpg","68","2","structured_normal","68","structured_normal,structured_incentive,random,structured_load","1,2,4,2,2,3","1,2,3,4","true","","",""
"null","","html-keyboard-response","353","336538","0.0-353.0","37M28K1J0RZEHAGFCPBHW3GI1OVJA4","AM65LGXJBTJ0I","3ZXV7Q5FJBAKJ3TNMBBLYHIS0EBCFB","","<img src=""img/set1/S2.jpg"" width=""540"" height = ""360"" style=""border:16px solid orange"">","null","","","","","","","","","",""
"null","","html-keyboard-response","354","336740","0.0-354.0","37M28K1J0RZEHAGFCPBHW3GI1OVJA4","AM65LGXJBTJ0I","3ZXV7Q5FJBAKJ3TNMBBLYHIS0EBCFB","","","null","","","","","","","","","",""
"1163.8999999761581","","image-keyboard-response","355","337905","0.0-355.0","37M28K1J0RZEHAGFCPBHW3GI1OVJA4","AM65LGXJBTJ0I","3ZXV7Q5FJBAKJ3TNMBBLYHIS0EBCFB","","img/set1/S3.jpg","72","3","structured_normal","72","structured_normal,structured_incentive,random,structured_load","1,2,4,2,2,3","1,2,3,4","true","","",""
"null","","html-keyboard-response","356","338257","0.0-356.0","37M28K1J0RZEHAGFCPBHW3GI1OVJA4","AM65LGXJBTJ0I","3ZXV7Q5FJBAKJ3TNMBBLYHIS0EBCFB","","<img src=""img/set1/S3.jpg"" width=""540"" height = ""360"" style=""border:16px solid orange"">","null","","","","","","","","","",""
"null","","html-keyboard-response","357","338458","0.0-357.0","37M28K1J0RZEHAGFCPBHW3GI1OVJA4","AM65LGXJBTJ0I","3ZXV7Q5FJBAKJ3TNMBBLYHIS0EBCFB","","","null","","","","","","","","","",""
"727.8999999761581","","image-keyboard-response","358","339187","0.0-358.0","37M28K1J0RZEHAGFCPBHW3GI1OVJA4","AM65LGXJBTJ0I","3ZXV7Q5FJBAKJ3TNMBBLYHIS0EBCFB","","img/set1/S1.jpg","83","1","structured_normal","83","structured_normal,structured_incentive,random,structured_load","1,2,4,2,2,3","1,2,3,4","true","","",""
"null","","html-keyboard-response","359","339540","0.0-359.0","37M28K1J0RZEHAGFCPBHW3GI1OVJA4","AM65LGXJBTJ0I","3ZXV7Q5FJBAKJ3TNMBBLYHIS0EBCFB","","<img src=""img/set1/S1.jpg"" width=""540"" height = ""360"" style=""border:16px solid orange"">","null","","","","","","","","","",""
"null","","html-keyboard-response","360","339742","0.0-360.0","37M28K1J0RZEHAGFCPBHW3GI1OVJA4","AM65LGXJBTJ0I","3ZXV7Q5FJBAKJ3TNMBBLYHIS0EBCFB","","","null","","","","","","","","","",""
"569.0999999046326","","image-keyboard-response","361","340312","0.0-361.0","37M28K1J0RZEHAGFCPBHW3GI1OVJA4","AM65LGXJBTJ0I","3ZXV7Q5FJBAKJ3TNMBBLYHIS0EBCFB","","img/set1/S2.jpg","68","2","structured_normal","68","structured_normal,structured_incentive,random,structured_load","1,2,4,2,2,3","1,2,3,4","true","","",""
"null","","html-keyboard-response","362","340664","0.0-362.0","37M28K1J0RZEHAGFCPBHW3GI1OVJA4","AM65LGXJBTJ0I","3ZXV7Q5FJBAKJ3TNMBBLYHIS0EBCFB","","<img src=""img/set1/S2.jpg"" width=""540"" height = ""360"" style=""border:16px solid orange"">","null","","","","","","","","","",""
"null","","html-keyboard-response","363","340866","0.0-363.0","37M28K1J0RZEHAGFCPBHW3GI1OVJA4","AM65LGXJBTJ0I","3ZXV7Q5FJBAKJ3TNMBBLYHIS0EBCFB","","","null","","","","","","","","","",""
"866.6000000238419","","image-keyboard-response","364","341734","0.0-364.0","37M28K1J0RZEHAGFCPBHW3GI1OVJA4","AM65LGXJBTJ0I","3ZXV7Q5FJBAKJ3TNMBBLYHIS0EBCFB","","img/set1/S4.jpg","74","4","structured_normal","74","structured_normal,structured_incentive,random,structured_load","1,2,4,2,2,3","1,2,3,4","true","","",""
"null","","html-keyboard-response","365","342085","0.0-365.0","37M28K1J0RZEHAGFCPBHW3GI1OVJA4","AM65LGXJBTJ0I","3ZXV7Q5FJBAKJ3TNMBBLYHIS0EBCFB","","<img src=""img/set1/S4.jpg"" width=""540"" height = ""360"" style=""border:16px solid orange"">","null","","","","","","","","","",""
"null","","html-keyboard-response","366","342287","0.0-366.0","37M28K1J0RZEHAGFCPBHW3GI1OVJA4","AM65LGXJBTJ0I","3ZXV7Q5FJBAKJ3TNMBBLYHIS0EBCFB","","","null","","","","","","","","","",""
"903.3999999761581","","image-keyboard-response","367","343192","0.0-367.0","37M28K1J0RZEHAGFCPBHW3GI1OVJA4","AM65LGXJBTJ0I","3ZXV7Q5FJBAKJ3TNMBBLYHIS0EBCFB","","img/set1/S1.jpg","83","1","structured_normal","83","structured_normal,structured_incentive,random,structured_load","1,2,4,2,2,3","1,2,3,4","true","","",""
"null","","html-keyboard-response","368","343544","0.0-368.0","37M28K1J0RZEHAGFCPBHW3GI1OVJA4","AM65LGXJBTJ0I","3ZXV7Q5FJBAKJ3TNMBBLYHIS0EBCFB","","<img src=""img/set1/S1.jpg"" width=""540"" height = ""360"" style=""border:16px solid orange"">","null","","","","","","","","","",""
"null","","html-keyboard-response","369","343745","0.0-369.0","37M28K1J0RZEHAGFCPBHW3GI1OVJA4","AM65LGXJBTJ0I","3ZXV7Q5FJBAKJ3TNMBBLYHIS0EBCFB","","","null","","","","","","","","","",""
"535.5","","image-keyboard-response","370","344281","0.0-370.0","37M28K1J0RZEHAGFCPBHW3GI1OVJA4","AM65LGXJBTJ0I","3ZXV7Q5FJBAKJ3TNMBBLYHIS0EBCFB","","img/set1/S2.jpg","68","2","structured_normal","68","structured_normal,structured_incentive,random,structured_load","1,2,4,2,2,3","1,2,3,4","true","","",""
"null","","html-keyboard-response","371","344632","0.0-371.0","37M28K1J0RZEHAGFCPBHW3GI1OVJA4","AM65LGXJBTJ0I","3ZXV7Q5FJBAKJ3TNMBBLYHIS0EBCFB","","<img src=""img/set1/S2.jpg"" width=""540"" height = ""360"" style=""border:16px solid orange"">","null","","","","","","","","","",""
"null","","html-keyboard-response","372","344834","0.0-372.0","37M28K1J0RZEHAGFCPBHW3GI1OVJA4","AM65LGXJBTJ0I","3ZXV7Q5FJBAKJ3TNMBBLYHIS0EBCFB","","","null","","","","","","","","","",""
"768.1999999284744","","image-keyboard-response","373","345603","0.0-373.0","37M28K1J0RZEHAGFCPBHW3GI1OVJA4","AM65LGXJBTJ0I","3ZXV7Q5FJBAKJ3TNMBBLYHIS0EBCFB","","img/set1/S3.jpg","72","3","structured_normal","72","structured_normal,structured_incentive,random,structured_load","1,2,4,2,2,3","1,2,3,4","true","","",""
"null","","html-keyboard-response","374","345955","0.0-374.0","37M28K1J0RZEHAGFCPBHW3GI1OVJA4","AM65LGXJBTJ0I","3ZXV7Q5FJBAKJ3TNMBBLYHIS0EBCFB","","<img src=""img/set1/S3.jpg"" width=""540"" height = ""360"" style=""border:16px solid orange"">","null","","","","","","","","","",""
"null","","html-keyboard-response","375","346157","0.0-375.0","37M28K1J0RZEHAGFCPBHW3GI1OVJA4","AM65LGXJBTJ0I","3ZXV7Q5FJBAKJ3TNMBBLYHIS0EBCFB","","","null","","","","","","","","","",""
"462.60000002384186","","image-keyboard-response","376","346620","0.0-376.0","37M28K1J0RZEHAGFCPBHW3GI1OVJA4","AM65LGXJBTJ0I","3ZXV7Q5FJBAKJ3TNMBBLYHIS0EBCFB","","img/set1/S3.jpg","72","3","structured_normal","72","structured_normal,structured_incentive,random,structured_load","1,2,4,2,2,3","1,2,3,4","true","","",""
"null","","html-keyboard-response","377","346972","0.0-377.0","37M28K1J0RZEHAGFCPBHW3GI1OVJA4","AM65LGXJBTJ0I","3ZXV7Q5FJBAKJ3TNMBBLYHIS0EBCFB","","<img src=""img/set1/S3.jpg"" width=""540"" height = ""360"" style=""border:16px solid orange"">","null","","","","","","","","","",""
"null","","html-keyboard-response","378","347174","0.0-378.0","37M28K1J0RZEHAGFCPBHW3GI1OVJA4","AM65LGXJBTJ0I","3ZXV7Q5FJBAKJ3TNMBBLYHIS0EBCFB","","","null","","","","","","","","","",""
"426","","image-keyboard-response","379","347601","0.0-379.0","37M28K1J0RZEHAGFCPBHW3GI1OVJA4","AM65LGXJBTJ0I","3ZXV7Q5FJBAKJ3TNMBBLYHIS0EBCFB","","img/set1/S3.jpg","72","3","structured_normal","72","structured_normal,structured_incentive,random,structured_load","1,2,4,2,2,3","1,2,3,4","true","","",""
"null","","html-keyboard-response","380","347954","0.0-380.0","37M28K1J0RZEHAGFCPBHW3GI1OVJA4","AM65LGXJBTJ0I","3ZXV7Q5FJBAKJ3TNMBBLYHIS0EBCFB","","<img src=""img/set1/S3.jpg"" width=""540"" height = ""360"" style=""border:16px solid orange"">","null","","","","","","","","","",""
"null","","html-keyboard-response","381","348156","0.0-381.0","37M28K1J0RZEHAGFCPBHW3GI1OVJA4","AM65LGXJBTJ0I","3ZXV7Q5FJBAKJ3TNMBBLYHIS0EBCFB","","","null","","","","","","","","","",""
"781.2999999523163","","image-keyboard-response","382","348938","0.0-382.0","37M28K1J0RZEHAGFCPBHW3GI1OVJA4","AM65LGXJBTJ0I","3ZXV7Q5FJBAKJ3TNMBBLYHIS0EBCFB","","img/set1/S1.jpg","83","1","structured_normal","83","structured_normal,structured_incentive,random,structured_load","1,2,4,2,2,3","1,2,3,4","true","","",""
"null","","html-keyboard-response","383","349304","0.0-383.0","37M28K1J0RZEHAGFCPBHW3GI1OVJA4","AM65LGXJBTJ0I","3ZXV7Q5FJBAKJ3TNMBBLYHIS0EBCFB","","<img src=""img/set1/S1.jpg"" width=""540"" height = ""360"" style=""border:16px solid orange"">","null","","","","","","","","","",""
