"rt","url","trial_type","trial_index","time_elapsed","internal_node_id","assignmentID","mturkID","hitID","view_history","stimulus","key_press","state","test_part","correct_response","order_block","order_chunk","order_freq","correct","responses","question_order","bonus"
"150294.10000000056","consent.html","external-html","0","150343","0.0-0.0","38JBBYETQPWR45E6PNQZMKHQ4634ET","AMELYCC59JKB0","3G9UA71JVVGUCOKNEKUVXTI6SA17JG","","","","","","","","","","","","",""
"53531.39999999944","","instructions","1","203875","0.0-1.0","38JBBYETQPWR45E6PNQZMKHQ4634ET","AMELYCC59JKB0","3G9UA71JVVGUCOKNEKUVXTI6SA17JG","[{""page_index"":0,""viewing_time"":4134.299999999814},{""page_index"":1,""viewing_time"":7319.9000000003725},{""page_index"":2,""viewing_time"":8746},{""page_index"":3,""viewing_time"":10406.099999999627},{""page_index"":4,""viewing_time"":4761.700000000186},{""page_index"":5,""viewing_time"":9700.099999999627},{""page_index"":6,""viewing_time"":8463}]","","","","","","","","","","","",""
"15812.300000000745","","instructions","2","219688","0.0-2.0","38JBBYETQPWR45E6PNQZMKHQ4634ET","AMELYCC59JKB0","3G9UA71JVVGUCOKNEKUVXTI6SA17JG","[{""page_index"":0,""viewing_time"":15812.200000000186}]","","","","","","","","","","","",""
"4349.299999999814","","instructions","3","224037","0.0-3.0","38JBBYETQPWR45E6PNQZMKHQ4634ET","AMELYCC59JKB0","3G9UA71JVVGUCOKNEKUVXTI6SA17JG","[{""page_index"":0,""viewing_time"":4349.200000000186}]","","","","","","","","","","","",""
"896.1000000005588","","image-keyboard-response","4","224935","0.0-4.0","38JBBYETQPWR45E6PNQZMKHQ4634ET","AMELYCC59JKB0","3G9UA71JVVGUCOKNEKUVXTI6SA17JG","","img/set1/S4.jpg","72","4","random","74","random,structured_incentive,structured_normal,structured_load","1,2,4,2,2,3","1,4,2,3","false","","",""
"null","","html-keyboard-response","5","225287","0.0-5.0","38JBBYETQPWR45E6PNQZMKHQ4634ET","AMELYCC59JKB0","3G9UA71JVVGUCOKNEKUVXTI6SA17JG","","<img src=""img/set1/S4.jpg"" width=""540"" height = ""360"">","null","","","","","","","","","",""
"null","","html-keyboard-response","6","225487","0.0-6.0","38JBBYETQPWR45E6PNQZMKHQ4634ET","AMELYCC59JKB0","3G9UA71JVVGUCOKNEKUVXTI6SA17JG","","","null","","","","","","","","","",""
"582.2000000001863","","image-keyboard-response","7","226070","0.0-7.0","38JBBYETQPWR45E6PNQZMKHQ4634ET","AMELYCC59JKB0","3G9UA71JVVGUCOKNEKUVXTI6SA17JG","","img/set1/S1.jpg","83","1","random","83","random,structured_incentive,structured_normal,structured_load","1,2,4,2,2,3","1,4,2,3","true","","",""
"null","","html-keyboard-response","8","226421","0.0-8.0","38JBBYETQPWR45E6PNQZMKHQ4634ET","AMELYCC59JKB0","3G9UA71JVVGUCOKNEKUVXTI6SA17JG","","<img src=""img/set1/S1.jpg"" width=""540"" height = ""360"" style=""border:16px solid orange"">","null","","","","","","","","","",""
"null","","html-keyboard-response","9","226622","0.0-9.0","38JBBYETQPWR45E6PNQZMKHQ4634ET","AMELYCC59JKB0","3G9UA71JVVGUCOKNEKUVXTI6SA17JG","","","null","","","","","","","","","",""
"541.6000000005588","","image-keyboard-response","10","227164","0.0-10.0","38JBBYETQPWR45E6PNQZMKHQ4634ET","AMELYCC59JKB0","3G9UA71JVVGUCOKNEKUVXTI6SA17JG","","img/set1/S3.jpg","74","3","random","72","random,structured_incentive,structured_normal,structured_load","1,2,4,2,2,3","1,4,2,3","false","","",""
"null","","html-keyboard-response","11","227515","0.0-11.0","38JBBYETQPWR45E6PNQZMKHQ4634ET","AMELYCC59JKB0","3G9UA71JVVGUCOKNEKUVXTI6SA17JG","","<img src=""img/set1/S3.jpg"" width=""540"" height = ""360"">","null","","","","","","","","","",""
"null","","html-keyboard-response","12","227716","0.0-12.0","38JBBYETQPWR45E6PNQZMKHQ4634ET","AMELYCC59JKB0","3G9UA71JVVGUCOKNEKUVXTI6SA17JG","","","null","","","","","","","","","",""
"618.5","","image-keyboard-response","13","228335","0.0-13.0","38JBBYETQPWR45E6PNQZMKHQ4634ET","AMELYCC59JKB0","3G9UA71JVVGUCOKNEKUVXTI6SA17JG","","img/set1/S2.jpg","68","2","random","68","random,structured_incentive,structured_normal,structured_load","1,2,4,2,2,3","1,4,2,3","true","","",""
"null","","html-keyboard-response","14","228686","0.0-14.0","38JBBYETQPWR45E6PNQZMKHQ4634ET","AMELYCC59JKB0","3G9UA71JVVGUCOKNEKUVXTI6SA17JG","","<img src=""img/set1/S2.jpg"" width=""540"" height = ""360"" style=""border:16px solid orange"">","null","","","","","","","","","",""
"null","","html-keyboard-response","15","228888","0.0-15.0","38JBBYETQPWR45E6PNQZMKHQ4634ET","AMELYCC59JKB0","3G9UA71JVVGUCOKNEKUVXTI6SA17JG","","","null","","","","","","","","","",""
"583.2000000001863","","image-keyboard-response","16","229471","0.0-16.0","38JBBYETQPWR45E6PNQZMKHQ4634ET","AMELYCC59JKB0","3G9UA71JVVGUCOKNEKUVXTI6SA17JG","","img/set1/S3.jpg","83","3","random","72","random,structured_incentive,structured_normal,structured_load","1,2,4,2,2,3","1,4,2,3","false","","",""
"null","","html-keyboard-response","17","229822","0.0-17.0","38JBBYETQPWR45E6PNQZMKHQ4634ET","AMELYCC59JKB0","3G9UA71JVVGUCOKNEKUVXTI6SA17JG","","<img src=""img/set1/S3.jpg"" width=""540"" height = ""360"">","null","","","","","","","","","",""
"null","","html-keyboard-response","18","230023","0.0-18.0","38JBBYETQPWR45E6PNQZMKHQ4634ET","AMELYCC59JKB0","3G9UA71JVVGUCOKNEKUVXTI6SA17JG","","","null","","","","","","","","","",""
"625.7999999998137","","image-keyboard-response","19","230649","0.0-19.0","38JBBYETQPWR45E6PNQZMKHQ4634ET","AMELYCC59JKB0","3G9UA71JVVGUCOKNEKUVXTI6SA17JG","","img/set1/S4.jpg","74","4","random","74","random,structured_incentive,structured_normal,structured_load","1,2,4,2,2,3","1,4,2,3","true","","",""
"null","","html-keyboard-response","20","231001","0.0-20.0","38JBBYETQPWR45E6PNQZMKHQ4634ET","AMELYCC59JKB0","3G9UA71JVVGUCOKNEKUVXTI6SA17JG","","<img src=""img/set1/S4.jpg"" width=""540"" height = ""360"" style=""border:16px solid orange"">","null","","","","","","","","","",""
"null","","html-keyboard-response","21","231202","0.0-21.0","38JBBYETQPWR45E6PNQZMKHQ4634ET","AMELYCC59JKB0","3G9UA71JVVGUCOKNEKUVXTI6SA17JG","","","null","","","","","","","","","",""
"759.2999999998137","","image-keyboard-response","22","231961","0.0-22.0","38JBBYETQPWR45E6PNQZMKHQ4634ET","AMELYCC59JKB0","3G9UA71JVVGUCOKNEKUVXTI6SA17JG","","img/set1/S1.jpg","72","1","random","83","random,structured_incentive,structured_normal,structured_load","1,2,4,2,2,3","1,4,2,3","false","","",""
"null","","html-keyboard-response","23","232312","0.0-23.0","38JBBYETQPWR45E6PNQZMKHQ4634ET","AMELYCC59JKB0","3G9UA71JVVGUCOKNEKUVXTI6SA17JG","","<img src=""img/set1/S1.jpg"" width=""540"" height = ""360"">","null","","","","","","","","","",""
"null","","html-keyboard-response","24","232513","0.0-24.0","38JBBYETQPWR45E6PNQZMKHQ4634ET","AMELYCC59JKB0","3G9UA71JVVGUCOKNEKUVXTI6SA17JG","","","null","","","","","","","","","",""
"580.9000000003725","","image-keyboard-response","25","233094","0.0-25.0","38JBBYETQPWR45E6PNQZMKHQ4634ET","AMELYCC59JKB0","3G9UA71JVVGUCOKNEKUVXTI6SA17JG","","img/set1/S4.jpg","74","4","random","74","random,structured_incentive,structured_normal,structured_load","1,2,4,2,2,3","1,4,2,3","true","","",""
"null","","html-keyboard-response","26","233445","0.0-26.0","38JBBYETQPWR45E6PNQZMKHQ4634ET","AMELYCC59JKB0","3G9UA71JVVGUCOKNEKUVXTI6SA17JG","","<img src=""img/set1/S4.jpg"" width=""540"" height = ""360"" style=""border:16px solid orange"">","null","","","","","","","","","",""
"null","","html-keyboard-response","27","233646","0.0-27.0","38JBBYETQPWR45E6PNQZMKHQ4634ET","AMELYCC59JKB0","3G9UA71JVVGUCOKNEKUVXTI6SA17JG","","","null","","","","","","","","","",""
"575.4000000003725","","image-keyboard-response","28","234222","0.0-28.0","38JBBYETQPWR45E6PNQZMKHQ4634ET","AMELYCC59JKB0","3G9UA71JVVGUCOKNEKUVXTI6SA17JG","","img/set1/S3.jpg","74","3","random","72","random,structured_incentive,structured_normal,structured_load","1,2,4,2,2,3","1,4,2,3","false","","",""
"null","","html-keyboard-response","29","234573","0.0-29.0","38JBBYETQPWR45E6PNQZMKHQ4634ET","AMELYCC59JKB0","3G9UA71JVVGUCOKNEKUVXTI6SA17JG","","<img src=""img/set1/S3.jpg"" width=""540"" height = ""360"">","null","","","","","","","","","",""
"null","","html-keyboard-response","30","234774","0.0-30.0","38JBBYETQPWR45E6PNQZMKHQ4634ET","AMELYCC59JKB0","3G9UA71JVVGUCOKNEKUVXTI6SA17JG","","","null","","","","","","","","","",""
"710.9000000003725","","image-keyboard-response","31","235485","0.0-31.0","38JBBYETQPWR45E6PNQZMKHQ4634ET","AMELYCC59JKB0","3G9UA71JVVGUCOKNEKUVXTI6SA17JG","","img/set1/S1.jpg","68","1","random","83","random,structured_incentive,structured_normal,structured_load","1,2,4,2,2,3","1,4,2,3","false","","",""
"null","","html-keyboard-response","32","235836","0.0-32.0","38JBBYETQPWR45E6PNQZMKHQ4634ET","AMELYCC59JKB0","3G9UA71JVVGUCOKNEKUVXTI6SA17JG","","<img src=""img/set1/S1.jpg"" width=""540"" height = ""360"">","null","","","","","","","","","",""
"null","","html-keyboard-response","33","236037","0.0-33.0","38JBBYETQPWR45E6PNQZMKHQ4634ET","AMELYCC59JKB0","3G9UA71JVVGUCOKNEKUVXTI6SA17JG","","","null","","","","","","","","","",""
"595.4000000003725","","image-keyboard-response","34","236633","0.0-34.0","38JBBYETQPWR45E6PNQZMKHQ4634ET","AMELYCC59JKB0","3G9UA71JVVGUCOKNEKUVXTI6SA17JG","","img/set1/S1.jpg","83","1","random","83","random,structured_incentive,structured_normal,structured_load","1,2,4,2,2,3","1,4,2,3","true","","",""
"null","","html-keyboard-response","35","236984","0.0-35.0","38JBBYETQPWR45E6PNQZMKHQ4634ET","AMELYCC59JKB0","3G9UA71JVVGUCOKNEKUVXTI6SA17JG","","<img src=""img/set1/S1.jpg"" width=""540"" height = ""360"" style=""border:16px solid orange"">","null","","","","","","","","","",""
"null","","html-keyboard-response","36","237186","0.0-36.0","38JBBYETQPWR45E6PNQZMKHQ4634ET","AMELYCC59JKB0","3G9UA71JVVGUCOKNEKUVXTI6SA17JG","","","null","","","","","","","","","",""
"512.2000000001863","","image-keyboard-response","37","237698","0.0-37.0","38JBBYETQPWR45E6PNQZMKHQ4634ET","AMELYCC59JKB0","3G9UA71JVVGUCOKNEKUVXTI6SA17JG","","img/set1/S1.jpg","83","1","random","83","random,structured_incentive,structured_normal,structured_load","1,2,4,2,2,3","1,4,2,3","true","","",""
"null","","html-keyboard-response","38","238049","0.0-38.0","38JBBYETQPWR45E6PNQZMKHQ4634ET","AMELYCC59JKB0","3G9UA71JVVGUCOKNEKUVXTI6SA17JG","","<img src=""img/set1/S1.jpg"" width=""540"" height = ""360"" style=""border:16px solid orange"">","null","","","","","","","","","",""
"null","","html-keyboard-response","39","238249","0.0-39.0","38JBBYETQPWR45E6PNQZMKHQ4634ET","AMELYCC59JKB0","3G9UA71JVVGUCOKNEKUVXTI6SA17JG","","","null","","","","","","","","","",""
"745.2999999998137","","image-keyboard-response","40","238995","0.0-40.0","38JBBYETQPWR45E6PNQZMKHQ4634ET","AMELYCC59JKB0","3G9UA71JVVGUCOKNEKUVXTI6SA17JG","","img/set1/S2.jpg","68","2","random","68","random,structured_incentive,structured_normal,structured_load","1,2,4,2,2,3","1,4,2,3","true","","",""
"null","","html-keyboard-response","41","239346","0.0-41.0","38JBBYETQPWR45E6PNQZMKHQ4634ET","AMELYCC59JKB0","3G9UA71JVVGUCOKNEKUVXTI6SA17JG","","<img src=""img/set1/S2.jpg"" width=""540"" height = ""360"" style=""border:16px solid orange"">","null","","","","","","","","","",""
"null","","html-keyboard-response","42","239547","0.0-42.0","38JBBYETQPWR45E6PNQZMKHQ4634ET","AMELYCC59JKB0","3G9UA71JVVGUCOKNEKUVXTI6SA17JG","","","null","","","","","","","","","",""
"584.4000000003725","","image-keyboard-response","43","240132","0.0-43.0","38JBBYETQPWR45E6PNQZMKHQ4634ET","AMELYCC59JKB0","3G9UA71JVVGUCOKNEKUVXTI6SA17JG","","img/set1/S3.jpg","74","3","random","72","random,structured_incentive,structured_normal,structured_load","1,2,4,2,2,3","1,4,2,3","false","","",""
"null","","html-keyboard-response","44","240483","0.0-44.0","38JBBYETQPWR45E6PNQZMKHQ4634ET","AMELYCC59JKB0","3G9UA71JVVGUCOKNEKUVXTI6SA17JG","","<img src=""img/set1/S3.jpg"" width=""540"" height = ""360"">","null","","","","","","","","","",""
"null","","html-keyboard-response","45","240684","0.0-45.0","38JBBYETQPWR45E6PNQZMKHQ4634ET","AMELYCC59JKB0","3G9UA71JVVGUCOKNEKUVXTI6SA17JG","","","null","","","","","","","","","",""
"718.7999999998137","","image-keyboard-response","46","241403","0.0-46.0","38JBBYETQPWR45E6PNQZMKHQ4634ET","AMELYCC59JKB0","3G9UA71JVVGUCOKNEKUVXTI6SA17JG","","img/set1/S2.jpg","68","2","random","68","random,structured_incentive,structured_normal,structured_load","1,2,4,2,2,3","1,4,2,3","true","","",""
"null","","html-keyboard-response","47","241754","0.0-47.0","38JBBYETQPWR45E6PNQZMKHQ4634ET","AMELYCC59JKB0","3G9UA71JVVGUCOKNEKUVXTI6SA17JG","","<img src=""img/set1/S2.jpg"" width=""540"" height = ""360"" style=""border:16px solid orange"">","null","","","","","","","","","",""
"null","","html-keyboard-response","48","241955","0.0-48.0","38JBBYETQPWR45E6PNQZMKHQ4634ET","AMELYCC59JKB0","3G9UA71JVVGUCOKNEKUVXTI6SA17JG","","","null","","","","","","","","","",""
"585.2999999998137","","image-keyboard-response","49","242541","0.0-49.0","38JBBYETQPWR45E6PNQZMKHQ4634ET","AMELYCC59JKB0","3G9UA71JVVGUCOKNEKUVXTI6SA17JG","","img/set1/S3.jpg","74","3","random","72","random,structured_incentive,structured_normal,structured_load","1,2,4,2,2,3","1,4,2,3","false","","",""
"null","","html-keyboard-response","50","242893","0.0-50.0","38JBBYETQPWR45E6PNQZMKHQ4634ET","AMELYCC59JKB0","3G9UA71JVVGUCOKNEKUVXTI6SA17JG","","<img src=""img/set1/S3.jpg"" width=""540"" height = ""360"">","null","","","","","","","","","",""
"null","","html-keyboard-response","51","243093","0.0-51.0","38JBBYETQPWR45E6PNQZMKHQ4634ET","AMELYCC59JKB0","3G9UA71JVVGUCOKNEKUVXTI6SA17JG","","","null","","","","","","","","","",""
"755.5","","image-keyboard-response","52","243849","0.0-52.0","38JBBYETQPWR45E6PNQZMKHQ4634ET","AMELYCC59JKB0","3G9UA71JVVGUCOKNEKUVXTI6SA17JG","","img/set1/S4.jpg","74","4","random","74","random,structured_incentive,structured_normal,structured_load","1,2,4,2,2,3","1,4,2,3","true","","",""
"null","","html-keyboard-response","53","244200","0.0-53.0","38JBBYETQPWR45E6PNQZMKHQ4634ET","AMELYCC59JKB0","3G9UA71JVVGUCOKNEKUVXTI6SA17JG","","<img src=""img/set1/S4.jpg"" width=""540"" height = ""360"" style=""border:16px solid orange"">","null","","","","","","","","","",""
"null","","html-keyboard-response","54","244401","0.0-54.0","38JBBYETQPWR45E6PNQZMKHQ4634ET","AMELYCC59JKB0","3G9UA71JVVGUCOKNEKUVXTI6SA17JG","","","null","","","","","","","","","",""
"638.2999999998137","","image-keyboard-response","55","245040","0.0-55.0","38JBBYETQPWR45E6PNQZMKHQ4634ET","AMELYCC59JKB0","3G9UA71JVVGUCOKNEKUVXTI6SA17JG","","img/set1/S2.jpg","68","2","random","68","random,structured_incentive,structured_normal,structured_load","1,2,4,2,2,3","1,4,2,3","true","","",""
"null","","html-keyboard-response","56","245392","0.0-56.0","38JBBYETQPWR45E6PNQZMKHQ4634ET","AMELYCC59JKB0","3G9UA71JVVGUCOKNEKUVXTI6SA17JG","","<img src=""img/set1/S2.jpg"" width=""540"" height = ""360"" style=""border:16px solid orange"">","null","","","","","","","","","",""
"null","","html-keyboard-response","57","245593","0.0-57.0","38JBBYETQPWR45E6PNQZMKHQ4634ET","AMELYCC59JKB0","3G9UA71JVVGUCOKNEKUVXTI6SA17JG","","","null","","","","","","","","","",""
"560.2999999998137","","image-keyboard-response","58","246154","0.0-58.0","38JBBYETQPWR45E6PNQZMKHQ4634ET","AMELYCC59JKB0","3G9UA71JVVGUCOKNEKUVXTI6SA17JG","","img/set1/S3.jpg","72","3","random","72","random,structured_incentive,structured_normal,structured_load","1,2,4,2,2,3","1,4,2,3","true","","",""
"null","","html-keyboard-response","59","246505","0.0-59.0","38JBBYETQPWR45E6PNQZMKHQ4634ET","AMELYCC59JKB0","3G9UA71JVVGUCOKNEKUVXTI6SA17JG","","<img src=""img/set1/S3.jpg"" width=""540"" height = ""360"" style=""border:16px solid orange"">","null","","","","","","","","","",""
"null","","html-keyboard-response","60","246706","0.0-60.0","38JBBYETQPWR45E6PNQZMKHQ4634ET","AMELYCC59JKB0","3G9UA71JVVGUCOKNEKUVXTI6SA17JG","","","null","","","","","","","","","",""
"534.2000000001863","","image-keyboard-response","61","247241","0.0-61.0","38JBBYETQPWR45E6PNQZMKHQ4634ET","AMELYCC59JKB0","3G9UA71JVVGUCOKNEKUVXTI6SA17JG","","img/set1/S1.jpg","83","1","random","83","random,structured_incentive,structured_normal,structured_load","1,2,4,2,2,3","1,4,2,3","true","","",""
"null","","html-keyboard-response","62","247593","0.0-62.0","38JBBYETQPWR45E6PNQZMKHQ4634ET","AMELYCC59JKB0","3G9UA71JVVGUCOKNEKUVXTI6SA17JG","","<img src=""img/set1/S1.jpg"" width=""540"" height = ""360"" style=""border:16px solid orange"">","null","","","","","","","","","",""
"null","","html-keyboard-response","63","247794","0.0-63.0","38JBBYETQPWR45E6PNQZMKHQ4634ET","AMELYCC59JKB0","3G9UA71JVVGUCOKNEKUVXTI6SA17JG","","","null","","","","","","","","","",""
"640.2999999998137","","image-keyboard-response","64","248435","0.0-64.0","38JBBYETQPWR45E6PNQZMKHQ4634ET","AMELYCC59JKB0","3G9UA71JVVGUCOKNEKUVXTI6SA17JG","","img/set1/S3.jpg","72","3","random","72","random,structured_incentive,structured_normal,structured_load","1,2,4,2,2,3","1,4,2,3","true","","",""
"null","","html-keyboard-response","65","248787","0.0-65.0","38JBBYETQPWR45E6PNQZMKHQ4634ET","AMELYCC59JKB0","3G9UA71JVVGUCOKNEKUVXTI6SA17JG","","<img src=""img/set1/S3.jpg"" width=""540"" height = ""360"" style=""border:16px solid orange"">","null","","","","","","","","","",""
"null","","html-keyboard-response","66","248988","0.0-66.0","38JBBYETQPWR45E6PNQZMKHQ4634ET","AMELYCC59JKB0","3G9UA71JVVGUCOKNEKUVXTI6SA17JG","","","null","","","","","","","","","",""
"626.2999999998137","","image-keyboard-response","67","249614","0.0-67.0","38JBBYETQPWR45E6PNQZMKHQ4634ET","AMELYCC59JKB0","3G9UA71JVVGUCOKNEKUVXTI6SA17JG","","img/set1/S2.jpg","68","2","random","68","random,structured_incentive,structured_normal,structured_load","1,2,4,2,2,3","1,4,2,3","true","","",""
"null","","html-keyboard-response","68","249965","0.0-68.0","38JBBYETQPWR45E6PNQZMKHQ4634ET","AMELYCC59JKB0","3G9UA71JVVGUCOKNEKUVXTI6SA17JG","","<img src=""img/set1/S2.jpg"" width=""540"" height = ""360"" style=""border:16px solid orange"">","null","","","","","","","","","",""
"null","","html-keyboard-response","69","250166","0.0-69.0","38JBBYETQPWR45E6PNQZMKHQ4634ET","AMELYCC59JKB0","3G9UA71JVVGUCOKNEKUVXTI6SA17JG","","","null","","","","","","","","","",""
"548.8999999994412","","image-keyboard-response","70","250716","0.0-70.0","38JBBYETQPWR45E6PNQZMKHQ4634ET","AMELYCC59JKB0","3G9UA71JVVGUCOKNEKUVXTI6SA17JG","","img/set1/S4.jpg","74","4","random","74","random,structured_incentive,structured_normal,structured_load","1,2,4,2,2,3","1,4,2,3","true","","",""
"null","","html-keyboard-response","71","251068","0.0-71.0","38JBBYETQPWR45E6PNQZMKHQ4634ET","AMELYCC59JKB0","3G9UA71JVVGUCOKNEKUVXTI6SA17JG","","<img src=""img/set1/S4.jpg"" width=""540"" height = ""360"" style=""border:16px solid orange"">","null","","","","","","","","","",""
"null","","html-keyboard-response","72","251268","0.0-72.0","38JBBYETQPWR45E6PNQZMKHQ4634ET","AMELYCC59JKB0","3G9UA71JVVGUCOKNEKUVXTI6SA17JG","","","null","","","","","","","","","",""
"576","","image-keyboard-response","73","251844","0.0-73.0","38JBBYETQPWR45E6PNQZMKHQ4634ET","AMELYCC59JKB0","3G9UA71JVVGUCOKNEKUVXTI6SA17JG","","img/set1/S3.jpg","72","3","random","72","random,structured_incentive,structured_normal,structured_load","1,2,4,2,2,3","1,4,2,3","true","","",""
"null","","html-keyboard-response","74","252195","0.0-74.0","38JBBYETQPWR45E6PNQZMKHQ4634ET","AMELYCC59JKB0","3G9UA71JVVGUCOKNEKUVXTI6SA17JG","","<img src=""img/set1/S3.jpg"" width=""540"" height = ""360"" style=""border:16px solid orange"">","null","","","","","","","","","",""
"null","","html-keyboard-response","75","252396","0.0-75.0","38JBBYETQPWR45E6PNQZMKHQ4634ET","AMELYCC59JKB0","3G9UA71JVVGUCOKNEKUVXTI6SA17JG","","","null","","","","","","","","","",""
"468.5","","image-keyboard-response","76","252865","0.0-76.0","38JBBYETQPWR45E6PNQZMKHQ4634ET","AMELYCC59JKB0","3G9UA71JVVGUCOKNEKUVXTI6SA17JG","","img/set1/S3.jpg","72","3","random","72","random,structured_incentive,structured_normal,structured_load","1,2,4,2,2,3","1,4,2,3","true","","",""
"null","","html-keyboard-response","77","253217","0.0-77.0","38JBBYETQPWR45E6PNQZMKHQ4634ET","AMELYCC59JKB0","3G9UA71JVVGUCOKNEKUVXTI6SA17JG","","<img src=""img/set1/S3.jpg"" width=""540"" height = ""360"" style=""border:16px solid orange"">","null","","","","","","","","","",""
"null","","html-keyboard-response","78","253418","0.0-78.0","38JBBYETQPWR45E6PNQZMKHQ4634ET","AMELYCC59JKB0","3G9UA71JVVGUCOKNEKUVXTI6SA17JG","","","null","","","","","","","","","",""
"551.2999999998137","","image-keyboard-response","79","253969","0.0-79.0","38JBBYETQPWR45E6PNQZMKHQ4634ET","AMELYCC59JKB0","3G9UA71JVVGUCOKNEKUVXTI6SA17JG","","img/set1/S2.jpg","68","2","random","68","random,structured_incentive,structured_normal,structured_load","1,2,4,2,2,3","1,4,2,3","true","","",""
"null","","html-keyboard-response","80","254321","0.0-80.0","38JBBYETQPWR45E6PNQZMKHQ4634ET","AMELYCC59JKB0","3G9UA71JVVGUCOKNEKUVXTI6SA17JG","","<img src=""img/set1/S2.jpg"" width=""540"" height = ""360"" style=""border:16px solid orange"">","null","","","","","","","","","",""
"null","","html-keyboard-response","81","254521","0.0-81.0","38JBBYETQPWR45E6PNQZMKHQ4634ET","AMELYCC59JKB0","3G9UA71JVVGUCOKNEKUVXTI6SA17JG","","","null","","","","","","","","","",""
"572.7000000001863","","image-keyboard-response","82","255094","0.0-82.0","38JBBYETQPWR45E6PNQZMKHQ4634ET","AMELYCC59JKB0","3G9UA71JVVGUCOKNEKUVXTI6SA17JG","","img/set1/S3.jpg","72","3","random","72","random,structured_incentive,structured_normal,structured_load","1,2,4,2,2,3","1,4,2,3","true","","",""
"null","","html-keyboard-response","83","255445","0.0-83.0","38JBBYETQPWR45E6PNQZMKHQ4634ET","AMELYCC59JKB0","3G9UA71JVVGUCOKNEKUVXTI6SA17JG","","<img src=""img/set1/S3.jpg"" width=""540"" height = ""360"" style=""border:16px solid orange"">","null","","","","","","","","","",""
"null","","html-keyboard-response","84","255646","0.0-84.0","38JBBYETQPWR45E6PNQZMKHQ4634ET","AMELYCC59JKB0","3G9UA71JVVGUCOKNEKUVXTI6SA17JG","","","null","","","","","","","","","",""
"595.6999999992549","","image-keyboard-response","85","256242","0.0-85.0","38JBBYETQPWR45E6PNQZMKHQ4634ET","AMELYCC59JKB0","3G9UA71JVVGUCOKNEKUVXTI6SA17JG","","img/set1/S1.jpg","83","1","random","83","random,structured_incentive,structured_normal,structured_load","1,2,4,2,2,3","1,4,2,3","true","","",""
"null","","html-keyboard-response","86","256594","0.0-86.0","38JBBYETQPWR45E6PNQZMKHQ4634ET","AMELYCC59JKB0","3G9UA71JVVGUCOKNEKUVXTI6SA17JG","","<img src=""img/set1/S1.jpg"" width=""540"" height = ""360"" style=""border:16px solid orange"">","null","","","","","","","","","",""
"null","","html-keyboard-response","87","256795","0.0-87.0","38JBBYETQPWR45E6PNQZMKHQ4634ET","AMELYCC59JKB0","3G9UA71JVVGUCOKNEKUVXTI6SA17JG","","","null","","","","","","","","","",""
"367.90000000037253","","image-keyboard-response","88","257163","0.0-88.0","38JBBYETQPWR45E6PNQZMKHQ4634ET","AMELYCC59JKB0","3G9UA71JVVGUCOKNEKUVXTI6SA17JG","","img/set1/S1.jpg","83","1","random","83","random,structured_incentive,structured_normal,structured_load","1,2,4,2,2,3","1,4,2,3","true","","",""
"null","","html-keyboard-response","89","257515","0.0-89.0","38JBBYETQPWR45E6PNQZMKHQ4634ET","AMELYCC59JKB0","3G9UA71JVVGUCOKNEKUVXTI6SA17JG","","<img src=""img/set1/S1.jpg"" width=""540"" height = ""360"" style=""border:16px solid orange"">","null","","","","","","","","","",""
"null","","html-keyboard-response","90","257716","0.0-90.0","38JBBYETQPWR45E6PNQZMKHQ4634ET","AMELYCC59JKB0","3G9UA71JVVGUCOKNEKUVXTI6SA17JG","","","null","","","","","","","","","",""
"508.40000000037253","","image-keyboard-response","91","258225","0.0-91.0","38JBBYETQPWR45E6PNQZMKHQ4634ET","AMELYCC59JKB0","3G9UA71JVVGUCOKNEKUVXTI6SA17JG","","img/set1/S4.jpg","74","4","random","74","random,structured_incentive,structured_normal,structured_load","1,2,4,2,2,3","1,4,2,3","true","","",""
"null","","html-keyboard-response","92","258576","0.0-92.0","38JBBYETQPWR45E6PNQZMKHQ4634ET","AMELYCC59JKB0","3G9UA71JVVGUCOKNEKUVXTI6SA17JG","","<img src=""img/set1/S4.jpg"" width=""540"" height = ""360"" style=""border:16px solid orange"">","null","","","","","","","","","",""
"null","","html-keyboard-response","93","258777","0.0-93.0","38JBBYETQPWR45E6PNQZMKHQ4634ET","AMELYCC59JKB0","3G9UA71JVVGUCOKNEKUVXTI6SA17JG","","","null","","","","","","","","","",""
"583","","image-keyboard-response","94","259360","0.0-94.0","38JBBYETQPWR45E6PNQZMKHQ4634ET","AMELYCC59JKB0","3G9UA71JVVGUCOKNEKUVXTI6SA17JG","","img/set1/S2.jpg","68","2","random","68","random,structured_incentive,structured_normal,structured_load","1,2,4,2,2,3","1,4,2,3","true","","",""
"null","","html-keyboard-response","95","259712","0.0-95.0","38JBBYETQPWR45E6PNQZMKHQ4634ET","AMELYCC59JKB0","3G9UA71JVVGUCOKNEKUVXTI6SA17JG","","<img src=""img/set1/S2.jpg"" width=""540"" height = ""360"" style=""border:16px solid orange"">","null","","","","","","","","","",""
"null","","html-keyboard-response","96","259912","0.0-96.0","38JBBYETQPWR45E6PNQZMKHQ4634ET","AMELYCC59JKB0","3G9UA71JVVGUCOKNEKUVXTI6SA17JG","","","null","","","","","","","","","",""
"675.4000000003725","","image-keyboard-response","97","260588","0.0-97.0","38JBBYETQPWR45E6PNQZMKHQ4634ET","AMELYCC59JKB0","3G9UA71JVVGUCOKNEKUVXTI6SA17JG","","img/set1/S1.jpg","83","1","random","83","random,structured_incentive,structured_normal,structured_load","1,2,4,2,2,3","1,4,2,3","true","","",""
"null","","html-keyboard-response","98","260939","0.0-98.0","38JBBYETQPWR45E6PNQZMKHQ4634ET","AMELYCC59JKB0","3G9UA71JVVGUCOKNEKUVXTI6SA17JG","","<img src=""img/set1/S1.jpg"" width=""540"" height = ""360"" style=""border:16px solid orange"">","null","","","","","","","","","",""
"null","","html-keyboard-response","99","261140","0.0-99.0","38JBBYETQPWR45E6PNQZMKHQ4634ET","AMELYCC59JKB0","3G9UA71JVVGUCOKNEKUVXTI6SA17JG","","","null","","","","","","","","","",""
"718","","image-keyboard-response","100","261858","0.0-100.0","38JBBYETQPWR45E6PNQZMKHQ4634ET","AMELYCC59JKB0","3G9UA71JVVGUCOKNEKUVXTI6SA17JG","","img/set1/S3.jpg","74","3","random","72","random,structured_incentive,structured_normal,structured_load","1,2,4,2,2,3","1,4,2,3","false","","",""
"null","","html-keyboard-response","101","262210","0.0-101.0","38JBBYETQPWR45E6PNQZMKHQ4634ET","AMELYCC59JKB0","3G9UA71JVVGUCOKNEKUVXTI6SA17JG","","<img src=""img/set1/S3.jpg"" width=""540"" height = ""360"">","null","","","","","","","","","",""
"null","","html-keyboard-response","102","262411","0.0-102.0","38JBBYETQPWR45E6PNQZMKHQ4634ET","AMELYCC59JKB0","3G9UA71JVVGUCOKNEKUVXTI6SA17JG","","","null","","","","","","","","","",""
"755","","image-keyboard-response","103","263167","0.0-103.0","38JBBYETQPWR45E6PNQZMKHQ4634ET","AMELYCC59JKB0","3G9UA71JVVGUCOKNEKUVXTI6SA17JG","","img/set1/S4.jpg","74","4","random","74","random,structured_incentive,structured_normal,structured_load","1,2,4,2,2,3","1,4,2,3","true","","",""
"null","","html-keyboard-response","104","263518","0.0-104.0","38JBBYETQPWR45E6PNQZMKHQ4634ET","AMELYCC59JKB0","3G9UA71JVVGUCOKNEKUVXTI6SA17JG","","<img src=""img/set1/S4.jpg"" width=""540"" height = ""360"" style=""border:16px solid orange"">","null","","","","","","","","","",""
"null","","html-keyboard-response","105","263726","0.0-105.0","38JBBYETQPWR45E6PNQZMKHQ4634ET","AMELYCC59JKB0","3G9UA71JVVGUCOKNEKUVXTI6SA17JG","","","null","","","","","","","","","",""
"508.90000000037253","","image-keyboard-response","106","264236","0.0-106.0","38JBBYETQPWR45E6PNQZMKHQ4634ET","AMELYCC59JKB0","3G9UA71JVVGUCOKNEKUVXTI6SA17JG","","img/set1/S4.jpg","74","4","random","74","random,structured_incentive,structured_normal,structured_load","1,2,4,2,2,3","1,4,2,3","true","","",""
"null","","html-keyboard-response","107","264587","0.0-107.0","38JBBYETQPWR45E6PNQZMKHQ4634ET","AMELYCC59JKB0","3G9UA71JVVGUCOKNEKUVXTI6SA17JG","","<img src=""img/set1/S4.jpg"" width=""540"" height = ""360"" style=""border:16px solid orange"">","null","","","","","","","","","",""
"null","","html-keyboard-response","108","264789","0.0-108.0","38JBBYETQPWR45E6PNQZMKHQ4634ET","AMELYCC59JKB0","3G9UA71JVVGUCOKNEKUVXTI6SA17JG","","","null","","","","","","","","","",""
"621.7999999998137","","image-keyboard-response","109","265411","0.0-109.0","38JBBYETQPWR45E6PNQZMKHQ4634ET","AMELYCC59JKB0","3G9UA71JVVGUCOKNEKUVXTI6SA17JG","","img/set1/S1.jpg","83","1","random","83","random,structured_incentive,structured_normal,structured_load","1,2,4,2,2,3","1,4,2,3","true","","",""
"null","","html-keyboard-response","110","265762","0.0-110.0","38JBBYETQPWR45E6PNQZMKHQ4634ET","AMELYCC59JKB0","3G9UA71JVVGUCOKNEKUVXTI6SA17JG","","<img src=""img/set1/S1.jpg"" width=""540"" height = ""360"" style=""border:16px solid orange"">","null","","","","","","","","","",""
"null","","html-keyboard-response","111","265963","0.0-111.0","38JBBYETQPWR45E6PNQZMKHQ4634ET","AMELYCC59JKB0","3G9UA71JVVGUCOKNEKUVXTI6SA17JG","","","null","","","","","","","","","",""
"623.7999999998137","","image-keyboard-response","112","266587","0.0-112.0","38JBBYETQPWR45E6PNQZMKHQ4634ET","AMELYCC59JKB0","3G9UA71JVVGUCOKNEKUVXTI6SA17JG","","img/set1/S2.jpg","68","2","random","68","random,structured_incentive,structured_normal,structured_load","1,2,4,2,2,3","1,4,2,3","true","","",""
"null","","html-keyboard-response","113","266938","0.0-113.0","38JBBYETQPWR45E6PNQZMKHQ4634ET","AMELYCC59JKB0","3G9UA71JVVGUCOKNEKUVXTI6SA17JG","","<img src=""img/set1/S2.jpg"" width=""540"" height = ""360"" style=""border:16px solid orange"">","null","","","","","","","","","",""
"null","","html-keyboard-response","114","267140","0.0-114.0","38JBBYETQPWR45E6PNQZMKHQ4634ET","AMELYCC59JKB0","3G9UA71JVVGUCOKNEKUVXTI6SA17JG","","","null","","","","","","","","","",""
"483.69999999925494","","image-keyboard-response","115","267624","0.0-115.0","38JBBYETQPWR45E6PNQZMKHQ4634ET","AMELYCC59JKB0","3G9UA71JVVGUCOKNEKUVXTI6SA17JG","","img/set1/S2.jpg","68","2","random","68","random,structured_incentive,structured_normal,structured_load","1,2,4,2,2,3","1,4,2,3","true","","",""
"null","","html-keyboard-response","116","267975","0.0-116.0","38JBBYETQPWR45E6PNQZMKHQ4634ET","AMELYCC59JKB0","3G9UA71JVVGUCOKNEKUVXTI6SA17JG","","<img src=""img/set1/S2.jpg"" width=""540"" height = ""360"" style=""border:16px solid orange"">","null","","","","","","","","","",""
"null","","html-keyboard-response","117","268176","0.0-117.0","38JBBYETQPWR45E6PNQZMKHQ4634ET","AMELYCC59JKB0","3G9UA71JVVGUCOKNEKUVXTI6SA17JG","","","null","","","","","","","","","",""
"431.8999999994412","","image-keyboard-response","118","268609","0.0-118.0","38JBBYETQPWR45E6PNQZMKHQ4634ET","AMELYCC59JKB0","3G9UA71JVVGUCOKNEKUVXTI6SA17JG","","img/set1/S2.jpg","68","2","random","68","random,structured_incentive,structured_normal,structured_load","1,2,4,2,2,3","1,4,2,3","true","","",""
"null","","html-keyboard-response","119","268960","0.0-119.0","38JBBYETQPWR45E6PNQZMKHQ4634ET","AMELYCC59JKB0","3G9UA71JVVGUCOKNEKUVXTI6SA17JG","","<img src=""img/set1/S2.jpg"" width=""540"" height = ""360"" style=""border:16px solid orange"">","null","","","","","","","","","",""
"null","","html-keyboard-response","120","269161","0.0-120.0","38JBBYETQPWR45E6PNQZMKHQ4634ET","AMELYCC59JKB0","3G9UA71JVVGUCOKNEKUVXTI6SA17JG","","","null","","","","","","","","","",""
"341.59999999962747","","image-keyboard-response","121","269503","0.0-121.0","38JBBYETQPWR45E6PNQZMKHQ4634ET","AMELYCC59JKB0","3G9UA71JVVGUCOKNEKUVXTI6SA17JG","","img/set1/S2.jpg","68","2","random","68","random,structured_incentive,structured_normal,structured_load","1,2,4,2,2,3","1,4,2,3","true","","",""
"null","","html-keyboard-response","122","269854","0.0-122.0","38JBBYETQPWR45E6PNQZMKHQ4634ET","AMELYCC59JKB0","3G9UA71JVVGUCOKNEKUVXTI6SA17JG","","<img src=""img/set1/S2.jpg"" width=""540"" height = ""360"" style=""border:16px solid orange"">","null","","","","","","","","","",""
"null","","html-keyboard-response","123","270055","0.0-123.0","38JBBYETQPWR45E6PNQZMKHQ4634ET","AMELYCC59JKB0","3G9UA71JVVGUCOKNEKUVXTI6SA17JG","","","null","","","","","","","","","",""
"304.09999999962747","","image-keyboard-response","124","270360","0.0-124.0","38JBBYETQPWR45E6PNQZMKHQ4634ET","AMELYCC59JKB0","3G9UA71JVVGUCOKNEKUVXTI6SA17JG","","img/set1/S2.jpg","68","2","random","68","random,structured_incentive,structured_normal,structured_load","1,2,4,2,2,3","1,4,2,3","true","","",""
"null","","html-keyboard-response","125","270712","0.0-125.0","38JBBYETQPWR45E6PNQZMKHQ4634ET","AMELYCC59JKB0","3G9UA71JVVGUCOKNEKUVXTI6SA17JG","","<img src=""img/set1/S2.jpg"" width=""540"" height = ""360"" style=""border:16px solid orange"">","null","","","","","","","","","",""
"null","","html-keyboard-response","126","270913","0.0-126.0","38JBBYETQPWR45E6PNQZMKHQ4634ET","AMELYCC59JKB0","3G9UA71JVVGUCOKNEKUVXTI6SA17JG","","","null","","","","","","","","","",""
"695.2999999998137","","image-keyboard-response","127","271609","0.0-127.0","38JBBYETQPWR45E6PNQZMKHQ4634ET","AMELYCC59JKB0","3G9UA71JVVGUCOKNEKUVXTI6SA17JG","","img/set1/S4.jpg","74","4","random","74","random,structured_incentive,structured_normal,structured_load","1,2,4,2,2,3","1,4,2,3","true","","",""
"null","","html-keyboard-response","128","271960","0.0-128.0","38JBBYETQPWR45E6PNQZMKHQ4634ET","AMELYCC59JKB0","3G9UA71JVVGUCOKNEKUVXTI6SA17JG","","<img src=""img/set1/S4.jpg"" width=""540"" height = ""360"" style=""border:16px solid orange"">","null","","","","","","","","","",""
"null","","html-keyboard-response","129","272161","0.0-129.0","38JBBYETQPWR45E6PNQZMKHQ4634ET","AMELYCC59JKB0","3G9UA71JVVGUCOKNEKUVXTI6SA17JG","","","null","","","","","","","","","",""
"403.90000000037253","","image-keyboard-response","130","272566","0.0-130.0","38JBBYETQPWR45E6PNQZMKHQ4634ET","AMELYCC59JKB0","3G9UA71JVVGUCOKNEKUVXTI6SA17JG","","img/set1/S3.jpg","72","3","random","72","random,structured_incentive,structured_normal,structured_load","1,2,4,2,2,3","1,4,2,3","true","","",""
"null","","html-keyboard-response","131","272917","0.0-131.0","38JBBYETQPWR45E6PNQZMKHQ4634ET","AMELYCC59JKB0","3G9UA71JVVGUCOKNEKUVXTI6SA17JG","","<img src=""img/set1/S3.jpg"" width=""540"" height = ""360"" style=""border:16px solid orange"">","null","","","","","","","","","",""
"null","","html-keyboard-response","132","273118","0.0-132.0","38JBBYETQPWR45E6PNQZMKHQ4634ET","AMELYCC59JKB0","3G9UA71JVVGUCOKNEKUVXTI6SA17JG","","","null","","","","","","","","","",""
"642.3999999994412","","image-keyboard-response","133","273761","0.0-133.0","38JBBYETQPWR45E6PNQZMKHQ4634ET","AMELYCC59JKB0","3G9UA71JVVGUCOKNEKUVXTI6SA17JG","","img/set1/S1.jpg","83","1","random","83","random,structured_incentive,structured_normal,structured_load","1,2,4,2,2,3","1,4,2,3","true","","",""
"null","","html-keyboard-response","134","274113","0.0-134.0","38JBBYETQPWR45E6PNQZMKHQ4634ET","AMELYCC59JKB0","3G9UA71JVVGUCOKNEKUVXTI6SA17JG","","<img src=""img/set1/S1.jpg"" width=""540"" height = ""360"" style=""border:16px solid orange"">","null","","","","","","","","","",""
"null","","html-keyboard-response","135","274314","0.0-135.0","38JBBYETQPWR45E6PNQZMKHQ4634ET","AMELYCC59JKB0","3G9UA71JVVGUCOKNEKUVXTI6SA17JG","","","null","","","","","","","","","",""
"511.70000000018626","","image-keyboard-response","136","274826","0.0-136.0","38JBBYETQPWR45E6PNQZMKHQ4634ET","AMELYCC59JKB0","3G9UA71JVVGUCOKNEKUVXTI6SA17JG","","img/set1/S2.jpg","68","2","random","68","random,structured_incentive,structured_normal,structured_load","1,2,4,2,2,3","1,4,2,3","true","","",""
"null","","html-keyboard-response","137","275178","0.0-137.0","38JBBYETQPWR45E6PNQZMKHQ4634ET","AMELYCC59JKB0","3G9UA71JVVGUCOKNEKUVXTI6SA17JG","","<img src=""img/set1/S2.jpg"" width=""540"" height = ""360"" style=""border:16px solid orange"">","null","","","","","","","","","",""
"null","","html-keyboard-response","138","275378","0.0-138.0","38JBBYETQPWR45E6PNQZMKHQ4634ET","AMELYCC59JKB0","3G9UA71JVVGUCOKNEKUVXTI6SA17JG","","","null","","","","","","","","","",""
"523.9000000003725","","image-keyboard-response","139","275903","0.0-139.0","38JBBYETQPWR45E6PNQZMKHQ4634ET","AMELYCC59JKB0","3G9UA71JVVGUCOKNEKUVXTI6SA17JG","","img/set1/S2.jpg","68","2","random","68","random,structured_incentive,structured_normal,structured_load","1,2,4,2,2,3","1,4,2,3","true","","",""
"null","","html-keyboard-response","140","276254","0.0-140.0","38JBBYETQPWR45E6PNQZMKHQ4634ET","AMELYCC59JKB0","3G9UA71JVVGUCOKNEKUVXTI6SA17JG","","<img src=""img/set1/S2.jpg"" width=""540"" height = ""360"" style=""border:16px solid orange"">","null","","","","","","","","","",""
"null","","html-keyboard-response","141","276456","0.0-141.0","38JBBYETQPWR45E6PNQZMKHQ4634ET","AMELYCC59JKB0","3G9UA71JVVGUCOKNEKUVXTI6SA17JG","","","null","","","","","","","","","",""
"327.40000000037253","","image-keyboard-response","142","276784","0.0-142.0","38JBBYETQPWR45E6PNQZMKHQ4634ET","AMELYCC59JKB0","3G9UA71JVVGUCOKNEKUVXTI6SA17JG","","img/set1/S2.jpg","68","2","random","68","random,structured_incentive,structured_normal,structured_load","1,2,4,2,2,3","1,4,2,3","true","","",""
"null","","html-keyboard-response","143","277135","0.0-143.0","38JBBYETQPWR45E6PNQZMKHQ4634ET","AMELYCC59JKB0","3G9UA71JVVGUCOKNEKUVXTI6SA17JG","","<img src=""img/set1/S2.jpg"" width=""540"" height = ""360"" style=""border:16px solid orange"">","null","","","","","","","","","",""
"null","","html-keyboard-response","144","277336","0.0-144.0","38JBBYETQPWR45E6PNQZMKHQ4634ET","AMELYCC59JKB0","3G9UA71JVVGUCOKNEKUVXTI6SA17JG","","","null","","","","","","","","","",""
"329.40000000037253","","image-keyboard-response","145","277666","0.0-145.0","38JBBYETQPWR45E6PNQZMKHQ4634ET","AMELYCC59JKB0","3G9UA71JVVGUCOKNEKUVXTI6SA17JG","","img/set1/S2.jpg","68","2","random","68","random,structured_incentive,structured_normal,structured_load","1,2,4,2,2,3","1,4,2,3","true","","",""
"null","","html-keyboard-response","146","278018","0.0-146.0","38JBBYETQPWR45E6PNQZMKHQ4634ET","AMELYCC59JKB0","3G9UA71JVVGUCOKNEKUVXTI6SA17JG","","<img src=""img/set1/S2.jpg"" width=""540"" height = ""360"" style=""border:16px solid orange"">","null","","","","","","","","","",""
"null","","html-keyboard-response","147","278219","0.0-147.0","38JBBYETQPWR45E6PNQZMKHQ4634ET","AMELYCC59JKB0","3G9UA71JVVGUCOKNEKUVXTI6SA17JG","","","null","","","","","","","","","",""
"699.6999999992549","","image-keyboard-response","148","278919","0.0-148.0","38JBBYETQPWR45E6PNQZMKHQ4634ET","AMELYCC59JKB0","3G9UA71JVVGUCOKNEKUVXTI6SA17JG","","img/set1/S3.jpg","74","3","random","72","random,structured_incentive,structured_normal,structured_load","1,2,4,2,2,3","1,4,2,3","false","","",""
"null","","html-keyboard-response","149","279269","0.0-149.0","38JBBYETQPWR45E6PNQZMKHQ4634ET","AMELYCC59JKB0","3G9UA71JVVGUCOKNEKUVXTI6SA17JG","","<img src=""img/set1/S3.jpg"" width=""540"" height = ""360"">","null","","","","","","","","","",""
"null","","html-keyboard-response","150","279471","0.0-150.0","38JBBYETQPWR45E6PNQZMKHQ4634ET","AMELYCC59JKB0","3G9UA71JVVGUCOKNEKUVXTI6SA17JG","","","null","","","","","","","","","",""
"546.7000000001863","","image-keyboard-response","151","280018","0.0-151.0","38JBBYETQPWR45E6PNQZMKHQ4634ET","AMELYCC59JKB0","3G9UA71JVVGUCOKNEKUVXTI6SA17JG","","img/set1/S1.jpg","83","1","random","83","random,structured_incentive,structured_normal,structured_load","1,2,4,2,2,3","1,4,2,3","true","","",""
"null","","html-keyboard-response","152","280368","0.0-152.0","38JBBYETQPWR45E6PNQZMKHQ4634ET","AMELYCC59JKB0","3G9UA71JVVGUCOKNEKUVXTI6SA17JG","","<img src=""img/set1/S1.jpg"" width=""540"" height = ""360"" style=""border:16px solid orange"">","null","","","","","","","","","",""
"null","","html-keyboard-response","153","280570","0.0-153.0","38JBBYETQPWR45E6PNQZMKHQ4634ET","AMELYCC59JKB0","3G9UA71JVVGUCOKNEKUVXTI6SA17JG","","","null","","","","","","","","","",""
"464.3999999994412","","image-keyboard-response","154","281035","0.0-154.0","38JBBYETQPWR45E6PNQZMKHQ4634ET","AMELYCC59JKB0","3G9UA71JVVGUCOKNEKUVXTI6SA17JG","","img/set1/S1.jpg","83","1","random","83","random,structured_incentive,structured_normal,structured_load","1,2,4,2,2,3","1,4,2,3","true","","",""
"null","","html-keyboard-response","155","281386","0.0-155.0","38JBBYETQPWR45E6PNQZMKHQ4634ET","AMELYCC59JKB0","3G9UA71JVVGUCOKNEKUVXTI6SA17JG","","<img src=""img/set1/S1.jpg"" width=""540"" height = ""360"" style=""border:16px solid orange"">","null","","","","","","","","","",""
"null","","html-keyboard-response","156","281588","0.0-156.0","38JBBYETQPWR45E6PNQZMKHQ4634ET","AMELYCC59JKB0","3G9UA71JVVGUCOKNEKUVXTI6SA17JG","","","null","","","","","","","","","",""
"891.7999999998137","","image-keyboard-response","157","282480","0.0-157.0","38JBBYETQPWR45E6PNQZMKHQ4634ET","AMELYCC59JKB0","3G9UA71JVVGUCOKNEKUVXTI6SA17JG","","img/set1/S3.jpg","72","3","random","72","random,structured_incentive,structured_normal,structured_load","1,2,4,2,2,3","1,4,2,3","true","","",""
"null","","html-keyboard-response","158","282831","0.0-158.0","38JBBYETQPWR45E6PNQZMKHQ4634ET","AMELYCC59JKB0","3G9UA71JVVGUCOKNEKUVXTI6SA17JG","","<img src=""img/set1/S3.jpg"" width=""540"" height = ""360"" style=""border:16px solid orange"">","null","","","","","","","","","",""
"null","","html-keyboard-response","159","283032","0.0-159.0","38JBBYETQPWR45E6PNQZMKHQ4634ET","AMELYCC59JKB0","3G9UA71JVVGUCOKNEKUVXTI6SA17JG","","","null","","","","","","","","","",""
"355.90000000037253","","image-keyboard-response","160","283389","0.0-160.0","38JBBYETQPWR45E6PNQZMKHQ4634ET","AMELYCC59JKB0","3G9UA71JVVGUCOKNEKUVXTI6SA17JG","","img/set1/S3.jpg","72","3","random","72","random,structured_incentive,structured_normal,structured_load","1,2,4,2,2,3","1,4,2,3","true","","",""
"null","","html-keyboard-response","161","283740","0.0-161.0","38JBBYETQPWR45E6PNQZMKHQ4634ET","AMELYCC59JKB0","3G9UA71JVVGUCOKNEKUVXTI6SA17JG","","<img src=""img/set1/S3.jpg"" width=""540"" height = ""360"" style=""border:16px solid orange"">","null","","","","","","","","","",""
"null","","html-keyboard-response","162","283941","0.0-162.0","38JBBYETQPWR45E6PNQZMKHQ4634ET","AMELYCC59JKB0","3G9UA71JVVGUCOKNEKUVXTI6SA17JG","","","null","","","","","","","","","",""
"519.2000000001863","","image-keyboard-response","163","284461","0.0-163.0","38JBBYETQPWR45E6PNQZMKHQ4634ET","AMELYCC59JKB0","3G9UA71JVVGUCOKNEKUVXTI6SA17JG","","img/set1/S2.jpg","68","2","random","68","random,structured_incentive,structured_normal,structured_load","1,2,4,2,2,3","1,4,2,3","true","","",""
"null","","html-keyboard-response","164","284812","0.0-164.0","38JBBYETQPWR45E6PNQZMKHQ4634ET","AMELYCC59JKB0","3G9UA71JVVGUCOKNEKUVXTI6SA17JG","","<img src=""img/set1/S2.jpg"" width=""540"" height = ""360"" style=""border:16px solid orange"">","null","","","","","","","","","",""
"null","","html-keyboard-response","165","285013","0.0-165.0","38JBBYETQPWR45E6PNQZMKHQ4634ET","AMELYCC59JKB0","3G9UA71JVVGUCOKNEKUVXTI6SA17JG","","","null","","","","","","","","","",""
"448.5","","image-keyboard-response","166","285462","0.0-166.0","38JBBYETQPWR45E6PNQZMKHQ4634ET","AMELYCC59JKB0","3G9UA71JVVGUCOKNEKUVXTI6SA17JG","","img/set1/S2.jpg","68","2","random","68","random,structured_incentive,structured_normal,structured_load","1,2,4,2,2,3","1,4,2,3","true","","",""
"null","","html-keyboard-response","167","285813","0.0-167.0","38JBBYETQPWR45E6PNQZMKHQ4634ET","AMELYCC59JKB0","3G9UA71JVVGUCOKNEKUVXTI6SA17JG","","<img src=""img/set1/S2.jpg"" width=""540"" height = ""360"" style=""border:16px solid orange"">","null","","","","","","","","","",""
"null","","html-keyboard-response","168","286014","0.0-168.0","38JBBYETQPWR45E6PNQZMKHQ4634ET","AMELYCC59JKB0","3G9UA71JVVGUCOKNEKUVXTI6SA17JG","","","null","","","","","","","","","",""
"429.20000000018626","","image-keyboard-response","169","286444","0.0-169.0","38JBBYETQPWR45E6PNQZMKHQ4634ET","AMELYCC59JKB0","3G9UA71JVVGUCOKNEKUVXTI6SA17JG","","img/set1/S3.jpg","72","3","random","72","random,structured_incentive,structured_normal,structured_load","1,2,4,2,2,3","1,4,2,3","true","","",""
"null","","html-keyboard-response","170","286795","0.0-170.0","38JBBYETQPWR45E6PNQZMKHQ4634ET","AMELYCC59JKB0","3G9UA71JVVGUCOKNEKUVXTI6SA17JG","","<img src=""img/set1/S3.jpg"" width=""540"" height = ""360"" style=""border:16px solid orange"">","null","","","","","","","","","",""
"null","","html-keyboard-response","171","286996","0.0-171.0","38JBBYETQPWR45E6PNQZMKHQ4634ET","AMELYCC59JKB0","3G9UA71JVVGUCOKNEKUVXTI6SA17JG","","","null","","","","","","","","","",""
"471.20000000018626","","image-keyboard-response","172","287468","0.0-172.0","38JBBYETQPWR45E6PNQZMKHQ4634ET","AMELYCC59JKB0","3G9UA71JVVGUCOKNEKUVXTI6SA17JG","","img/set1/S2.jpg","68","2","random","68","random,structured_incentive,structured_normal,structured_load","1,2,4,2,2,3","1,4,2,3","true","","",""
"null","","html-keyboard-response","173","287819","0.0-173.0","38JBBYETQPWR45E6PNQZMKHQ4634ET","AMELYCC59JKB0","3G9UA71JVVGUCOKNEKUVXTI6SA17JG","","<img src=""img/set1/S2.jpg"" width=""540"" height = ""360"" style=""border:16px solid orange"">","null","","","","","","","","","",""
"null","","html-keyboard-response","174","288020","0.0-174.0","38JBBYETQPWR45E6PNQZMKHQ4634ET","AMELYCC59JKB0","3G9UA71JVVGUCOKNEKUVXTI6SA17JG","","","null","","","","","","","","","",""
"344.3999999994412","","image-keyboard-response","175","288365","0.0-175.0","38JBBYETQPWR45E6PNQZMKHQ4634ET","AMELYCC59JKB0","3G9UA71JVVGUCOKNEKUVXTI6SA17JG","","img/set1/S2.jpg","68","2","random","68","random,structured_incentive,structured_normal,structured_load","1,2,4,2,2,3","1,4,2,3","true","","",""
"null","","html-keyboard-response","176","288716","0.0-176.0","38JBBYETQPWR45E6PNQZMKHQ4634ET","AMELYCC59JKB0","3G9UA71JVVGUCOKNEKUVXTI6SA17JG","","<img src=""img/set1/S2.jpg"" width=""540"" height = ""360"" style=""border:16px solid orange"">","null","","","","","","","","","",""
"null","","html-keyboard-response","177","288917","0.0-177.0","38JBBYETQPWR45E6PNQZMKHQ4634ET","AMELYCC59JKB0","3G9UA71JVVGUCOKNEKUVXTI6SA17JG","","","null","","","","","","","","","",""
"593.2999999998137","","image-keyboard-response","178","289511","0.0-178.0","38JBBYETQPWR45E6PNQZMKHQ4634ET","AMELYCC59JKB0","3G9UA71JVVGUCOKNEKUVXTI6SA17JG","","img/set1/S4.jpg","74","4","random","74","random,structured_incentive,structured_normal,structured_load","1,2,4,2,2,3","1,4,2,3","true","","",""
"null","","html-keyboard-response","179","289862","0.0-179.0","38JBBYETQPWR45E6PNQZMKHQ4634ET","AMELYCC59JKB0","3G9UA71JVVGUCOKNEKUVXTI6SA17JG","","<img src=""img/set1/S4.jpg"" width=""540"" height = ""360"" style=""border:16px solid orange"">","null","","","","","","","","","",""
"null","","html-keyboard-response","180","290063","0.0-180.0","38JBBYETQPWR45E6PNQZMKHQ4634ET","AMELYCC59JKB0","3G9UA71JVVGUCOKNEKUVXTI6SA17JG","","","null","","","","","","","","","",""
"617.9000000003725","","image-keyboard-response","181","290682","0.0-181.0","38JBBYETQPWR45E6PNQZMKHQ4634ET","AMELYCC59JKB0","3G9UA71JVVGUCOKNEKUVXTI6SA17JG","","img/set1/S1.jpg","83","1","random","83","random,structured_incentive,structured_normal,structured_load","1,2,4,2,2,3","1,4,2,3","true","","",""
"null","","html-keyboard-response","182","291033","0.0-182.0","38JBBYETQPWR45E6PNQZMKHQ4634ET","AMELYCC59JKB0","3G9UA71JVVGUCOKNEKUVXTI6SA17JG","","<img src=""img/set1/S1.jpg"" width=""540"" height = ""360"" style=""border:16px solid orange"">","null","","","","","","","","","",""
"null","","html-keyboard-response","183","291234","0.0-183.0","38JBBYETQPWR45E6PNQZMKHQ4634ET","AMELYCC59JKB0","3G9UA71JVVGUCOKNEKUVXTI6SA17JG","","","null","","","","","","","","","",""
"457.19999999925494","","image-keyboard-response","184","291692","0.0-184.0","38JBBYETQPWR45E6PNQZMKHQ4634ET","AMELYCC59JKB0","3G9UA71JVVGUCOKNEKUVXTI6SA17JG","","img/set1/S4.jpg","74","4","random","74","random,structured_incentive,structured_normal,structured_load","1,2,4,2,2,3","1,4,2,3","true","","",""
"null","","html-keyboard-response","185","292043","0.0-185.0","38JBBYETQPWR45E6PNQZMKHQ4634ET","AMELYCC59JKB0","3G9UA71JVVGUCOKNEKUVXTI6SA17JG","","<img src=""img/set1/S4.jpg"" width=""540"" height = ""360"" style=""border:16px solid orange"">","null","","","","","","","","","",""
"null","","html-keyboard-response","186","292244","0.0-186.0","38JBBYETQPWR45E6PNQZMKHQ4634ET","AMELYCC59JKB0","3G9UA71JVVGUCOKNEKUVXTI6SA17JG","","","null","","","","","","","","","",""
"428.5","","image-keyboard-response","187","292673","0.0-187.0","38JBBYETQPWR45E6PNQZMKHQ4634ET","AMELYCC59JKB0","3G9UA71JVVGUCOKNEKUVXTI6SA17JG","","img/set1/S3.jpg","72","3","random","72","random,structured_incentive,structured_normal,structured_load","1,2,4,2,2,3","1,4,2,3","true","","",""
"null","","html-keyboard-response","188","293023","0.0-188.0","38JBBYETQPWR45E6PNQZMKHQ4634ET","AMELYCC59JKB0","3G9UA71JVVGUCOKNEKUVXTI6SA17JG","","<img src=""img/set1/S3.jpg"" width=""540"" height = ""360"" style=""border:16px solid orange"">","null","","","","","","","","","",""
"null","","html-keyboard-response","189","293224","0.0-189.0","38JBBYETQPWR45E6PNQZMKHQ4634ET","AMELYCC59JKB0","3G9UA71JVVGUCOKNEKUVXTI6SA17JG","","","null","","","","","","","","","",""
"806.2000000001863","","image-keyboard-response","190","294031","0.0-190.0","38JBBYETQPWR45E6PNQZMKHQ4634ET","AMELYCC59JKB0","3G9UA71JVVGUCOKNEKUVXTI6SA17JG","","img/set1/S1.jpg","83","1","random","83","random,structured_incentive,structured_normal,structured_load","1,2,4,2,2,3","1,4,2,3","true","","",""
"null","","html-keyboard-response","191","294382","0.0-191.0","38JBBYETQPWR45E6PNQZMKHQ4634ET","AMELYCC59JKB0","3G9UA71JVVGUCOKNEKUVXTI6SA17JG","","<img src=""img/set1/S1.jpg"" width=""540"" height = ""360"" style=""border:16px solid orange"">","null","","","","","","","","","",""
"null","","html-keyboard-response","192","294584","0.0-192.0","38JBBYETQPWR45E6PNQZMKHQ4634ET","AMELYCC59JKB0","3G9UA71JVVGUCOKNEKUVXTI6SA17JG","","","null","","","","","","","","","",""
"472.3999999994412","","image-keyboard-response","193","295057","0.0-193.0","38JBBYETQPWR45E6PNQZMKHQ4634ET","AMELYCC59JKB0","3G9UA71JVVGUCOKNEKUVXTI6SA17JG","","img/set1/S2.jpg","68","2","random","68","random,structured_incentive,structured_normal,structured_load","1,2,4,2,2,3","1,4,2,3","true","","",""
"null","","html-keyboard-response","194","295408","0.0-194.0","38JBBYETQPWR45E6PNQZMKHQ4634ET","AMELYCC59JKB0","3G9UA71JVVGUCOKNEKUVXTI6SA17JG","","<img src=""img/set1/S2.jpg"" width=""540"" height = ""360"" style=""border:16px solid orange"">","null","","","","","","","","","",""
"null","","html-keyboard-response","195","295615","0.0-195.0","38JBBYETQPWR45E6PNQZMKHQ4634ET","AMELYCC59JKB0","3G9UA71JVVGUCOKNEKUVXTI6SA17JG","","","null","","","","","","","","","",""
"646.5999999996275","","image-keyboard-response","196","296262","0.0-196.0","38JBBYETQPWR45E6PNQZMKHQ4634ET","AMELYCC59JKB0","3G9UA71JVVGUCOKNEKUVXTI6SA17JG","","img/set1/S3.jpg","72","3","random","72","random,structured_incentive,structured_normal,structured_load","1,2,4,2,2,3","1,4,2,3","true","","",""
"null","","html-keyboard-response","197","296612","0.0-197.0","38JBBYETQPWR45E6PNQZMKHQ4634ET","AMELYCC59JKB0","3G9UA71JVVGUCOKNEKUVXTI6SA17JG","","<img src=""img/set1/S3.jpg"" width=""540"" height = ""360"" style=""border:16px solid orange"">","null","","","","","","","","","",""
"null","","html-keyboard-response","198","296813","0.0-198.0","38JBBYETQPWR45E6PNQZMKHQ4634ET","AMELYCC59JKB0","3G9UA71JVVGUCOKNEKUVXTI6SA17JG","","","null","","","","","","","","","",""
"493.09999999962747","","image-keyboard-response","199","297307","0.0-199.0","38JBBYETQPWR45E6PNQZMKHQ4634ET","AMELYCC59JKB0","3G9UA71JVVGUCOKNEKUVXTI6SA17JG","","img/set1/S4.jpg","74","4","random","74","random,structured_incentive,structured_normal,structured_load","1,2,4,2,2,3","1,4,2,3","true","","",""
"null","","html-keyboard-response","200","297658","0.0-200.0","38JBBYETQPWR45E6PNQZMKHQ4634ET","AMELYCC59JKB0","3G9UA71JVVGUCOKNEKUVXTI6SA17JG","","<img src=""img/set1/S4.jpg"" width=""540"" height = ""360"" style=""border:16px solid orange"">","null","","","","","","","","","",""
"null","","html-keyboard-response","201","297858","0.0-201.0","38JBBYETQPWR45E6PNQZMKHQ4634ET","AMELYCC59JKB0","3G9UA71JVVGUCOKNEKUVXTI6SA17JG","","","null","","","","","","","","","",""
"480.90000000037253","","image-keyboard-response","202","298340","0.0-202.0","38JBBYETQPWR45E6PNQZMKHQ4634ET","AMELYCC59JKB0","3G9UA71JVVGUCOKNEKUVXTI6SA17JG","","img/set1/S3.jpg","72","3","random","72","random,structured_incentive,structured_normal,structured_load","1,2,4,2,2,3","1,4,2,3","true","","",""
"null","","html-keyboard-response","203","298691","0.0-203.0","38JBBYETQPWR45E6PNQZMKHQ4634ET","AMELYCC59JKB0","3G9UA71JVVGUCOKNEKUVXTI6SA17JG","","<img src=""img/set1/S3.jpg"" width=""540"" height = ""360"" style=""border:16px solid orange"">","null","","","","","","","","","",""
"null","","html-keyboard-response","204","298891","0.0-204.0","38JBBYETQPWR45E6PNQZMKHQ4634ET","AMELYCC59JKB0","3G9UA71JVVGUCOKNEKUVXTI6SA17JG","","","null","","","","","","","","","",""
"545.1000000005588","","image-keyboard-response","205","299437","0.0-205.0","38JBBYETQPWR45E6PNQZMKHQ4634ET","AMELYCC59JKB0","3G9UA71JVVGUCOKNEKUVXTI6SA17JG","","img/set1/S4.jpg","74","4","random","74","random,structured_incentive,structured_normal,structured_load","1,2,4,2,2,3","1,4,2,3","true","","",""
"null","","html-keyboard-response","206","299788","0.0-206.0","38JBBYETQPWR45E6PNQZMKHQ4634ET","AMELYCC59JKB0","3G9UA71JVVGUCOKNEKUVXTI6SA17JG","","<img src=""img/set1/S4.jpg"" width=""540"" height = ""360"" style=""border:16px solid orange"">","null","","","","","","","","","",""
"null","","html-keyboard-response","207","299988","0.0-207.0","38JBBYETQPWR45E6PNQZMKHQ4634ET","AMELYCC59JKB0","3G9UA71JVVGUCOKNEKUVXTI6SA17JG","","","null","","","","","","","","","",""
"459.69999999925494","","image-keyboard-response","208","300449","0.0-208.0","38JBBYETQPWR45E6PNQZMKHQ4634ET","AMELYCC59JKB0","3G9UA71JVVGUCOKNEKUVXTI6SA17JG","","img/set1/S3.jpg","72","3","random","72","random,structured_incentive,structured_normal,structured_load","1,2,4,2,2,3","1,4,2,3","true","","",""
"null","","html-keyboard-response","209","300800","0.0-209.0","38JBBYETQPWR45E6PNQZMKHQ4634ET","AMELYCC59JKB0","3G9UA71JVVGUCOKNEKUVXTI6SA17JG","","<img src=""img/set1/S3.jpg"" width=""540"" height = ""360"" style=""border:16px solid orange"">","null","","","","","","","","","",""
"null","","html-keyboard-response","210","301001","0.0-210.0","38JBBYETQPWR45E6PNQZMKHQ4634ET","AMELYCC59JKB0","3G9UA71JVVGUCOKNEKUVXTI6SA17JG","","","null","","","","","","","","","",""
"524.2999999998137","","image-keyboard-response","211","301526","0.0-211.0","38JBBYETQPWR45E6PNQZMKHQ4634ET","AMELYCC59JKB0","3G9UA71JVVGUCOKNEKUVXTI6SA17JG","","img/set1/S3.jpg","72","3","random","72","random,structured_incentive,structured_normal,structured_load","1,2,4,2,2,3","1,4,2,3","true","","",""
"null","","html-keyboard-response","212","301877","0.0-212.0","38JBBYETQPWR45E6PNQZMKHQ4634ET","AMELYCC59JKB0","3G9UA71JVVGUCOKNEKUVXTI6SA17JG","","<img src=""img/set1/S3.jpg"" width=""540"" height = ""360"" style=""border:16px solid orange"">","null","","","","","","","","","",""
"null","","html-keyboard-response","213","302078","0.0-213.0","38JBBYETQPWR45E6PNQZMKHQ4634ET","AMELYCC59JKB0","3G9UA71JVVGUCOKNEKUVXTI6SA17JG","","","null","","","","","","","","","",""
"436.29999999981374","","image-keyboard-response","214","302515","0.0-214.0","38JBBYETQPWR45E6PNQZMKHQ4634ET","AMELYCC59JKB0","3G9UA71JVVGUCOKNEKUVXTI6SA17JG","","img/set1/S4.jpg","74","4","random","74","random,structured_incentive,structured_normal,structured_load","1,2,4,2,2,3","1,4,2,3","true","","",""
"null","","html-keyboard-response","215","302865","0.0-215.0","38JBBYETQPWR45E6PNQZMKHQ4634ET","AMELYCC59JKB0","3G9UA71JVVGUCOKNEKUVXTI6SA17JG","","<img src=""img/set1/S4.jpg"" width=""540"" height = ""360"" style=""border:16px solid orange"">","null","","","","","","","","","",""
"null","","html-keyboard-response","216","303066","0.0-216.0","38JBBYETQPWR45E6PNQZMKHQ4634ET","AMELYCC59JKB0","3G9UA71JVVGUCOKNEKUVXTI6SA17JG","","","null","","","","","","","","","",""
"607.2000000001863","","image-keyboard-response","217","303674","0.0-217.0","38JBBYETQPWR45E6PNQZMKHQ4634ET","AMELYCC59JKB0","3G9UA71JVVGUCOKNEKUVXTI6SA17JG","","img/set1/S1.jpg","83","1","random","83","random,structured_incentive,structured_normal,structured_load","1,2,4,2,2,3","1,4,2,3","true","","",""
"null","","html-keyboard-response","218","304025","0.0-218.0","38JBBYETQPWR45E6PNQZMKHQ4634ET","AMELYCC59JKB0","3G9UA71JVVGUCOKNEKUVXTI6SA17JG","","<img src=""img/set1/S1.jpg"" width=""540"" height = ""360"" style=""border:16px solid orange"">","null","","","","","","","","","",""
"null","","html-keyboard-response","219","304226","0.0-219.0","38JBBYETQPWR45E6PNQZMKHQ4634ET","AMELYCC59JKB0","3G9UA71JVVGUCOKNEKUVXTI6SA17JG","","","null","","","","","","","","","",""
"416.59999999962747","","image-keyboard-response","220","304643","0.0-220.0","38JBBYETQPWR45E6PNQZMKHQ4634ET","AMELYCC59JKB0","3G9UA71JVVGUCOKNEKUVXTI6SA17JG","","img/set1/S1.jpg","83","1","random","83","random,structured_incentive,structured_normal,structured_load","1,2,4,2,2,3","1,4,2,3","true","","",""
"null","","html-keyboard-response","221","304994","0.0-221.0","38JBBYETQPWR45E6PNQZMKHQ4634ET","AMELYCC59JKB0","3G9UA71JVVGUCOKNEKUVXTI6SA17JG","","<img src=""img/set1/S1.jpg"" width=""540"" height = ""360"" style=""border:16px solid orange"">","null","","","","","","","","","",""
"null","","html-keyboard-response","222","305195","0.0-222.0","38JBBYETQPWR45E6PNQZMKHQ4634ET","AMELYCC59JKB0","3G9UA71JVVGUCOKNEKUVXTI6SA17JG","","","null","","","","","","","","","",""
"733.3999999994412","","image-keyboard-response","223","305929","0.0-223.0","38JBBYETQPWR45E6PNQZMKHQ4634ET","AMELYCC59JKB0","3G9UA71JVVGUCOKNEKUVXTI6SA17JG","","img/set1/S3.jpg","74","3","random","72","random,structured_incentive,structured_normal,structured_load","1,2,4,2,2,3","1,4,2,3","false","","",""
"null","","html-keyboard-response","224","306279","0.0-224.0","38JBBYETQPWR45E6PNQZMKHQ4634ET","AMELYCC59JKB0","3G9UA71JVVGUCOKNEKUVXTI6SA17JG","","<img src=""img/set1/S3.jpg"" width=""540"" height = ""360"">","null","","","","","","","","","",""
"null","","html-keyboard-response","225","306480","0.0-225.0","38JBBYETQPWR45E6PNQZMKHQ4634ET","AMELYCC59JKB0","3G9UA71JVVGUCOKNEKUVXTI6SA17JG","","","null","","","","","","","","","",""
"558.7999999998137","","image-keyboard-response","226","307040","0.0-226.0","38JBBYETQPWR45E6PNQZMKHQ4634ET","AMELYCC59JKB0","3G9UA71JVVGUCOKNEKUVXTI6SA17JG","","img/set1/S2.jpg","68","2","random","68","random,structured_incentive,structured_normal,structured_load","1,2,4,2,2,3","1,4,2,3","true","","",""
"null","","html-keyboard-response","227","307391","0.0-227.0","38JBBYETQPWR45E6PNQZMKHQ4634ET","AMELYCC59JKB0","3G9UA71JVVGUCOKNEKUVXTI6SA17JG","","<img src=""img/set1/S2.jpg"" width=""540"" height = ""360"" style=""border:16px solid orange"">","null","","","","","","","","","",""
"null","","html-keyboard-response","228","307592","0.0-228.0","38JBBYETQPWR45E6PNQZMKHQ4634ET","AMELYCC59JKB0","3G9UA71JVVGUCOKNEKUVXTI6SA17JG","","","null","","","","","","","","","",""
"681.3999999994412","","image-keyboard-response","229","308274","0.0-229.0","38JBBYETQPWR45E6PNQZMKHQ4634ET","AMELYCC59JKB0","3G9UA71JVVGUCOKNEKUVXTI6SA17JG","","img/set1/S4.jpg","74","4","random","74","random,structured_incentive,structured_normal,structured_load","1,2,4,2,2,3","1,4,2,3","true","","",""
"null","","html-keyboard-response","230","308625","0.0-230.0","38JBBYETQPWR45E6PNQZMKHQ4634ET","AMELYCC59JKB0","3G9UA71JVVGUCOKNEKUVXTI6SA17JG","","<img src=""img/set1/S4.jpg"" width=""540"" height = ""360"" style=""border:16px solid orange"">","null","","","","","","","","","",""
"null","","html-keyboard-response","231","308826","0.0-231.0","38JBBYETQPWR45E6PNQZMKHQ4634ET","AMELYCC59JKB0","3G9UA71JVVGUCOKNEKUVXTI6SA17JG","","","null","","","","","","","","","",""
"411.09999999962747","","image-keyboard-response","232","309238","0.0-232.0","38JBBYETQPWR45E6PNQZMKHQ4634ET","AMELYCC59JKB0","3G9UA71JVVGUCOKNEKUVXTI6SA17JG","","img/set1/S3.jpg","72","3","random","72","random,structured_incentive,structured_normal,structured_load","1,2,4,2,2,3","1,4,2,3","true","","",""
"null","","html-keyboard-response","233","309589","0.0-233.0","38JBBYETQPWR45E6PNQZMKHQ4634ET","AMELYCC59JKB0","3G9UA71JVVGUCOKNEKUVXTI6SA17JG","","<img src=""img/set1/S3.jpg"" width=""540"" height = ""360"" style=""border:16px solid orange"">","null","","","","","","","","","",""
"null","","html-keyboard-response","234","309790","0.0-234.0","38JBBYETQPWR45E6PNQZMKHQ4634ET","AMELYCC59JKB0","3G9UA71JVVGUCOKNEKUVXTI6SA17JG","","","null","","","","","","","","","",""
"527.5999999996275","","image-keyboard-response","235","310318","0.0-235.0","38JBBYETQPWR45E6PNQZMKHQ4634ET","AMELYCC59JKB0","3G9UA71JVVGUCOKNEKUVXTI6SA17JG","","img/set1/S2.jpg","68","2","random","68","random,structured_incentive,structured_normal,structured_load","1,2,4,2,2,3","1,4,2,3","true","","",""
"null","","html-keyboard-response","236","310668","0.0-236.0","38JBBYETQPWR45E6PNQZMKHQ4634ET","AMELYCC59JKB0","3G9UA71JVVGUCOKNEKUVXTI6SA17JG","","<img src=""img/set1/S2.jpg"" width=""540"" height = ""360"" style=""border:16px solid orange"">","null","","","","","","","","","",""
"null","","html-keyboard-response","237","310869","0.0-237.0","38JBBYETQPWR45E6PNQZMKHQ4634ET","AMELYCC59JKB0","3G9UA71JVVGUCOKNEKUVXTI6SA17JG","","","null","","","","","","","","","",""
"345.19999999925494","","image-keyboard-response","238","311215","0.0-238.0","38JBBYETQPWR45E6PNQZMKHQ4634ET","AMELYCC59JKB0","3G9UA71JVVGUCOKNEKUVXTI6SA17JG","","img/set1/S1.jpg","68","1","random","83","random,structured_incentive,structured_normal,structured_load","1,2,4,2,2,3","1,4,2,3","false","","",""
"null","","html-keyboard-response","239","311566","0.0-239.0","38JBBYETQPWR45E6PNQZMKHQ4634ET","AMELYCC59JKB0","3G9UA71JVVGUCOKNEKUVXTI6SA17JG","","<img src=""img/set1/S1.jpg"" width=""540"" height = ""360"">","null","","","","","","","","","",""
"null","","html-keyboard-response","240","311768","0.0-240.0","38JBBYETQPWR45E6PNQZMKHQ4634ET","AMELYCC59JKB0","3G9UA71JVVGUCOKNEKUVXTI6SA17JG","","","null","","","","","","","","","",""
"680.7000000001863","","image-keyboard-response","241","312449","0.0-241.0","38JBBYETQPWR45E6PNQZMKHQ4634ET","AMELYCC59JKB0","3G9UA71JVVGUCOKNEKUVXTI6SA17JG","","img/set1/S3.jpg","72","3","random","72","random,structured_incentive,structured_normal,structured_load","1,2,4,2,2,3","1,4,2,3","true","","",""
"null","","html-keyboard-response","242","312800","0.0-242.0","38JBBYETQPWR45E6PNQZMKHQ4634ET","AMELYCC59JKB0","3G9UA71JVVGUCOKNEKUVXTI6SA17JG","","<img src=""img/set1/S3.jpg"" width=""540"" height = ""360"" style=""border:16px solid orange"">","null","","","","","","","","","",""
"null","","html-keyboard-response","243","313001","0.0-243.0","38JBBYETQPWR45E6PNQZMKHQ4634ET","AMELYCC59JKB0","3G9UA71JVVGUCOKNEKUVXTI6SA17JG","","","null","","","","","","","","","",""
"618.3999999994412","","image-keyboard-response","244","313620","0.0-244.0","38JBBYETQPWR45E6PNQZMKHQ4634ET","AMELYCC59JKB0","3G9UA71JVVGUCOKNEKUVXTI6SA17JG","","img/set1/S1.jpg","83","1","random","83","random,structured_incentive,structured_normal,structured_load","1,2,4,2,2,3","1,4,2,3","true","","",""
"null","","html-keyboard-response","245","313971","0.0-245.0","38JBBYETQPWR45E6PNQZMKHQ4634ET","AMELYCC59JKB0","3G9UA71JVVGUCOKNEKUVXTI6SA17JG","","<img src=""img/set1/S1.jpg"" width=""540"" height = ""360"" style=""border:16px solid orange"">","null","","","","","","","","","",""
"null","","html-keyboard-response","246","314172","0.0-246.0","38JBBYETQPWR45E6PNQZMKHQ4634ET","AMELYCC59JKB0","3G9UA71JVVGUCOKNEKUVXTI6SA17JG","","","null","","","","","","","","","",""
"436.40000000037253","","image-keyboard-response","247","314609","0.0-247.0","38JBBYETQPWR45E6PNQZMKHQ4634ET","AMELYCC59JKB0","3G9UA71JVVGUCOKNEKUVXTI6SA17JG","","img/set1/S1.jpg","83","1","random","83","random,structured_incentive,structured_normal,structured_load","1,2,4,2,2,3","1,4,2,3","true","","",""
"null","","html-keyboard-response","248","314960","0.0-248.0","38JBBYETQPWR45E6PNQZMKHQ4634ET","AMELYCC59JKB0","3G9UA71JVVGUCOKNEKUVXTI6SA17JG","","<img src=""img/set1/S1.jpg"" width=""540"" height = ""360"" style=""border:16px solid orange"">","null","","","","","","","","","",""
"null","","html-keyboard-response","249","315160","0.0-249.0","38JBBYETQPWR45E6PNQZMKHQ4634ET","AMELYCC59JKB0","3G9UA71JVVGUCOKNEKUVXTI6SA17JG","","","null","","","","","","","","","",""
"680.9000000003725","","image-keyboard-response","250","315842","0.0-250.0","38JBBYETQPWR45E6PNQZMKHQ4634ET","AMELYCC59JKB0","3G9UA71JVVGUCOKNEKUVXTI6SA17JG","","img/set1/S3.jpg","72","3","random","72","random,structured_incentive,structured_normal,structured_load","1,2,4,2,2,3","1,4,2,3","true","","",""
"null","","html-keyboard-response","251","316193","0.0-251.0","38JBBYETQPWR45E6PNQZMKHQ4634ET","AMELYCC59JKB0","3G9UA71JVVGUCOKNEKUVXTI6SA17JG","","<img src=""img/set1/S3.jpg"" width=""540"" height = ""360"" style=""border:16px solid orange"">","null","","","","","","","","","",""
"null","","html-keyboard-response","252","316394","0.0-252.0","38JBBYETQPWR45E6PNQZMKHQ4634ET","AMELYCC59JKB0","3G9UA71JVVGUCOKNEKUVXTI6SA17JG","","","null","","","","","","","","","",""
"507.5","","image-keyboard-response","253","316902","0.0-253.0","38JBBYETQPWR45E6PNQZMKHQ4634ET","AMELYCC59JKB0","3G9UA71JVVGUCOKNEKUVXTI6SA17JG","","img/set1/S1.jpg","83","1","random","83","random,structured_incentive,structured_normal,structured_load","1,2,4,2,2,3","1,4,2,3","true","","",""
"null","","html-keyboard-response","254","317253","0.0-254.0","38JBBYETQPWR45E6PNQZMKHQ4634ET","AMELYCC59JKB0","3G9UA71JVVGUCOKNEKUVXTI6SA17JG","","<img src=""img/set1/S1.jpg"" width=""540"" height = ""360"" style=""border:16px solid orange"">","null","","","","","","","","","",""
"null","","html-keyboard-response","255","317453","0.0-255.0","38JBBYETQPWR45E6PNQZMKHQ4634ET","AMELYCC59JKB0","3G9UA71JVVGUCOKNEKUVXTI6SA17JG","","","null","","","","","","","","","",""
"587.1999999992549","","image-keyboard-response","256","318042","0.0-256.0","38JBBYETQPWR45E6PNQZMKHQ4634ET","AMELYCC59JKB0","3G9UA71JVVGUCOKNEKUVXTI6SA17JG","","img/set1/S2.jpg","68","2","random","68","random,structured_incentive,structured_normal,structured_load","1,2,4,2,2,3","1,4,2,3","true","","",""
"null","","html-keyboard-response","257","318392","0.0-257.0","38JBBYETQPWR45E6PNQZMKHQ4634ET","AMELYCC59JKB0","3G9UA71JVVGUCOKNEKUVXTI6SA17JG","","<img src=""img/set1/S2.jpg"" width=""540"" height = ""360"" style=""border:16px solid orange"">","null","","","","","","","","","",""
"null","","html-keyboard-response","258","318594","0.0-258.0","38JBBYETQPWR45E6PNQZMKHQ4634ET","AMELYCC59JKB0","3G9UA71JVVGUCOKNEKUVXTI6SA17JG","","","null","","","","","","","","","",""
"560.0999999996275","","image-keyboard-response","259","319155","0.0-259.0","38JBBYETQPWR45E6PNQZMKHQ4634ET","AMELYCC59JKB0","3G9UA71JVVGUCOKNEKUVXTI6SA17JG","","img/set1/S1.jpg","83","1","random","83","random,structured_incentive,structured_normal,structured_load","1,2,4,2,2,3","1,4,2,3","true","","",""
"null","","html-keyboard-response","260","319506","0.0-260.0","38JBBYETQPWR45E6PNQZMKHQ4634ET","AMELYCC59JKB0","3G9UA71JVVGUCOKNEKUVXTI6SA17JG","","<img src=""img/set1/S1.jpg"" width=""540"" height = ""360"" style=""border:16px solid orange"">","null","","","","","","","","","",""
"null","","html-keyboard-response","261","319707","0.0-261.0","38JBBYETQPWR45E6PNQZMKHQ4634ET","AMELYCC59JKB0","3G9UA71JVVGUCOKNEKUVXTI6SA17JG","","","null","","","","","","","","","",""
"348.3999999994412","","image-keyboard-response","262","320056","0.0-262.0","38JBBYETQPWR45E6PNQZMKHQ4634ET","AMELYCC59JKB0","3G9UA71JVVGUCOKNEKUVXTI6SA17JG","","img/set1/S1.jpg","83","1","random","83","random,structured_incentive,structured_normal,structured_load","1,2,4,2,2,3","1,4,2,3","true","","",""
"null","","html-keyboard-response","263","320406","0.0-263.0","38JBBYETQPWR45E6PNQZMKHQ4634ET","AMELYCC59JKB0","3G9UA71JVVGUCOKNEKUVXTI6SA17JG","","<img src=""img/set1/S1.jpg"" width=""540"" height = ""360"" style=""border:16px solid orange"">","null","","","","","","","","","",""
"null","","html-keyboard-response","264","320607","0.0-264.0","38JBBYETQPWR45E6PNQZMKHQ4634ET","AMELYCC59JKB0","3G9UA71JVVGUCOKNEKUVXTI6SA17JG","","","null","","","","","","","","","",""
"573","","image-keyboard-response","265","321181","0.0-265.0","38JBBYETQPWR45E6PNQZMKHQ4634ET","AMELYCC59JKB0","3G9UA71JVVGUCOKNEKUVXTI6SA17JG","","img/set1/S2.jpg","68","2","random","68","random,structured_incentive,structured_normal,structured_load","1,2,4,2,2,3","1,4,2,3","true","","",""
"null","","html-keyboard-response","266","321532","0.0-266.0","38JBBYETQPWR45E6PNQZMKHQ4634ET","AMELYCC59JKB0","3G9UA71JVVGUCOKNEKUVXTI6SA17JG","","<img src=""img/set1/S2.jpg"" width=""540"" height = ""360"" style=""border:16px solid orange"">","null","","","","","","","","","",""
"null","","html-keyboard-response","267","321732","0.0-267.0","38JBBYETQPWR45E6PNQZMKHQ4634ET","AMELYCC59JKB0","3G9UA71JVVGUCOKNEKUVXTI6SA17JG","","","null","","","","","","","","","",""
"616.7999999998137","","image-keyboard-response","268","322350","0.0-268.0","38JBBYETQPWR45E6PNQZMKHQ4634ET","AMELYCC59JKB0","3G9UA71JVVGUCOKNEKUVXTI6SA17JG","","img/set1/S3.jpg","72","3","random","72","random,structured_incentive,structured_normal,structured_load","1,2,4,2,2,3","1,4,2,3","true","","",""
"null","","html-keyboard-response","269","322700","0.0-269.0","38JBBYETQPWR45E6PNQZMKHQ4634ET","AMELYCC59JKB0","3G9UA71JVVGUCOKNEKUVXTI6SA17JG","","<img src=""img/set1/S3.jpg"" width=""540"" height = ""360"" style=""border:16px solid orange"">","null","","","","","","","","","",""
"null","","html-keyboard-response","270","322901","0.0-270.0","38JBBYETQPWR45E6PNQZMKHQ4634ET","AMELYCC59JKB0","3G9UA71JVVGUCOKNEKUVXTI6SA17JG","","","null","","","","","","","","","",""
"603.7000000001863","","image-keyboard-response","271","323506","0.0-271.0","38JBBYETQPWR45E6PNQZMKHQ4634ET","AMELYCC59JKB0","3G9UA71JVVGUCOKNEKUVXTI6SA17JG","","img/set1/S2.jpg","68","2","random","68","random,structured_incentive,structured_normal,structured_load","1,2,4,2,2,3","1,4,2,3","true","","",""
"null","","html-keyboard-response","272","323857","0.0-272.0","38JBBYETQPWR45E6PNQZMKHQ4634ET","AMELYCC59JKB0","3G9UA71JVVGUCOKNEKUVXTI6SA17JG","","<img src=""img/set1/S2.jpg"" width=""540"" height = ""360"" style=""border:16px solid orange"">","null","","","","","","","","","",""
"null","","html-keyboard-response","273","324058","0.0-273.0","38JBBYETQPWR45E6PNQZMKHQ4634ET","AMELYCC59JKB0","3G9UA71JVVGUCOKNEKUVXTI6SA17JG","","","null","","","","","","","","","",""
"332.3999999994412","","image-keyboard-response","274","324391","0.0-274.0","38JBBYETQPWR45E6PNQZMKHQ4634ET","AMELYCC59JKB0","3G9UA71JVVGUCOKNEKUVXTI6SA17JG","","img/set1/S2.jpg","68","2","random","68","random,structured_incentive,structured_normal,structured_load","1,2,4,2,2,3","1,4,2,3","true","","",""
"null","","html-keyboard-response","275","324742","0.0-275.0","38JBBYETQPWR45E6PNQZMKHQ4634ET","AMELYCC59JKB0","3G9UA71JVVGUCOKNEKUVXTI6SA17JG","","<img src=""img/set1/S2.jpg"" width=""540"" height = ""360"" style=""border:16px solid orange"">","null","","","","","","","","","",""
"null","","html-keyboard-response","276","324942","0.0-276.0","38JBBYETQPWR45E6PNQZMKHQ4634ET","AMELYCC59JKB0","3G9UA71JVVGUCOKNEKUVXTI6SA17JG","","","null","","","","","","","","","",""
"613.9000000003725","","image-keyboard-response","277","325557","0.0-277.0","38JBBYETQPWR45E6PNQZMKHQ4634ET","AMELYCC59JKB0","3G9UA71JVVGUCOKNEKUVXTI6SA17JG","","img/set1/S4.jpg","74","4","random","74","random,structured_incentive,structured_normal,structured_load","1,2,4,2,2,3","1,4,2,3","true","","",""
"null","","html-keyboard-response","278","325908","0.0-278.0","38JBBYETQPWR45E6PNQZMKHQ4634ET","AMELYCC59JKB0","3G9UA71JVVGUCOKNEKUVXTI6SA17JG","","<img src=""img/set1/S4.jpg"" width=""540"" height = ""360"" style=""border:16px solid orange"">","null","","","","","","","","","",""
"null","","html-keyboard-response","279","326108","0.0-279.0","38JBBYETQPWR45E6PNQZMKHQ4634ET","AMELYCC59JKB0","3G9UA71JVVGUCOKNEKUVXTI6SA17JG","","","null","","","","","","","","","",""
"563.1000000005588","","image-keyboard-response","280","326672","0.0-280.0","38JBBYETQPWR45E6PNQZMKHQ4634ET","AMELYCC59JKB0","3G9UA71JVVGUCOKNEKUVXTI6SA17JG","","img/set1/S1.jpg","83","1","random","83","random,structured_incentive,structured_normal,structured_load","1,2,4,2,2,3","1,4,2,3","true","","",""
"null","","html-keyboard-response","281","327023","0.0-281.0","38JBBYETQPWR45E6PNQZMKHQ4634ET","AMELYCC59JKB0","3G9UA71JVVGUCOKNEKUVXTI6SA17JG","","<img src=""img/set1/S1.jpg"" width=""540"" height = ""360"" style=""border:16px solid orange"">","null","","","","","","","","","",""
"null","","html-keyboard-response","282","327224","0.0-282.0","38JBBYETQPWR45E6PNQZMKHQ4634ET","AMELYCC59JKB0","3G9UA71JVVGUCOKNEKUVXTI6SA17JG","","","null","","","","","","","","","",""
"504.19999999925494","","image-keyboard-response","283","327729","0.0-283.0","38JBBYETQPWR45E6PNQZMKHQ4634ET","AMELYCC59JKB0","3G9UA71JVVGUCOKNEKUVXTI6SA17JG","","img/set1/S2.jpg","68","2","random","68","random,structured_incentive,structured_normal,structured_load","1,2,4,2,2,3","1,4,2,3","true","","",""
"null","","html-keyboard-response","284","328080","0.0-284.0","38JBBYETQPWR45E6PNQZMKHQ4634ET","AMELYCC59JKB0","3G9UA71JVVGUCOKNEKUVXTI6SA17JG","","<img src=""img/set1/S2.jpg"" width=""540"" height = ""360"" style=""border:16px solid orange"">","null","","","","","","","","","",""
"null","","html-keyboard-response","285","328281","0.0-285.0","38JBBYETQPWR45E6PNQZMKHQ4634ET","AMELYCC59JKB0","3G9UA71JVVGUCOKNEKUVXTI6SA17JG","","","null","","","","","","","","","",""
"383.8999999994412","","image-keyboard-response","286","328666","0.0-286.0","38JBBYETQPWR45E6PNQZMKHQ4634ET","AMELYCC59JKB0","3G9UA71JVVGUCOKNEKUVXTI6SA17JG","","img/set1/S2.jpg","68","2","random","68","random,structured_incentive,structured_normal,structured_load","1,2,4,2,2,3","1,4,2,3","true","","",""
"null","","html-keyboard-response","287","329017","0.0-287.0","38JBBYETQPWR45E6PNQZMKHQ4634ET","AMELYCC59JKB0","3G9UA71JVVGUCOKNEKUVXTI6SA17JG","","<img src=""img/set1/S2.jpg"" width=""540"" height = ""360"" style=""border:16px solid orange"">","null","","","","","","","","","",""
"null","","html-keyboard-response","288","329233","0.0-288.0","38JBBYETQPWR45E6PNQZMKHQ4634ET","AMELYCC59JKB0","3G9UA71JVVGUCOKNEKUVXTI6SA17JG","","","null","","","","","","","","","",""
"528.3999999994412","","image-keyboard-response","289","329762","0.0-289.0","38JBBYETQPWR45E6PNQZMKHQ4634ET","AMELYCC59JKB0","3G9UA71JVVGUCOKNEKUVXTI6SA17JG","","img/set1/S1.jpg","83","1","random","83","random,structured_incentive,structured_normal,structured_load","1,2,4,2,2,3","1,4,2,3","true","","",""
"null","","html-keyboard-response","290","330113","0.0-290.0","38JBBYETQPWR45E6PNQZMKHQ4634ET","AMELYCC59JKB0","3G9UA71JVVGUCOKNEKUVXTI6SA17JG","","<img src=""img/set1/S1.jpg"" width=""540"" height = ""360"" style=""border:16px solid orange"">","null","","","","","","","","","",""
"null","","html-keyboard-response","291","330314","0.0-291.0","38JBBYETQPWR45E6PNQZMKHQ4634ET","AMELYCC59JKB0","3G9UA71JVVGUCOKNEKUVXTI6SA17JG","","","null","","","","","","","","","",""
"637.2999999998137","","image-keyboard-response","292","330952","0.0-292.0","38JBBYETQPWR45E6PNQZMKHQ4634ET","AMELYCC59JKB0","3G9UA71JVVGUCOKNEKUVXTI6SA17JG","","img/set1/S3.jpg","72","3","random","72","random,structured_incentive,structured_normal,structured_load","1,2,4,2,2,3","1,4,2,3","true","","",""
"null","","html-keyboard-response","293","331303","0.0-293.0","38JBBYETQPWR45E6PNQZMKHQ4634ET","AMELYCC59JKB0","3G9UA71JVVGUCOKNEKUVXTI6SA17JG","","<img src=""img/set1/S3.jpg"" width=""540"" height = ""360"" style=""border:16px solid orange"">","null","","","","","","","","","",""
"null","","html-keyboard-response","294","331504","0.0-294.0","38JBBYETQPWR45E6PNQZMKHQ4634ET","AMELYCC59JKB0","3G9UA71JVVGUCOKNEKUVXTI6SA17JG","","","null","","","","","","","","","",""
"567","","image-keyboard-response","295","332072","0.0-295.0","38JBBYETQPWR45E6PNQZMKHQ4634ET","AMELYCC59JKB0","3G9UA71JVVGUCOKNEKUVXTI6SA17JG","","img/set1/S2.jpg","68","2","random","68","random,structured_incentive,structured_normal,structured_load","1,2,4,2,2,3","1,4,2,3","true","","",""
"null","","html-keyboard-response","296","332423","0.0-296.0","38JBBYETQPWR45E6PNQZMKHQ4634ET","AMELYCC59JKB0","3G9UA71JVVGUCOKNEKUVXTI6SA17JG","","<img src=""img/set1/S2.jpg"" width=""540"" height = ""360"" style=""border:16px solid orange"">","null","","","","","","","","","",""
"null","","html-keyboard-response","297","332624","0.0-297.0","38JBBYETQPWR45E6PNQZMKHQ4634ET","AMELYCC59JKB0","3G9UA71JVVGUCOKNEKUVXTI6SA17JG","","","null","","","","","","","","","",""
"537.0999999996275","","image-keyboard-response","298","333162","0.0-298.0","38JBBYETQPWR45E6PNQZMKHQ4634ET","AMELYCC59JKB0","3G9UA71JVVGUCOKNEKUVXTI6SA17JG","","img/set1/S4.jpg","74","4","random","74","random,structured_incentive,structured_normal,structured_load","1,2,4,2,2,3","1,4,2,3","true","","",""
"null","","html-keyboard-response","299","333513","0.0-299.0","38JBBYETQPWR45E6PNQZMKHQ4634ET","AMELYCC59JKB0","3G9UA71JVVGUCOKNEKUVXTI6SA17JG","","<img src=""img/set1/S4.jpg"" width=""540"" height = ""360"" style=""border:16px solid orange"">","null","","","","","","","","","",""
"null","","html-keyboard-response","300","333713","0.0-300.0","38JBBYETQPWR45E6PNQZMKHQ4634ET","AMELYCC59JKB0","3G9UA71JVVGUCOKNEKUVXTI6SA17JG","","","null","","","","","","","","","",""
"543.1999999992549","","image-keyboard-response","301","334257","0.0-301.0","38JBBYETQPWR45E6PNQZMKHQ4634ET","AMELYCC59JKB0","3G9UA71JVVGUCOKNEKUVXTI6SA17JG","","img/set1/S1.jpg","83","1","random","83","random,structured_incentive,structured_normal,structured_load","1,2,4,2,2,3","1,4,2,3","true","","",""
"null","","html-keyboard-response","302","334608","0.0-302.0","38JBBYETQPWR45E6PNQZMKHQ4634ET","AMELYCC59JKB0","3G9UA71JVVGUCOKNEKUVXTI6SA17JG","","<img src=""img/set1/S1.jpg"" width=""540"" height = ""360"" style=""border:16px solid orange"">","null","","","","","","","","","",""
"null","","html-keyboard-response","303","334823","0.0-303.0","38JBBYETQPWR45E6PNQZMKHQ4634ET","AMELYCC59JKB0","3G9UA71JVVGUCOKNEKUVXTI6SA17JG","","","null","","","","","","","","","",""
"591.2999999998137","","image-keyboard-response","304","335415","0.0-304.0","38JBBYETQPWR45E6PNQZMKHQ4634ET","AMELYCC59JKB0","3G9UA71JVVGUCOKNEKUVXTI6SA17JG","","img/set1/S3.jpg","72","3","random","72","random,structured_incentive,structured_normal,structured_load","1,2,4,2,2,3","1,4,2,3","true","","",""
"null","","html-keyboard-response","305","335766","0.0-305.0","38JBBYETQPWR45E6PNQZMKHQ4634ET","AMELYCC59JKB0","3G9UA71JVVGUCOKNEKUVXTI6SA17JG","","<img src=""img/set1/S3.jpg"" width=""540"" height = ""360"" style=""border:16px solid orange"">","null","","","","","","","","","",""
"null","","html-keyboard-response","306","335968","0.0-306.0","38JBBYETQPWR45E6PNQZMKHQ4634ET","AMELYCC59JKB0","3G9UA71JVVGUCOKNEKUVXTI6SA17JG","","","null","","","","","","","","","",""
"565.7000000001863","","image-keyboard-response","307","336534","0.0-307.0","38JBBYETQPWR45E6PNQZMKHQ4634ET","AMELYCC59JKB0","3G9UA71JVVGUCOKNEKUVXTI6SA17JG","","img/set1/S1.jpg","83","1","random","83","random,structured_incentive,structured_normal,structured_load","1,2,4,2,2,3","1,4,2,3","true","","",""
"null","","html-keyboard-response","308","336885","0.0-308.0","38JBBYETQPWR45E6PNQZMKHQ4634ET","AMELYCC59JKB0","3G9UA71JVVGUCOKNEKUVXTI6SA17JG","","<img src=""img/set1/S1.jpg"" width=""540"" height = ""360"" style=""border:16px solid orange"">","null","","","","","","","","","",""
"null","","html-keyboard-response","309","337086","0.0-309.0","38JBBYETQPWR45E6PNQZMKHQ4634ET","AMELYCC59JKB0","3G9UA71JVVGUCOKNEKUVXTI6SA17JG","","","null","","","","","","","","","",""
"428.70000000018626","","image-keyboard-response","310","337515","0.0-310.0","38JBBYETQPWR45E6PNQZMKHQ4634ET","AMELYCC59JKB0","3G9UA71JVVGUCOKNEKUVXTI6SA17JG","","img/set1/S1.jpg","83","1","random","83","random,structured_incentive,structured_normal,structured_load","1,2,4,2,2,3","1,4,2,3","true","","",""
"null","","html-keyboard-response","311","337866","0.0-311.0","38JBBYETQPWR45E6PNQZMKHQ4634ET","AMELYCC59JKB0","3G9UA71JVVGUCOKNEKUVXTI6SA17JG","","<img src=""img/set1/S1.jpg"" width=""540"" height = ""360"" style=""border:16px solid orange"">","null","","","","","","","","","",""
"null","","html-keyboard-response","312","338067","0.0-312.0","38JBBYETQPWR45E6PNQZMKHQ4634ET","AMELYCC59JKB0","3G9UA71JVVGUCOKNEKUVXTI6SA17JG","","","null","","","","","","","","","",""
"508.8999999994412","","image-keyboard-response","313","338576","0.0-313.0","38JBBYETQPWR45E6PNQZMKHQ4634ET","AMELYCC59JKB0","3G9UA71JVVGUCOKNEKUVXTI6SA17JG","","img/set1/S2.jpg","68","2","random","68","random,structured_incentive,structured_normal,structured_load","1,2,4,2,2,3","1,4,2,3","true","","",""
"null","","html-keyboard-response","314","338927","0.0-314.0","38JBBYETQPWR45E6PNQZMKHQ4634ET","AMELYCC59JKB0","3G9UA71JVVGUCOKNEKUVXTI6SA17JG","","<img src=""img/set1/S2.jpg"" width=""540"" height = ""360"" style=""border:16px solid orange"">","null","","","","","","","","","",""
"null","","html-keyboard-response","315","339128","0.0-315.0","38JBBYETQPWR45E6PNQZMKHQ4634ET","AMELYCC59JKB0","3G9UA71JVVGUCOKNEKUVXTI6SA17JG","","","null","","","","","","","","","",""
"545.3999999994412","","image-keyboard-response","316","339674","0.0-316.0","38JBBYETQPWR45E6PNQZMKHQ4634ET","AMELYCC59JKB0","3G9UA71JVVGUCOKNEKUVXTI6SA17JG","","img/set1/S3.jpg","72","3","random","72","random,structured_incentive,structured_normal,structured_load","1,2,4,2,2,3","1,4,2,3","true","","",""
"null","","html-keyboard-response","317","340025","0.0-317.0","38JBBYETQPWR45E6PNQZMKHQ4634ET","AMELYCC59JKB0","3G9UA71JVVGUCOKNEKUVXTI6SA17JG","","<img src=""img/set1/S3.jpg"" width=""540"" height = ""360"" style=""border:16px solid orange"">","null","","","","","","","","","",""
"null","","html-keyboard-response","318","340225","0.0-318.0","38JBBYETQPWR45E6PNQZMKHQ4634ET","AMELYCC59JKB0","3G9UA71JVVGUCOKNEKUVXTI6SA17JG","","","null","","","","","","","","","",""
"599.0999999996275","","image-keyboard-response","319","340825","0.0-319.0","38JBBYETQPWR45E6PNQZMKHQ4634ET","AMELYCC59JKB0","3G9UA71JVVGUCOKNEKUVXTI6SA17JG","","img/set1/S2.jpg","68","2","random","68","random,structured_incentive,structured_normal,structured_load","1,2,4,2,2,3","1,4,2,3","true","","",""
"null","","html-keyboard-response","320","341180","0.0-320.0","38JBBYETQPWR45E6PNQZMKHQ4634ET","AMELYCC59JKB0","3G9UA71JVVGUCOKNEKUVXTI6SA17JG","","<img src=""img/set1/S2.jpg"" width=""540"" height = ""360"" style=""border:16px solid orange"">","null","","","","","","","","","",""
"null","","html-keyboard-response","321","341381","0.0-321.0","38JBBYETQPWR45E6PNQZMKHQ4634ET","AMELYCC59JKB0","3G9UA71JVVGUCOKNEKUVXTI6SA17JG","","","null","","","","","","","","","",""
"328.5","","image-keyboard-response","322","341710","0.0-322.0","38JBBYETQPWR45E6PNQZMKHQ4634ET","AMELYCC59JKB0","3G9UA71JVVGUCOKNEKUVXTI6SA17JG","","img/set1/S2.jpg","68","2","random","68","random,structured_incentive,structured_normal,structured_load","1,2,4,2,2,3","1,4,2,3","true","","",""
"null","","html-keyboard-response","323","342061","0.0-323.0","38JBBYETQPWR45E6PNQZMKHQ4634ET","AMELYCC59JKB0","3G9UA71JVVGUCOKNEKUVXTI6SA17JG","","<img src=""img/set1/S2.jpg"" width=""540"" height = ""360"" style=""border:16px solid orange"">","null","","","","","","","","","",""
"null","","html-keyboard-response","324","342262","0.0-324.0","38JBBYETQPWR45E6PNQZMKHQ4634ET","AMELYCC59JKB0","3G9UA71JVVGUCOKNEKUVXTI6SA17JG","","","null","","","","","","","","","",""
"536.8999999994412","","image-keyboard-response","325","342800","0.0-325.0","38JBBYETQPWR45E6PNQZMKHQ4634ET","AMELYCC59JKB0","3G9UA71JVVGUCOKNEKUVXTI6SA17JG","","img/set1/S4.jpg","74","4","random","74","random,structured_incentive,structured_normal,structured_load","1,2,4,2,2,3","1,4,2,3","true","","",""
"null","","html-keyboard-response","326","343152","0.0-326.0","38JBBYETQPWR45E6PNQZMKHQ4634ET","AMELYCC59JKB0","3G9UA71JVVGUCOKNEKUVXTI6SA17JG","","<img src=""img/set1/S4.jpg"" width=""540"" height = ""360"" style=""border:16px solid orange"">","null","","","","","","","","","",""
"null","","html-keyboard-response","327","343353","0.0-327.0","38JBBYETQPWR45E6PNQZMKHQ4634ET","AMELYCC59JKB0","3G9UA71JVVGUCOKNEKUVXTI6SA17JG","","","null","","","","","","","","","",""
"419.09999999962747","","image-keyboard-response","328","343773","0.0-328.0","38JBBYETQPWR45E6PNQZMKHQ4634ET","AMELYCC59JKB0","3G9UA71JVVGUCOKNEKUVXTI6SA17JG","","img/set1/S4.jpg","74","4","random","74","random,structured_incentive,structured_normal,structured_load","1,2,4,2,2,3","1,4,2,3","true","","",""
"null","","html-keyboard-response","329","344130","0.0-329.0","38JBBYETQPWR45E6PNQZMKHQ4634ET","AMELYCC59JKB0","3G9UA71JVVGUCOKNEKUVXTI6SA17JG","","<img src=""img/set1/S4.jpg"" width=""540"" height = ""360"" style=""border:16px solid orange"">","null","","","","","","","","","",""
"null","","html-keyboard-response","330","344330","0.0-330.0","38JBBYETQPWR45E6PNQZMKHQ4634ET","AMELYCC59JKB0","3G9UA71JVVGUCOKNEKUVXTI6SA17JG","","","null","","","","","","","","","",""
"583.2999999998137","","image-keyboard-response","331","344914","0.0-331.0","38JBBYETQPWR45E6PNQZMKHQ4634ET","AMELYCC59JKB0","3G9UA71JVVGUCOKNEKUVXTI6SA17JG","","img/set1/S3.jpg","72","3","random","72","random,structured_incentive,structured_normal,structured_load","1,2,4,2,2,3","1,4,2,3","true","","",""
"null","","html-keyboard-response","332","345265","0.0-332.0","38JBBYETQPWR45E6PNQZMKHQ4634ET","AMELYCC59JKB0","3G9UA71JVVGUCOKNEKUVXTI6SA17JG","","<img src=""img/set1/S3.jpg"" width=""540"" height = ""360"" style=""border:16px solid orange"">","null","","","","","","","","","",""
"null","","html-keyboard-response","333","345466","0.0-333.0","38JBBYETQPWR45E6PNQZMKHQ4634ET","AMELYCC59JKB0","3G9UA71JVVGUCOKNEKUVXTI6SA17JG","","","null","","","","","","","","","",""
"542","","image-keyboard-response","334","346009","0.0-334.0","38JBBYETQPWR45E6PNQZMKHQ4634ET","AMELYCC59JKB0","3G9UA71JVVGUCOKNEKUVXTI6SA17JG","","img/set1/S1.jpg","83","1","random","83","random,structured_incentive,structured_normal,structured_load","1,2,4,2,2,3","1,4,2,3","true","","",""
"null","","html-keyboard-response","335","346359","0.0-335.0","38JBBYETQPWR45E6PNQZMKHQ4634ET","AMELYCC59JKB0","3G9UA71JVVGUCOKNEKUVXTI6SA17JG","","<img src=""img/set1/S1.jpg"" width=""540"" height = ""360"" style=""border:16px solid orange"">","null","","","","","","","","","",""
"null","","html-keyboard-response","336","346561","0.0-336.0","38JBBYETQPWR45E6PNQZMKHQ4634ET","AMELYCC59JKB0","3G9UA71JVVGUCOKNEKUVXTI6SA17JG","","","null","","","","","","","","","",""
"565.7000000001863","","image-keyboard-response","337","347127","0.0-337.0","38JBBYETQPWR45E6PNQZMKHQ4634ET","AMELYCC59JKB0","3G9UA71JVVGUCOKNEKUVXTI6SA17JG","","img/set1/S4.jpg","74","4","random","74","random,structured_incentive,structured_normal,structured_load","1,2,4,2,2,3","1,4,2,3","true","","",""
"null","","html-keyboard-response","338","347479","0.0-338.0","38JBBYETQPWR45E6PNQZMKHQ4634ET","AMELYCC59JKB0","3G9UA71JVVGUCOKNEKUVXTI6SA17JG","","<img src=""img/set1/S4.jpg"" width=""540"" height = ""360"" style=""border:16px solid orange"">","null","","","","","","","","","",""
"null","","html-keyboard-response","339","347680","0.0-339.0","38JBBYETQPWR45E6PNQZMKHQ4634ET","AMELYCC59JKB0","3G9UA71JVVGUCOKNEKUVXTI6SA17JG","","","null","","","","","","","","","",""
"439.70000000018626","","image-keyboard-response","340","348120","0.0-340.0","38JBBYETQPWR45E6PNQZMKHQ4634ET","AMELYCC59JKB0","3G9UA71JVVGUCOKNEKUVXTI6SA17JG","","img/set1/S3.jpg","72","3","random","72","random,structured_incentive,structured_normal,structured_load","1,2,4,2,2,3","1,4,2,3","true","","",""
"null","","html-keyboard-response","341","348471","0.0-341.0","38JBBYETQPWR45E6PNQZMKHQ4634ET","AMELYCC59JKB0","3G9UA71JVVGUCOKNEKUVXTI6SA17JG","","<img src=""img/set1/S3.jpg"" width=""540"" height = ""360"" style=""border:16px solid orange"">","null","","","","","","","","","",""
"null","","html-keyboard-response","342","348671","0.0-342.0","38JBBYETQPWR45E6PNQZMKHQ4634ET","AMELYCC59JKB0","3G9UA71JVVGUCOKNEKUVXTI6SA17JG","","","null","","","","","","","","","",""
"452.8999999994412","","image-keyboard-response","343","349125","0.0-343.0","38JBBYETQPWR45E6PNQZMKHQ4634ET","AMELYCC59JKB0","3G9UA71JVVGUCOKNEKUVXTI6SA17JG","","img/set1/S3.jpg","72","3","random","72","random,structured_incentive,structured_normal,structured_load","1,2,4,2,2,3","1,4,2,3","true","","",""
"null","","html-keyboard-response","344","349476","0.0-344.0","38JBBYETQPWR45E6PNQZMKHQ4634ET","AMELYCC59JKB0","3G9UA71JVVGUCOKNEKUVXTI6SA17JG","","<img src=""img/set1/S3.jpg"" width=""540"" height = ""360"" style=""border:16px solid orange"">","null","","","","","","","","","",""
"null","","html-keyboard-response","345","349677","0.0-345.0","38JBBYETQPWR45E6PNQZMKHQ4634ET","AMELYCC59JKB0","3G9UA71JVVGUCOKNEKUVXTI6SA17JG","","","null","","","","","","","","","",""
"396.5","","image-keyboard-response","346","350074","0.0-346.0","38JBBYETQPWR45E6PNQZMKHQ4634ET","AMELYCC59JKB0","3G9UA71JVVGUCOKNEKUVXTI6SA17JG","","img/set1/S4.jpg","74","4","random","74","random,structured_incentive,structured_normal,structured_load","1,2,4,2,2,3","1,4,2,3","true","","",""
"null","","html-keyboard-response","347","350425","0.0-347.0","38JBBYETQPWR45E6PNQZMKHQ4634ET","AMELYCC59JKB0","3G9UA71JVVGUCOKNEKUVXTI6SA17JG","","<img src=""img/set1/S4.jpg"" width=""540"" height = ""360"" style=""border:16px solid orange"">","null","","","","","","","","","",""
"null","","html-keyboard-response","348","350626","0.0-348.0","38JBBYETQPWR45E6PNQZMKHQ4634ET","AMELYCC59JKB0","3G9UA71JVVGUCOKNEKUVXTI6SA17JG","","","null","","","","","","","","","",""
"557.8999999994412","","image-keyboard-response","349","351185","0.0-349.0","38JBBYETQPWR45E6PNQZMKHQ4634ET","AMELYCC59JKB0","3G9UA71JVVGUCOKNEKUVXTI6SA17JG","","img/set1/S2.jpg","68","2","random","68","random,structured_incentive,structured_normal,structured_load","1,2,4,2,2,3","1,4,2,3","true","","",""
"null","","html-keyboard-response","350","351536","0.0-350.0","38JBBYETQPWR45E6PNQZMKHQ4634ET","AMELYCC59JKB0","3G9UA71JVVGUCOKNEKUVXTI6SA17JG","","<img src=""img/set1/S2.jpg"" width=""540"" height = ""360"" style=""border:16px solid orange"">","null","","","","","","","","","",""
"null","","html-keyboard-response","351","351737","0.0-351.0","38JBBYETQPWR45E6PNQZMKHQ4634ET","AMELYCC59JKB0","3G9UA71JVVGUCOKNEKUVXTI6SA17JG","","","null","","","","","","","","","",""
"341.70000000018626","","image-keyboard-response","352","352079","0.0-352.0","38JBBYETQPWR45E6PNQZMKHQ4634ET","AMELYCC59JKB0","3G9UA71JVVGUCOKNEKUVXTI6SA17JG","","img/set1/S2.jpg","68","2","random","68","random,structured_incentive,structured_normal,structured_load","1,2,4,2,2,3","1,4,2,3","true","","",""
"null","","html-keyboard-response","353","352430","0.0-353.0","38JBBYETQPWR45E6PNQZMKHQ4634ET","AMELYCC59JKB0","3G9UA71JVVGUCOKNEKUVXTI6SA17JG","","<img src=""img/set1/S2.jpg"" width=""540"" height = ""360"" style=""border:16px solid orange"">","null","","","","","","","","","",""
"null","","html-keyboard-response","354","352631","0.0-354.0","38JBBYETQPWR45E6PNQZMKHQ4634ET","AMELYCC59JKB0","3G9UA71JVVGUCOKNEKUVXTI6SA17JG","","","null","","","","","","","","","",""
"560.2000000001863","","image-keyboard-response","355","353192","0.0-355.0","38JBBYETQPWR45E6PNQZMKHQ4634ET","AMELYCC59JKB0","3G9UA71JVVGUCOKNEKUVXTI6SA17JG","","img/set1/S3.jpg","72","3","random","72","random,structured_incentive,structured_normal,structured_load","1,2,4,2,2,3","1,4,2,3","true","","",""
"null","","html-keyboard-response","356","353544","0.0-356.0","38JBBYETQPWR45E6PNQZMKHQ4634ET","AMELYCC59JKB0","3G9UA71JVVGUCOKNEKUVXTI6SA17JG","","<img src=""img/set1/S3.jpg"" width=""540"" height = ""360"" style=""border:16px solid orange"">","null","","","","","","","","","",""
"null","","html-keyboard-response","357","353745","0.0-357.0","38JBBYETQPWR45E6PNQZMKHQ4634ET","AMELYCC59JKB0","3G9UA71JVVGUCOKNEKUVXTI6SA17JG","","","null","","","","","","","","","",""
"562.5","","image-keyboard-response","358","354308","0.0-358.0","38JBBYETQPWR45E6PNQZMKHQ4634ET","AMELYCC59JKB0","3G9UA71JVVGUCOKNEKUVXTI6SA17JG","","img/set1/S1.jpg","83","1","random","83","random,structured_incentive,structured_normal,structured_load","1,2,4,2,2,3","1,4,2,3","true","","",""
"null","","html-keyboard-response","359","354658","0.0-359.0","38JBBYETQPWR45E6PNQZMKHQ4634ET","AMELYCC59JKB0","3G9UA71JVVGUCOKNEKUVXTI6SA17JG","","<img src=""img/set1/S1.jpg"" width=""540"" height = ""360"" style=""border:16px solid orange"">","null","","","","","","","","","",""
"null","","html-keyboard-response","360","354860","0.0-360.0","38JBBYETQPWR45E6PNQZMKHQ4634ET","AMELYCC59JKB0","3G9UA71JVVGUCOKNEKUVXTI6SA17JG","","","null","","","","","","","","","",""
"577.7999999998137","","image-keyboard-response","361","355438","0.0-361.0","38JBBYETQPWR45E6PNQZMKHQ4634ET","AMELYCC59JKB0","3G9UA71JVVGUCOKNEKUVXTI6SA17JG","","img/set1/S3.jpg","72","3","random","72","random,structured_incentive,structured_normal,structured_load","1,2,4,2,2,3","1,4,2,3","true","","",""
"null","","html-keyboard-response","362","355789","0.0-362.0","38JBBYETQPWR45E6PNQZMKHQ4634ET","AMELYCC59JKB0","3G9UA71JVVGUCOKNEKUVXTI6SA17JG","","<img src=""img/set1/S3.jpg"" width=""540"" height = ""360"" style=""border:16px solid orange"">","null","","","","","","","","","",""
"null","","html-keyboard-response","363","355990","0.0-363.0","38JBBYETQPWR45E6PNQZMKHQ4634ET","AMELYCC59JKB0","3G9UA71JVVGUCOKNEKUVXTI6SA17JG","","","null","","","","","","","","","",""
"453.8999999994412","","image-keyboard-response","364","356445","0.0-364.0","38JBBYETQPWR45E6PNQZMKHQ4634ET","AMELYCC59JKB0","3G9UA71JVVGUCOKNEKUVXTI6SA17JG","","img/set1/S2.jpg","68","2","random","68","random,structured_incentive,structured_normal,structured_load","1,2,4,2,2,3","1,4,2,3","true","","",""
"null","","html-keyboard-response","365","356796","0.0-365.0","38JBBYETQPWR45E6PNQZMKHQ4634ET","AMELYCC59JKB0","3G9UA71JVVGUCOKNEKUVXTI6SA17JG","","<img src=""img/set1/S2.jpg"" width=""540"" height = ""360"" style=""border:16px solid orange"">","null","","","","","","","","","",""
"null","","html-keyboard-response","366","356997","0.0-366.0","38JBBYETQPWR45E6PNQZMKHQ4634ET","AMELYCC59JKB0","3G9UA71JVVGUCOKNEKUVXTI6SA17JG","","","null","","","","","","","","","",""
"329","","image-keyboard-response","367","357327","0.0-367.0","38JBBYETQPWR45E6PNQZMKHQ4634ET","AMELYCC59JKB0","3G9UA71JVVGUCOKNEKUVXTI6SA17JG","","img/set1/S2.jpg","68","2","random","68","random,structured_incentive,structured_normal,structured_load","1,2,4,2,2,3","1,4,2,3","true","","",""
"null","","html-keyboard-response","368","357678","0.0-368.0","38JBBYETQPWR45E6PNQZMKHQ4634ET","AMELYCC59JKB0","3G9UA71JVVGUCOKNEKUVXTI6SA17JG","","<img src=""img/set1/S2.jpg"" width=""540"" height = ""360"" style=""border:16px solid orange"">","null","","","","","","","","","",""
"null","","html-keyboard-response","369","357885","0.0-369.0","38JBBYETQPWR45E6PNQZMKHQ4634ET","AMELYCC59JKB0","3G9UA71JVVGUCOKNEKUVXTI6SA17JG","","","null","","","","","","","","","",""
"495.20000000018626","","image-keyboard-response","370","358381","0.0-370.0","38JBBYETQPWR45E6PNQZMKHQ4634ET","AMELYCC59JKB0","3G9UA71JVVGUCOKNEKUVXTI6SA17JG","","img/set1/S4.jpg","74","4","random","74","random,structured_incentive,structured_normal,structured_load","1,2,4,2,2,3","1,4,2,3","true","","",""
"null","","html-keyboard-response","371","358732","0.0-371.0","38JBBYETQPWR45E6PNQZMKHQ4634ET","AMELYCC59JKB0","3G9UA71JVVGUCOKNEKUVXTI6SA17JG","","<img src=""img/set1/S4.jpg"" width=""540"" height = ""360"" style=""border:16px solid orange"">","null","","","","","","","","","",""
"null","","html-keyboard-response","372","358933","0.0-372.0","38JBBYETQPWR45E6PNQZMKHQ4634ET","AMELYCC59JKB0","3G9UA71JVVGUCOKNEKUVXTI6SA17JG","","","null","","","","","","","","","",""
"384.20000000018626","","image-keyboard-response","373","359318","0.0-373.0","38JBBYETQPWR45E6PNQZMKHQ4634ET","AMELYCC59JKB0","3G9UA71JVVGUCOKNEKUVXTI6SA17JG","","img/set1/S2.jpg","72","2","random","68","random,structured_incentive,structured_normal,structured_load","1,2,4,2,2,3","1,4,2,3","false","","",""
"null","","html-keyboard-response","374","359669","0.0-374.0","38JBBYETQPWR45E6PNQZMKHQ4634ET","AMELYCC59JKB0","3G9UA71JVVGUCOKNEKUVXTI6SA17JG","","<img src=""img/set1/S2.jpg"" width=""540"" height = ""360"">","null","","","","","","","","","",""
"null","","html-keyboard-response","375","359870","0.0-375.0","38JBBYETQPWR45E6PNQZMKHQ4634ET","AMELYCC59JKB0","3G9UA71JVVGUCOKNEKUVXTI6SA17JG","","","null","","","","","","","","","",""
"706.3999999994412","","image-keyboard-response","376","360577","0.0-376.0","38JBBYETQPWR45E6PNQZMKHQ4634ET","AMELYCC59JKB0","3G9UA71JVVGUCOKNEKUVXTI6SA17JG","","img/set1/S2.jpg","68","2","random","68","random,structured_incentive,structured_normal,structured_load","1,2,4,2,2,3","1,4,2,3","true","","",""
"null","","html-keyboard-response","377","360942","0.0-377.0","38JBBYETQPWR45E6PNQZMKHQ4634ET","AMELYCC59JKB0","3G9UA71JVVGUCOKNEKUVXTI6SA17JG","","<img src=""img/set1/S2.jpg"" width=""540"" height = ""360"" style=""border:16px solid orange"">","null","","","","","","","","","",""
"null","","html-keyboard-response","378","361143","0.0-378.0","38JBBYETQPWR45E6PNQZMKHQ4634ET","AMELYCC59JKB0","3G9UA71JVVGUCOKNEKUVXTI6SA17JG","","","null","","","","","","","","","",""
"487.29999999981374","","image-keyboard-response","379","361631","0.0-379.0","38JBBYETQPWR45E6PNQZMKHQ4634ET","AMELYCC59JKB0","3G9UA71JVVGUCOKNEKUVXTI6SA17JG","","img/set1/S4.jpg","74","4","random","74","random,structured_incentive,structured_normal,structured_load","1,2,4,2,2,3","1,4,2,3","true","","",""
"null","","html-keyboard-response","380","361982","0.0-380.0","38JBBYETQPWR45E6PNQZMKHQ4634ET","AMELYCC59JKB0","3G9UA71JVVGUCOKNEKUVXTI6SA17JG","","<img src=""img/set1/S4.jpg"" width=""540"" height = ""360"" style=""border:16px solid orange"">","null","","","","","","","","","",""
"null","","html-keyboard-response","381","362183","0.0-381.0","38JBBYETQPWR45E6PNQZMKHQ4634ET","AMELYCC59JKB0","3G9UA71JVVGUCOKNEKUVXTI6SA17JG","","","null","","","","","","","","","",""
"447.59999999962747","","image-keyboard-response","382","362631","0.0-382.0","38JBBYETQPWR45E6PNQZMKHQ4634ET","AMELYCC59JKB0","3G9UA71JVVGUCOKNEKUVXTI6SA17JG","","img/set1/S2.jpg","68","2","random","68","random,structured_incentive,structured_normal,structured_load","1,2,4,2,2,3","1,4,2,3","true","","",""
"null","","html-keyboard-response","383","362981","0.0-383.0","38JBBYETQPWR45E6PNQZMKHQ4634ET","AMELYCC59JKB0","3G9UA71JVVGUCOKNEKUVXTI6SA17JG","","<img src=""img/set1/S2.jpg"" width=""540"" height = ""360"" style=""border:16px solid orange"">","null","","","","","","","","","",""
"null","","html-keyboard-response","384","363182","0.0-384.0","38JBBYETQPWR45E6PNQZMKHQ4634ET","AMELYCC59JKB0","3G9UA71JVVGUCOKNEKUVXTI6SA17JG","","","null","","","","","","","","","",""
"332.8999999994412","","image-keyboard-response","385","363516","0.0-385.0","38JBBYETQPWR45E6PNQZMKHQ4634ET","AMELYCC59JKB0","3G9UA71JVVGUCOKNEKUVXTI6SA17JG","","img/set1/S2.jpg","68","2","random","68","random,structured_incentive,structured_normal,structured_load","1,2,4,2,2,3","1,4,2,3","true","","",""
