"rt","url","trial_type","trial_index","time_elapsed","internal_node_id","assignmentID","mturkID","hitID","view_history","stimulus","key_press","state","test_part","correct_response","order_block","order_chunk","order_freq","correct","responses","question_order","bonus"
"15911","consent.html","external-html","0","15991","0.0-0.0","3180JW2OT5YHB44YHTK0OS0W9AUJ5Y","AMIQGW2E3WYO4","3G9UA71JVVGUCOKNEKUVXTI6SA17JG","","","","","","","","","","","","",""
"146137","","instructions","1","162129","0.0-1.0","3180JW2OT5YHB44YHTK0OS0W9AUJ5Y","AMIQGW2E3WYO4","3G9UA71JVVGUCOKNEKUVXTI6SA17JG","[{""page_index"":0,""viewing_time"":11879},{""page_index"":1,""viewing_time"":17194},{""page_index"":2,""viewing_time"":32372},{""page_index"":3,""viewing_time"":42454},{""page_index"":4,""viewing_time"":11361},{""page_index"":5,""viewing_time"":17898},{""page_index"":6,""viewing_time"":12978}]","","","","","","","","","","","",""
"54469","","instructions","2","216599","0.0-2.0","3180JW2OT5YHB44YHTK0OS0W9AUJ5Y","AMIQGW2E3WYO4","3G9UA71JVVGUCOKNEKUVXTI6SA17JG","[{""page_index"":0,""viewing_time"":54469}]","","","","","","","","","","","",""
"35428","","instructions","3","252028","0.0-3.0","3180JW2OT5YHB44YHTK0OS0W9AUJ5Y","AMIQGW2E3WYO4","3G9UA71JVVGUCOKNEKUVXTI6SA17JG","[{""page_index"":0,""viewing_time"":24426},{""page_index"":1,""viewing_time"":11002}]","","","","","","","","","","","",""
"1368","","image-keyboard-response","4","253399","0.0-4.0","3180JW2OT5YHB44YHTK0OS0W9AUJ5Y","AMIQGW2E3WYO4","3G9UA71JVVGUCOKNEKUVXTI6SA17JG","","img/set1/S4.jpg","83","4","structured_incentive","74","structured_incentive,structured_load,structured_normal,random","4,2,2,3,1,2","1,3,2,4","false","","",""
"null","","html-keyboard-response","5","253759","0.0-5.0","3180JW2OT5YHB44YHTK0OS0W9AUJ5Y","AMIQGW2E3WYO4","3G9UA71JVVGUCOKNEKUVXTI6SA17JG","","<img src=""img/set1/S4.jpg"" width=""540"" height = ""360"">","null","","","","","","","","","",""
"null","","html-keyboard-response","6","253962","0.0-6.0","3180JW2OT5YHB44YHTK0OS0W9AUJ5Y","AMIQGW2E3WYO4","3G9UA71JVVGUCOKNEKUVXTI6SA17JG","","","null","","","","","","","","","",""
"1435","","image-keyboard-response","7","255397","0.0-7.0","3180JW2OT5YHB44YHTK0OS0W9AUJ5Y","AMIQGW2E3WYO4","3G9UA71JVVGUCOKNEKUVXTI6SA17JG","","img/set1/S2.jpg","68","2","structured_incentive","68","structured_incentive,structured_load,structured_normal,random","4,2,2,3,1,2","1,3,2,4","true","","",""
"null","","html-keyboard-response","8","255755","0.0-8.0","3180JW2OT5YHB44YHTK0OS0W9AUJ5Y","AMIQGW2E3WYO4","3G9UA71JVVGUCOKNEKUVXTI6SA17JG","","<img src=""img/set1/S2.jpg"" width=""540"" height = ""360"" style=""border:16px solid orange"">","null","","","","","","","","","",""
"null","","html-keyboard-response","9","255961","0.0-9.0","3180JW2OT5YHB44YHTK0OS0W9AUJ5Y","AMIQGW2E3WYO4","3G9UA71JVVGUCOKNEKUVXTI6SA17JG","","","null","","","","","","","","","",""
"1283","","image-keyboard-response","10","257245","0.0-10.0","3180JW2OT5YHB44YHTK0OS0W9AUJ5Y","AMIQGW2E3WYO4","3G9UA71JVVGUCOKNEKUVXTI6SA17JG","","img/set1/S4.jpg","74","4","structured_incentive","74","structured_incentive,structured_load,structured_normal,random","4,2,2,3,1,2","1,3,2,4","true","","",""
"null","","html-keyboard-response","11","257600","0.0-11.0","3180JW2OT5YHB44YHTK0OS0W9AUJ5Y","AMIQGW2E3WYO4","3G9UA71JVVGUCOKNEKUVXTI6SA17JG","","<img src=""img/set1/S4.jpg"" width=""540"" height = ""360"" style=""border:16px solid orange"">","null","","","","","","","","","",""
"null","","html-keyboard-response","12","257803","0.0-12.0","3180JW2OT5YHB44YHTK0OS0W9AUJ5Y","AMIQGW2E3WYO4","3G9UA71JVVGUCOKNEKUVXTI6SA17JG","","","null","","","","","","","","","",""
"769","","image-keyboard-response","13","258573","0.0-13.0","3180JW2OT5YHB44YHTK0OS0W9AUJ5Y","AMIQGW2E3WYO4","3G9UA71JVVGUCOKNEKUVXTI6SA17JG","","img/set1/S2.jpg","74","2","structured_incentive","68","structured_incentive,structured_load,structured_normal,random","4,2,2,3,1,2","1,3,2,4","false","","",""
"null","","html-keyboard-response","14","258933","0.0-14.0","3180JW2OT5YHB44YHTK0OS0W9AUJ5Y","AMIQGW2E3WYO4","3G9UA71JVVGUCOKNEKUVXTI6SA17JG","","<img src=""img/set1/S2.jpg"" width=""540"" height = ""360"">","null","","","","","","","","","",""
"null","","html-keyboard-response","15","259139","0.0-15.0","3180JW2OT5YHB44YHTK0OS0W9AUJ5Y","AMIQGW2E3WYO4","3G9UA71JVVGUCOKNEKUVXTI6SA17JG","","","null","","","","","","","","","",""
"874","","image-keyboard-response","16","260013","0.0-16.0","3180JW2OT5YHB44YHTK0OS0W9AUJ5Y","AMIQGW2E3WYO4","3G9UA71JVVGUCOKNEKUVXTI6SA17JG","","img/set1/S1.jpg","72","1","structured_incentive","83","structured_incentive,structured_load,structured_normal,random","4,2,2,3,1,2","1,3,2,4","false","","",""
"null","","html-keyboard-response","17","260364","0.0-17.0","3180JW2OT5YHB44YHTK0OS0W9AUJ5Y","AMIQGW2E3WYO4","3G9UA71JVVGUCOKNEKUVXTI6SA17JG","","<img src=""img/set1/S1.jpg"" width=""540"" height = ""360"">","null","","","","","","","","","",""
"null","","html-keyboard-response","18","260570","0.0-18.0","3180JW2OT5YHB44YHTK0OS0W9AUJ5Y","AMIQGW2E3WYO4","3G9UA71JVVGUCOKNEKUVXTI6SA17JG","","","null","","","","","","","","","",""
"1010","","image-keyboard-response","19","261581","0.0-19.0","3180JW2OT5YHB44YHTK0OS0W9AUJ5Y","AMIQGW2E3WYO4","3G9UA71JVVGUCOKNEKUVXTI6SA17JG","","img/set1/S3.jpg","83","3","structured_incentive","72","structured_incentive,structured_load,structured_normal,random","4,2,2,3,1,2","1,3,2,4","false","","",""
"null","","html-keyboard-response","20","261942","0.0-20.0","3180JW2OT5YHB44YHTK0OS0W9AUJ5Y","AMIQGW2E3WYO4","3G9UA71JVVGUCOKNEKUVXTI6SA17JG","","<img src=""img/set1/S3.jpg"" width=""540"" height = ""360"">","null","","","","","","","","","",""
"null","","html-keyboard-response","21","262146","0.0-21.0","3180JW2OT5YHB44YHTK0OS0W9AUJ5Y","AMIQGW2E3WYO4","3G9UA71JVVGUCOKNEKUVXTI6SA17JG","","","null","","","","","","","","","",""
"722","","image-keyboard-response","22","262870","0.0-22.0","3180JW2OT5YHB44YHTK0OS0W9AUJ5Y","AMIQGW2E3WYO4","3G9UA71JVVGUCOKNEKUVXTI6SA17JG","","img/set1/S4.jpg","74","4","structured_incentive","74","structured_incentive,structured_load,structured_normal,random","4,2,2,3,1,2","1,3,2,4","true","","",""
"null","","html-keyboard-response","23","263221","0.0-23.0","3180JW2OT5YHB44YHTK0OS0W9AUJ5Y","AMIQGW2E3WYO4","3G9UA71JVVGUCOKNEKUVXTI6SA17JG","","<img src=""img/set1/S4.jpg"" width=""540"" height = ""360"" style=""border:16px solid orange"">","null","","","","","","","","","",""
"null","","html-keyboard-response","24","263423","0.0-24.0","3180JW2OT5YHB44YHTK0OS0W9AUJ5Y","AMIQGW2E3WYO4","3G9UA71JVVGUCOKNEKUVXTI6SA17JG","","","null","","","","","","","","","",""
"836","","image-keyboard-response","25","264261","0.0-25.0","3180JW2OT5YHB44YHTK0OS0W9AUJ5Y","AMIQGW2E3WYO4","3G9UA71JVVGUCOKNEKUVXTI6SA17JG","","img/set1/S3.jpg","68","3","structured_incentive","72","structured_incentive,structured_load,structured_normal,random","4,2,2,3,1,2","1,3,2,4","false","","",""
"null","","html-keyboard-response","26","264614","0.0-26.0","3180JW2OT5YHB44YHTK0OS0W9AUJ5Y","AMIQGW2E3WYO4","3G9UA71JVVGUCOKNEKUVXTI6SA17JG","","<img src=""img/set1/S3.jpg"" width=""540"" height = ""360"">","null","","","","","","","","","",""
"null","","html-keyboard-response","27","264821","0.0-27.0","3180JW2OT5YHB44YHTK0OS0W9AUJ5Y","AMIQGW2E3WYO4","3G9UA71JVVGUCOKNEKUVXTI6SA17JG","","","null","","","","","","","","","",""
"847","","image-keyboard-response","28","265669","0.0-28.0","3180JW2OT5YHB44YHTK0OS0W9AUJ5Y","AMIQGW2E3WYO4","3G9UA71JVVGUCOKNEKUVXTI6SA17JG","","img/set1/S2.jpg","72","2","structured_incentive","68","structured_incentive,structured_load,structured_normal,random","4,2,2,3,1,2","1,3,2,4","false","","",""
"null","","html-keyboard-response","29","266023","0.0-29.0","3180JW2OT5YHB44YHTK0OS0W9AUJ5Y","AMIQGW2E3WYO4","3G9UA71JVVGUCOKNEKUVXTI6SA17JG","","<img src=""img/set1/S2.jpg"" width=""540"" height = ""360"">","null","","","","","","","","","",""
"null","","html-keyboard-response","30","266230","0.0-30.0","3180JW2OT5YHB44YHTK0OS0W9AUJ5Y","AMIQGW2E3WYO4","3G9UA71JVVGUCOKNEKUVXTI6SA17JG","","","null","","","","","","","","","",""
"759","","image-keyboard-response","31","266989","0.0-31.0","3180JW2OT5YHB44YHTK0OS0W9AUJ5Y","AMIQGW2E3WYO4","3G9UA71JVVGUCOKNEKUVXTI6SA17JG","","img/set1/S1.jpg","83","1","structured_incentive","83","structured_incentive,structured_load,structured_normal,random","4,2,2,3,1,2","1,3,2,4","true","","",""
"null","","html-keyboard-response","32","267352","0.0-32.0","3180JW2OT5YHB44YHTK0OS0W9AUJ5Y","AMIQGW2E3WYO4","3G9UA71JVVGUCOKNEKUVXTI6SA17JG","","<img src=""img/set1/S1.jpg"" width=""540"" height = ""360"" style=""border:16px solid orange"">","null","","","","","","","","","",""
"null","","html-keyboard-response","33","267557","0.0-33.0","3180JW2OT5YHB44YHTK0OS0W9AUJ5Y","AMIQGW2E3WYO4","3G9UA71JVVGUCOKNEKUVXTI6SA17JG","","","null","","","","","","","","","",""
"784","","image-keyboard-response","34","268341","0.0-34.0","3180JW2OT5YHB44YHTK0OS0W9AUJ5Y","AMIQGW2E3WYO4","3G9UA71JVVGUCOKNEKUVXTI6SA17JG","","img/set1/S4.jpg","74","4","structured_incentive","74","structured_incentive,structured_load,structured_normal,random","4,2,2,3,1,2","1,3,2,4","true","","",""
"null","","html-keyboard-response","35","268699","0.0-35.0","3180JW2OT5YHB44YHTK0OS0W9AUJ5Y","AMIQGW2E3WYO4","3G9UA71JVVGUCOKNEKUVXTI6SA17JG","","<img src=""img/set1/S4.jpg"" width=""540"" height = ""360"" style=""border:16px solid orange"">","null","","","","","","","","","",""
"null","","html-keyboard-response","36","268905","0.0-36.0","3180JW2OT5YHB44YHTK0OS0W9AUJ5Y","AMIQGW2E3WYO4","3G9UA71JVVGUCOKNEKUVXTI6SA17JG","","","null","","","","","","","","","",""
"716","","image-keyboard-response","37","269622","0.0-37.0","3180JW2OT5YHB44YHTK0OS0W9AUJ5Y","AMIQGW2E3WYO4","3G9UA71JVVGUCOKNEKUVXTI6SA17JG","","img/set1/S2.jpg","74","2","structured_incentive","68","structured_incentive,structured_load,structured_normal,random","4,2,2,3,1,2","1,3,2,4","false","","",""
"null","","html-keyboard-response","38","269975","0.0-38.0","3180JW2OT5YHB44YHTK0OS0W9AUJ5Y","AMIQGW2E3WYO4","3G9UA71JVVGUCOKNEKUVXTI6SA17JG","","<img src=""img/set1/S2.jpg"" width=""540"" height = ""360"">","null","","","","","","","","","",""
"null","","html-keyboard-response","39","270179","0.0-39.0","3180JW2OT5YHB44YHTK0OS0W9AUJ5Y","AMIQGW2E3WYO4","3G9UA71JVVGUCOKNEKUVXTI6SA17JG","","","null","","","","","","","","","",""
"769","","image-keyboard-response","40","270949","0.0-40.0","3180JW2OT5YHB44YHTK0OS0W9AUJ5Y","AMIQGW2E3WYO4","3G9UA71JVVGUCOKNEKUVXTI6SA17JG","","img/set1/S3.jpg","72","3","structured_incentive","72","structured_incentive,structured_load,structured_normal,random","4,2,2,3,1,2","1,3,2,4","true","","",""
"null","","html-keyboard-response","41","271315","0.0-41.0","3180JW2OT5YHB44YHTK0OS0W9AUJ5Y","AMIQGW2E3WYO4","3G9UA71JVVGUCOKNEKUVXTI6SA17JG","","<img src=""img/set1/S3.jpg"" width=""540"" height = ""360"" style=""border:16px solid Violet"">","null","","","","","","","","","",""
"null","","html-keyboard-response","42","271519","0.0-42.0","3180JW2OT5YHB44YHTK0OS0W9AUJ5Y","AMIQGW2E3WYO4","3G9UA71JVVGUCOKNEKUVXTI6SA17JG","","","null","","","","","","","","","",""
"909","","image-keyboard-response","43","272429","0.0-43.0","3180JW2OT5YHB44YHTK0OS0W9AUJ5Y","AMIQGW2E3WYO4","3G9UA71JVVGUCOKNEKUVXTI6SA17JG","","img/set1/S3.jpg","68","3","structured_incentive","72","structured_incentive,structured_load,structured_normal,random","4,2,2,3,1,2","1,3,2,4","false","","",""
"null","","html-keyboard-response","44","272783","0.0-44.0","3180JW2OT5YHB44YHTK0OS0W9AUJ5Y","AMIQGW2E3WYO4","3G9UA71JVVGUCOKNEKUVXTI6SA17JG","","<img src=""img/set1/S3.jpg"" width=""540"" height = ""360"">","null","","","","","","","","","",""
"null","","html-keyboard-response","45","272991","0.0-45.0","3180JW2OT5YHB44YHTK0OS0W9AUJ5Y","AMIQGW2E3WYO4","3G9UA71JVVGUCOKNEKUVXTI6SA17JG","","","null","","","","","","","","","",""
"726","","image-keyboard-response","46","273718","0.0-46.0","3180JW2OT5YHB44YHTK0OS0W9AUJ5Y","AMIQGW2E3WYO4","3G9UA71JVVGUCOKNEKUVXTI6SA17JG","","img/set1/S1.jpg","83","1","structured_incentive","83","structured_incentive,structured_load,structured_normal,random","4,2,2,3,1,2","1,3,2,4","true","","",""
"null","","html-keyboard-response","47","274069","0.0-47.0","3180JW2OT5YHB44YHTK0OS0W9AUJ5Y","AMIQGW2E3WYO4","3G9UA71JVVGUCOKNEKUVXTI6SA17JG","","<img src=""img/set1/S1.jpg"" width=""540"" height = ""360"" style=""border:16px solid orange"">","null","","","","","","","","","",""
"null","","html-keyboard-response","48","274273","0.0-48.0","3180JW2OT5YHB44YHTK0OS0W9AUJ5Y","AMIQGW2E3WYO4","3G9UA71JVVGUCOKNEKUVXTI6SA17JG","","","null","","","","","","","","","",""
"860","","image-keyboard-response","49","275133","0.0-49.0","3180JW2OT5YHB44YHTK0OS0W9AUJ5Y","AMIQGW2E3WYO4","3G9UA71JVVGUCOKNEKUVXTI6SA17JG","","img/set1/S1.jpg","83","1","structured_incentive","83","structured_incentive,structured_load,structured_normal,random","4,2,2,3,1,2","1,3,2,4","true","","",""
"null","","html-keyboard-response","50","275487","0.0-50.0","3180JW2OT5YHB44YHTK0OS0W9AUJ5Y","AMIQGW2E3WYO4","3G9UA71JVVGUCOKNEKUVXTI6SA17JG","","<img src=""img/set1/S1.jpg"" width=""540"" height = ""360"" style=""border:16px solid orange"">","null","","","","","","","","","",""
"null","","html-keyboard-response","51","275694","0.0-51.0","3180JW2OT5YHB44YHTK0OS0W9AUJ5Y","AMIQGW2E3WYO4","3G9UA71JVVGUCOKNEKUVXTI6SA17JG","","","null","","","","","","","","","",""
"823","","image-keyboard-response","52","276517","0.0-52.0","3180JW2OT5YHB44YHTK0OS0W9AUJ5Y","AMIQGW2E3WYO4","3G9UA71JVVGUCOKNEKUVXTI6SA17JG","","img/set1/S1.jpg","83","1","structured_incentive","83","structured_incentive,structured_load,structured_normal,random","4,2,2,3,1,2","1,3,2,4","true","","",""
"null","","html-keyboard-response","53","276869","0.0-53.0","3180JW2OT5YHB44YHTK0OS0W9AUJ5Y","AMIQGW2E3WYO4","3G9UA71JVVGUCOKNEKUVXTI6SA17JG","","<img src=""img/set1/S1.jpg"" width=""540"" height = ""360"" style=""border:16px solid orange"">","null","","","","","","","","","",""
"null","","html-keyboard-response","54","277076","0.0-54.0","3180JW2OT5YHB44YHTK0OS0W9AUJ5Y","AMIQGW2E3WYO4","3G9UA71JVVGUCOKNEKUVXTI6SA17JG","","","null","","","","","","","","","",""
"1097","","image-keyboard-response","55","278173","0.0-55.0","3180JW2OT5YHB44YHTK0OS0W9AUJ5Y","AMIQGW2E3WYO4","3G9UA71JVVGUCOKNEKUVXTI6SA17JG","","img/set1/S4.jpg","74","4","structured_incentive","74","structured_incentive,structured_load,structured_normal,random","4,2,2,3,1,2","1,3,2,4","true","","",""
"null","","html-keyboard-response","56","278535","0.0-56.0","3180JW2OT5YHB44YHTK0OS0W9AUJ5Y","AMIQGW2E3WYO4","3G9UA71JVVGUCOKNEKUVXTI6SA17JG","","<img src=""img/set1/S4.jpg"" width=""540"" height = ""360"" style=""border:16px solid orange"">","null","","","","","","","","","",""
"null","","html-keyboard-response","57","278742","0.0-57.0","3180JW2OT5YHB44YHTK0OS0W9AUJ5Y","AMIQGW2E3WYO4","3G9UA71JVVGUCOKNEKUVXTI6SA17JG","","","null","","","","","","","","","",""
"798","","image-keyboard-response","58","279541","0.0-58.0","3180JW2OT5YHB44YHTK0OS0W9AUJ5Y","AMIQGW2E3WYO4","3G9UA71JVVGUCOKNEKUVXTI6SA17JG","","img/set1/S2.jpg","72","2","structured_incentive","68","structured_incentive,structured_load,structured_normal,random","4,2,2,3,1,2","1,3,2,4","false","","",""
"null","","html-keyboard-response","59","279897","0.0-59.0","3180JW2OT5YHB44YHTK0OS0W9AUJ5Y","AMIQGW2E3WYO4","3G9UA71JVVGUCOKNEKUVXTI6SA17JG","","<img src=""img/set1/S2.jpg"" width=""540"" height = ""360"">","null","","","","","","","","","",""
"null","","html-keyboard-response","60","280102","0.0-60.0","3180JW2OT5YHB44YHTK0OS0W9AUJ5Y","AMIQGW2E3WYO4","3G9UA71JVVGUCOKNEKUVXTI6SA17JG","","","null","","","","","","","","","",""
"902","","image-keyboard-response","61","281005","0.0-61.0","3180JW2OT5YHB44YHTK0OS0W9AUJ5Y","AMIQGW2E3WYO4","3G9UA71JVVGUCOKNEKUVXTI6SA17JG","","img/set1/S4.jpg","83","4","structured_incentive","74","structured_incentive,structured_load,structured_normal,random","4,2,2,3,1,2","1,3,2,4","false","","",""
"null","","html-keyboard-response","62","281371","0.0-62.0","3180JW2OT5YHB44YHTK0OS0W9AUJ5Y","AMIQGW2E3WYO4","3G9UA71JVVGUCOKNEKUVXTI6SA17JG","","<img src=""img/set1/S4.jpg"" width=""540"" height = ""360"">","null","","","","","","","","","",""
"null","","html-keyboard-response","63","281575","0.0-63.0","3180JW2OT5YHB44YHTK0OS0W9AUJ5Y","AMIQGW2E3WYO4","3G9UA71JVVGUCOKNEKUVXTI6SA17JG","","","null","","","","","","","","","",""
"982","","image-keyboard-response","64","282557","0.0-64.0","3180JW2OT5YHB44YHTK0OS0W9AUJ5Y","AMIQGW2E3WYO4","3G9UA71JVVGUCOKNEKUVXTI6SA17JG","","img/set1/S2.jpg","68","2","structured_incentive","68","structured_incentive,structured_load,structured_normal,random","4,2,2,3,1,2","1,3,2,4","true","","",""
"null","","html-keyboard-response","65","282911","0.0-65.0","3180JW2OT5YHB44YHTK0OS0W9AUJ5Y","AMIQGW2E3WYO4","3G9UA71JVVGUCOKNEKUVXTI6SA17JG","","<img src=""img/set1/S2.jpg"" width=""540"" height = ""360"" style=""border:16px solid orange"">","null","","","","","","","","","",""
"null","","html-keyboard-response","66","283116","0.0-66.0","3180JW2OT5YHB44YHTK0OS0W9AUJ5Y","AMIQGW2E3WYO4","3G9UA71JVVGUCOKNEKUVXTI6SA17JG","","","null","","","","","","","","","",""
"976","","image-keyboard-response","67","284093","0.0-67.0","3180JW2OT5YHB44YHTK0OS0W9AUJ5Y","AMIQGW2E3WYO4","3G9UA71JVVGUCOKNEKUVXTI6SA17JG","","img/set1/S4.jpg","74","4","structured_incentive","74","structured_incentive,structured_load,structured_normal,random","4,2,2,3,1,2","1,3,2,4","true","","",""
"null","","html-keyboard-response","68","284455","0.0-68.0","3180JW2OT5YHB44YHTK0OS0W9AUJ5Y","AMIQGW2E3WYO4","3G9UA71JVVGUCOKNEKUVXTI6SA17JG","","<img src=""img/set1/S4.jpg"" width=""540"" height = ""360"" style=""border:16px solid orange"">","null","","","","","","","","","",""
"null","","html-keyboard-response","69","284663","0.0-69.0","3180JW2OT5YHB44YHTK0OS0W9AUJ5Y","AMIQGW2E3WYO4","3G9UA71JVVGUCOKNEKUVXTI6SA17JG","","","null","","","","","","","","","",""
"1086","","image-keyboard-response","70","285750","0.0-70.0","3180JW2OT5YHB44YHTK0OS0W9AUJ5Y","AMIQGW2E3WYO4","3G9UA71JVVGUCOKNEKUVXTI6SA17JG","","img/set1/S2.jpg","72","2","structured_incentive","68","structured_incentive,structured_load,structured_normal,random","4,2,2,3,1,2","1,3,2,4","false","","",""
"null","","html-keyboard-response","71","286107","0.0-71.0","3180JW2OT5YHB44YHTK0OS0W9AUJ5Y","AMIQGW2E3WYO4","3G9UA71JVVGUCOKNEKUVXTI6SA17JG","","<img src=""img/set1/S2.jpg"" width=""540"" height = ""360"">","null","","","","","","","","","",""
"null","","html-keyboard-response","72","286316","0.0-72.0","3180JW2OT5YHB44YHTK0OS0W9AUJ5Y","AMIQGW2E3WYO4","3G9UA71JVVGUCOKNEKUVXTI6SA17JG","","","null","","","","","","","","","",""
"1545","","image-keyboard-response","73","287861","0.0-73.0","3180JW2OT5YHB44YHTK0OS0W9AUJ5Y","AMIQGW2E3WYO4","3G9UA71JVVGUCOKNEKUVXTI6SA17JG","","img/set1/S3.jpg","68","3","structured_incentive","72","structured_incentive,structured_load,structured_normal,random","4,2,2,3,1,2","1,3,2,4","false","","",""
"null","","html-keyboard-response","74","288226","0.0-74.0","3180JW2OT5YHB44YHTK0OS0W9AUJ5Y","AMIQGW2E3WYO4","3G9UA71JVVGUCOKNEKUVXTI6SA17JG","","<img src=""img/set1/S3.jpg"" width=""540"" height = ""360"">","null","","","","","","","","","",""
"null","","html-keyboard-response","75","288432","0.0-75.0","3180JW2OT5YHB44YHTK0OS0W9AUJ5Y","AMIQGW2E3WYO4","3G9UA71JVVGUCOKNEKUVXTI6SA17JG","","","null","","","","","","","","","",""
"444","","image-keyboard-response","76","288877","0.0-76.0","3180JW2OT5YHB44YHTK0OS0W9AUJ5Y","AMIQGW2E3WYO4","3G9UA71JVVGUCOKNEKUVXTI6SA17JG","","img/set1/S4.jpg","83","4","structured_incentive","74","structured_incentive,structured_load,structured_normal,random","4,2,2,3,1,2","1,3,2,4","false","","",""
"null","","html-keyboard-response","77","289242","0.0-77.0","3180JW2OT5YHB44YHTK0OS0W9AUJ5Y","AMIQGW2E3WYO4","3G9UA71JVVGUCOKNEKUVXTI6SA17JG","","<img src=""img/set1/S4.jpg"" width=""540"" height = ""360"">","null","","","","","","","","","",""
"null","","html-keyboard-response","78","289449","0.0-78.0","3180JW2OT5YHB44YHTK0OS0W9AUJ5Y","AMIQGW2E3WYO4","3G9UA71JVVGUCOKNEKUVXTI6SA17JG","","","null","","","","","","","","","",""
"356","","image-keyboard-response","79","289805","0.0-79.0","3180JW2OT5YHB44YHTK0OS0W9AUJ5Y","AMIQGW2E3WYO4","3G9UA71JVVGUCOKNEKUVXTI6SA17JG","","img/set1/S2.jpg","74","2","structured_incentive","68","structured_incentive,structured_load,structured_normal,random","4,2,2,3,1,2","1,3,2,4","false","","",""
"null","","html-keyboard-response","80","290166","0.0-80.0","3180JW2OT5YHB44YHTK0OS0W9AUJ5Y","AMIQGW2E3WYO4","3G9UA71JVVGUCOKNEKUVXTI6SA17JG","","<img src=""img/set1/S2.jpg"" width=""540"" height = ""360"">","null","","","","","","","","","",""
"null","","html-keyboard-response","81","290374","0.0-81.0","3180JW2OT5YHB44YHTK0OS0W9AUJ5Y","AMIQGW2E3WYO4","3G9UA71JVVGUCOKNEKUVXTI6SA17JG","","","null","","","","","","","","","",""
"1038","","image-keyboard-response","82","291414","0.0-82.0","3180JW2OT5YHB44YHTK0OS0W9AUJ5Y","AMIQGW2E3WYO4","3G9UA71JVVGUCOKNEKUVXTI6SA17JG","","img/set1/S1.jpg","72","1","structured_incentive","83","structured_incentive,structured_load,structured_normal,random","4,2,2,3,1,2","1,3,2,4","false","","",""
"null","","html-keyboard-response","83","291770","0.0-83.0","3180JW2OT5YHB44YHTK0OS0W9AUJ5Y","AMIQGW2E3WYO4","3G9UA71JVVGUCOKNEKUVXTI6SA17JG","","<img src=""img/set1/S1.jpg"" width=""540"" height = ""360"">","null","","","","","","","","","",""
"null","","html-keyboard-response","84","291974","0.0-84.0","3180JW2OT5YHB44YHTK0OS0W9AUJ5Y","AMIQGW2E3WYO4","3G9UA71JVVGUCOKNEKUVXTI6SA17JG","","","null","","","","","","","","","",""
"1023","","image-keyboard-response","85","292997","0.0-85.0","3180JW2OT5YHB44YHTK0OS0W9AUJ5Y","AMIQGW2E3WYO4","3G9UA71JVVGUCOKNEKUVXTI6SA17JG","","img/set1/S3.jpg","74","3","structured_incentive","72","structured_incentive,structured_load,structured_normal,random","4,2,2,3,1,2","1,3,2,4","false","","",""
"null","","html-keyboard-response","86","293348","0.0-86.0","3180JW2OT5YHB44YHTK0OS0W9AUJ5Y","AMIQGW2E3WYO4","3G9UA71JVVGUCOKNEKUVXTI6SA17JG","","<img src=""img/set1/S3.jpg"" width=""540"" height = ""360"">","null","","","","","","","","","",""
"null","","html-keyboard-response","87","293556","0.0-87.0","3180JW2OT5YHB44YHTK0OS0W9AUJ5Y","AMIQGW2E3WYO4","3G9UA71JVVGUCOKNEKUVXTI6SA17JG","","","null","","","","","","","","","",""
"640","","image-keyboard-response","88","294197","0.0-88.0","3180JW2OT5YHB44YHTK0OS0W9AUJ5Y","AMIQGW2E3WYO4","3G9UA71JVVGUCOKNEKUVXTI6SA17JG","","img/set1/S4.jpg","74","4","structured_incentive","74","structured_incentive,structured_load,structured_normal,random","4,2,2,3,1,2","1,3,2,4","true","","",""
"null","","html-keyboard-response","89","294554","0.0-89.0","3180JW2OT5YHB44YHTK0OS0W9AUJ5Y","AMIQGW2E3WYO4","3G9UA71JVVGUCOKNEKUVXTI6SA17JG","","<img src=""img/set1/S4.jpg"" width=""540"" height = ""360"" style=""border:16px solid orange"">","null","","","","","","","","","",""
"null","","html-keyboard-response","90","294759","0.0-90.0","3180JW2OT5YHB44YHTK0OS0W9AUJ5Y","AMIQGW2E3WYO4","3G9UA71JVVGUCOKNEKUVXTI6SA17JG","","","null","","","","","","","","","",""
"null","","image-keyboard-response","91","297264","0.0-91.0","3180JW2OT5YHB44YHTK0OS0W9AUJ5Y","AMIQGW2E3WYO4","3G9UA71JVVGUCOKNEKUVXTI6SA17JG","","img/set1/S3.jpg","null","3","structured_incentive","72","structured_incentive,structured_load,structured_normal,random","4,2,2,3,1,2","1,3,2,4","false","","",""
"null","","html-keyboard-response","92","297626","0.0-92.0","3180JW2OT5YHB44YHTK0OS0W9AUJ5Y","AMIQGW2E3WYO4","3G9UA71JVVGUCOKNEKUVXTI6SA17JG","","<img src=""img/set1/S3.jpg"" width=""540"" height = ""360"">","null","","","","","","","","","",""
"null","","html-keyboard-response","93","297832","0.0-93.0","3180JW2OT5YHB44YHTK0OS0W9AUJ5Y","AMIQGW2E3WYO4","3G9UA71JVVGUCOKNEKUVXTI6SA17JG","","","null","","","","","","","","","",""
"2429","","image-keyboard-response","94","300262","0.0-94.0","3180JW2OT5YHB44YHTK0OS0W9AUJ5Y","AMIQGW2E3WYO4","3G9UA71JVVGUCOKNEKUVXTI6SA17JG","","img/set1/S3.jpg","68","3","structured_incentive","72","structured_incentive,structured_load,structured_normal,random","4,2,2,3,1,2","1,3,2,4","false","","",""
"null","","html-keyboard-response","95","300626","0.0-95.0","3180JW2OT5YHB44YHTK0OS0W9AUJ5Y","AMIQGW2E3WYO4","3G9UA71JVVGUCOKNEKUVXTI6SA17JG","","<img src=""img/set1/S3.jpg"" width=""540"" height = ""360"">","null","","","","","","","","","",""
"null","","html-keyboard-response","96","300833","0.0-96.0","3180JW2OT5YHB44YHTK0OS0W9AUJ5Y","AMIQGW2E3WYO4","3G9UA71JVVGUCOKNEKUVXTI6SA17JG","","","null","","","","","","","","","",""
"852","","image-keyboard-response","97","301686","0.0-97.0","3180JW2OT5YHB44YHTK0OS0W9AUJ5Y","AMIQGW2E3WYO4","3G9UA71JVVGUCOKNEKUVXTI6SA17JG","","img/set1/S1.jpg","72","1","structured_incentive","83","structured_incentive,structured_load,structured_normal,random","4,2,2,3,1,2","1,3,2,4","false","","",""
"null","","html-keyboard-response","98","302050","0.0-98.0","3180JW2OT5YHB44YHTK0OS0W9AUJ5Y","AMIQGW2E3WYO4","3G9UA71JVVGUCOKNEKUVXTI6SA17JG","","<img src=""img/set1/S1.jpg"" width=""540"" height = ""360"">","null","","","","","","","","","",""
"null","","html-keyboard-response","99","302259","0.0-99.0","3180JW2OT5YHB44YHTK0OS0W9AUJ5Y","AMIQGW2E3WYO4","3G9UA71JVVGUCOKNEKUVXTI6SA17JG","","","null","","","","","","","","","",""
"698","","image-keyboard-response","100","302957","0.0-100.0","3180JW2OT5YHB44YHTK0OS0W9AUJ5Y","AMIQGW2E3WYO4","3G9UA71JVVGUCOKNEKUVXTI6SA17JG","","img/set1/S4.jpg","83","4","structured_incentive","74","structured_incentive,structured_load,structured_normal,random","4,2,2,3,1,2","1,3,2,4","false","","",""
"null","","html-keyboard-response","101","303317","0.0-101.0","3180JW2OT5YHB44YHTK0OS0W9AUJ5Y","AMIQGW2E3WYO4","3G9UA71JVVGUCOKNEKUVXTI6SA17JG","","<img src=""img/set1/S4.jpg"" width=""540"" height = ""360"">","null","","","","","","","","","",""
"null","","html-keyboard-response","102","303521","0.0-102.0","3180JW2OT5YHB44YHTK0OS0W9AUJ5Y","AMIQGW2E3WYO4","3G9UA71JVVGUCOKNEKUVXTI6SA17JG","","","null","","","","","","","","","",""
"356","","image-keyboard-response","103","303877","0.0-103.0","3180JW2OT5YHB44YHTK0OS0W9AUJ5Y","AMIQGW2E3WYO4","3G9UA71JVVGUCOKNEKUVXTI6SA17JG","","img/set1/S2.jpg","68","2","structured_incentive","68","structured_incentive,structured_load,structured_normal,random","4,2,2,3,1,2","1,3,2,4","true","","",""
"null","","html-keyboard-response","104","304233","0.0-104.0","3180JW2OT5YHB44YHTK0OS0W9AUJ5Y","AMIQGW2E3WYO4","3G9UA71JVVGUCOKNEKUVXTI6SA17JG","","<img src=""img/set1/S2.jpg"" width=""540"" height = ""360"" style=""border:16px solid orange"">","null","","","","","","","","","",""
"null","","html-keyboard-response","105","304441","0.0-105.0","3180JW2OT5YHB44YHTK0OS0W9AUJ5Y","AMIQGW2E3WYO4","3G9UA71JVVGUCOKNEKUVXTI6SA17JG","","","null","","","","","","","","","",""
"null","","image-keyboard-response","106","306944","0.0-106.0","3180JW2OT5YHB44YHTK0OS0W9AUJ5Y","AMIQGW2E3WYO4","3G9UA71JVVGUCOKNEKUVXTI6SA17JG","","img/set1/S3.jpg","null","3","structured_incentive","72","structured_incentive,structured_load,structured_normal,random","4,2,2,3,1,2","1,3,2,4","false","","",""
"null","","html-keyboard-response","107","307308","0.0-107.0","3180JW2OT5YHB44YHTK0OS0W9AUJ5Y","AMIQGW2E3WYO4","3G9UA71JVVGUCOKNEKUVXTI6SA17JG","","<img src=""img/set1/S3.jpg"" width=""540"" height = ""360"">","null","","","","","","","","","",""
"null","","html-keyboard-response","108","307512","0.0-108.0","3180JW2OT5YHB44YHTK0OS0W9AUJ5Y","AMIQGW2E3WYO4","3G9UA71JVVGUCOKNEKUVXTI6SA17JG","","","null","","","","","","","","","",""
"1508","","image-keyboard-response","109","309021","0.0-109.0","3180JW2OT5YHB44YHTK0OS0W9AUJ5Y","AMIQGW2E3WYO4","3G9UA71JVVGUCOKNEKUVXTI6SA17JG","","img/set1/S3.jpg","83","3","structured_incentive","72","structured_incentive,structured_load,structured_normal,random","4,2,2,3,1,2","1,3,2,4","false","","",""
"null","","html-keyboard-response","110","309374","0.0-110.0","3180JW2OT5YHB44YHTK0OS0W9AUJ5Y","AMIQGW2E3WYO4","3G9UA71JVVGUCOKNEKUVXTI6SA17JG","","<img src=""img/set1/S3.jpg"" width=""540"" height = ""360"">","null","","","","","","","","","",""
"null","","html-keyboard-response","111","309577","0.0-111.0","3180JW2OT5YHB44YHTK0OS0W9AUJ5Y","AMIQGW2E3WYO4","3G9UA71JVVGUCOKNEKUVXTI6SA17JG","","","null","","","","","","","","","",""
"587","","image-keyboard-response","112","310165","0.0-112.0","3180JW2OT5YHB44YHTK0OS0W9AUJ5Y","AMIQGW2E3WYO4","3G9UA71JVVGUCOKNEKUVXTI6SA17JG","","img/set1/S4.jpg","74","4","structured_incentive","74","structured_incentive,structured_load,structured_normal,random","4,2,2,3,1,2","1,3,2,4","true","","",""
"null","","html-keyboard-response","113","310528","0.0-113.0","3180JW2OT5YHB44YHTK0OS0W9AUJ5Y","AMIQGW2E3WYO4","3G9UA71JVVGUCOKNEKUVXTI6SA17JG","","<img src=""img/set1/S4.jpg"" width=""540"" height = ""360"" style=""border:16px solid orange"">","null","","","","","","","","","",""
"null","","html-keyboard-response","114","310735","0.0-114.0","3180JW2OT5YHB44YHTK0OS0W9AUJ5Y","AMIQGW2E3WYO4","3G9UA71JVVGUCOKNEKUVXTI6SA17JG","","","null","","","","","","","","","",""
"1798","","image-keyboard-response","115","312533","0.0-115.0","3180JW2OT5YHB44YHTK0OS0W9AUJ5Y","AMIQGW2E3WYO4","3G9UA71JVVGUCOKNEKUVXTI6SA17JG","","img/set1/S2.jpg","83","2","structured_incentive","68","structured_incentive,structured_load,structured_normal,random","4,2,2,3,1,2","1,3,2,4","false","","",""
"null","","html-keyboard-response","116","312889","0.0-116.0","3180JW2OT5YHB44YHTK0OS0W9AUJ5Y","AMIQGW2E3WYO4","3G9UA71JVVGUCOKNEKUVXTI6SA17JG","","<img src=""img/set1/S2.jpg"" width=""540"" height = ""360"">","null","","","","","","","","","",""
"null","","html-keyboard-response","117","313097","0.0-117.0","3180JW2OT5YHB44YHTK0OS0W9AUJ5Y","AMIQGW2E3WYO4","3G9UA71JVVGUCOKNEKUVXTI6SA17JG","","","null","","","","","","","","","",""
"1461","","image-keyboard-response","118","314557","0.0-118.0","3180JW2OT5YHB44YHTK0OS0W9AUJ5Y","AMIQGW2E3WYO4","3G9UA71JVVGUCOKNEKUVXTI6SA17JG","","img/set1/S2.jpg","68","2","structured_incentive","68","structured_incentive,structured_load,structured_normal,random","4,2,2,3,1,2","1,3,2,4","true","","",""
"null","","html-keyboard-response","119","314919","0.0-119.0","3180JW2OT5YHB44YHTK0OS0W9AUJ5Y","AMIQGW2E3WYO4","3G9UA71JVVGUCOKNEKUVXTI6SA17JG","","<img src=""img/set1/S2.jpg"" width=""540"" height = ""360"" style=""border:16px solid orange"">","null","","","","","","","","","",""
"null","","html-keyboard-response","120","315121","0.0-120.0","3180JW2OT5YHB44YHTK0OS0W9AUJ5Y","AMIQGW2E3WYO4","3G9UA71JVVGUCOKNEKUVXTI6SA17JG","","","null","","","","","","","","","",""
"836","","image-keyboard-response","121","315957","0.0-121.0","3180JW2OT5YHB44YHTK0OS0W9AUJ5Y","AMIQGW2E3WYO4","3G9UA71JVVGUCOKNEKUVXTI6SA17JG","","img/set1/S4.jpg","74","4","structured_incentive","74","structured_incentive,structured_load,structured_normal,random","4,2,2,3,1,2","1,3,2,4","true","","",""
"null","","html-keyboard-response","122","316321","0.0-122.0","3180JW2OT5YHB44YHTK0OS0W9AUJ5Y","AMIQGW2E3WYO4","3G9UA71JVVGUCOKNEKUVXTI6SA17JG","","<img src=""img/set1/S4.jpg"" width=""540"" height = ""360"" style=""border:16px solid orange"">","null","","","","","","","","","",""
"null","","html-keyboard-response","123","316530","0.0-123.0","3180JW2OT5YHB44YHTK0OS0W9AUJ5Y","AMIQGW2E3WYO4","3G9UA71JVVGUCOKNEKUVXTI6SA17JG","","","null","","","","","","","","","",""
"1122","","image-keyboard-response","124","317653","0.0-124.0","3180JW2OT5YHB44YHTK0OS0W9AUJ5Y","AMIQGW2E3WYO4","3G9UA71JVVGUCOKNEKUVXTI6SA17JG","","img/set1/S3.jpg","68","3","structured_incentive","72","structured_incentive,structured_load,structured_normal,random","4,2,2,3,1,2","1,3,2,4","false","","",""
"null","","html-keyboard-response","125","318007","0.0-125.0","3180JW2OT5YHB44YHTK0OS0W9AUJ5Y","AMIQGW2E3WYO4","3G9UA71JVVGUCOKNEKUVXTI6SA17JG","","<img src=""img/set1/S3.jpg"" width=""540"" height = ""360"">","null","","","","","","","","","",""
"null","","html-keyboard-response","126","318208","0.0-126.0","3180JW2OT5YHB44YHTK0OS0W9AUJ5Y","AMIQGW2E3WYO4","3G9UA71JVVGUCOKNEKUVXTI6SA17JG","","","null","","","","","","","","","",""
"797","","image-keyboard-response","127","319005","0.0-127.0","3180JW2OT5YHB44YHTK0OS0W9AUJ5Y","AMIQGW2E3WYO4","3G9UA71JVVGUCOKNEKUVXTI6SA17JG","","img/set1/S3.jpg","72","3","structured_incentive","72","structured_incentive,structured_load,structured_normal,random","4,2,2,3,1,2","1,3,2,4","true","","",""
"null","","html-keyboard-response","128","319358","0.0-128.0","3180JW2OT5YHB44YHTK0OS0W9AUJ5Y","AMIQGW2E3WYO4","3G9UA71JVVGUCOKNEKUVXTI6SA17JG","","<img src=""img/set1/S3.jpg"" width=""540"" height = ""360"" style=""border:16px solid Violet"">","null","","","","","","","","","",""
"null","","html-keyboard-response","129","319562","0.0-129.0","3180JW2OT5YHB44YHTK0OS0W9AUJ5Y","AMIQGW2E3WYO4","3G9UA71JVVGUCOKNEKUVXTI6SA17JG","","","null","","","","","","","","","",""
"778","","image-keyboard-response","130","320341","0.0-130.0","3180JW2OT5YHB44YHTK0OS0W9AUJ5Y","AMIQGW2E3WYO4","3G9UA71JVVGUCOKNEKUVXTI6SA17JG","","img/set1/S4.jpg","74","4","structured_incentive","74","structured_incentive,structured_load,structured_normal,random","4,2,2,3,1,2","1,3,2,4","true","","",""
"null","","html-keyboard-response","131","320703","0.0-131.0","3180JW2OT5YHB44YHTK0OS0W9AUJ5Y","AMIQGW2E3WYO4","3G9UA71JVVGUCOKNEKUVXTI6SA17JG","","<img src=""img/set1/S4.jpg"" width=""540"" height = ""360"" style=""border:16px solid orange"">","null","","","","","","","","","",""
"null","","html-keyboard-response","132","320908","0.0-132.0","3180JW2OT5YHB44YHTK0OS0W9AUJ5Y","AMIQGW2E3WYO4","3G9UA71JVVGUCOKNEKUVXTI6SA17JG","","","null","","","","","","","","","",""
"1216","","image-keyboard-response","133","322125","0.0-133.0","3180JW2OT5YHB44YHTK0OS0W9AUJ5Y","AMIQGW2E3WYO4","3G9UA71JVVGUCOKNEKUVXTI6SA17JG","","img/set1/S2.jpg","68","2","structured_incentive","68","structured_incentive,structured_load,structured_normal,random","4,2,2,3,1,2","1,3,2,4","true","","",""
"null","","html-keyboard-response","134","322480","0.0-134.0","3180JW2OT5YHB44YHTK0OS0W9AUJ5Y","AMIQGW2E3WYO4","3G9UA71JVVGUCOKNEKUVXTI6SA17JG","","<img src=""img/set1/S2.jpg"" width=""540"" height = ""360"" style=""border:16px solid orange"">","null","","","","","","","","","",""
"null","","html-keyboard-response","135","322687","0.0-135.0","3180JW2OT5YHB44YHTK0OS0W9AUJ5Y","AMIQGW2E3WYO4","3G9UA71JVVGUCOKNEKUVXTI6SA17JG","","","null","","","","","","","","","",""
"853","","image-keyboard-response","136","323542","0.0-136.0","3180JW2OT5YHB44YHTK0OS0W9AUJ5Y","AMIQGW2E3WYO4","3G9UA71JVVGUCOKNEKUVXTI6SA17JG","","img/set1/S1.jpg","72","1","structured_incentive","83","structured_incentive,structured_load,structured_normal,random","4,2,2,3,1,2","1,3,2,4","false","","",""
"null","","html-keyboard-response","137","323906","0.0-137.0","3180JW2OT5YHB44YHTK0OS0W9AUJ5Y","AMIQGW2E3WYO4","3G9UA71JVVGUCOKNEKUVXTI6SA17JG","","<img src=""img/set1/S1.jpg"" width=""540"" height = ""360"">","null","","","","","","","","","",""
"null","","html-keyboard-response","138","324114","0.0-138.0","3180JW2OT5YHB44YHTK0OS0W9AUJ5Y","AMIQGW2E3WYO4","3G9UA71JVVGUCOKNEKUVXTI6SA17JG","","","null","","","","","","","","","",""
"811","","image-keyboard-response","139","324925","0.0-139.0","3180JW2OT5YHB44YHTK0OS0W9AUJ5Y","AMIQGW2E3WYO4","3G9UA71JVVGUCOKNEKUVXTI6SA17JG","","img/set1/S3.jpg","74","3","structured_incentive","72","structured_incentive,structured_load,structured_normal,random","4,2,2,3,1,2","1,3,2,4","false","","",""
"null","","html-keyboard-response","140","325288","0.0-140.0","3180JW2OT5YHB44YHTK0OS0W9AUJ5Y","AMIQGW2E3WYO4","3G9UA71JVVGUCOKNEKUVXTI6SA17JG","","<img src=""img/set1/S3.jpg"" width=""540"" height = ""360"">","null","","","","","","","","","",""
"null","","html-keyboard-response","141","325494","0.0-141.0","3180JW2OT5YHB44YHTK0OS0W9AUJ5Y","AMIQGW2E3WYO4","3G9UA71JVVGUCOKNEKUVXTI6SA17JG","","","null","","","","","","","","","",""
"1029","","image-keyboard-response","142","326525","0.0-142.0","3180JW2OT5YHB44YHTK0OS0W9AUJ5Y","AMIQGW2E3WYO4","3G9UA71JVVGUCOKNEKUVXTI6SA17JG","","img/set1/S4.jpg","74","4","structured_incentive","74","structured_incentive,structured_load,structured_normal,random","4,2,2,3,1,2","1,3,2,4","true","","",""
"null","","html-keyboard-response","143","326885","0.0-143.0","3180JW2OT5YHB44YHTK0OS0W9AUJ5Y","AMIQGW2E3WYO4","3G9UA71JVVGUCOKNEKUVXTI6SA17JG","","<img src=""img/set1/S4.jpg"" width=""540"" height = ""360"" style=""border:16px solid orange"">","null","","","","","","","","","",""
"null","","html-keyboard-response","144","327092","0.0-144.0","3180JW2OT5YHB44YHTK0OS0W9AUJ5Y","AMIQGW2E3WYO4","3G9UA71JVVGUCOKNEKUVXTI6SA17JG","","","null","","","","","","","","","",""
"816","","image-keyboard-response","145","327909","0.0-145.0","3180JW2OT5YHB44YHTK0OS0W9AUJ5Y","AMIQGW2E3WYO4","3G9UA71JVVGUCOKNEKUVXTI6SA17JG","","img/set1/S2.jpg","68","2","structured_incentive","68","structured_incentive,structured_load,structured_normal,random","4,2,2,3,1,2","1,3,2,4","true","","",""
"null","","html-keyboard-response","146","328260","0.0-146.0","3180JW2OT5YHB44YHTK0OS0W9AUJ5Y","AMIQGW2E3WYO4","3G9UA71JVVGUCOKNEKUVXTI6SA17JG","","<img src=""img/set1/S2.jpg"" width=""540"" height = ""360"" style=""border:16px solid orange"">","null","","","","","","","","","",""
"null","","html-keyboard-response","147","328468","0.0-147.0","3180JW2OT5YHB44YHTK0OS0W9AUJ5Y","AMIQGW2E3WYO4","3G9UA71JVVGUCOKNEKUVXTI6SA17JG","","","null","","","","","","","","","",""
"879","","image-keyboard-response","148","329349","0.0-148.0","3180JW2OT5YHB44YHTK0OS0W9AUJ5Y","AMIQGW2E3WYO4","3G9UA71JVVGUCOKNEKUVXTI6SA17JG","","img/set1/S3.jpg","72","3","structured_incentive","72","structured_incentive,structured_load,structured_normal,random","4,2,2,3,1,2","1,3,2,4","true","","",""
"null","","html-keyboard-response","149","329706","0.0-149.0","3180JW2OT5YHB44YHTK0OS0W9AUJ5Y","AMIQGW2E3WYO4","3G9UA71JVVGUCOKNEKUVXTI6SA17JG","","<img src=""img/set1/S3.jpg"" width=""540"" height = ""360"" style=""border:16px solid Violet"">","null","","","","","","","","","",""
"null","","html-keyboard-response","150","329911","0.0-150.0","3180JW2OT5YHB44YHTK0OS0W9AUJ5Y","AMIQGW2E3WYO4","3G9UA71JVVGUCOKNEKUVXTI6SA17JG","","","null","","","","","","","","","",""
"749","","image-keyboard-response","151","330661","0.0-151.0","3180JW2OT5YHB44YHTK0OS0W9AUJ5Y","AMIQGW2E3WYO4","3G9UA71JVVGUCOKNEKUVXTI6SA17JG","","img/set1/S3.jpg","72","3","structured_incentive","72","structured_incentive,structured_load,structured_normal,random","4,2,2,3,1,2","1,3,2,4","true","","",""
"null","","html-keyboard-response","152","331023","0.0-152.0","3180JW2OT5YHB44YHTK0OS0W9AUJ5Y","AMIQGW2E3WYO4","3G9UA71JVVGUCOKNEKUVXTI6SA17JG","","<img src=""img/set1/S3.jpg"" width=""540"" height = ""360"" style=""border:16px solid Violet"">","null","","","","","","","","","",""
"null","","html-keyboard-response","153","331232","0.0-153.0","3180JW2OT5YHB44YHTK0OS0W9AUJ5Y","AMIQGW2E3WYO4","3G9UA71JVVGUCOKNEKUVXTI6SA17JG","","","null","","","","","","","","","",""
"1268","","image-keyboard-response","154","332501","0.0-154.0","3180JW2OT5YHB44YHTK0OS0W9AUJ5Y","AMIQGW2E3WYO4","3G9UA71JVVGUCOKNEKUVXTI6SA17JG","","img/set1/S1.jpg","68","1","structured_incentive","83","structured_incentive,structured_load,structured_normal,random","4,2,2,3,1,2","1,3,2,4","false","","",""
"null","","html-keyboard-response","155","332866","0.0-155.0","3180JW2OT5YHB44YHTK0OS0W9AUJ5Y","AMIQGW2E3WYO4","3G9UA71JVVGUCOKNEKUVXTI6SA17JG","","<img src=""img/set1/S1.jpg"" width=""540"" height = ""360"">","null","","","","","","","","","",""
"null","","html-keyboard-response","156","333069","0.0-156.0","3180JW2OT5YHB44YHTK0OS0W9AUJ5Y","AMIQGW2E3WYO4","3G9UA71JVVGUCOKNEKUVXTI6SA17JG","","","null","","","","","","","","","",""
"782","","image-keyboard-response","157","333854","0.0-157.0","3180JW2OT5YHB44YHTK0OS0W9AUJ5Y","AMIQGW2E3WYO4","3G9UA71JVVGUCOKNEKUVXTI6SA17JG","","img/set1/S4.jpg","74","4","structured_incentive","74","structured_incentive,structured_load,structured_normal,random","4,2,2,3,1,2","1,3,2,4","true","","",""
"null","","html-keyboard-response","158","334214","0.0-158.0","3180JW2OT5YHB44YHTK0OS0W9AUJ5Y","AMIQGW2E3WYO4","3G9UA71JVVGUCOKNEKUVXTI6SA17JG","","<img src=""img/set1/S4.jpg"" width=""540"" height = ""360"" style=""border:16px solid orange"">","null","","","","","","","","","",""
"null","","html-keyboard-response","159","334418","0.0-159.0","3180JW2OT5YHB44YHTK0OS0W9AUJ5Y","AMIQGW2E3WYO4","3G9UA71JVVGUCOKNEKUVXTI6SA17JG","","","null","","","","","","","","","",""
"1139","","image-keyboard-response","160","335558","0.0-160.0","3180JW2OT5YHB44YHTK0OS0W9AUJ5Y","AMIQGW2E3WYO4","3G9UA71JVVGUCOKNEKUVXTI6SA17JG","","img/set1/S3.jpg","72","3","structured_incentive","72","structured_incentive,structured_load,structured_normal,random","4,2,2,3,1,2","1,3,2,4","true","","",""
"null","","html-keyboard-response","161","335920","0.0-161.0","3180JW2OT5YHB44YHTK0OS0W9AUJ5Y","AMIQGW2E3WYO4","3G9UA71JVVGUCOKNEKUVXTI6SA17JG","","<img src=""img/set1/S3.jpg"" width=""540"" height = ""360"" style=""border:16px solid Violet"">","null","","","","","","","","","",""
"null","","html-keyboard-response","162","336136","0.0-162.0","3180JW2OT5YHB44YHTK0OS0W9AUJ5Y","AMIQGW2E3WYO4","3G9UA71JVVGUCOKNEKUVXTI6SA17JG","","","null","","","","","","","","","",""
"916","","image-keyboard-response","163","337053","0.0-163.0","3180JW2OT5YHB44YHTK0OS0W9AUJ5Y","AMIQGW2E3WYO4","3G9UA71JVVGUCOKNEKUVXTI6SA17JG","","img/set1/S4.jpg","74","4","structured_incentive","74","structured_incentive,structured_load,structured_normal,random","4,2,2,3,1,2","1,3,2,4","true","","",""
"null","","html-keyboard-response","164","337417","0.0-164.0","3180JW2OT5YHB44YHTK0OS0W9AUJ5Y","AMIQGW2E3WYO4","3G9UA71JVVGUCOKNEKUVXTI6SA17JG","","<img src=""img/set1/S4.jpg"" width=""540"" height = ""360"" style=""border:16px solid orange"">","null","","","","","","","","","",""
"null","","html-keyboard-response","165","337623","0.0-165.0","3180JW2OT5YHB44YHTK0OS0W9AUJ5Y","AMIQGW2E3WYO4","3G9UA71JVVGUCOKNEKUVXTI6SA17JG","","","null","","","","","","","","","",""
"989","","image-keyboard-response","166","338613","0.0-166.0","3180JW2OT5YHB44YHTK0OS0W9AUJ5Y","AMIQGW2E3WYO4","3G9UA71JVVGUCOKNEKUVXTI6SA17JG","","img/set1/S3.jpg","72","3","structured_incentive","72","structured_incentive,structured_load,structured_normal,random","4,2,2,3,1,2","1,3,2,4","true","","",""
"null","","html-keyboard-response","167","338972","0.0-167.0","3180JW2OT5YHB44YHTK0OS0W9AUJ5Y","AMIQGW2E3WYO4","3G9UA71JVVGUCOKNEKUVXTI6SA17JG","","<img src=""img/set1/S3.jpg"" width=""540"" height = ""360"" style=""border:16px solid Violet"">","null","","","","","","","","","",""
"null","","html-keyboard-response","168","339179","0.0-168.0","3180JW2OT5YHB44YHTK0OS0W9AUJ5Y","AMIQGW2E3WYO4","3G9UA71JVVGUCOKNEKUVXTI6SA17JG","","","null","","","","","","","","","",""
"737","","image-keyboard-response","169","339917","0.0-169.0","3180JW2OT5YHB44YHTK0OS0W9AUJ5Y","AMIQGW2E3WYO4","3G9UA71JVVGUCOKNEKUVXTI6SA17JG","","img/set1/S3.jpg","72","3","structured_incentive","72","structured_incentive,structured_load,structured_normal,random","4,2,2,3,1,2","1,3,2,4","true","","",""
"null","","html-keyboard-response","170","340274","0.0-170.0","3180JW2OT5YHB44YHTK0OS0W9AUJ5Y","AMIQGW2E3WYO4","3G9UA71JVVGUCOKNEKUVXTI6SA17JG","","<img src=""img/set1/S3.jpg"" width=""540"" height = ""360"" style=""border:16px solid Violet"">","null","","","","","","","","","",""
"null","","html-keyboard-response","171","340482","0.0-171.0","3180JW2OT5YHB44YHTK0OS0W9AUJ5Y","AMIQGW2E3WYO4","3G9UA71JVVGUCOKNEKUVXTI6SA17JG","","","null","","","","","","","","","",""
"883","","image-keyboard-response","172","341365","0.0-172.0","3180JW2OT5YHB44YHTK0OS0W9AUJ5Y","AMIQGW2E3WYO4","3G9UA71JVVGUCOKNEKUVXTI6SA17JG","","img/set1/S1.jpg","83","1","structured_incentive","83","structured_incentive,structured_load,structured_normal,random","4,2,2,3,1,2","1,3,2,4","true","","",""
"null","","html-keyboard-response","173","341720","0.0-173.0","3180JW2OT5YHB44YHTK0OS0W9AUJ5Y","AMIQGW2E3WYO4","3G9UA71JVVGUCOKNEKUVXTI6SA17JG","","<img src=""img/set1/S1.jpg"" width=""540"" height = ""360"" style=""border:16px solid orange"">","null","","","","","","","","","",""
"null","","html-keyboard-response","174","341924","0.0-174.0","3180JW2OT5YHB44YHTK0OS0W9AUJ5Y","AMIQGW2E3WYO4","3G9UA71JVVGUCOKNEKUVXTI6SA17JG","","","null","","","","","","","","","",""
"824","","image-keyboard-response","175","342749","0.0-175.0","3180JW2OT5YHB44YHTK0OS0W9AUJ5Y","AMIQGW2E3WYO4","3G9UA71JVVGUCOKNEKUVXTI6SA17JG","","img/set1/S4.jpg","74","4","structured_incentive","74","structured_incentive,structured_load,structured_normal,random","4,2,2,3,1,2","1,3,2,4","true","","",""
"null","","html-keyboard-response","176","343115","0.0-176.0","3180JW2OT5YHB44YHTK0OS0W9AUJ5Y","AMIQGW2E3WYO4","3G9UA71JVVGUCOKNEKUVXTI6SA17JG","","<img src=""img/set1/S4.jpg"" width=""540"" height = ""360"" style=""border:16px solid orange"">","null","","","","","","","","","",""
"null","","html-keyboard-response","177","343319","0.0-177.0","3180JW2OT5YHB44YHTK0OS0W9AUJ5Y","AMIQGW2E3WYO4","3G9UA71JVVGUCOKNEKUVXTI6SA17JG","","","null","","","","","","","","","",""
"862","","image-keyboard-response","178","344181","0.0-178.0","3180JW2OT5YHB44YHTK0OS0W9AUJ5Y","AMIQGW2E3WYO4","3G9UA71JVVGUCOKNEKUVXTI6SA17JG","","img/set1/S3.jpg","72","3","structured_incentive","72","structured_incentive,structured_load,structured_normal,random","4,2,2,3,1,2","1,3,2,4","true","","",""
"null","","html-keyboard-response","179","344535","0.0-179.0","3180JW2OT5YHB44YHTK0OS0W9AUJ5Y","AMIQGW2E3WYO4","3G9UA71JVVGUCOKNEKUVXTI6SA17JG","","<img src=""img/set1/S3.jpg"" width=""540"" height = ""360"" style=""border:16px solid Violet"">","null","","","","","","","","","",""
"null","","html-keyboard-response","180","344741","0.0-180.0","3180JW2OT5YHB44YHTK0OS0W9AUJ5Y","AMIQGW2E3WYO4","3G9UA71JVVGUCOKNEKUVXTI6SA17JG","","","null","","","","","","","","","",""
"792","","image-keyboard-response","181","345533","0.0-181.0","3180JW2OT5YHB44YHTK0OS0W9AUJ5Y","AMIQGW2E3WYO4","3G9UA71JVVGUCOKNEKUVXTI6SA17JG","","img/set1/S4.jpg","74","4","structured_incentive","74","structured_incentive,structured_load,structured_normal,random","4,2,2,3,1,2","1,3,2,4","true","","",""
"null","","html-keyboard-response","182","345887","0.0-182.0","3180JW2OT5YHB44YHTK0OS0W9AUJ5Y","AMIQGW2E3WYO4","3G9UA71JVVGUCOKNEKUVXTI6SA17JG","","<img src=""img/set1/S4.jpg"" width=""540"" height = ""360"" style=""border:16px solid orange"">","null","","","","","","","","","",""
"null","","html-keyboard-response","183","346096","0.0-183.0","3180JW2OT5YHB44YHTK0OS0W9AUJ5Y","AMIQGW2E3WYO4","3G9UA71JVVGUCOKNEKUVXTI6SA17JG","","","null","","","","","","","","","",""
"822","","image-keyboard-response","184","346917","0.0-184.0","3180JW2OT5YHB44YHTK0OS0W9AUJ5Y","AMIQGW2E3WYO4","3G9UA71JVVGUCOKNEKUVXTI6SA17JG","","img/set1/S3.jpg","72","3","structured_incentive","72","structured_incentive,structured_load,structured_normal,random","4,2,2,3,1,2","1,3,2,4","true","","",""
"null","","html-keyboard-response","185","347276","0.0-185.0","3180JW2OT5YHB44YHTK0OS0W9AUJ5Y","AMIQGW2E3WYO4","3G9UA71JVVGUCOKNEKUVXTI6SA17JG","","<img src=""img/set1/S3.jpg"" width=""540"" height = ""360"" style=""border:16px solid Violet"">","null","","","","","","","","","",""
"null","","html-keyboard-response","186","347484","0.0-186.0","3180JW2OT5YHB44YHTK0OS0W9AUJ5Y","AMIQGW2E3WYO4","3G9UA71JVVGUCOKNEKUVXTI6SA17JG","","","null","","","","","","","","","",""
"1113","","image-keyboard-response","187","348597","0.0-187.0","3180JW2OT5YHB44YHTK0OS0W9AUJ5Y","AMIQGW2E3WYO4","3G9UA71JVVGUCOKNEKUVXTI6SA17JG","","img/set1/S1.jpg","83","1","structured_incentive","83","structured_incentive,structured_load,structured_normal,random","4,2,2,3,1,2","1,3,2,4","true","","",""
"null","","html-keyboard-response","188","348954","0.0-188.0","3180JW2OT5YHB44YHTK0OS0W9AUJ5Y","AMIQGW2E3WYO4","3G9UA71JVVGUCOKNEKUVXTI6SA17JG","","<img src=""img/set1/S1.jpg"" width=""540"" height = ""360"" style=""border:16px solid orange"">","null","","","","","","","","","",""
"null","","html-keyboard-response","189","349162","0.0-189.0","3180JW2OT5YHB44YHTK0OS0W9AUJ5Y","AMIQGW2E3WYO4","3G9UA71JVVGUCOKNEKUVXTI6SA17JG","","","null","","","","","","","","","",""
"714","","image-keyboard-response","190","349877","0.0-190.0","3180JW2OT5YHB44YHTK0OS0W9AUJ5Y","AMIQGW2E3WYO4","3G9UA71JVVGUCOKNEKUVXTI6SA17JG","","img/set1/S3.jpg","72","3","structured_incentive","72","structured_incentive,structured_load,structured_normal,random","4,2,2,3,1,2","1,3,2,4","true","","",""
"null","","html-keyboard-response","191","350236","0.0-191.0","3180JW2OT5YHB44YHTK0OS0W9AUJ5Y","AMIQGW2E3WYO4","3G9UA71JVVGUCOKNEKUVXTI6SA17JG","","<img src=""img/set1/S3.jpg"" width=""540"" height = ""360"" style=""border:16px solid Violet"">","null","","","","","","","","","",""
"null","","html-keyboard-response","192","350445","0.0-192.0","3180JW2OT5YHB44YHTK0OS0W9AUJ5Y","AMIQGW2E3WYO4","3G9UA71JVVGUCOKNEKUVXTI6SA17JG","","","null","","","","","","","","","",""
"720","","image-keyboard-response","193","351165","0.0-193.0","3180JW2OT5YHB44YHTK0OS0W9AUJ5Y","AMIQGW2E3WYO4","3G9UA71JVVGUCOKNEKUVXTI6SA17JG","","img/set1/S3.jpg","72","3","structured_incentive","72","structured_incentive,structured_load,structured_normal,random","4,2,2,3,1,2","1,3,2,4","true","","",""
"null","","html-keyboard-response","194","351520","0.0-194.0","3180JW2OT5YHB44YHTK0OS0W9AUJ5Y","AMIQGW2E3WYO4","3G9UA71JVVGUCOKNEKUVXTI6SA17JG","","<img src=""img/set1/S3.jpg"" width=""540"" height = ""360"" style=""border:16px solid Violet"">","null","","","","","","","","","",""
"null","","html-keyboard-response","195","351723","0.0-195.0","3180JW2OT5YHB44YHTK0OS0W9AUJ5Y","AMIQGW2E3WYO4","3G9UA71JVVGUCOKNEKUVXTI6SA17JG","","","null","","","","","","","","","",""
"809","","image-keyboard-response","196","352534","0.0-196.0","3180JW2OT5YHB44YHTK0OS0W9AUJ5Y","AMIQGW2E3WYO4","3G9UA71JVVGUCOKNEKUVXTI6SA17JG","","img/set1/S2.jpg","83","2","structured_incentive","68","structured_incentive,structured_load,structured_normal,random","4,2,2,3,1,2","1,3,2,4","false","","",""
"null","","html-keyboard-response","197","352892","0.0-197.0","3180JW2OT5YHB44YHTK0OS0W9AUJ5Y","AMIQGW2E3WYO4","3G9UA71JVVGUCOKNEKUVXTI6SA17JG","","<img src=""img/set1/S2.jpg"" width=""540"" height = ""360"">","null","","","","","","","","","",""
"null","","html-keyboard-response","198","353100","0.0-198.0","3180JW2OT5YHB44YHTK0OS0W9AUJ5Y","AMIQGW2E3WYO4","3G9UA71JVVGUCOKNEKUVXTI6SA17JG","","","null","","","","","","","","","",""
"609","","image-keyboard-response","199","353709","0.0-199.0","3180JW2OT5YHB44YHTK0OS0W9AUJ5Y","AMIQGW2E3WYO4","3G9UA71JVVGUCOKNEKUVXTI6SA17JG","","img/set1/S3.jpg","72","3","structured_incentive","72","structured_incentive,structured_load,structured_normal,random","4,2,2,3,1,2","1,3,2,4","true","","",""
"null","","html-keyboard-response","200","354069","0.0-200.0","3180JW2OT5YHB44YHTK0OS0W9AUJ5Y","AMIQGW2E3WYO4","3G9UA71JVVGUCOKNEKUVXTI6SA17JG","","<img src=""img/set1/S3.jpg"" width=""540"" height = ""360"" style=""border:16px solid Violet"">","null","","","","","","","","","",""
"null","","html-keyboard-response","201","354272","0.0-201.0","3180JW2OT5YHB44YHTK0OS0W9AUJ5Y","AMIQGW2E3WYO4","3G9UA71JVVGUCOKNEKUVXTI6SA17JG","","","null","","","","","","","","","",""
"796","","image-keyboard-response","202","355069","0.0-202.0","3180JW2OT5YHB44YHTK0OS0W9AUJ5Y","AMIQGW2E3WYO4","3G9UA71JVVGUCOKNEKUVXTI6SA17JG","","img/set1/S4.jpg","74","4","structured_incentive","74","structured_incentive,structured_load,structured_normal,random","4,2,2,3,1,2","1,3,2,4","true","","",""
"null","","html-keyboard-response","203","355426","0.0-203.0","3180JW2OT5YHB44YHTK0OS0W9AUJ5Y","AMIQGW2E3WYO4","3G9UA71JVVGUCOKNEKUVXTI6SA17JG","","<img src=""img/set1/S4.jpg"" width=""540"" height = ""360"" style=""border:16px solid orange"">","null","","","","","","","","","",""
"null","","html-keyboard-response","204","355635","0.0-204.0","3180JW2OT5YHB44YHTK0OS0W9AUJ5Y","AMIQGW2E3WYO4","3G9UA71JVVGUCOKNEKUVXTI6SA17JG","","","null","","","","","","","","","",""
"769","","image-keyboard-response","205","356405","0.0-205.0","3180JW2OT5YHB44YHTK0OS0W9AUJ5Y","AMIQGW2E3WYO4","3G9UA71JVVGUCOKNEKUVXTI6SA17JG","","img/set1/S2.jpg","68","2","structured_incentive","68","structured_incentive,structured_load,structured_normal,random","4,2,2,3,1,2","1,3,2,4","true","","",""
"null","","html-keyboard-response","206","356768","0.0-206.0","3180JW2OT5YHB44YHTK0OS0W9AUJ5Y","AMIQGW2E3WYO4","3G9UA71JVVGUCOKNEKUVXTI6SA17JG","","<img src=""img/set1/S2.jpg"" width=""540"" height = ""360"" style=""border:16px solid orange"">","null","","","","","","","","","",""
"null","","html-keyboard-response","207","356972","0.0-207.0","3180JW2OT5YHB44YHTK0OS0W9AUJ5Y","AMIQGW2E3WYO4","3G9UA71JVVGUCOKNEKUVXTI6SA17JG","","","null","","","","","","","","","",""
"1264","","image-keyboard-response","208","358237","0.0-208.0","3180JW2OT5YHB44YHTK0OS0W9AUJ5Y","AMIQGW2E3WYO4","3G9UA71JVVGUCOKNEKUVXTI6SA17JG","","img/set1/S4.jpg","74","4","structured_incentive","74","structured_incentive,structured_load,structured_normal,random","4,2,2,3,1,2","1,3,2,4","true","","",""
"null","","html-keyboard-response","209","358594","0.0-209.0","3180JW2OT5YHB44YHTK0OS0W9AUJ5Y","AMIQGW2E3WYO4","3G9UA71JVVGUCOKNEKUVXTI6SA17JG","","<img src=""img/set1/S4.jpg"" width=""540"" height = ""360"" style=""border:16px solid orange"">","null","","","","","","","","","",""
"null","","html-keyboard-response","210","358800","0.0-210.0","3180JW2OT5YHB44YHTK0OS0W9AUJ5Y","AMIQGW2E3WYO4","3G9UA71JVVGUCOKNEKUVXTI6SA17JG","","","null","","","","","","","","","",""
"1005","","image-keyboard-response","211","359806","0.0-211.0","3180JW2OT5YHB44YHTK0OS0W9AUJ5Y","AMIQGW2E3WYO4","3G9UA71JVVGUCOKNEKUVXTI6SA17JG","","img/set1/S2.jpg","68","2","structured_incentive","68","structured_incentive,structured_load,structured_normal,random","4,2,2,3,1,2","1,3,2,4","true","","",""
"null","","html-keyboard-response","212","360162","0.0-212.0","3180JW2OT5YHB44YHTK0OS0W9AUJ5Y","AMIQGW2E3WYO4","3G9UA71JVVGUCOKNEKUVXTI6SA17JG","","<img src=""img/set1/S2.jpg"" width=""540"" height = ""360"" style=""border:16px solid orange"">","null","","","","","","","","","",""
"null","","html-keyboard-response","213","360370","0.0-213.0","3180JW2OT5YHB44YHTK0OS0W9AUJ5Y","AMIQGW2E3WYO4","3G9UA71JVVGUCOKNEKUVXTI6SA17JG","","","null","","","","","","","","","",""
"1035","","image-keyboard-response","214","361405","0.0-214.0","3180JW2OT5YHB44YHTK0OS0W9AUJ5Y","AMIQGW2E3WYO4","3G9UA71JVVGUCOKNEKUVXTI6SA17JG","","img/set1/S1.jpg","83","1","structured_incentive","83","structured_incentive,structured_load,structured_normal,random","4,2,2,3,1,2","1,3,2,4","true","","",""
"null","","html-keyboard-response","215","361764","0.0-215.0","3180JW2OT5YHB44YHTK0OS0W9AUJ5Y","AMIQGW2E3WYO4","3G9UA71JVVGUCOKNEKUVXTI6SA17JG","","<img src=""img/set1/S1.jpg"" width=""540"" height = ""360"" style=""border:16px solid orange"">","null","","","","","","","","","",""
"null","","html-keyboard-response","216","361972","0.0-216.0","3180JW2OT5YHB44YHTK0OS0W9AUJ5Y","AMIQGW2E3WYO4","3G9UA71JVVGUCOKNEKUVXTI6SA17JG","","","null","","","","","","","","","",""
"601","","image-keyboard-response","217","362573","0.0-217.0","3180JW2OT5YHB44YHTK0OS0W9AUJ5Y","AMIQGW2E3WYO4","3G9UA71JVVGUCOKNEKUVXTI6SA17JG","","img/set1/S3.jpg","72","3","structured_incentive","72","structured_incentive,structured_load,structured_normal,random","4,2,2,3,1,2","1,3,2,4","true","","",""
"null","","html-keyboard-response","218","362926","0.0-218.0","3180JW2OT5YHB44YHTK0OS0W9AUJ5Y","AMIQGW2E3WYO4","3G9UA71JVVGUCOKNEKUVXTI6SA17JG","","<img src=""img/set1/S3.jpg"" width=""540"" height = ""360"" style=""border:16px solid Violet"">","null","","","","","","","","","",""
"null","","html-keyboard-response","219","363130","0.0-219.0","3180JW2OT5YHB44YHTK0OS0W9AUJ5Y","AMIQGW2E3WYO4","3G9UA71JVVGUCOKNEKUVXTI6SA17JG","","","null","","","","","","","","","",""
"626","","image-keyboard-response","220","363756","0.0-220.0","3180JW2OT5YHB44YHTK0OS0W9AUJ5Y","AMIQGW2E3WYO4","3G9UA71JVVGUCOKNEKUVXTI6SA17JG","","img/set1/S4.jpg","74","4","structured_incentive","74","structured_incentive,structured_load,structured_normal,random","4,2,2,3,1,2","1,3,2,4","true","","",""
"null","","html-keyboard-response","221","364110","0.0-221.0","3180JW2OT5YHB44YHTK0OS0W9AUJ5Y","AMIQGW2E3WYO4","3G9UA71JVVGUCOKNEKUVXTI6SA17JG","","<img src=""img/set1/S4.jpg"" width=""540"" height = ""360"" style=""border:16px solid orange"">","null","","","","","","","","","",""
"null","","html-keyboard-response","222","364317","0.0-222.0","3180JW2OT5YHB44YHTK0OS0W9AUJ5Y","AMIQGW2E3WYO4","3G9UA71JVVGUCOKNEKUVXTI6SA17JG","","","null","","","","","","","","","",""
"791","","image-keyboard-response","223","365109","0.0-223.0","3180JW2OT5YHB44YHTK0OS0W9AUJ5Y","AMIQGW2E3WYO4","3G9UA71JVVGUCOKNEKUVXTI6SA17JG","","img/set1/S2.jpg","68","2","structured_incentive","68","structured_incentive,structured_load,structured_normal,random","4,2,2,3,1,2","1,3,2,4","true","","",""
"null","","html-keyboard-response","224","365469","0.0-224.0","3180JW2OT5YHB44YHTK0OS0W9AUJ5Y","AMIQGW2E3WYO4","3G9UA71JVVGUCOKNEKUVXTI6SA17JG","","<img src=""img/set1/S2.jpg"" width=""540"" height = ""360"" style=""border:16px solid orange"">","null","","","","","","","","","",""
"null","","html-keyboard-response","225","365676","0.0-225.0","3180JW2OT5YHB44YHTK0OS0W9AUJ5Y","AMIQGW2E3WYO4","3G9UA71JVVGUCOKNEKUVXTI6SA17JG","","","null","","","","","","","","","",""
"993","","image-keyboard-response","226","366670","0.0-226.0","3180JW2OT5YHB44YHTK0OS0W9AUJ5Y","AMIQGW2E3WYO4","3G9UA71JVVGUCOKNEKUVXTI6SA17JG","","img/set1/S1.jpg","74","1","structured_incentive","83","structured_incentive,structured_load,structured_normal,random","4,2,2,3,1,2","1,3,2,4","false","","",""
"null","","html-keyboard-response","227","367021","0.0-227.0","3180JW2OT5YHB44YHTK0OS0W9AUJ5Y","AMIQGW2E3WYO4","3G9UA71JVVGUCOKNEKUVXTI6SA17JG","","<img src=""img/set1/S1.jpg"" width=""540"" height = ""360"">","null","","","","","","","","","",""
"null","","html-keyboard-response","228","367224","0.0-228.0","3180JW2OT5YHB44YHTK0OS0W9AUJ5Y","AMIQGW2E3WYO4","3G9UA71JVVGUCOKNEKUVXTI6SA17JG","","","null","","","","","","","","","",""
"820","","image-keyboard-response","229","368045","0.0-229.0","3180JW2OT5YHB44YHTK0OS0W9AUJ5Y","AMIQGW2E3WYO4","3G9UA71JVVGUCOKNEKUVXTI6SA17JG","","img/set1/S3.jpg","72","3","structured_incentive","72","structured_incentive,structured_load,structured_normal,random","4,2,2,3,1,2","1,3,2,4","true","","",""
"null","","html-keyboard-response","230","368398","0.0-230.0","3180JW2OT5YHB44YHTK0OS0W9AUJ5Y","AMIQGW2E3WYO4","3G9UA71JVVGUCOKNEKUVXTI6SA17JG","","<img src=""img/set1/S3.jpg"" width=""540"" height = ""360"" style=""border:16px solid Violet"">","null","","","","","","","","","",""
"null","","html-keyboard-response","231","368607","0.0-231.0","3180JW2OT5YHB44YHTK0OS0W9AUJ5Y","AMIQGW2E3WYO4","3G9UA71JVVGUCOKNEKUVXTI6SA17JG","","","null","","","","","","","","","",""
"854","","image-keyboard-response","232","369461","0.0-232.0","3180JW2OT5YHB44YHTK0OS0W9AUJ5Y","AMIQGW2E3WYO4","3G9UA71JVVGUCOKNEKUVXTI6SA17JG","","img/set1/S1.jpg","83","1","structured_incentive","83","structured_incentive,structured_load,structured_normal,random","4,2,2,3,1,2","1,3,2,4","true","","",""
"null","","html-keyboard-response","233","369825","0.0-233.0","3180JW2OT5YHB44YHTK0OS0W9AUJ5Y","AMIQGW2E3WYO4","3G9UA71JVVGUCOKNEKUVXTI6SA17JG","","<img src=""img/set1/S1.jpg"" width=""540"" height = ""360"" style=""border:16px solid orange"">","null","","","","","","","","","",""
"null","","html-keyboard-response","234","370031","0.0-234.0","3180JW2OT5YHB44YHTK0OS0W9AUJ5Y","AMIQGW2E3WYO4","3G9UA71JVVGUCOKNEKUVXTI6SA17JG","","","null","","","","","","","","","",""
"573","","image-keyboard-response","235","370605","0.0-235.0","3180JW2OT5YHB44YHTK0OS0W9AUJ5Y","AMIQGW2E3WYO4","3G9UA71JVVGUCOKNEKUVXTI6SA17JG","","img/set1/S1.jpg","83","1","structured_incentive","83","structured_incentive,structured_load,structured_normal,random","4,2,2,3,1,2","1,3,2,4","true","","",""
"null","","html-keyboard-response","236","370971","0.0-236.0","3180JW2OT5YHB44YHTK0OS0W9AUJ5Y","AMIQGW2E3WYO4","3G9UA71JVVGUCOKNEKUVXTI6SA17JG","","<img src=""img/set1/S1.jpg"" width=""540"" height = ""360"" style=""border:16px solid orange"">","null","","","","","","","","","",""
"null","","html-keyboard-response","237","371179","0.0-237.0","3180JW2OT5YHB44YHTK0OS0W9AUJ5Y","AMIQGW2E3WYO4","3G9UA71JVVGUCOKNEKUVXTI6SA17JG","","","null","","","","","","","","","",""
"729","","image-keyboard-response","238","371909","0.0-238.0","3180JW2OT5YHB44YHTK0OS0W9AUJ5Y","AMIQGW2E3WYO4","3G9UA71JVVGUCOKNEKUVXTI6SA17JG","","img/set1/S4.jpg","74","4","structured_incentive","74","structured_incentive,structured_load,structured_normal,random","4,2,2,3,1,2","1,3,2,4","true","","",""
"null","","html-keyboard-response","239","372271","0.0-239.0","3180JW2OT5YHB44YHTK0OS0W9AUJ5Y","AMIQGW2E3WYO4","3G9UA71JVVGUCOKNEKUVXTI6SA17JG","","<img src=""img/set1/S4.jpg"" width=""540"" height = ""360"" style=""border:16px solid orange"">","null","","","","","","","","","",""
"null","","html-keyboard-response","240","372477","0.0-240.0","3180JW2OT5YHB44YHTK0OS0W9AUJ5Y","AMIQGW2E3WYO4","3G9UA71JVVGUCOKNEKUVXTI6SA17JG","","","null","","","","","","","","","",""
"767","","image-keyboard-response","241","373245","0.0-241.0","3180JW2OT5YHB44YHTK0OS0W9AUJ5Y","AMIQGW2E3WYO4","3G9UA71JVVGUCOKNEKUVXTI6SA17JG","","img/set1/S2.jpg","68","2","structured_incentive","68","structured_incentive,structured_load,structured_normal,random","4,2,2,3,1,2","1,3,2,4","true","","",""
"null","","html-keyboard-response","242","373604","0.0-242.0","3180JW2OT5YHB44YHTK0OS0W9AUJ5Y","AMIQGW2E3WYO4","3G9UA71JVVGUCOKNEKUVXTI6SA17JG","","<img src=""img/set1/S2.jpg"" width=""540"" height = ""360"" style=""border:16px solid orange"">","null","","","","","","","","","",""
"null","","html-keyboard-response","243","373812","0.0-243.0","3180JW2OT5YHB44YHTK0OS0W9AUJ5Y","AMIQGW2E3WYO4","3G9UA71JVVGUCOKNEKUVXTI6SA17JG","","","null","","","","","","","","","",""
"1562","","image-keyboard-response","244","375373","0.0-244.0","3180JW2OT5YHB44YHTK0OS0W9AUJ5Y","AMIQGW2E3WYO4","3G9UA71JVVGUCOKNEKUVXTI6SA17JG","","img/set1/S4.jpg","74","4","structured_incentive","74","structured_incentive,structured_load,structured_normal,random","4,2,2,3,1,2","1,3,2,4","true","","",""
"null","","html-keyboard-response","245","375725","0.0-245.0","3180JW2OT5YHB44YHTK0OS0W9AUJ5Y","AMIQGW2E3WYO4","3G9UA71JVVGUCOKNEKUVXTI6SA17JG","","<img src=""img/set1/S4.jpg"" width=""540"" height = ""360"" style=""border:16px solid orange"">","null","","","","","","","","","",""
"null","","html-keyboard-response","246","375931","0.0-246.0","3180JW2OT5YHB44YHTK0OS0W9AUJ5Y","AMIQGW2E3WYO4","3G9UA71JVVGUCOKNEKUVXTI6SA17JG","","","null","","","","","","","","","",""
"681","","image-keyboard-response","247","376613","0.0-247.0","3180JW2OT5YHB44YHTK0OS0W9AUJ5Y","AMIQGW2E3WYO4","3G9UA71JVVGUCOKNEKUVXTI6SA17JG","","img/set1/S3.jpg","72","3","structured_incentive","72","structured_incentive,structured_load,structured_normal,random","4,2,2,3,1,2","1,3,2,4","true","","",""
"null","","html-keyboard-response","248","376966","0.0-248.0","3180JW2OT5YHB44YHTK0OS0W9AUJ5Y","AMIQGW2E3WYO4","3G9UA71JVVGUCOKNEKUVXTI6SA17JG","","<img src=""img/set1/S3.jpg"" width=""540"" height = ""360"" style=""border:16px solid Violet"">","null","","","","","","","","","",""
"null","","html-keyboard-response","249","377173","0.0-249.0","3180JW2OT5YHB44YHTK0OS0W9AUJ5Y","AMIQGW2E3WYO4","3G9UA71JVVGUCOKNEKUVXTI6SA17JG","","","null","","","","","","","","","",""
"735","","image-keyboard-response","250","377909","0.0-250.0","3180JW2OT5YHB44YHTK0OS0W9AUJ5Y","AMIQGW2E3WYO4","3G9UA71JVVGUCOKNEKUVXTI6SA17JG","","img/set1/S2.jpg","68","2","structured_incentive","68","structured_incentive,structured_load,structured_normal,random","4,2,2,3,1,2","1,3,2,4","true","","",""
"null","","html-keyboard-response","251","378262","0.0-251.0","3180JW2OT5YHB44YHTK0OS0W9AUJ5Y","AMIQGW2E3WYO4","3G9UA71JVVGUCOKNEKUVXTI6SA17JG","","<img src=""img/set1/S2.jpg"" width=""540"" height = ""360"" style=""border:16px solid orange"">","null","","","","","","","","","",""
"null","","html-keyboard-response","252","378464","0.0-252.0","3180JW2OT5YHB44YHTK0OS0W9AUJ5Y","AMIQGW2E3WYO4","3G9UA71JVVGUCOKNEKUVXTI6SA17JG","","","null","","","","","","","","","",""
"685","","image-keyboard-response","253","379149","0.0-253.0","3180JW2OT5YHB44YHTK0OS0W9AUJ5Y","AMIQGW2E3WYO4","3G9UA71JVVGUCOKNEKUVXTI6SA17JG","","img/set1/S2.jpg","68","2","structured_incentive","68","structured_incentive,structured_load,structured_normal,random","4,2,2,3,1,2","1,3,2,4","true","","",""
"null","","html-keyboard-response","254","379512","0.0-254.0","3180JW2OT5YHB44YHTK0OS0W9AUJ5Y","AMIQGW2E3WYO4","3G9UA71JVVGUCOKNEKUVXTI6SA17JG","","<img src=""img/set1/S2.jpg"" width=""540"" height = ""360"" style=""border:16px solid orange"">","null","","","","","","","","","",""
"null","","html-keyboard-response","255","379716","0.0-255.0","3180JW2OT5YHB44YHTK0OS0W9AUJ5Y","AMIQGW2E3WYO4","3G9UA71JVVGUCOKNEKUVXTI6SA17JG","","","null","","","","","","","","","",""
"816","","image-keyboard-response","256","380533","0.0-256.0","3180JW2OT5YHB44YHTK0OS0W9AUJ5Y","AMIQGW2E3WYO4","3G9UA71JVVGUCOKNEKUVXTI6SA17JG","","img/set1/S1.jpg","83","1","structured_incentive","83","structured_incentive,structured_load,structured_normal,random","4,2,2,3,1,2","1,3,2,4","true","","",""
"null","","html-keyboard-response","257","380896","0.0-257.0","3180JW2OT5YHB44YHTK0OS0W9AUJ5Y","AMIQGW2E3WYO4","3G9UA71JVVGUCOKNEKUVXTI6SA17JG","","<img src=""img/set1/S1.jpg"" width=""540"" height = ""360"" style=""border:16px solid orange"">","null","","","","","","","","","",""
"null","","html-keyboard-response","258","381101","0.0-258.0","3180JW2OT5YHB44YHTK0OS0W9AUJ5Y","AMIQGW2E3WYO4","3G9UA71JVVGUCOKNEKUVXTI6SA17JG","","","null","","","","","","","","","",""
"664","","image-keyboard-response","259","381765","0.0-259.0","3180JW2OT5YHB44YHTK0OS0W9AUJ5Y","AMIQGW2E3WYO4","3G9UA71JVVGUCOKNEKUVXTI6SA17JG","","img/set1/S4.jpg","74","4","structured_incentive","74","structured_incentive,structured_load,structured_normal,random","4,2,2,3,1,2","1,3,2,4","true","","",""
"null","","html-keyboard-response","260","382127","0.0-260.0","3180JW2OT5YHB44YHTK0OS0W9AUJ5Y","AMIQGW2E3WYO4","3G9UA71JVVGUCOKNEKUVXTI6SA17JG","","<img src=""img/set1/S4.jpg"" width=""540"" height = ""360"" style=""border:16px solid orange"">","null","","","","","","","","","",""
"null","","html-keyboard-response","261","382330","0.0-261.0","3180JW2OT5YHB44YHTK0OS0W9AUJ5Y","AMIQGW2E3WYO4","3G9UA71JVVGUCOKNEKUVXTI6SA17JG","","","null","","","","","","","","","",""
"851","","image-keyboard-response","262","383181","0.0-262.0","3180JW2OT5YHB44YHTK0OS0W9AUJ5Y","AMIQGW2E3WYO4","3G9UA71JVVGUCOKNEKUVXTI6SA17JG","","img/set1/S2.jpg","68","2","structured_incentive","68","structured_incentive,structured_load,structured_normal,random","4,2,2,3,1,2","1,3,2,4","true","","",""
"null","","html-keyboard-response","263","383544","0.0-263.0","3180JW2OT5YHB44YHTK0OS0W9AUJ5Y","AMIQGW2E3WYO4","3G9UA71JVVGUCOKNEKUVXTI6SA17JG","","<img src=""img/set1/S2.jpg"" width=""540"" height = ""360"" style=""border:16px solid orange"">","null","","","","","","","","","",""
"null","","html-keyboard-response","264","383748","0.0-264.0","3180JW2OT5YHB44YHTK0OS0W9AUJ5Y","AMIQGW2E3WYO4","3G9UA71JVVGUCOKNEKUVXTI6SA17JG","","","null","","","","","","","","","",""
"776","","image-keyboard-response","265","384525","0.0-265.0","3180JW2OT5YHB44YHTK0OS0W9AUJ5Y","AMIQGW2E3WYO4","3G9UA71JVVGUCOKNEKUVXTI6SA17JG","","img/set1/S3.jpg","72","3","structured_incentive","72","structured_incentive,structured_load,structured_normal,random","4,2,2,3,1,2","1,3,2,4","true","","",""
"null","","html-keyboard-response","266","384880","0.0-266.0","3180JW2OT5YHB44YHTK0OS0W9AUJ5Y","AMIQGW2E3WYO4","3G9UA71JVVGUCOKNEKUVXTI6SA17JG","","<img src=""img/set1/S3.jpg"" width=""540"" height = ""360"" style=""border:16px solid Violet"">","null","","","","","","","","","",""
"null","","html-keyboard-response","267","385087","0.0-267.0","3180JW2OT5YHB44YHTK0OS0W9AUJ5Y","AMIQGW2E3WYO4","3G9UA71JVVGUCOKNEKUVXTI6SA17JG","","","null","","","","","","","","","",""
"726","","image-keyboard-response","268","385813","0.0-268.0","3180JW2OT5YHB44YHTK0OS0W9AUJ5Y","AMIQGW2E3WYO4","3G9UA71JVVGUCOKNEKUVXTI6SA17JG","","img/set1/S2.jpg","68","2","structured_incentive","68","structured_incentive,structured_load,structured_normal,random","4,2,2,3,1,2","1,3,2,4","true","","",""
"null","","html-keyboard-response","269","386178","0.0-269.0","3180JW2OT5YHB44YHTK0OS0W9AUJ5Y","AMIQGW2E3WYO4","3G9UA71JVVGUCOKNEKUVXTI6SA17JG","","<img src=""img/set1/S2.jpg"" width=""540"" height = ""360"" style=""border:16px solid orange"">","null","","","","","","","","","",""
"null","","html-keyboard-response","270","386386","0.0-270.0","3180JW2OT5YHB44YHTK0OS0W9AUJ5Y","AMIQGW2E3WYO4","3G9UA71JVVGUCOKNEKUVXTI6SA17JG","","","null","","","","","","","","","",""
"762","","image-keyboard-response","271","387149","0.0-271.0","3180JW2OT5YHB44YHTK0OS0W9AUJ5Y","AMIQGW2E3WYO4","3G9UA71JVVGUCOKNEKUVXTI6SA17JG","","img/set1/S1.jpg","83","1","structured_incentive","83","structured_incentive,structured_load,structured_normal,random","4,2,2,3,1,2","1,3,2,4","true","","",""
"null","","html-keyboard-response","272","387505","0.0-272.0","3180JW2OT5YHB44YHTK0OS0W9AUJ5Y","AMIQGW2E3WYO4","3G9UA71JVVGUCOKNEKUVXTI6SA17JG","","<img src=""img/set1/S1.jpg"" width=""540"" height = ""360"" style=""border:16px solid orange"">","null","","","","","","","","","",""
"null","","html-keyboard-response","273","387712","0.0-273.0","3180JW2OT5YHB44YHTK0OS0W9AUJ5Y","AMIQGW2E3WYO4","3G9UA71JVVGUCOKNEKUVXTI6SA17JG","","","null","","","","","","","","","",""
"637","","image-keyboard-response","274","388348","0.0-274.0","3180JW2OT5YHB44YHTK0OS0W9AUJ5Y","AMIQGW2E3WYO4","3G9UA71JVVGUCOKNEKUVXTI6SA17JG","","img/set1/S4.jpg","74","4","structured_incentive","74","structured_incentive,structured_load,structured_normal,random","4,2,2,3,1,2","1,3,2,4","true","","",""
"null","","html-keyboard-response","275","388700","0.0-275.0","3180JW2OT5YHB44YHTK0OS0W9AUJ5Y","AMIQGW2E3WYO4","3G9UA71JVVGUCOKNEKUVXTI6SA17JG","","<img src=""img/set1/S4.jpg"" width=""540"" height = ""360"" style=""border:16px solid orange"">","null","","","","","","","","","",""
"null","","html-keyboard-response","276","388906","0.0-276.0","3180JW2OT5YHB44YHTK0OS0W9AUJ5Y","AMIQGW2E3WYO4","3G9UA71JVVGUCOKNEKUVXTI6SA17JG","","","null","","","","","","","","","",""
"747","","image-keyboard-response","277","389654","0.0-277.0","3180JW2OT5YHB44YHTK0OS0W9AUJ5Y","AMIQGW2E3WYO4","3G9UA71JVVGUCOKNEKUVXTI6SA17JG","","img/set1/S2.jpg","68","2","structured_incentive","68","structured_incentive,structured_load,structured_normal,random","4,2,2,3,1,2","1,3,2,4","true","","",""
"null","","html-keyboard-response","278","390018","0.0-278.0","3180JW2OT5YHB44YHTK0OS0W9AUJ5Y","AMIQGW2E3WYO4","3G9UA71JVVGUCOKNEKUVXTI6SA17JG","","<img src=""img/set1/S2.jpg"" width=""540"" height = ""360"" style=""border:16px solid orange"">","null","","","","","","","","","",""
"null","","html-keyboard-response","279","390226","0.0-279.0","3180JW2OT5YHB44YHTK0OS0W9AUJ5Y","AMIQGW2E3WYO4","3G9UA71JVVGUCOKNEKUVXTI6SA17JG","","","null","","","","","","","","","",""
"714","","image-keyboard-response","280","390941","0.0-280.0","3180JW2OT5YHB44YHTK0OS0W9AUJ5Y","AMIQGW2E3WYO4","3G9UA71JVVGUCOKNEKUVXTI6SA17JG","","img/set1/S4.jpg","74","4","structured_incentive","74","structured_incentive,structured_load,structured_normal,random","4,2,2,3,1,2","1,3,2,4","true","","",""
"null","","html-keyboard-response","281","391306","0.0-281.0","3180JW2OT5YHB44YHTK0OS0W9AUJ5Y","AMIQGW2E3WYO4","3G9UA71JVVGUCOKNEKUVXTI6SA17JG","","<img src=""img/set1/S4.jpg"" width=""540"" height = ""360"" style=""border:16px solid orange"">","null","","","","","","","","","",""
"null","","html-keyboard-response","282","391513","0.0-282.0","3180JW2OT5YHB44YHTK0OS0W9AUJ5Y","AMIQGW2E3WYO4","3G9UA71JVVGUCOKNEKUVXTI6SA17JG","","","null","","","","","","","","","",""
"661","","image-keyboard-response","283","392173","0.0-283.0","3180JW2OT5YHB44YHTK0OS0W9AUJ5Y","AMIQGW2E3WYO4","3G9UA71JVVGUCOKNEKUVXTI6SA17JG","","img/set1/S2.jpg","68","2","structured_incentive","68","structured_incentive,structured_load,structured_normal,random","4,2,2,3,1,2","1,3,2,4","true","","",""
"null","","html-keyboard-response","284","392532","0.0-284.0","3180JW2OT5YHB44YHTK0OS0W9AUJ5Y","AMIQGW2E3WYO4","3G9UA71JVVGUCOKNEKUVXTI6SA17JG","","<img src=""img/set1/S2.jpg"" width=""540"" height = ""360"" style=""border:16px solid orange"">","null","","","","","","","","","",""
"null","","html-keyboard-response","285","392739","0.0-285.0","3180JW2OT5YHB44YHTK0OS0W9AUJ5Y","AMIQGW2E3WYO4","3G9UA71JVVGUCOKNEKUVXTI6SA17JG","","","null","","","","","","","","","",""
"737","","image-keyboard-response","286","393478","0.0-286.0","3180JW2OT5YHB44YHTK0OS0W9AUJ5Y","AMIQGW2E3WYO4","3G9UA71JVVGUCOKNEKUVXTI6SA17JG","","img/set1/S1.jpg","83","1","structured_incentive","83","structured_incentive,structured_load,structured_normal,random","4,2,2,3,1,2","1,3,2,4","true","","",""
"null","","html-keyboard-response","287","393833","0.0-287.0","3180JW2OT5YHB44YHTK0OS0W9AUJ5Y","AMIQGW2E3WYO4","3G9UA71JVVGUCOKNEKUVXTI6SA17JG","","<img src=""img/set1/S1.jpg"" width=""540"" height = ""360"" style=""border:16px solid orange"">","null","","","","","","","","","",""
"null","","html-keyboard-response","288","394036","0.0-288.0","3180JW2OT5YHB44YHTK0OS0W9AUJ5Y","AMIQGW2E3WYO4","3G9UA71JVVGUCOKNEKUVXTI6SA17JG","","","null","","","","","","","","","",""
"648","","image-keyboard-response","289","394685","0.0-289.0","3180JW2OT5YHB44YHTK0OS0W9AUJ5Y","AMIQGW2E3WYO4","3G9UA71JVVGUCOKNEKUVXTI6SA17JG","","img/set1/S4.jpg","74","4","structured_incentive","74","structured_incentive,structured_load,structured_normal,random","4,2,2,3,1,2","1,3,2,4","true","","",""
"null","","html-keyboard-response","290","395036","0.0-290.0","3180JW2OT5YHB44YHTK0OS0W9AUJ5Y","AMIQGW2E3WYO4","3G9UA71JVVGUCOKNEKUVXTI6SA17JG","","<img src=""img/set1/S4.jpg"" width=""540"" height = ""360"" style=""border:16px solid orange"">","null","","","","","","","","","",""
"null","","html-keyboard-response","291","395242","0.0-291.0","3180JW2OT5YHB44YHTK0OS0W9AUJ5Y","AMIQGW2E3WYO4","3G9UA71JVVGUCOKNEKUVXTI6SA17JG","","","null","","","","","","","","","",""
"1090","","image-keyboard-response","292","396333","0.0-292.0","3180JW2OT5YHB44YHTK0OS0W9AUJ5Y","AMIQGW2E3WYO4","3G9UA71JVVGUCOKNEKUVXTI6SA17JG","","img/set1/S2.jpg","68","2","structured_incentive","68","structured_incentive,structured_load,structured_normal,random","4,2,2,3,1,2","1,3,2,4","true","","",""
"null","","html-keyboard-response","293","396693","0.0-293.0","3180JW2OT5YHB44YHTK0OS0W9AUJ5Y","AMIQGW2E3WYO4","3G9UA71JVVGUCOKNEKUVXTI6SA17JG","","<img src=""img/set1/S2.jpg"" width=""540"" height = ""360"" style=""border:16px solid orange"">","null","","","","","","","","","",""
"null","","html-keyboard-response","294","396897","0.0-294.0","3180JW2OT5YHB44YHTK0OS0W9AUJ5Y","AMIQGW2E3WYO4","3G9UA71JVVGUCOKNEKUVXTI6SA17JG","","","null","","","","","","","","","",""
"619","","image-keyboard-response","295","397517","0.0-295.0","3180JW2OT5YHB44YHTK0OS0W9AUJ5Y","AMIQGW2E3WYO4","3G9UA71JVVGUCOKNEKUVXTI6SA17JG","","img/set1/S3.jpg","72","3","structured_incentive","72","structured_incentive,structured_load,structured_normal,random","4,2,2,3,1,2","1,3,2,4","true","","",""
"null","","html-keyboard-response","296","397876","0.0-296.0","3180JW2OT5YHB44YHTK0OS0W9AUJ5Y","AMIQGW2E3WYO4","3G9UA71JVVGUCOKNEKUVXTI6SA17JG","","<img src=""img/set1/S3.jpg"" width=""540"" height = ""360"" style=""border:16px solid Violet"">","null","","","","","","","","","",""
"null","","html-keyboard-response","297","398083","0.0-297.0","3180JW2OT5YHB44YHTK0OS0W9AUJ5Y","AMIQGW2E3WYO4","3G9UA71JVVGUCOKNEKUVXTI6SA17JG","","","null","","","","","","","","","",""
"769","","image-keyboard-response","298","398853","0.0-298.0","3180JW2OT5YHB44YHTK0OS0W9AUJ5Y","AMIQGW2E3WYO4","3G9UA71JVVGUCOKNEKUVXTI6SA17JG","","img/set1/S1.jpg","83","1","structured_incentive","83","structured_incentive,structured_load,structured_normal,random","4,2,2,3,1,2","1,3,2,4","true","","",""
"null","","html-keyboard-response","299","399207","0.0-299.0","3180JW2OT5YHB44YHTK0OS0W9AUJ5Y","AMIQGW2E3WYO4","3G9UA71JVVGUCOKNEKUVXTI6SA17JG","","<img src=""img/set1/S1.jpg"" width=""540"" height = ""360"" style=""border:16px solid orange"">","null","","","","","","","","","",""
"null","","html-keyboard-response","300","399412","0.0-300.0","3180JW2OT5YHB44YHTK0OS0W9AUJ5Y","AMIQGW2E3WYO4","3G9UA71JVVGUCOKNEKUVXTI6SA17JG","","","null","","","","","","","","","",""
"608","","image-keyboard-response","301","400021","0.0-301.0","3180JW2OT5YHB44YHTK0OS0W9AUJ5Y","AMIQGW2E3WYO4","3G9UA71JVVGUCOKNEKUVXTI6SA17JG","","img/set1/S4.jpg","74","4","structured_incentive","74","structured_incentive,structured_load,structured_normal,random","4,2,2,3,1,2","1,3,2,4","true","","",""
"null","","html-keyboard-response","302","400377","0.0-302.0","3180JW2OT5YHB44YHTK0OS0W9AUJ5Y","AMIQGW2E3WYO4","3G9UA71JVVGUCOKNEKUVXTI6SA17JG","","<img src=""img/set1/S4.jpg"" width=""540"" height = ""360"" style=""border:16px solid orange"">","null","","","","","","","","","",""
"null","","html-keyboard-response","303","400582","0.0-303.0","3180JW2OT5YHB44YHTK0OS0W9AUJ5Y","AMIQGW2E3WYO4","3G9UA71JVVGUCOKNEKUVXTI6SA17JG","","","null","","","","","","","","","",""
"687","","image-keyboard-response","304","401269","0.0-304.0","3180JW2OT5YHB44YHTK0OS0W9AUJ5Y","AMIQGW2E3WYO4","3G9UA71JVVGUCOKNEKUVXTI6SA17JG","","img/set1/S2.jpg","68","2","structured_incentive","68","structured_incentive,structured_load,structured_normal,random","4,2,2,3,1,2","1,3,2,4","true","","",""
"null","","html-keyboard-response","305","401626","0.0-305.0","3180JW2OT5YHB44YHTK0OS0W9AUJ5Y","AMIQGW2E3WYO4","3G9UA71JVVGUCOKNEKUVXTI6SA17JG","","<img src=""img/set1/S2.jpg"" width=""540"" height = ""360"" style=""border:16px solid orange"">","null","","","","","","","","","",""
"null","","html-keyboard-response","306","401832","0.0-306.0","3180JW2OT5YHB44YHTK0OS0W9AUJ5Y","AMIQGW2E3WYO4","3G9UA71JVVGUCOKNEKUVXTI6SA17JG","","","null","","","","","","","","","",""
"620","","image-keyboard-response","307","402453","0.0-307.0","3180JW2OT5YHB44YHTK0OS0W9AUJ5Y","AMIQGW2E3WYO4","3G9UA71JVVGUCOKNEKUVXTI6SA17JG","","img/set1/S2.jpg","68","2","structured_incentive","68","structured_incentive,structured_load,structured_normal,random","4,2,2,3,1,2","1,3,2,4","true","","",""
"null","","html-keyboard-response","308","402816","0.0-308.0","3180JW2OT5YHB44YHTK0OS0W9AUJ5Y","AMIQGW2E3WYO4","3G9UA71JVVGUCOKNEKUVXTI6SA17JG","","<img src=""img/set1/S2.jpg"" width=""540"" height = ""360"" style=""border:16px solid orange"">","null","","","","","","","","","",""
"null","","html-keyboard-response","309","403020","0.0-309.0","3180JW2OT5YHB44YHTK0OS0W9AUJ5Y","AMIQGW2E3WYO4","3G9UA71JVVGUCOKNEKUVXTI6SA17JG","","","null","","","","","","","","","",""
"657","","image-keyboard-response","310","403677","0.0-310.0","3180JW2OT5YHB44YHTK0OS0W9AUJ5Y","AMIQGW2E3WYO4","3G9UA71JVVGUCOKNEKUVXTI6SA17JG","","img/set1/S4.jpg","74","4","structured_incentive","74","structured_incentive,structured_load,structured_normal,random","4,2,2,3,1,2","1,3,2,4","true","","",""
"null","","html-keyboard-response","311","404035","0.0-311.0","3180JW2OT5YHB44YHTK0OS0W9AUJ5Y","AMIQGW2E3WYO4","3G9UA71JVVGUCOKNEKUVXTI6SA17JG","","<img src=""img/set1/S4.jpg"" width=""540"" height = ""360"" style=""border:16px solid orange"">","null","","","","","","","","","",""
"null","","html-keyboard-response","312","404243","0.0-312.0","3180JW2OT5YHB44YHTK0OS0W9AUJ5Y","AMIQGW2E3WYO4","3G9UA71JVVGUCOKNEKUVXTI6SA17JG","","","null","","","","","","","","","",""
"673","","image-keyboard-response","313","404917","0.0-313.0","3180JW2OT5YHB44YHTK0OS0W9AUJ5Y","AMIQGW2E3WYO4","3G9UA71JVVGUCOKNEKUVXTI6SA17JG","","img/set1/S2.jpg","68","2","structured_incentive","68","structured_incentive,structured_load,structured_normal,random","4,2,2,3,1,2","1,3,2,4","true","","",""
"null","","html-keyboard-response","314","405271","0.0-314.0","3180JW2OT5YHB44YHTK0OS0W9AUJ5Y","AMIQGW2E3WYO4","3G9UA71JVVGUCOKNEKUVXTI6SA17JG","","<img src=""img/set1/S2.jpg"" width=""540"" height = ""360"" style=""border:16px solid orange"">","null","","","","","","","","","",""
"null","","html-keyboard-response","315","405475","0.0-315.0","3180JW2OT5YHB44YHTK0OS0W9AUJ5Y","AMIQGW2E3WYO4","3G9UA71JVVGUCOKNEKUVXTI6SA17JG","","","null","","","","","","","","","",""
"826","","image-keyboard-response","316","406301","0.0-316.0","3180JW2OT5YHB44YHTK0OS0W9AUJ5Y","AMIQGW2E3WYO4","3G9UA71JVVGUCOKNEKUVXTI6SA17JG","","img/set1/S1.jpg","83","1","structured_incentive","83","structured_incentive,structured_load,structured_normal,random","4,2,2,3,1,2","1,3,2,4","true","","",""
"null","","html-keyboard-response","317","406667","0.0-317.0","3180JW2OT5YHB44YHTK0OS0W9AUJ5Y","AMIQGW2E3WYO4","3G9UA71JVVGUCOKNEKUVXTI6SA17JG","","<img src=""img/set1/S1.jpg"" width=""540"" height = ""360"" style=""border:16px solid orange"">","null","","","","","","","","","",""
"null","","html-keyboard-response","318","406875","0.0-318.0","3180JW2OT5YHB44YHTK0OS0W9AUJ5Y","AMIQGW2E3WYO4","3G9UA71JVVGUCOKNEKUVXTI6SA17JG","","","null","","","","","","","","","",""
"617","","image-keyboard-response","319","407493","0.0-319.0","3180JW2OT5YHB44YHTK0OS0W9AUJ5Y","AMIQGW2E3WYO4","3G9UA71JVVGUCOKNEKUVXTI6SA17JG","","img/set1/S1.jpg","83","1","structured_incentive","83","structured_incentive,structured_load,structured_normal,random","4,2,2,3,1,2","1,3,2,4","true","","",""
"null","","html-keyboard-response","320","407853","0.0-320.0","3180JW2OT5YHB44YHTK0OS0W9AUJ5Y","AMIQGW2E3WYO4","3G9UA71JVVGUCOKNEKUVXTI6SA17JG","","<img src=""img/set1/S1.jpg"" width=""540"" height = ""360"" style=""border:16px solid orange"">","null","","","","","","","","","",""
"null","","html-keyboard-response","321","408059","0.0-321.0","3180JW2OT5YHB44YHTK0OS0W9AUJ5Y","AMIQGW2E3WYO4","3G9UA71JVVGUCOKNEKUVXTI6SA17JG","","","null","","","","","","","","","",""
"688","","image-keyboard-response","322","408749","0.0-322.0","3180JW2OT5YHB44YHTK0OS0W9AUJ5Y","AMIQGW2E3WYO4","3G9UA71JVVGUCOKNEKUVXTI6SA17JG","","img/set1/S1.jpg","83","1","structured_incentive","83","structured_incentive,structured_load,structured_normal,random","4,2,2,3,1,2","1,3,2,4","true","","",""
"null","","html-keyboard-response","323","409107","0.0-323.0","3180JW2OT5YHB44YHTK0OS0W9AUJ5Y","AMIQGW2E3WYO4","3G9UA71JVVGUCOKNEKUVXTI6SA17JG","","<img src=""img/set1/S1.jpg"" width=""540"" height = ""360"" style=""border:16px solid orange"">","null","","","","","","","","","",""
"null","","html-keyboard-response","324","409315","0.0-324.0","3180JW2OT5YHB44YHTK0OS0W9AUJ5Y","AMIQGW2E3WYO4","3G9UA71JVVGUCOKNEKUVXTI6SA17JG","","","null","","","","","","","","","",""
"465","","image-keyboard-response","325","409781","0.0-325.0","3180JW2OT5YHB44YHTK0OS0W9AUJ5Y","AMIQGW2E3WYO4","3G9UA71JVVGUCOKNEKUVXTI6SA17JG","","img/set1/S1.jpg","83","1","structured_incentive","83","structured_incentive,structured_load,structured_normal,random","4,2,2,3,1,2","1,3,2,4","true","","",""
"null","","html-keyboard-response","326","410142","0.0-326.0","3180JW2OT5YHB44YHTK0OS0W9AUJ5Y","AMIQGW2E3WYO4","3G9UA71JVVGUCOKNEKUVXTI6SA17JG","","<img src=""img/set1/S1.jpg"" width=""540"" height = ""360"" style=""border:16px solid orange"">","null","","","","","","","","","",""
"null","","html-keyboard-response","327","410349","0.0-327.0","3180JW2OT5YHB44YHTK0OS0W9AUJ5Y","AMIQGW2E3WYO4","3G9UA71JVVGUCOKNEKUVXTI6SA17JG","","","null","","","","","","","","","",""
"518","","image-keyboard-response","328","410869","0.0-328.0","3180JW2OT5YHB44YHTK0OS0W9AUJ5Y","AMIQGW2E3WYO4","3G9UA71JVVGUCOKNEKUVXTI6SA17JG","","img/set1/S1.jpg","83","1","structured_incentive","83","structured_incentive,structured_load,structured_normal,random","4,2,2,3,1,2","1,3,2,4","true","","",""
"null","","html-keyboard-response","329","411225","0.0-329.0","3180JW2OT5YHB44YHTK0OS0W9AUJ5Y","AMIQGW2E3WYO4","3G9UA71JVVGUCOKNEKUVXTI6SA17JG","","<img src=""img/set1/S1.jpg"" width=""540"" height = ""360"" style=""border:16px solid orange"">","null","","","","","","","","","",""
"null","","html-keyboard-response","330","411432","0.0-330.0","3180JW2OT5YHB44YHTK0OS0W9AUJ5Y","AMIQGW2E3WYO4","3G9UA71JVVGUCOKNEKUVXTI6SA17JG","","","null","","","","","","","","","",""
"525","","image-keyboard-response","331","411957","0.0-331.0","3180JW2OT5YHB44YHTK0OS0W9AUJ5Y","AMIQGW2E3WYO4","3G9UA71JVVGUCOKNEKUVXTI6SA17JG","","img/set1/S4.jpg","74","4","structured_incentive","74","structured_incentive,structured_load,structured_normal,random","4,2,2,3,1,2","1,3,2,4","true","","",""
"null","","html-keyboard-response","332","412314","0.0-332.0","3180JW2OT5YHB44YHTK0OS0W9AUJ5Y","AMIQGW2E3WYO4","3G9UA71JVVGUCOKNEKUVXTI6SA17JG","","<img src=""img/set1/S4.jpg"" width=""540"" height = ""360"" style=""border:16px solid orange"">","null","","","","","","","","","",""
"null","","html-keyboard-response","333","412517","0.0-333.0","3180JW2OT5YHB44YHTK0OS0W9AUJ5Y","AMIQGW2E3WYO4","3G9UA71JVVGUCOKNEKUVXTI6SA17JG","","","null","","","","","","","","","",""
"1063","","image-keyboard-response","334","413581","0.0-334.0","3180JW2OT5YHB44YHTK0OS0W9AUJ5Y","AMIQGW2E3WYO4","3G9UA71JVVGUCOKNEKUVXTI6SA17JG","","img/set1/S2.jpg","68","2","structured_incentive","68","structured_incentive,structured_load,structured_normal,random","4,2,2,3,1,2","1,3,2,4","true","","",""
"null","","html-keyboard-response","335","413939","0.0-335.0","3180JW2OT5YHB44YHTK0OS0W9AUJ5Y","AMIQGW2E3WYO4","3G9UA71JVVGUCOKNEKUVXTI6SA17JG","","<img src=""img/set1/S2.jpg"" width=""540"" height = ""360"" style=""border:16px solid orange"">","null","","","","","","","","","",""
"null","","html-keyboard-response","336","414146","0.0-336.0","3180JW2OT5YHB44YHTK0OS0W9AUJ5Y","AMIQGW2E3WYO4","3G9UA71JVVGUCOKNEKUVXTI6SA17JG","","","null","","","","","","","","","",""
"618","","image-keyboard-response","337","414765","0.0-337.0","3180JW2OT5YHB44YHTK0OS0W9AUJ5Y","AMIQGW2E3WYO4","3G9UA71JVVGUCOKNEKUVXTI6SA17JG","","img/set1/S4.jpg","74","4","structured_incentive","74","structured_incentive,structured_load,structured_normal,random","4,2,2,3,1,2","1,3,2,4","true","","",""
"null","","html-keyboard-response","338","415117","0.0-338.0","3180JW2OT5YHB44YHTK0OS0W9AUJ5Y","AMIQGW2E3WYO4","3G9UA71JVVGUCOKNEKUVXTI6SA17JG","","<img src=""img/set1/S4.jpg"" width=""540"" height = ""360"" style=""border:16px solid orange"">","null","","","","","","","","","",""
"null","","html-keyboard-response","339","415324","0.0-339.0","3180JW2OT5YHB44YHTK0OS0W9AUJ5Y","AMIQGW2E3WYO4","3G9UA71JVVGUCOKNEKUVXTI6SA17JG","","","null","","","","","","","","","",""
"672","","image-keyboard-response","340","415997","0.0-340.0","3180JW2OT5YHB44YHTK0OS0W9AUJ5Y","AMIQGW2E3WYO4","3G9UA71JVVGUCOKNEKUVXTI6SA17JG","","img/set1/S2.jpg","68","2","structured_incentive","68","structured_incentive,structured_load,structured_normal,random","4,2,2,3,1,2","1,3,2,4","true","","",""
"null","","html-keyboard-response","341","416355","0.0-341.0","3180JW2OT5YHB44YHTK0OS0W9AUJ5Y","AMIQGW2E3WYO4","3G9UA71JVVGUCOKNEKUVXTI6SA17JG","","<img src=""img/set1/S2.jpg"" width=""540"" height = ""360"" style=""border:16px solid orange"">","null","","","","","","","","","",""
"null","","html-keyboard-response","342","416562","0.0-342.0","3180JW2OT5YHB44YHTK0OS0W9AUJ5Y","AMIQGW2E3WYO4","3G9UA71JVVGUCOKNEKUVXTI6SA17JG","","","null","","","","","","","","","",""
"722","","image-keyboard-response","343","417285","0.0-343.0","3180JW2OT5YHB44YHTK0OS0W9AUJ5Y","AMIQGW2E3WYO4","3G9UA71JVVGUCOKNEKUVXTI6SA17JG","","img/set1/S3.jpg","72","3","structured_incentive","72","structured_incentive,structured_load,structured_normal,random","4,2,2,3,1,2","1,3,2,4","true","","",""
"null","","html-keyboard-response","344","417638","0.0-344.0","3180JW2OT5YHB44YHTK0OS0W9AUJ5Y","AMIQGW2E3WYO4","3G9UA71JVVGUCOKNEKUVXTI6SA17JG","","<img src=""img/set1/S3.jpg"" width=""540"" height = ""360"" style=""border:16px solid Violet"">","null","","","","","","","","","",""
"null","","html-keyboard-response","345","417846","0.0-345.0","3180JW2OT5YHB44YHTK0OS0W9AUJ5Y","AMIQGW2E3WYO4","3G9UA71JVVGUCOKNEKUVXTI6SA17JG","","","null","","","","","","","","","",""
"1047","","image-keyboard-response","346","418893","0.0-346.0","3180JW2OT5YHB44YHTK0OS0W9AUJ5Y","AMIQGW2E3WYO4","3G9UA71JVVGUCOKNEKUVXTI6SA17JG","","img/set1/S4.jpg","74","4","structured_incentive","74","structured_incentive,structured_load,structured_normal,random","4,2,2,3,1,2","1,3,2,4","true","","",""
"null","","html-keyboard-response","347","419257","0.0-347.0","3180JW2OT5YHB44YHTK0OS0W9AUJ5Y","AMIQGW2E3WYO4","3G9UA71JVVGUCOKNEKUVXTI6SA17JG","","<img src=""img/set1/S4.jpg"" width=""540"" height = ""360"" style=""border:16px solid orange"">","null","","","","","","","","","",""
"null","","html-keyboard-response","348","419465","0.0-348.0","3180JW2OT5YHB44YHTK0OS0W9AUJ5Y","AMIQGW2E3WYO4","3G9UA71JVVGUCOKNEKUVXTI6SA17JG","","","null","","","","","","","","","",""
"1228","","image-keyboard-response","349","420693","0.0-349.0","3180JW2OT5YHB44YHTK0OS0W9AUJ5Y","AMIQGW2E3WYO4","3G9UA71JVVGUCOKNEKUVXTI6SA17JG","","img/set1/S3.jpg","68","3","structured_incentive","72","structured_incentive,structured_load,structured_normal,random","4,2,2,3,1,2","1,3,2,4","false","","",""
"null","","html-keyboard-response","350","421053","0.0-350.0","3180JW2OT5YHB44YHTK0OS0W9AUJ5Y","AMIQGW2E3WYO4","3G9UA71JVVGUCOKNEKUVXTI6SA17JG","","<img src=""img/set1/S3.jpg"" width=""540"" height = ""360"">","null","","","","","","","","","",""
"null","","html-keyboard-response","351","421259","0.0-351.0","3180JW2OT5YHB44YHTK0OS0W9AUJ5Y","AMIQGW2E3WYO4","3G9UA71JVVGUCOKNEKUVXTI6SA17JG","","","null","","","","","","","","","",""
"705","","image-keyboard-response","352","421964","0.0-352.0","3180JW2OT5YHB44YHTK0OS0W9AUJ5Y","AMIQGW2E3WYO4","3G9UA71JVVGUCOKNEKUVXTI6SA17JG","","img/set1/S1.jpg","83","1","structured_incentive","83","structured_incentive,structured_load,structured_normal,random","4,2,2,3,1,2","1,3,2,4","true","","",""
"null","","html-keyboard-response","353","422331","0.0-353.0","3180JW2OT5YHB44YHTK0OS0W9AUJ5Y","AMIQGW2E3WYO4","3G9UA71JVVGUCOKNEKUVXTI6SA17JG","","<img src=""img/set1/S1.jpg"" width=""540"" height = ""360"" style=""border:16px solid orange"">","null","","","","","","","","","",""
"null","","html-keyboard-response","354","422539","0.0-354.0","3180JW2OT5YHB44YHTK0OS0W9AUJ5Y","AMIQGW2E3WYO4","3G9UA71JVVGUCOKNEKUVXTI6SA17JG","","","null","","","","","","","","","",""
"866","","image-keyboard-response","355","423405","0.0-355.0","3180JW2OT5YHB44YHTK0OS0W9AUJ5Y","AMIQGW2E3WYO4","3G9UA71JVVGUCOKNEKUVXTI6SA17JG","","img/set1/S1.jpg","83","1","structured_incentive","83","structured_incentive,structured_load,structured_normal,random","4,2,2,3,1,2","1,3,2,4","true","","",""
"null","","html-keyboard-response","356","423759","0.0-356.0","3180JW2OT5YHB44YHTK0OS0W9AUJ5Y","AMIQGW2E3WYO4","3G9UA71JVVGUCOKNEKUVXTI6SA17JG","","<img src=""img/set1/S1.jpg"" width=""540"" height = ""360"" style=""border:16px solid orange"">","null","","","","","","","","","",""
"null","","html-keyboard-response","357","423967","0.0-357.0","3180JW2OT5YHB44YHTK0OS0W9AUJ5Y","AMIQGW2E3WYO4","3G9UA71JVVGUCOKNEKUVXTI6SA17JG","","","null","","","","","","","","","",""
"678","","image-keyboard-response","358","424645","0.0-358.0","3180JW2OT5YHB44YHTK0OS0W9AUJ5Y","AMIQGW2E3WYO4","3G9UA71JVVGUCOKNEKUVXTI6SA17JG","","img/set1/S4.jpg","74","4","structured_incentive","74","structured_incentive,structured_load,structured_normal,random","4,2,2,3,1,2","1,3,2,4","true","","",""
"null","","html-keyboard-response","359","424998","0.0-359.0","3180JW2OT5YHB44YHTK0OS0W9AUJ5Y","AMIQGW2E3WYO4","3G9UA71JVVGUCOKNEKUVXTI6SA17JG","","<img src=""img/set1/S4.jpg"" width=""540"" height = ""360"" style=""border:16px solid orange"">","null","","","","","","","","","",""
"null","","html-keyboard-response","360","425203","0.0-360.0","3180JW2OT5YHB44YHTK0OS0W9AUJ5Y","AMIQGW2E3WYO4","3G9UA71JVVGUCOKNEKUVXTI6SA17JG","","","null","","","","","","","","","",""
"1042","","image-keyboard-response","361","426245","0.0-361.0","3180JW2OT5YHB44YHTK0OS0W9AUJ5Y","AMIQGW2E3WYO4","3G9UA71JVVGUCOKNEKUVXTI6SA17JG","","img/set1/S2.jpg","68","2","structured_incentive","68","structured_incentive,structured_load,structured_normal,random","4,2,2,3,1,2","1,3,2,4","true","","",""
"null","","html-keyboard-response","362","426600","0.0-362.0","3180JW2OT5YHB44YHTK0OS0W9AUJ5Y","AMIQGW2E3WYO4","3G9UA71JVVGUCOKNEKUVXTI6SA17JG","","<img src=""img/set1/S2.jpg"" width=""540"" height = ""360"" style=""border:16px solid orange"">","null","","","","","","","","","",""
"null","","html-keyboard-response","363","426808","0.0-363.0","3180JW2OT5YHB44YHTK0OS0W9AUJ5Y","AMIQGW2E3WYO4","3G9UA71JVVGUCOKNEKUVXTI6SA17JG","","","null","","","","","","","","","",""
"765","","image-keyboard-response","364","427573","0.0-364.0","3180JW2OT5YHB44YHTK0OS0W9AUJ5Y","AMIQGW2E3WYO4","3G9UA71JVVGUCOKNEKUVXTI6SA17JG","","img/set1/S1.jpg","83","1","structured_incentive","83","structured_incentive,structured_load,structured_normal,random","4,2,2,3,1,2","1,3,2,4","true","","",""
"null","","html-keyboard-response","365","427931","0.0-365.0","3180JW2OT5YHB44YHTK0OS0W9AUJ5Y","AMIQGW2E3WYO4","3G9UA71JVVGUCOKNEKUVXTI6SA17JG","","<img src=""img/set1/S1.jpg"" width=""540"" height = ""360"" style=""border:16px solid orange"">","null","","","","","","","","","",""
"null","","html-keyboard-response","366","428139","0.0-366.0","3180JW2OT5YHB44YHTK0OS0W9AUJ5Y","AMIQGW2E3WYO4","3G9UA71JVVGUCOKNEKUVXTI6SA17JG","","","null","","","","","","","","","",""
"592","","image-keyboard-response","367","428733","0.0-367.0","3180JW2OT5YHB44YHTK0OS0W9AUJ5Y","AMIQGW2E3WYO4","3G9UA71JVVGUCOKNEKUVXTI6SA17JG","","img/set1/S1.jpg","83","1","structured_incentive","83","structured_incentive,structured_load,structured_normal,random","4,2,2,3,1,2","1,3,2,4","true","","",""
"null","","html-keyboard-response","368","429095","0.0-368.0","3180JW2OT5YHB44YHTK0OS0W9AUJ5Y","AMIQGW2E3WYO4","3G9UA71JVVGUCOKNEKUVXTI6SA17JG","","<img src=""img/set1/S1.jpg"" width=""540"" height = ""360"" style=""border:16px solid orange"">","null","","","","","","","","","",""
"null","","html-keyboard-response","369","429301","0.0-369.0","3180JW2OT5YHB44YHTK0OS0W9AUJ5Y","AMIQGW2E3WYO4","3G9UA71JVVGUCOKNEKUVXTI6SA17JG","","","null","","","","","","","","","",""
"639","","image-keyboard-response","370","429941","0.0-370.0","3180JW2OT5YHB44YHTK0OS0W9AUJ5Y","AMIQGW2E3WYO4","3G9UA71JVVGUCOKNEKUVXTI6SA17JG","","img/set1/S2.jpg","68","2","structured_incentive","68","structured_incentive,structured_load,structured_normal,random","4,2,2,3,1,2","1,3,2,4","true","","",""
"null","","html-keyboard-response","371","430305","0.0-371.0","3180JW2OT5YHB44YHTK0OS0W9AUJ5Y","AMIQGW2E3WYO4","3G9UA71JVVGUCOKNEKUVXTI6SA17JG","","<img src=""img/set1/S2.jpg"" width=""540"" height = ""360"" style=""border:16px solid orange"">","null","","","","","","","","","",""
"null","","html-keyboard-response","372","430512","0.0-372.0","3180JW2OT5YHB44YHTK0OS0W9AUJ5Y","AMIQGW2E3WYO4","3G9UA71JVVGUCOKNEKUVXTI6SA17JG","","","null","","","","","","","","","",""
"764","","image-keyboard-response","373","431277","0.0-373.0","3180JW2OT5YHB44YHTK0OS0W9AUJ5Y","AMIQGW2E3WYO4","3G9UA71JVVGUCOKNEKUVXTI6SA17JG","","img/set1/S1.jpg","83","1","structured_incentive","83","structured_incentive,structured_load,structured_normal,random","4,2,2,3,1,2","1,3,2,4","true","","",""
"null","","html-keyboard-response","374","431642","0.0-374.0","3180JW2OT5YHB44YHTK0OS0W9AUJ5Y","AMIQGW2E3WYO4","3G9UA71JVVGUCOKNEKUVXTI6SA17JG","","<img src=""img/set1/S1.jpg"" width=""540"" height = ""360"" style=""border:16px solid orange"">","null","","","","","","","","","",""
"null","","html-keyboard-response","375","431847","0.0-375.0","3180JW2OT5YHB44YHTK0OS0W9AUJ5Y","AMIQGW2E3WYO4","3G9UA71JVVGUCOKNEKUVXTI6SA17JG","","","null","","","","","","","","","",""
"604","","image-keyboard-response","376","432453","0.0-376.0","3180JW2OT5YHB44YHTK0OS0W9AUJ5Y","AMIQGW2E3WYO4","3G9UA71JVVGUCOKNEKUVXTI6SA17JG","","img/set1/S1.jpg","83","1","structured_incentive","83","structured_incentive,structured_load,structured_normal,random","4,2,2,3,1,2","1,3,2,4","true","","",""
"null","","html-keyboard-response","377","432813","0.0-377.0","3180JW2OT5YHB44YHTK0OS0W9AUJ5Y","AMIQGW2E3WYO4","3G9UA71JVVGUCOKNEKUVXTI6SA17JG","","<img src=""img/set1/S1.jpg"" width=""540"" height = ""360"" style=""border:16px solid orange"">","null","","","","","","","","","",""
"null","","html-keyboard-response","378","433022","0.0-378.0","3180JW2OT5YHB44YHTK0OS0W9AUJ5Y","AMIQGW2E3WYO4","3G9UA71JVVGUCOKNEKUVXTI6SA17JG","","","null","","","","","","","","","",""
"1007","","image-keyboard-response","379","434029","0.0-379.0","3180JW2OT5YHB44YHTK0OS0W9AUJ5Y","AMIQGW2E3WYO4","3G9UA71JVVGUCOKNEKUVXTI6SA17JG","","img/set1/S4.jpg","74","4","structured_incentive","74","structured_incentive,structured_load,structured_normal,random","4,2,2,3,1,2","1,3,2,4","true","","",""
"null","","html-keyboard-response","380","434392","0.0-380.0","3180JW2OT5YHB44YHTK0OS0W9AUJ5Y","AMIQGW2E3WYO4","3G9UA71JVVGUCOKNEKUVXTI6SA17JG","","<img src=""img/set1/S4.jpg"" width=""540"" height = ""360"" style=""border:16px solid orange"">","null","","","","","","","","","",""
"null","","html-keyboard-response","381","434597","0.0-381.0","3180JW2OT5YHB44YHTK0OS0W9AUJ5Y","AMIQGW2E3WYO4","3G9UA71JVVGUCOKNEKUVXTI6SA17JG","","","null","","","","","","","","","",""
"608","","image-keyboard-response","382","435205","0.0-382.0","3180JW2OT5YHB44YHTK0OS0W9AUJ5Y","AMIQGW2E3WYO4","3G9UA71JVVGUCOKNEKUVXTI6SA17JG","","img/set1/S2.jpg","68","2","structured_incentive","68","structured_incentive,structured_load,structured_normal,random","4,2,2,3,1,2","1,3,2,4","true","","",""
"null","","html-keyboard-response","383","435563","0.0-383.0","3180JW2OT5YHB44YHTK0OS0W9AUJ5Y","AMIQGW2E3WYO4","3G9UA71JVVGUCOKNEKUVXTI6SA17JG","","<img src=""img/set1/S2.jpg"" width=""540"" height = ""360"" style=""border:16px solid orange"">","null","","","","","","","","","",""
"null","","html-keyboard-response","384","435765","0.0-384.0","3180JW2OT5YHB44YHTK0OS0W9AUJ5Y","AMIQGW2E3WYO4","3G9UA71JVVGUCOKNEKUVXTI6SA17JG","","","null","","","","","","","","","",""
"791","","image-keyboard-response","385","436557","0.0-385.0","3180JW2OT5YHB44YHTK0OS0W9AUJ5Y","AMIQGW2E3WYO4","3G9UA71JVVGUCOKNEKUVXTI6SA17JG","","img/set1/S4.jpg","74","4","structured_incentive","74","structured_incentive,structured_load,structured_normal,random","4,2,2,3,1,2","1,3,2,4","true","","",""
"null","","html-keyboard-response","386","436922","0.0-386.0","3180JW2OT5YHB44YHTK0OS0W9AUJ5Y","AMIQGW2E3WYO4","3G9UA71JVVGUCOKNEKUVXTI6SA17JG","","<img src=""img/set1/S4.jpg"" width=""540"" height = ""360"" style=""border:16px solid orange"">","null","","","","","","","","","",""
"null","","html-keyboard-response","387","437130","0.0-387.0","3180JW2OT5YHB44YHTK0OS0W9AUJ5Y","AMIQGW2E3WYO4","3G9UA71JVVGUCOKNEKUVXTI6SA17JG","","","null","","","","","","","","","",""
