"rt","url","trial_type","trial_index","time_elapsed","internal_node_id","view_history","stimulus","key_press","state","test_part","correct_response","order_block","order_chunk","correct","responses","bonus"
"67708.70000004768","consent.html","external-html","0","67971","0.0-0.0","","","","","","","","","","",""
"561999.7000000477","","instructions","1","629994","0.0-1.0","[{""page_index"":0,""viewing_time"":4656.400000095367},{""page_index"":1,""viewing_time"":12072.099999904633},{""page_index"":2,""viewing_time"":38190},{""page_index"":3,""viewing_time"":428223.7000000477},{""page_index"":4,""viewing_time"":27962.100000023842},{""page_index"":5,""viewing_time"":30378.100000023842},{""page_index"":6,""viewing_time"":20516.299999952316}]","","","","","","","","","",""
"13684.5","","instructions","2","643680","0.0-2.0","[{""page_index"":0,""viewing_time"":13684.200000047684}]","","","","","","","","","",""
"7146.299999952316","","instructions","3","650828","0.0-3.0","[{""page_index"":0,""viewing_time"":7146.099999904633}]","","","","","","","","","",""
"1044.7999999523163","","image-keyboard-response","4","651874","0.0-4.0","","img/set1/S1.jpg","72","1","random","83","random,structured_normal,structured_load,structured_incentive","2,1,3,4,2,3","false","",""
"null","","html-keyboard-response","5","652229","0.0-5.0","","<img src=""img/set1/S1.jpg"" width=""540"" height = ""360"">","null","","","","","","","",""
"null","","html-keyboard-response","6","652432","0.0-6.0","","","null","","","","","","","",""
"631.7000000476837","","image-keyboard-response","7","653065","0.0-7.0","","img/set1/S2.jpg","74","2","random","68","random,structured_normal,structured_load,structured_incentive","2,1,3,4,2,3","false","",""
"null","","html-keyboard-response","8","653419","0.0-8.0","","<img src=""img/set1/S2.jpg"" width=""540"" height = ""360"">","null","","","","","","","",""
"null","","html-keyboard-response","9","653622","0.0-9.0","","","null","","","","","","","",""
"610.3999999761581","","image-keyboard-response","10","654234","0.0-10.0","","img/set1/S4.jpg","83","4","random","74","random,structured_normal,structured_load,structured_incentive","2,1,3,4,2,3","false","",""
"null","","html-keyboard-response","11","654586","0.0-11.0","","<img src=""img/set1/S4.jpg"" width=""540"" height = ""360"">","null","","","","","","","",""
"null","","html-keyboard-response","12","654789","0.0-12.0","","","null","","","","","","","",""
"506.8000000715256","","image-keyboard-response","13","655297","0.0-13.0","","img/set1/S2.jpg","68","2","random","68","random,structured_normal,structured_load,structured_incentive","2,1,3,4,2,3","true","",""
"null","","html-keyboard-response","14","655650","0.0-14.0","","<img src=""img/set1/S2.jpg"" width=""540"" height = ""360"" style=""border:16px solid orange"">","null","","","","","","","",""
"null","","html-keyboard-response","15","655852","0.0-15.0","","","null","","","","","","","",""
"827.5","","image-keyboard-response","16","656680","0.0-16.0","","img/set1/S1.jpg","72","1","random","83","random,structured_normal,structured_load,structured_incentive","2,1,3,4,2,3","false","",""
"null","","html-keyboard-response","17","657035","0.0-17.0","","<img src=""img/set1/S1.jpg"" width=""540"" height = ""360"">","null","","","","","","","",""
"null","","html-keyboard-response","18","657239","0.0-18.0","","","null","","","","","","","",""
"929.3999999761581","","image-keyboard-response","19","658170","0.0-19.0","","img/set1/S2.jpg","68","2","random","68","random,structured_normal,structured_load,structured_incentive","2,1,3,4,2,3","true","",""
"null","","html-keyboard-response","20","658522","0.0-20.0","","<img src=""img/set1/S2.jpg"" width=""540"" height = ""360"" style=""border:16px solid orange"">","null","","","","","","","",""
"null","","html-keyboard-response","21","658725","0.0-21.0","","","null","","","","","","","",""
"555.8000000715256","","image-keyboard-response","22","659281","0.0-22.0","","img/set1/S3.jpg","83","3","random","72","random,structured_normal,structured_load,structured_incentive","2,1,3,4,2,3","false","",""
"null","","html-keyboard-response","23","659637","0.0-23.0","","<img src=""img/set1/S3.jpg"" width=""540"" height = ""360"">","null","","","","","","","",""
"null","","html-keyboard-response","24","659840","0.0-24.0","","","null","","","","","","","",""
"856.8999999761581","","image-keyboard-response","25","660698","0.0-25.0","","img/set1/S4.jpg","74","4","random","74","random,structured_normal,structured_load,structured_incentive","2,1,3,4,2,3","true","",""
"null","","html-keyboard-response","26","661053","0.0-26.0","","<img src=""img/set1/S4.jpg"" width=""540"" height = ""360"" style=""border:16px solid orange"">","null","","","","","","","",""
"null","","html-keyboard-response","27","661256","0.0-27.0","","","null","","","","","","","",""
"560.7000000476837","","image-keyboard-response","28","661818","0.0-28.0","","img/set1/S3.jpg","68","3","random","72","random,structured_normal,structured_load,structured_incentive","2,1,3,4,2,3","false","",""
"null","","html-keyboard-response","29","662173","0.0-29.0","","<img src=""img/set1/S3.jpg"" width=""540"" height = ""360"">","null","","","","","","","",""
"null","","html-keyboard-response","30","662376","0.0-30.0","","","null","","","","","","","",""
"503.90000009536743","","image-keyboard-response","31","662880","0.0-31.0","","img/set1/S4.jpg","74","4","random","74","random,structured_normal,structured_load,structured_incentive","2,1,3,4,2,3","true","",""
"null","","html-keyboard-response","32","663235","0.0-32.0","","<img src=""img/set1/S4.jpg"" width=""540"" height = ""360"" style=""border:16px solid orange"">","null","","","","","","","",""
"null","","html-keyboard-response","33","663439","0.0-33.0","","","null","","","","","","","",""
"601.6999999284744","","image-keyboard-response","34","664042","0.0-34.0","","img/set1/S1.jpg","68","1","random","83","random,structured_normal,structured_load,structured_incentive","2,1,3,4,2,3","false","",""
"null","","html-keyboard-response","35","664396","0.0-35.0","","<img src=""img/set1/S1.jpg"" width=""540"" height = ""360"">","null","","","","","","","",""
"null","","html-keyboard-response","36","664599","0.0-36.0","","","null","","","","","","","",""
"401.90000009536743","","image-keyboard-response","37","665002","0.0-37.0","","img/set1/S3.jpg","74","3","random","72","random,structured_normal,structured_load,structured_incentive","2,1,3,4,2,3","false","",""
"null","","html-keyboard-response","38","665355","0.0-38.0","","<img src=""img/set1/S3.jpg"" width=""540"" height = ""360"">","null","","","","","","","",""
"null","","html-keyboard-response","39","665558","0.0-39.0","","","null","","","","","","","",""
"777.5","","image-keyboard-response","40","666336","0.0-40.0","","img/set1/S1.jpg","74","1","random","83","random,structured_normal,structured_load,structured_incentive","2,1,3,4,2,3","false","",""
"null","","html-keyboard-response","41","666690","0.0-41.0","","<img src=""img/set1/S1.jpg"" width=""540"" height = ""360"">","null","","","","","","","",""
"null","","html-keyboard-response","42","666893","0.0-42.0","","","null","","","","","","","",""
"603.5","","image-keyboard-response","43","667497","0.0-43.0","","img/set1/S3.jpg","72","3","random","72","random,structured_normal,structured_load,structured_incentive","2,1,3,4,2,3","true","",""
"null","","html-keyboard-response","44","667851","0.0-44.0","","<img src=""img/set1/S3.jpg"" width=""540"" height = ""360"" style=""border:16px solid orange"">","null","","","","","","","",""
"null","","html-keyboard-response","45","668054","0.0-45.0","","","null","","","","","","","",""
"745.6000000238419","","image-keyboard-response","46","668801","0.0-46.0","","img/set1/S2.jpg","68","2","random","68","random,structured_normal,structured_load,structured_incentive","2,1,3,4,2,3","true","",""
"null","","html-keyboard-response","47","669153","0.0-47.0","","<img src=""img/set1/S2.jpg"" width=""540"" height = ""360"" style=""border:16px solid orange"">","null","","","","","","","",""
"null","","html-keyboard-response","48","669354","0.0-48.0","","","null","","","","","","","",""
"805.7000000476837","","image-keyboard-response","49","670160","0.0-49.0","","img/set1/S4.jpg","83","4","random","74","random,structured_normal,structured_load,structured_incentive","2,1,3,4,2,3","false","",""
"null","","html-keyboard-response","50","670515","0.0-50.0","","<img src=""img/set1/S4.jpg"" width=""540"" height = ""360"">","null","","","","","","","",""
"null","","html-keyboard-response","51","670718","0.0-51.0","","","null","","","","","","","",""
"874.8000000715256","","image-keyboard-response","52","671594","0.0-52.0","","img/set1/S1.jpg","72","1","random","83","random,structured_normal,structured_load,structured_incentive","2,1,3,4,2,3","false","",""
"null","","html-keyboard-response","53","671949","0.0-53.0","","<img src=""img/set1/S1.jpg"" width=""540"" height = ""360"">","null","","","","","","","",""
"null","","html-keyboard-response","54","672152","0.0-54.0","","","null","","","","","","","",""
"785","","image-keyboard-response","55","672938","0.0-55.0","","img/set1/S3.jpg","72","3","random","72","random,structured_normal,structured_load,structured_incentive","2,1,3,4,2,3","true","",""
"null","","html-keyboard-response","56","673290","0.0-56.0","","<img src=""img/set1/S3.jpg"" width=""540"" height = ""360"" style=""border:16px solid orange"">","null","","","","","","","",""
"null","","html-keyboard-response","57","673493","0.0-57.0","","","null","","","","","","","",""
"611.2999999523163","","image-keyboard-response","58","674106","0.0-58.0","","img/set1/S2.jpg","68","2","random","68","random,structured_normal,structured_load,structured_incentive","2,1,3,4,2,3","true","",""
"null","","html-keyboard-response","59","674459","0.0-59.0","","<img src=""img/set1/S2.jpg"" width=""540"" height = ""360"" style=""border:16px solid orange"">","null","","","","","","","",""
"null","","html-keyboard-response","60","674660","0.0-60.0","","","null","","","","","","","",""
"557.2999999523163","","image-keyboard-response","61","675218","0.0-61.0","","img/set1/S2.jpg","68","2","random","68","random,structured_normal,structured_load,structured_incentive","2,1,3,4,2,3","true","",""
"null","","html-keyboard-response","62","675572","0.0-62.0","","<img src=""img/set1/S2.jpg"" width=""540"" height = ""360"" style=""border:16px solid orange"">","null","","","","","","","",""
"null","","html-keyboard-response","63","675774","0.0-63.0","","","null","","","","","","","",""
"553.6000000238419","","image-keyboard-response","64","676329","0.0-64.0","","img/set1/S3.jpg","72","3","random","72","random,structured_normal,structured_load,structured_incentive","2,1,3,4,2,3","true","",""
"null","","html-keyboard-response","65","676680","0.0-65.0","","<img src=""img/set1/S3.jpg"" width=""540"" height = ""360"" style=""border:16px solid orange"">","null","","","","","","","",""
"null","","html-keyboard-response","66","676883","0.0-66.0","","","null","","","","","","","",""
"813.7000000476837","","image-keyboard-response","67","677697","0.0-67.0","","img/set1/S4.jpg","74","4","random","74","random,structured_normal,structured_load,structured_incentive","2,1,3,4,2,3","true","",""
"null","","html-keyboard-response","68","678050","0.0-68.0","","<img src=""img/set1/S4.jpg"" width=""540"" height = ""360"" style=""border:16px solid orange"">","null","","","","","","","",""
"null","","html-keyboard-response","69","678254","0.0-69.0","","","null","","","","","","","",""
"721.5","","image-keyboard-response","70","678977","0.0-70.0","","img/set1/S2.jpg","83","2","random","68","random,structured_normal,structured_load,structured_incentive","2,1,3,4,2,3","false","",""
"null","","html-keyboard-response","71","679333","0.0-71.0","","<img src=""img/set1/S2.jpg"" width=""540"" height = ""360"">","null","","","","","","","",""
"null","","html-keyboard-response","72","679536","0.0-72.0","","","null","","","","","","","",""
"824.0999999046326","","image-keyboard-response","73","680362","0.0-73.0","","img/set1/S2.jpg","68","2","random","68","random,structured_normal,structured_load,structured_incentive","2,1,3,4,2,3","true","",""
"null","","html-keyboard-response","74","680715","0.0-74.0","","<img src=""img/set1/S2.jpg"" width=""540"" height = ""360"" style=""border:16px solid orange"">","null","","","","","","","",""
"null","","html-keyboard-response","75","680918","0.0-75.0","","","null","","","","","","","",""
"546.5","","image-keyboard-response","76","681466","0.0-76.0","","img/set1/S2.jpg","68","2","random","68","random,structured_normal,structured_load,structured_incentive","2,1,3,4,2,3","true","",""
"null","","html-keyboard-response","77","681818","0.0-77.0","","<img src=""img/set1/S2.jpg"" width=""540"" height = ""360"" style=""border:16px solid orange"">","null","","","","","","","",""
"null","","html-keyboard-response","78","682021","0.0-78.0","","","null","","","","","","","",""
"587.0999999046326","","image-keyboard-response","79","682609","0.0-79.0","","img/set1/S1.jpg","72","1","random","83","random,structured_normal,structured_load,structured_incentive","2,1,3,4,2,3","false","",""
"null","","html-keyboard-response","80","682962","0.0-80.0","","<img src=""img/set1/S1.jpg"" width=""540"" height = ""360"">","null","","","","","","","",""
"null","","html-keyboard-response","81","683165","0.0-81.0","","","null","","","","","","","",""
"924.7999999523163","","image-keyboard-response","82","684091","0.0-82.0","","img/set1/S3.jpg","72","3","random","72","random,structured_normal,structured_load,structured_incentive","2,1,3,4,2,3","true","",""
"null","","html-keyboard-response","83","684445","0.0-83.0","","<img src=""img/set1/S3.jpg"" width=""540"" height = ""360"" style=""border:16px solid orange"">","null","","","","","","","",""
"null","","html-keyboard-response","84","684647","0.0-84.0","","","null","","","","","","","",""
"796.1000000238419","","image-keyboard-response","85","685444","0.0-85.0","","img/set1/S1.jpg","83","1","random","83","random,structured_normal,structured_load,structured_incentive","2,1,3,4,2,3","true","",""
"null","","html-keyboard-response","86","685795","0.0-86.0","","<img src=""img/set1/S1.jpg"" width=""540"" height = ""360"" style=""border:16px solid orange"">","null","","","","","","","",""
"null","","html-keyboard-response","87","685998","0.0-87.0","","","null","","","","","","","",""
"802.8999999761581","","image-keyboard-response","88","686801","0.0-88.0","","img/set1/S4.jpg","74","4","random","74","random,structured_normal,structured_load,structured_incentive","2,1,3,4,2,3","true","",""
"null","","html-keyboard-response","89","687157","0.0-89.0","","<img src=""img/set1/S4.jpg"" width=""540"" height = ""360"" style=""border:16px solid orange"">","null","","","","","","","",""
"null","","html-keyboard-response","90","687362","0.0-90.0","","","null","","","","","","","",""
"942.6000000238419","","image-keyboard-response","91","688305","0.0-91.0","","img/set1/S3.jpg","68","3","random","72","random,structured_normal,structured_load,structured_incentive","2,1,3,4,2,3","false","",""
"null","","html-keyboard-response","92","688659","0.0-92.0","","<img src=""img/set1/S3.jpg"" width=""540"" height = ""360"">","null","","","","","","","",""
"null","","html-keyboard-response","93","688860","0.0-93.0","","","null","","","","","","","",""
"837.2999999523163","","image-keyboard-response","94","689698","0.0-94.0","","img/set1/S4.jpg","74","4","random","74","random,structured_normal,structured_load,structured_incentive","2,1,3,4,2,3","true","",""
"null","","html-keyboard-response","95","690050","0.0-95.0","","<img src=""img/set1/S4.jpg"" width=""540"" height = ""360"" style=""border:16px solid orange"">","null","","","","","","","",""
"null","","html-keyboard-response","96","690253","0.0-96.0","","","null","","","","","","","",""
"643.6999999284744","","image-keyboard-response","97","690898","0.0-97.0","","img/set1/S3.jpg","83","3","random","72","random,structured_normal,structured_load,structured_incentive","2,1,3,4,2,3","false","",""
"null","","html-keyboard-response","98","691251","0.0-98.0","","<img src=""img/set1/S3.jpg"" width=""540"" height = ""360"">","null","","","","","","","",""
"null","","html-keyboard-response","99","691454","0.0-99.0","","","null","","","","","","","",""
"811.3999999761581","","image-keyboard-response","100","692266","0.0-100.0","","img/set1/S1.jpg","83","1","random","83","random,structured_normal,structured_load,structured_incentive","2,1,3,4,2,3","true","",""
"null","","html-keyboard-response","101","692621","0.0-101.0","","<img src=""img/set1/S1.jpg"" width=""540"" height = ""360"" style=""border:16px solid orange"">","null","","","","","","","",""
"null","","html-keyboard-response","102","692824","0.0-102.0","","","null","","","","","","","",""
"857.6999999284744","","image-keyboard-response","103","693683","0.0-103.0","","img/set1/S2.jpg","68","2","random","68","random,structured_normal,structured_load,structured_incentive","2,1,3,4,2,3","true","",""
"null","","html-keyboard-response","104","694038","0.0-104.0","","<img src=""img/set1/S2.jpg"" width=""540"" height = ""360"" style=""border:16px solid orange"">","null","","","","","","","",""
"null","","html-keyboard-response","105","694241","0.0-105.0","","","null","","","","","","","",""
"479.60000002384186","","image-keyboard-response","106","694721","0.0-106.0","","img/set1/S3.jpg","72","3","random","72","random,structured_normal,structured_load,structured_incentive","2,1,3,4,2,3","true","",""
"null","","html-keyboard-response","107","695077","0.0-107.0","","<img src=""img/set1/S3.jpg"" width=""540"" height = ""360"" style=""border:16px solid orange"">","null","","","","","","","",""
"null","","html-keyboard-response","108","695280","0.0-108.0","","","null","","","","","","","",""
"641.5999999046326","","image-keyboard-response","109","695923","0.0-109.0","","img/set1/S4.jpg","74","4","random","74","random,structured_normal,structured_load,structured_incentive","2,1,3,4,2,3","true","",""
"null","","html-keyboard-response","110","696279","0.0-110.0","","<img src=""img/set1/S4.jpg"" width=""540"" height = ""360"" style=""border:16px solid orange"">","null","","","","","","","",""
"null","","html-keyboard-response","111","696481","0.0-111.0","","","null","","","","","","","",""
"1241","","image-keyboard-response","112","697724","0.0-112.0","","img/set1/S2.jpg","72","2","random","68","random,structured_normal,structured_load,structured_incentive","2,1,3,4,2,3","false","",""
"null","","html-keyboard-response","113","698078","0.0-113.0","","<img src=""img/set1/S2.jpg"" width=""540"" height = ""360"">","null","","","","","","","",""
"null","","html-keyboard-response","114","698281","0.0-114.0","","","null","","","","","","","",""
"752.1000000238419","","image-keyboard-response","115","699034","0.0-115.0","","img/set1/S2.jpg","68","2","random","68","random,structured_normal,structured_load,structured_incentive","2,1,3,4,2,3","true","",""
"null","","html-keyboard-response","116","699390","0.0-116.0","","<img src=""img/set1/S2.jpg"" width=""540"" height = ""360"" style=""border:16px solid orange"">","null","","","","","","","",""
"null","","html-keyboard-response","117","699593","0.0-117.0","","","null","","","","","","","",""
"720.7000000476837","","image-keyboard-response","118","700314","0.0-118.0","","img/set1/S3.jpg","72","3","random","72","random,structured_normal,structured_load,structured_incentive","2,1,3,4,2,3","true","",""
"null","","html-keyboard-response","119","700667","0.0-119.0","","<img src=""img/set1/S3.jpg"" width=""540"" height = ""360"" style=""border:16px solid orange"">","null","","","","","","","",""
"null","","html-keyboard-response","120","700871","0.0-120.0","","","null","","","","","","","",""
"490.89999997615814","","image-keyboard-response","121","701362","0.0-121.0","","img/set1/S2.jpg","68","2","random","68","random,structured_normal,structured_load,structured_incentive","2,1,3,4,2,3","true","",""
"null","","html-keyboard-response","122","701718","0.0-122.0","","<img src=""img/set1/S2.jpg"" width=""540"" height = ""360"" style=""border:16px solid orange"">","null","","","","","","","",""
"null","","html-keyboard-response","123","701922","0.0-123.0","","","null","","","","","","","",""
"727","","image-keyboard-response","124","702650","0.0-124.0","","img/set1/S4.jpg","74","4","random","74","random,structured_normal,structured_load,structured_incentive","2,1,3,4,2,3","true","",""
"null","","html-keyboard-response","125","703002","0.0-125.0","","<img src=""img/set1/S4.jpg"" width=""540"" height = ""360"" style=""border:16px solid orange"">","null","","","","","","","",""
"null","","html-keyboard-response","126","703204","0.0-126.0","","","null","","","","","","","",""
"605.1000000238419","","image-keyboard-response","127","703810","0.0-127.0","","img/set1/S4.jpg","74","4","random","74","random,structured_normal,structured_load,structured_incentive","2,1,3,4,2,3","true","",""
"null","","html-keyboard-response","128","704161","0.0-128.0","","<img src=""img/set1/S4.jpg"" width=""540"" height = ""360"" style=""border:16px solid orange"">","null","","","","","","","",""
"null","","html-keyboard-response","129","704365","0.0-129.0","","","null","","","","","","","",""
"1292.8999999761581","","image-keyboard-response","130","705659","0.0-130.0","","img/set1/S3.jpg","72","3","random","72","random,structured_normal,structured_load,structured_incentive","2,1,3,4,2,3","true","",""
"null","","html-keyboard-response","131","706014","0.0-131.0","","<img src=""img/set1/S3.jpg"" width=""540"" height = ""360"" style=""border:16px solid orange"">","null","","","","","","","",""
"null","","html-keyboard-response","132","706217","0.0-132.0","","","null","","","","","","","",""
"817.5","","image-keyboard-response","133","707035","0.0-133.0","","img/set1/S4.jpg","74","4","random","74","random,structured_normal,structured_load,structured_incentive","2,1,3,4,2,3","true","",""
"null","","html-keyboard-response","134","707390","0.0-134.0","","<img src=""img/set1/S4.jpg"" width=""540"" height = ""360"" style=""border:16px solid orange"">","null","","","","","","","",""
"null","","html-keyboard-response","135","707593","0.0-135.0","","","null","","","","","","","",""
"782.6000000238419","","image-keyboard-response","136","708379","0.0-136.0","","img/set1/S1.jpg","83","1","random","83","random,structured_normal,structured_load,structured_incentive","2,1,3,4,2,3","true","",""
"null","","html-keyboard-response","137","708731","0.0-137.0","","<img src=""img/set1/S1.jpg"" width=""540"" height = ""360"" style=""border:16px solid orange"">","null","","","","","","","",""
"null","","html-keyboard-response","138","708933","0.0-138.0","","","null","","","","","","","",""
"613.3999999761581","","image-keyboard-response","139","709548","0.0-139.0","","img/set1/S1.jpg","83","1","random","83","random,structured_normal,structured_load,structured_incentive","2,1,3,4,2,3","true","",""
"null","","html-keyboard-response","140","709903","0.0-140.0","","<img src=""img/set1/S1.jpg"" width=""540"" height = ""360"" style=""border:16px solid orange"">","null","","","","","","","",""
"null","","html-keyboard-response","141","710106","0.0-141.0","","","null","","","","","","","",""
"623.1000000238419","","image-keyboard-response","142","710730","0.0-142.0","","img/set1/S1.jpg","83","1","random","83","random,structured_normal,structured_load,structured_incentive","2,1,3,4,2,3","true","",""
"null","","html-keyboard-response","143","711082","0.0-143.0","","<img src=""img/set1/S1.jpg"" width=""540"" height = ""360"" style=""border:16px solid orange"">","null","","","","","","","",""
"null","","html-keyboard-response","144","711284","0.0-144.0","","","null","","","","","","","",""
"581.2999999523163","","image-keyboard-response","145","711867","0.0-145.0","","img/set1/S1.jpg","83","1","random","83","random,structured_normal,structured_load,structured_incentive","2,1,3,4,2,3","true","",""
"null","","html-keyboard-response","146","712220","0.0-146.0","","<img src=""img/set1/S1.jpg"" width=""540"" height = ""360"" style=""border:16px solid orange"">","null","","","","","","","",""
"null","","html-keyboard-response","147","712423","0.0-147.0","","","null","","","","","","","",""
"482.60000002384186","","image-keyboard-response","148","712906","0.0-148.0","","img/set1/S1.jpg","83","1","random","83","random,structured_normal,structured_load,structured_incentive","2,1,3,4,2,3","true","",""
"null","","html-keyboard-response","149","713258","0.0-149.0","","<img src=""img/set1/S1.jpg"" width=""540"" height = ""360"" style=""border:16px solid orange"">","null","","","","","","","",""
"null","","html-keyboard-response","150","713461","0.0-150.0","","","null","","","","","","","",""
"638.1999999284744","","image-keyboard-response","151","714100","0.0-151.0","","img/set1/S2.jpg","68","2","random","68","random,structured_normal,structured_load,structured_incentive","2,1,3,4,2,3","true","",""
"null","","html-keyboard-response","152","714454","0.0-152.0","","<img src=""img/set1/S2.jpg"" width=""540"" height = ""360"" style=""border:16px solid orange"">","null","","","","","","","",""
"null","","html-keyboard-response","153","714657","0.0-153.0","","","null","","","","","","","",""
"568.5","","image-keyboard-response","154","715227","0.0-154.0","","img/set1/S3.jpg","72","3","random","72","random,structured_normal,structured_load,structured_incentive","2,1,3,4,2,3","true","",""
"null","","html-keyboard-response","155","715581","0.0-155.0","","<img src=""img/set1/S3.jpg"" width=""540"" height = ""360"" style=""border:16px solid orange"">","null","","","","","","","",""
"null","","html-keyboard-response","156","715784","0.0-156.0","","","null","","","","","","","",""
"472.6999999284744","","image-keyboard-response","157","716258","0.0-157.0","","img/set1/S4.jpg","74","4","random","74","random,structured_normal,structured_load,structured_incentive","2,1,3,4,2,3","true","",""
"null","","html-keyboard-response","158","716611","0.0-158.0","","<img src=""img/set1/S4.jpg"" width=""540"" height = ""360"" style=""border:16px solid orange"">","null","","","","","","","",""
"null","","html-keyboard-response","159","716811","0.0-159.0","","","null","","","","","","","",""
"624","","image-keyboard-response","160","717436","0.0-160.0","","img/set1/S1.jpg","83","1","random","83","random,structured_normal,structured_load,structured_incentive","2,1,3,4,2,3","true","",""
"null","","html-keyboard-response","161","717788","0.0-161.0","","<img src=""img/set1/S1.jpg"" width=""540"" height = ""360"" style=""border:16px solid orange"">","null","","","","","","","",""
"null","","html-keyboard-response","162","717989","0.0-162.0","","","null","","","","","","","",""
"811.2000000476837","","image-keyboard-response","163","718802","0.0-163.0","","img/set1/S3.jpg","72","3","random","72","random,structured_normal,structured_load,structured_incentive","2,1,3,4,2,3","true","",""
"null","","html-keyboard-response","164","719157","0.0-164.0","","<img src=""img/set1/S3.jpg"" width=""540"" height = ""360"" style=""border:16px solid orange"">","null","","","","","","","",""
"null","","html-keyboard-response","165","719360","0.0-165.0","","","null","","","","","","","",""
"642.1000000238419","","image-keyboard-response","166","720003","0.0-166.0","","img/set1/S2.jpg","68","2","random","68","random,structured_normal,structured_load,structured_incentive","2,1,3,4,2,3","true","",""
"null","","html-keyboard-response","167","720356","0.0-167.0","","<img src=""img/set1/S2.jpg"" width=""540"" height = ""360"" style=""border:16px solid orange"">","null","","","","","","","",""
"null","","html-keyboard-response","168","720561","0.0-168.0","","","null","","","","","","","",""
"487.8000000715256","","image-keyboard-response","169","721050","0.0-169.0","","img/set1/S4.jpg","74","4","random","74","random,structured_normal,structured_load,structured_incentive","2,1,3,4,2,3","true","",""
"null","","html-keyboard-response","170","721404","0.0-170.0","","<img src=""img/set1/S4.jpg"" width=""540"" height = ""360"" style=""border:16px solid orange"">","null","","","","","","","",""
"null","","html-keyboard-response","171","721606","0.0-171.0","","","null","","","","","","","",""
"579.7000000476837","","image-keyboard-response","172","722187","0.0-172.0","","img/set1/S4.jpg","74","4","random","74","random,structured_normal,structured_load,structured_incentive","2,1,3,4,2,3","true","",""
"null","","html-keyboard-response","173","722542","0.0-173.0","","<img src=""img/set1/S4.jpg"" width=""540"" height = ""360"" style=""border:16px solid orange"">","null","","","","","","","",""
"null","","html-keyboard-response","174","722747","0.0-174.0","","","null","","","","","","","",""
"759.2000000476837","","image-keyboard-response","175","723507","0.0-175.0","","img/set1/S1.jpg","83","1","random","83","random,structured_normal,structured_load,structured_incentive","2,1,3,4,2,3","true","",""
"null","","html-keyboard-response","176","723859","0.0-176.0","","<img src=""img/set1/S1.jpg"" width=""540"" height = ""360"" style=""border:16px solid orange"">","null","","","","","","","",""
"null","","html-keyboard-response","177","724062","0.0-177.0","","","null","","","","","","","",""
"884","","image-keyboard-response","178","724947","0.0-178.0","","img/set1/S2.jpg","68","2","random","68","random,structured_normal,structured_load,structured_incentive","2,1,3,4,2,3","true","",""
"null","","html-keyboard-response","179","725299","0.0-179.0","","<img src=""img/set1/S2.jpg"" width=""540"" height = ""360"" style=""border:16px solid orange"">","null","","","","","","","",""
"null","","html-keyboard-response","180","725502","0.0-180.0","","","null","","","","","","","",""
"556.3999999761581","","image-keyboard-response","181","726059","0.0-181.0","","img/set1/S2.jpg","68","2","random","68","random,structured_normal,structured_load,structured_incentive","2,1,3,4,2,3","true","",""
"null","","html-keyboard-response","182","726413","0.0-182.0","","<img src=""img/set1/S2.jpg"" width=""540"" height = ""360"" style=""border:16px solid orange"">","null","","","","","","","",""
"null","","html-keyboard-response","183","726617","0.0-183.0","","","null","","","","","","","",""
"457.10000002384186","","image-keyboard-response","184","727075","0.0-184.0","","img/set1/S3.jpg","72","3","random","72","random,structured_normal,structured_load,structured_incentive","2,1,3,4,2,3","true","",""
"null","","html-keyboard-response","185","727429","0.0-185.0","","<img src=""img/set1/S3.jpg"" width=""540"" height = ""360"" style=""border:16px solid orange"">","null","","","","","","","",""
"null","","html-keyboard-response","186","727632","0.0-186.0","","","null","","","","","","","",""
"411.10000002384186","","image-keyboard-response","187","728044","0.0-187.0","","img/set1/S4.jpg","74","4","random","74","random,structured_normal,structured_load,structured_incentive","2,1,3,4,2,3","true","",""
"null","","html-keyboard-response","188","728398","0.0-188.0","","<img src=""img/set1/S4.jpg"" width=""540"" height = ""360"" style=""border:16px solid orange"">","null","","","","","","","",""
"null","","html-keyboard-response","189","728602","0.0-189.0","","","null","","","","","","","",""
"680.3000000715256","","image-keyboard-response","190","729283","0.0-190.0","","img/set1/S1.jpg","83","1","random","83","random,structured_normal,structured_load,structured_incentive","2,1,3,4,2,3","true","",""
"null","","html-keyboard-response","191","729635","0.0-191.0","","<img src=""img/set1/S1.jpg"" width=""540"" height = ""360"" style=""border:16px solid orange"">","null","","","","","","","",""
"null","","html-keyboard-response","192","729838","0.0-192.0","","","null","","","","","","","",""
"1004","","image-keyboard-response","193","730843","0.0-193.0","","img/set1/S2.jpg","72","2","random","68","random,structured_normal,structured_load,structured_incentive","2,1,3,4,2,3","false","",""
"null","","html-keyboard-response","194","731196","0.0-194.0","","<img src=""img/set1/S2.jpg"" width=""540"" height = ""360"">","null","","","","","","","",""
"null","","html-keyboard-response","195","731399","0.0-195.0","","","null","","","","","","","",""
"561.9000000953674","","image-keyboard-response","196","731962","0.0-196.0","","img/set1/S2.jpg","68","2","random","68","random,structured_normal,structured_load,structured_incentive","2,1,3,4,2,3","true","",""
"null","","html-keyboard-response","197","732317","0.0-197.0","","<img src=""img/set1/S2.jpg"" width=""540"" height = ""360"" style=""border:16px solid orange"">","null","","","","","","","",""
"null","","html-keyboard-response","198","732520","0.0-198.0","","","null","","","","","","","",""
"714.1999999284744","","image-keyboard-response","199","733235","0.0-199.0","","img/set1/S4.jpg","74","4","random","74","random,structured_normal,structured_load,structured_incentive","2,1,3,4,2,3","true","",""
"null","","html-keyboard-response","200","733589","0.0-200.0","","<img src=""img/set1/S4.jpg"" width=""540"" height = ""360"" style=""border:16px solid orange"">","null","","","","","","","",""
"null","","html-keyboard-response","201","733792","0.0-201.0","","","null","","","","","","","",""
"829.5","","image-keyboard-response","202","734622","0.0-202.0","","img/set1/S3.jpg","72","3","random","72","random,structured_normal,structured_load,structured_incentive","2,1,3,4,2,3","true","",""
"null","","html-keyboard-response","203","734976","0.0-203.0","","<img src=""img/set1/S3.jpg"" width=""540"" height = ""360"" style=""border:16px solid orange"">","null","","","","","","","",""
"null","","html-keyboard-response","204","735179","0.0-204.0","","","null","","","","","","","",""
"783.8000000715256","","image-keyboard-response","205","735964","0.0-205.0","","img/set1/S4.jpg","74","4","random","74","random,structured_normal,structured_load,structured_incentive","2,1,3,4,2,3","true","",""
"null","","html-keyboard-response","206","736317","0.0-206.0","","<img src=""img/set1/S4.jpg"" width=""540"" height = ""360"" style=""border:16px solid orange"">","null","","","","","","","",""
"null","","html-keyboard-response","207","736520","0.0-207.0","","","null","","","","","","","",""
"786.1000000238419","","image-keyboard-response","208","737307","0.0-208.0","","img/set1/S1.jpg","83","1","random","83","random,structured_normal,structured_load,structured_incentive","2,1,3,4,2,3","true","",""
"null","","html-keyboard-response","209","737660","0.0-209.0","","<img src=""img/set1/S1.jpg"" width=""540"" height = ""360"" style=""border:16px solid orange"">","null","","","","","","","",""
"null","","html-keyboard-response","210","737864","0.0-210.0","","","null","","","","","","","",""
"666.6999999284744","","image-keyboard-response","211","738531","0.0-211.0","","img/set1/S4.jpg","74","4","random","74","random,structured_normal,structured_load,structured_incentive","2,1,3,4,2,3","true","",""
"null","","html-keyboard-response","212","738883","0.0-212.0","","<img src=""img/set1/S4.jpg"" width=""540"" height = ""360"" style=""border:16px solid orange"">","null","","","","","","","",""
"null","","html-keyboard-response","213","739086","0.0-213.0","","","null","","","","","","","",""
"731.7999999523163","","image-keyboard-response","214","739819","0.0-214.0","","img/set1/S3.jpg","72","3","random","72","random,structured_normal,structured_load,structured_incentive","2,1,3,4,2,3","true","",""
"null","","html-keyboard-response","215","740171","0.0-215.0","","<img src=""img/set1/S3.jpg"" width=""540"" height = ""360"" style=""border:16px solid orange"">","null","","","","","","","",""
"null","","html-keyboard-response","216","740374","0.0-216.0","","","null","","","","","","","",""
"564.9000000953674","","image-keyboard-response","217","740940","0.0-217.0","","img/set1/S3.jpg","72","3","random","72","random,structured_normal,structured_load,structured_incentive","2,1,3,4,2,3","true","",""
"null","","html-keyboard-response","218","741292","0.0-218.0","","<img src=""img/set1/S3.jpg"" width=""540"" height = ""360"" style=""border:16px solid orange"">","null","","","","","","","",""
"null","","html-keyboard-response","219","741497","0.0-219.0","","","null","","","","","","","",""
"672.8000000715256","","image-keyboard-response","220","742171","0.0-220.0","","img/set1/S1.jpg","83","1","random","83","random,structured_normal,structured_load,structured_incentive","2,1,3,4,2,3","true","",""
"null","","html-keyboard-response","221","742522","0.0-221.0","","<img src=""img/set1/S1.jpg"" width=""540"" height = ""360"" style=""border:16px solid orange"">","null","","","","","","","",""
"null","","html-keyboard-response","222","742725","0.0-222.0","","","null","","","","","","","",""
"661.6000000238419","","image-keyboard-response","223","743387","0.0-223.0","","img/set1/S4.jpg","74","4","random","74","random,structured_normal,structured_load,structured_incentive","2,1,3,4,2,3","true","",""
"null","","html-keyboard-response","224","743742","0.0-224.0","","<img src=""img/set1/S4.jpg"" width=""540"" height = ""360"" style=""border:16px solid orange"">","null","","","","","","","",""
"null","","html-keyboard-response","225","743946","0.0-225.0","","","null","","","","","","","",""
"656.1000000238419","","image-keyboard-response","226","744603","0.0-226.0","","img/set1/S2.jpg","68","2","random","68","random,structured_normal,structured_load,structured_incentive","2,1,3,4,2,3","true","",""
"null","","html-keyboard-response","227","744955","0.0-227.0","","<img src=""img/set1/S2.jpg"" width=""540"" height = ""360"" style=""border:16px solid orange"">","null","","","","","","","",""
"null","","html-keyboard-response","228","745158","0.0-228.0","","","null","","","","","","","",""
"508.3000000715256","","image-keyboard-response","229","745667","0.0-229.0","","img/set1/S2.jpg","68","2","random","68","random,structured_normal,structured_load,structured_incentive","2,1,3,4,2,3","true","",""
"null","","html-keyboard-response","230","746023","0.0-230.0","","<img src=""img/set1/S2.jpg"" width=""540"" height = ""360"" style=""border:16px solid orange"">","null","","","","","","","",""
"null","","html-keyboard-response","231","746226","0.0-231.0","","","null","","","","","","","",""
"801.1000000238419","","image-keyboard-response","232","747028","0.0-232.0","","img/set1/S1.jpg","83","1","random","83","random,structured_normal,structured_load,structured_incentive","2,1,3,4,2,3","true","",""
"null","","html-keyboard-response","233","747381","0.0-233.0","","<img src=""img/set1/S1.jpg"" width=""540"" height = ""360"" style=""border:16px solid orange"">","null","","","","","","","",""
"null","","html-keyboard-response","234","747584","0.0-234.0","","","null","","","","","","","",""
"1022.2000000476837","","image-keyboard-response","235","748607","0.0-235.0","","img/set1/S3.jpg","72","3","random","72","random,structured_normal,structured_load,structured_incentive","2,1,3,4,2,3","true","",""
"null","","html-keyboard-response","236","748960","0.0-236.0","","<img src=""img/set1/S3.jpg"" width=""540"" height = ""360"" style=""border:16px solid orange"">","null","","","","","","","",""
"null","","html-keyboard-response","237","749163","0.0-237.0","","","null","","","","","","","",""
"534.8999999761581","","image-keyboard-response","238","749699","0.0-238.0","","img/set1/S3.jpg","72","3","random","72","random,structured_normal,structured_load,structured_incentive","2,1,3,4,2,3","true","",""
"null","","html-keyboard-response","239","750052","0.0-239.0","","<img src=""img/set1/S3.jpg"" width=""540"" height = ""360"" style=""border:16px solid orange"">","null","","","","","","","",""
"null","","html-keyboard-response","240","750255","0.0-240.0","","","null","","","","","","","",""
"555.6999999284744","","image-keyboard-response","241","750811","0.0-241.0","","img/set1/S1.jpg","83","1","random","83","random,structured_normal,structured_load,structured_incentive","2,1,3,4,2,3","true","",""
"null","","html-keyboard-response","242","751166","0.0-242.0","","<img src=""img/set1/S1.jpg"" width=""540"" height = ""360"" style=""border:16px solid orange"">","null","","","","","","","",""
"null","","html-keyboard-response","243","751369","0.0-243.0","","","null","","","","","","","",""
"673.8999999761581","","image-keyboard-response","244","752044","0.0-244.0","","img/set1/S3.jpg","72","3","random","72","random,structured_normal,structured_load,structured_incentive","2,1,3,4,2,3","true","",""
"null","","html-keyboard-response","245","752402","0.0-245.0","","<img src=""img/set1/S3.jpg"" width=""540"" height = ""360"" style=""border:16px solid orange"">","null","","","","","","","",""
"null","","html-keyboard-response","246","752606","0.0-246.0","","","null","","","","","","","",""
"644.8999999761581","","image-keyboard-response","247","753252","0.0-247.0","","img/set1/S4.jpg","74","4","random","74","random,structured_normal,structured_load,structured_incentive","2,1,3,4,2,3","true","",""
"null","","html-keyboard-response","248","753605","0.0-248.0","","<img src=""img/set1/S4.jpg"" width=""540"" height = ""360"" style=""border:16px solid orange"">","null","","","","","","","",""
"null","","html-keyboard-response","249","753808","0.0-249.0","","","null","","","","","","","",""
"715.0999999046326","","image-keyboard-response","250","754524","0.0-250.0","","img/set1/S1.jpg","83","1","random","83","random,structured_normal,structured_load,structured_incentive","2,1,3,4,2,3","true","",""
"null","","html-keyboard-response","251","754875","0.0-251.0","","<img src=""img/set1/S1.jpg"" width=""540"" height = ""360"" style=""border:16px solid orange"">","null","","","","","","","",""
"null","","html-keyboard-response","252","755079","0.0-252.0","","","null","","","","","","","",""
"740.8999999761581","","image-keyboard-response","253","755821","0.0-253.0","","img/set1/S3.jpg","72","3","random","72","random,structured_normal,structured_load,structured_incentive","2,1,3,4,2,3","true","",""
"null","","html-keyboard-response","254","756176","0.0-254.0","","<img src=""img/set1/S3.jpg"" width=""540"" height = ""360"" style=""border:16px solid orange"">","null","","","","","","","",""
"null","","html-keyboard-response","255","756379","0.0-255.0","","","null","","","","","","","",""
"591.1000000238419","","image-keyboard-response","256","756971","0.0-256.0","","img/set1/S2.jpg","68","2","random","68","random,structured_normal,structured_load,structured_incentive","2,1,3,4,2,3","true","",""
"null","","html-keyboard-response","257","757325","0.0-257.0","","<img src=""img/set1/S2.jpg"" width=""540"" height = ""360"" style=""border:16px solid orange"">","null","","","","","","","",""
"null","","html-keyboard-response","258","757529","0.0-258.0","","","null","","","","","","","",""
"626.1000000238419","","image-keyboard-response","259","758156","0.0-259.0","","img/set1/S1.jpg","83","1","random","83","random,structured_normal,structured_load,structured_incentive","2,1,3,4,2,3","true","",""
"null","","html-keyboard-response","260","758508","0.0-260.0","","<img src=""img/set1/S1.jpg"" width=""540"" height = ""360"" style=""border:16px solid orange"">","null","","","","","","","",""
"null","","html-keyboard-response","261","758713","0.0-261.0","","","null","","","","","","","",""
"617.6000000238419","","image-keyboard-response","262","759332","0.0-262.0","","img/set1/S4.jpg","74","4","random","74","random,structured_normal,structured_load,structured_incentive","2,1,3,4,2,3","true","",""
"null","","html-keyboard-response","263","759686","0.0-263.0","","<img src=""img/set1/S4.jpg"" width=""540"" height = ""360"" style=""border:16px solid orange"">","null","","","","","","","",""
"null","","html-keyboard-response","264","759891","0.0-264.0","","","null","","","","","","","",""
"714.1000000238419","","image-keyboard-response","265","760606","0.0-265.0","","img/set1/S3.jpg","72","3","random","72","random,structured_normal,structured_load,structured_incentive","2,1,3,4,2,3","true","",""
"null","","html-keyboard-response","266","760960","0.0-266.0","","<img src=""img/set1/S3.jpg"" width=""540"" height = ""360"" style=""border:16px solid orange"">","null","","","","","","","",""
"null","","html-keyboard-response","267","761165","0.0-267.0","","","null","","","","","","","",""
"743.1000000238419","","image-keyboard-response","268","761909","0.0-268.0","","img/set1/S2.jpg","68","2","random","68","random,structured_normal,structured_load,structured_incentive","2,1,3,4,2,3","true","",""
"null","","html-keyboard-response","269","762264","0.0-269.0","","<img src=""img/set1/S2.jpg"" width=""540"" height = ""360"" style=""border:16px solid orange"">","null","","","","","","","",""
"null","","html-keyboard-response","270","762470","0.0-270.0","","","null","","","","","","","",""
"588.6000000238419","","image-keyboard-response","271","763059","0.0-271.0","","img/set1/S4.jpg","74","4","random","74","random,structured_normal,structured_load,structured_incentive","2,1,3,4,2,3","true","",""
"null","","html-keyboard-response","272","763415","0.0-272.0","","<img src=""img/set1/S4.jpg"" width=""540"" height = ""360"" style=""border:16px solid orange"">","null","","","","","","","",""
"null","","html-keyboard-response","273","763619","0.0-273.0","","","null","","","","","","","",""
"1081.1999999284744","","image-keyboard-response","274","764701","0.0-274.0","","img/set1/S2.jpg","68","2","random","68","random,structured_normal,structured_load,structured_incentive","2,1,3,4,2,3","true","",""
"null","","html-keyboard-response","275","765052","0.0-275.0","","<img src=""img/set1/S2.jpg"" width=""540"" height = ""360"" style=""border:16px solid orange"">","null","","","","","","","",""
"null","","html-keyboard-response","276","765256","0.0-276.0","","","null","","","","","","","",""
"642.6999999284744","","image-keyboard-response","277","765899","0.0-277.0","","img/set1/S1.jpg","83","1","random","83","random,structured_normal,structured_load,structured_incentive","2,1,3,4,2,3","true","",""
"null","","html-keyboard-response","278","766253","0.0-278.0","","<img src=""img/set1/S1.jpg"" width=""540"" height = ""360"" style=""border:16px solid orange"">","null","","","","","","","",""
"null","","html-keyboard-response","279","766459","0.0-279.0","","","null","","","","","","","",""
"504","","image-keyboard-response","280","766964","0.0-280.0","","img/set1/S3.jpg","72","3","random","72","random,structured_normal,structured_load,structured_incentive","2,1,3,4,2,3","true","",""
"null","","html-keyboard-response","281","767317","0.0-281.0","","<img src=""img/set1/S3.jpg"" width=""540"" height = ""360"" style=""border:16px solid orange"">","null","","","","","","","",""
"null","","html-keyboard-response","282","767519","0.0-282.0","","","null","","","","","","","",""
"755","","image-keyboard-response","283","768275","0.0-283.0","","img/set1/S2.jpg","68","2","random","68","random,structured_normal,structured_load,structured_incentive","2,1,3,4,2,3","true","",""
"null","","html-keyboard-response","284","768628","0.0-284.0","","<img src=""img/set1/S2.jpg"" width=""540"" height = ""360"" style=""border:16px solid orange"">","null","","","","","","","",""
"null","","html-keyboard-response","285","768831","0.0-285.0","","","null","","","","","","","",""
"565.6000000238419","","image-keyboard-response","286","769398","0.0-286.0","","img/set1/S4.jpg","74","4","random","74","random,structured_normal,structured_load,structured_incentive","2,1,3,4,2,3","true","",""
"null","","html-keyboard-response","287","769749","0.0-287.0","","<img src=""img/set1/S4.jpg"" width=""540"" height = ""360"" style=""border:16px solid orange"">","null","","","","","","","",""
"null","","html-keyboard-response","288","769954","0.0-288.0","","","null","","","","","","","",""
"641.1999999284744","","image-keyboard-response","289","770596","0.0-289.0","","img/set1/S2.jpg","68","2","random","68","random,structured_normal,structured_load,structured_incentive","2,1,3,4,2,3","true","",""
"null","","html-keyboard-response","290","770950","0.0-290.0","","<img src=""img/set1/S2.jpg"" width=""540"" height = ""360"" style=""border:16px solid orange"">","null","","","","","","","",""
"null","","html-keyboard-response","291","771153","0.0-291.0","","","null","","","","","","","",""
"673.9000000953674","","image-keyboard-response","292","771828","0.0-292.0","","img/set1/S4.jpg","74","4","random","74","random,structured_normal,structured_load,structured_incentive","2,1,3,4,2,3","true","",""
"null","","html-keyboard-response","293","772180","0.0-293.0","","<img src=""img/set1/S4.jpg"" width=""540"" height = ""360"" style=""border:16px solid orange"">","null","","","","","","","",""
"null","","html-keyboard-response","294","772385","0.0-294.0","","","null","","","","","","","",""
"738","","image-keyboard-response","295","773124","0.0-295.0","","img/set1/S3.jpg","72","3","random","72","random,structured_normal,structured_load,structured_incentive","2,1,3,4,2,3","true","",""
"null","","html-keyboard-response","296","773475","0.0-296.0","","<img src=""img/set1/S3.jpg"" width=""540"" height = ""360"" style=""border:16px solid orange"">","null","","","","","","","",""
"null","","html-keyboard-response","297","773679","0.0-297.0","","","null","","","","","","","",""
"532.3000000715256","","image-keyboard-response","298","774212","0.0-298.0","","img/set1/S3.jpg","72","3","random","72","random,structured_normal,structured_load,structured_incentive","2,1,3,4,2,3","true","",""
"null","","html-keyboard-response","299","774563","0.0-299.0","","<img src=""img/set1/S3.jpg"" width=""540"" height = ""360"" style=""border:16px solid orange"">","null","","","","","","","",""
"null","","html-keyboard-response","300","774766","0.0-300.0","","","null","","","","","","","",""
"661.2000000476837","","image-keyboard-response","301","775428","0.0-301.0","","img/set1/S4.jpg","74","4","random","74","random,structured_normal,structured_load,structured_incentive","2,1,3,4,2,3","true","",""
"null","","html-keyboard-response","302","775780","0.0-302.0","","<img src=""img/set1/S4.jpg"" width=""540"" height = ""360"" style=""border:16px solid orange"">","null","","","","","","","",""
"null","","html-keyboard-response","303","775983","0.0-303.0","","","null","","","","","","","",""
"587.3999999761581","","image-keyboard-response","304","776572","0.0-304.0","","img/set1/S2.jpg","68","2","random","68","random,structured_normal,structured_load,structured_incentive","2,1,3,4,2,3","true","",""
"null","","html-keyboard-response","305","776924","0.0-305.0","","<img src=""img/set1/S2.jpg"" width=""540"" height = ""360"" style=""border:16px solid orange"">","null","","","","","","","",""
"null","","html-keyboard-response","306","777127","0.0-306.0","","","null","","","","","","","",""
"548.0999999046326","","image-keyboard-response","307","777676","0.0-307.0","","img/set1/S1.jpg","83","1","random","83","random,structured_normal,structured_load,structured_incentive","2,1,3,4,2,3","true","",""
"null","","html-keyboard-response","308","778029","0.0-308.0","","<img src=""img/set1/S1.jpg"" width=""540"" height = ""360"" style=""border:16px solid orange"">","null","","","","","","","",""
"null","","html-keyboard-response","309","778230","0.0-309.0","","","null","","","","","","","",""
"701.2999999523163","","image-keyboard-response","310","778932","0.0-310.0","","img/set1/S4.jpg","74","4","random","74","random,structured_normal,structured_load,structured_incentive","2,1,3,4,2,3","true","",""
"null","","html-keyboard-response","311","779286","0.0-311.0","","<img src=""img/set1/S4.jpg"" width=""540"" height = ""360"" style=""border:16px solid orange"">","null","","","","","","","",""
"null","","html-keyboard-response","312","779490","0.0-312.0","","","null","","","","","","","",""
"586.7000000476837","","image-keyboard-response","313","780077","0.0-313.0","","img/set1/S2.jpg","68","2","random","68","random,structured_normal,structured_load,structured_incentive","2,1,3,4,2,3","true","",""
"null","","html-keyboard-response","314","780430","0.0-314.0","","<img src=""img/set1/S2.jpg"" width=""540"" height = ""360"" style=""border:16px solid orange"">","null","","","","","","","",""
"null","","html-keyboard-response","315","780633","0.0-315.0","","","null","","","","","","","",""
"553.8999999761581","","image-keyboard-response","316","781188","0.0-316.0","","img/set1/S3.jpg","72","3","random","72","random,structured_normal,structured_load,structured_incentive","2,1,3,4,2,3","true","",""
"null","","html-keyboard-response","317","781539","0.0-317.0","","<img src=""img/set1/S3.jpg"" width=""540"" height = ""360"" style=""border:16px solid orange"">","null","","","","","","","",""
"null","","html-keyboard-response","318","781742","0.0-318.0","","","null","","","","","","","",""
"621.3999999761581","","image-keyboard-response","319","782364","0.0-319.0","","img/set1/S1.jpg","83","1","random","83","random,structured_normal,structured_load,structured_incentive","2,1,3,4,2,3","true","",""
"null","","html-keyboard-response","320","782717","0.0-320.0","","<img src=""img/set1/S1.jpg"" width=""540"" height = ""360"" style=""border:16px solid orange"">","null","","","","","","","",""
"null","","html-keyboard-response","321","782920","0.0-321.0","","","null","","","","","","","",""
"604.5","","image-keyboard-response","322","783526","0.0-322.0","","img/set1/S4.jpg","74","4","random","74","random,structured_normal,structured_load,structured_incentive","2,1,3,4,2,3","true","",""
"null","","html-keyboard-response","323","783879","0.0-323.0","","<img src=""img/set1/S4.jpg"" width=""540"" height = ""360"" style=""border:16px solid orange"">","null","","","","","","","",""
"null","","html-keyboard-response","324","784082","0.0-324.0","","","null","","","","","","","",""
"729.2999999523163","","image-keyboard-response","325","784812","0.0-325.0","","img/set1/S3.jpg","72","3","random","72","random,structured_normal,structured_load,structured_incentive","2,1,3,4,2,3","true","",""
"null","","html-keyboard-response","326","785167","0.0-326.0","","<img src=""img/set1/S3.jpg"" width=""540"" height = ""360"" style=""border:16px solid orange"">","null","","","","","","","",""
"null","","html-keyboard-response","327","785370","0.0-327.0","","","null","","","","","","","",""
"545.3999999761581","","image-keyboard-response","328","785916","0.0-328.0","","img/set1/S3.jpg","72","3","random","72","random,structured_normal,structured_load,structured_incentive","2,1,3,4,2,3","true","",""
"null","","html-keyboard-response","329","786270","0.0-329.0","","<img src=""img/set1/S3.jpg"" width=""540"" height = ""360"" style=""border:16px solid orange"">","null","","","","","","","",""
"null","","html-keyboard-response","330","786473","0.0-330.0","","","null","","","","","","","",""
"706.3999999761581","","image-keyboard-response","331","787181","0.0-331.0","","img/set1/S4.jpg","74","4","random","74","random,structured_normal,structured_load,structured_incentive","2,1,3,4,2,3","true","",""
"null","","html-keyboard-response","332","787537","0.0-332.0","","<img src=""img/set1/S4.jpg"" width=""540"" height = ""360"" style=""border:16px solid orange"">","null","","","","","","","",""
"null","","html-keyboard-response","333","787742","0.0-333.0","","","null","","","","","","","",""
"638.2000000476837","","image-keyboard-response","334","788381","0.0-334.0","","img/set1/S4.jpg","74","4","random","74","random,structured_normal,structured_load,structured_incentive","2,1,3,4,2,3","true","",""
"null","","html-keyboard-response","335","788733","0.0-335.0","","<img src=""img/set1/S4.jpg"" width=""540"" height = ""360"" style=""border:16px solid orange"">","null","","","","","","","",""
"null","","html-keyboard-response","336","788936","0.0-336.0","","","null","","","","","","","",""
"815.6999999284744","","image-keyboard-response","337","789752","0.0-337.0","","img/set1/S3.jpg","72","3","random","72","random,structured_normal,structured_load,structured_incentive","2,1,3,4,2,3","true","",""
"null","","html-keyboard-response","338","790107","0.0-338.0","","<img src=""img/set1/S3.jpg"" width=""540"" height = ""360"" style=""border:16px solid orange"">","null","","","","","","","",""
"null","","html-keyboard-response","339","790310","0.0-339.0","","","null","","","","","","","",""
"638.3999999761581","","image-keyboard-response","340","790949","0.0-340.0","","img/set1/S2.jpg","68","2","random","68","random,structured_normal,structured_load,structured_incentive","2,1,3,4,2,3","true","",""
"null","","html-keyboard-response","341","791303","0.0-341.0","","<img src=""img/set1/S2.jpg"" width=""540"" height = ""360"" style=""border:16px solid orange"">","null","","","","","","","",""
"null","","html-keyboard-response","342","791507","0.0-342.0","","","null","","","","","","","",""
"640.3000000715256","","image-keyboard-response","343","792148","0.0-343.0","","img/set1/S1.jpg","83","1","random","83","random,structured_normal,structured_load,structured_incentive","2,1,3,4,2,3","true","",""
"null","","html-keyboard-response","344","792500","0.0-344.0","","<img src=""img/set1/S1.jpg"" width=""540"" height = ""360"" style=""border:16px solid orange"">","null","","","","","","","",""
"null","","html-keyboard-response","345","792702","0.0-345.0","","","null","","","","","","","",""
"677.3000000715256","","image-keyboard-response","346","793380","0.0-346.0","","img/set1/S2.jpg","72","2","random","68","random,structured_normal,structured_load,structured_incentive","2,1,3,4,2,3","false","",""
"null","","html-keyboard-response","347","793735","0.0-347.0","","<img src=""img/set1/S2.jpg"" width=""540"" height = ""360"">","null","","","","","","","",""
"null","","html-keyboard-response","348","793938","0.0-348.0","","","null","","","","","","","",""
"769.2000000476837","","image-keyboard-response","349","794708","0.0-349.0","","img/set1/S4.jpg","74","4","random","74","random,structured_normal,structured_load,structured_incentive","2,1,3,4,2,3","true","",""
"null","","html-keyboard-response","350","795060","0.0-350.0","","<img src=""img/set1/S4.jpg"" width=""540"" height = ""360"" style=""border:16px solid orange"">","null","","","","","","","",""
"null","","html-keyboard-response","351","795262","0.0-351.0","","","null","","","","","","","",""
"749.5","","image-keyboard-response","352","796012","0.0-352.0","","img/set1/S1.jpg","83","1","random","83","random,structured_normal,structured_load,structured_incentive","2,1,3,4,2,3","true","",""
"null","","html-keyboard-response","353","796365","0.0-353.0","","<img src=""img/set1/S1.jpg"" width=""540"" height = ""360"" style=""border:16px solid orange"">","null","","","","","","","",""
"null","","html-keyboard-response","354","796569","0.0-354.0","","","null","","","","","","","",""
"618.5","","image-keyboard-response","355","797188","0.0-355.0","","img/set1/S1.jpg","83","1","random","83","random,structured_normal,structured_load,structured_incentive","2,1,3,4,2,3","true","",""
"null","","html-keyboard-response","356","797543","0.0-356.0","","<img src=""img/set1/S1.jpg"" width=""540"" height = ""360"" style=""border:16px solid orange"">","null","","","","","","","",""
"null","","html-keyboard-response","357","797746","0.0-357.0","","","null","","","","","","","",""
"721.2000000476837","","image-keyboard-response","358","798468","0.0-358.0","","img/set1/S1.jpg","83","1","random","83","random,structured_normal,structured_load,structured_incentive","2,1,3,4,2,3","true","",""
"null","","html-keyboard-response","359","798822","0.0-359.0","","<img src=""img/set1/S1.jpg"" width=""540"" height = ""360"" style=""border:16px solid orange"">","null","","","","","","","",""
"null","","html-keyboard-response","360","799024","0.0-360.0","","","null","","","","","","","",""
"538.9000000953674","","image-keyboard-response","361","799564","0.0-361.0","","img/set1/S1.jpg","83","1","random","83","random,structured_normal,structured_load,structured_incentive","2,1,3,4,2,3","true","",""
"null","","html-keyboard-response","362","799918","0.0-362.0","","<img src=""img/set1/S1.jpg"" width=""540"" height = ""360"" style=""border:16px solid orange"">","null","","","","","","","",""
"null","","html-keyboard-response","363","800121","0.0-363.0","","","null","","","","","","","",""
"7556.699999928474","","html-keyboard-response","364","807678","0.0-364.0","","<p class=""center-content"">You have completed a block! </p><p class=""center-content"">Press any key on the keyboard to continue, </p><p class=""center-content"">or wait for the automatic progression to the next block after one minute.</p>","32","","","","","","","",""
"12119.700000047684","","instructions","365","819799","0.0-365.0","[{""page_index"":0,""viewing_time"":12119.5}]","","","","","","","","","",""
"2791.2000000476837","","instructions","366","822591","0.0-366.0","[{""page_index"":0,""viewing_time"":2791}]","","","","","","","","","",""
"729","","image-keyboard-response","367","823321","0.0-367.0","","img/set2/S2.jpg","72","2","structured_normal","68","random,structured_normal,structured_load,structured_incentive","2,1,3,4,2,3","false","",""
"null","","html-keyboard-response","368","823672","0.0-368.0","","<img src=""img/set2/S2.jpg"" width=""540"" height = ""360"">","null","","","","","","","",""
"null","","html-keyboard-response","369","823876","0.0-369.0","","","null","","","","","","","",""
"722.8000000715256","","image-keyboard-response","370","824599","0.0-370.0","","img/set2/S1.jpg","83","1","structured_normal","83","random,structured_normal,structured_load,structured_incentive","2,1,3,4,2,3","true","",""
"null","","html-keyboard-response","371","824954","0.0-371.0","","<img src=""img/set2/S1.jpg"" width=""540"" height = ""360"" style=""border:16px solid orange"">","null","","","","","","","",""
"null","","html-keyboard-response","372","825159","0.0-372.0","","","null","","","","","","","",""
"638.0999999046326","","image-keyboard-response","373","825798","0.0-373.0","","img/set2/S4.jpg","68","4","structured_normal","74","random,structured_normal,structured_load,structured_incentive","2,1,3,4,2,3","false","",""
"null","","html-keyboard-response","374","826152","0.0-374.0","","<img src=""img/set2/S4.jpg"" width=""540"" height = ""360"">","null","","","","","","","",""
"null","","html-keyboard-response","375","826355","0.0-375.0","","","null","","","","","","","",""
"738.2000000476837","","image-keyboard-response","376","827094","0.0-376.0","","img/set2/S4.jpg","72","4","structured_normal","74","random,structured_normal,structured_load,structured_incentive","2,1,3,4,2,3","false","",""
"null","","html-keyboard-response","377","827446","0.0-377.0","","<img src=""img/set2/S4.jpg"" width=""540"" height = ""360"">","null","","","","","","","",""
"null","","html-keyboard-response","378","827649","0.0-378.0","","","null","","","","","","","",""
"845.6000000238419","","image-keyboard-response","379","828495","0.0-379.0","","img/set2/S2.jpg","74","2","structured_normal","68","random,structured_normal,structured_load,structured_incentive","2,1,3,4,2,3","false","",""
"null","","html-keyboard-response","380","828851","0.0-380.0","","<img src=""img/set2/S2.jpg"" width=""540"" height = ""360"">","null","","","","","","","",""
"null","","html-keyboard-response","381","829054","0.0-381.0","","","null","","","","","","","",""
"735.7000000476837","","image-keyboard-response","382","829791","0.0-382.0","","img/set2/S1.jpg","83","1","structured_normal","83","random,structured_normal,structured_load,structured_incentive","2,1,3,4,2,3","true","",""
"null","","html-keyboard-response","383","830146","0.0-383.0","","<img src=""img/set2/S1.jpg"" width=""540"" height = ""360"" style=""border:16px solid orange"">","null","","","","","","","",""
"null","","html-keyboard-response","384","830348","0.0-384.0","","","null","","","","","","","",""
"1088.5999999046326","","image-keyboard-response","385","831438","0.0-385.0","","img/set2/S4.jpg","74","4","structured_normal","74","random,structured_normal,structured_load,structured_incentive","2,1,3,4,2,3","true","",""
"null","","html-keyboard-response","386","831793","0.0-386.0","","<img src=""img/set2/S4.jpg"" width=""540"" height = ""360"" style=""border:16px solid orange"">","null","","","","","","","",""
"null","","html-keyboard-response","387","831997","0.0-387.0","","","null","","","","","","","",""
"887.2999999523163","","image-keyboard-response","388","832886","0.0-388.0","","img/set2/S2.jpg","72","2","structured_normal","68","random,structured_normal,structured_load,structured_incentive","2,1,3,4,2,3","false","",""
"null","","html-keyboard-response","389","833240","0.0-389.0","","<img src=""img/set2/S2.jpg"" width=""540"" height = ""360"">","null","","","","","","","",""
"null","","html-keyboard-response","390","833443","0.0-390.0","","","null","","","","","","","",""
"706.7000000476837","","image-keyboard-response","391","834150","0.0-391.0","","img/set2/S1.jpg","83","1","structured_normal","83","random,structured_normal,structured_load,structured_incentive","2,1,3,4,2,3","true","",""
"null","","html-keyboard-response","392","834505","0.0-392.0","","<img src=""img/set2/S1.jpg"" width=""540"" height = ""360"" style=""border:16px solid orange"">","null","","","","","","","",""
"null","","html-keyboard-response","393","834708","0.0-393.0","","","null","","","","","","","",""
"664.5999999046326","","image-keyboard-response","394","835374","0.0-394.0","","img/set2/S3.jpg","68","3","structured_normal","72","random,structured_normal,structured_load,structured_incentive","2,1,3,4,2,3","false","",""
"null","","html-keyboard-response","395","835726","0.0-395.0","","<img src=""img/set2/S3.jpg"" width=""540"" height = ""360"">","null","","","","","","","",""
"null","","html-keyboard-response","396","835927","0.0-396.0","","","null","","","","","","","",""
"751.1000000238419","","image-keyboard-response","397","836679","0.0-397.0","","img/set2/S2.jpg","68","2","structured_normal","68","random,structured_normal,structured_load,structured_incentive","2,1,3,4,2,3","true","",""
"null","","html-keyboard-response","398","837031","0.0-398.0","","<img src=""img/set2/S2.jpg"" width=""540"" height = ""360"" style=""border:16px solid orange"">","null","","","","","","","",""
"null","","html-keyboard-response","399","837234","0.0-399.0","","","null","","","","","","","",""
"724","","image-keyboard-response","400","837958","0.0-400.0","","img/set2/S1.jpg","83","1","structured_normal","83","random,structured_normal,structured_load,structured_incentive","2,1,3,4,2,3","true","",""
"null","","html-keyboard-response","401","838314","0.0-401.0","","<img src=""img/set2/S1.jpg"" width=""540"" height = ""360"" style=""border:16px solid orange"">","null","","","","","","","",""
"null","","html-keyboard-response","402","838517","0.0-402.0","","","null","","","","","","","",""
"671.7999999523163","","image-keyboard-response","403","839189","0.0-403.0","","img/set2/S4.jpg","72","4","structured_normal","74","random,structured_normal,structured_load,structured_incentive","2,1,3,4,2,3","false","",""
"null","","html-keyboard-response","404","839545","0.0-404.0","","<img src=""img/set2/S4.jpg"" width=""540"" height = ""360"">","null","","","","","","","",""
"null","","html-keyboard-response","405","839747","0.0-405.0","","","null","","","","","","","",""
"748.3000000715256","","image-keyboard-response","406","840496","0.0-406.0","","img/set2/S3.jpg","68","3","structured_normal","72","random,structured_normal,structured_load,structured_incentive","2,1,3,4,2,3","false","",""
"null","","html-keyboard-response","407","840850","0.0-407.0","","<img src=""img/set2/S3.jpg"" width=""540"" height = ""360"">","null","","","","","","","",""
"null","","html-keyboard-response","408","841053","0.0-408.0","","","null","","","","","","","",""
"1023.3999999761581","","image-keyboard-response","409","842078","0.0-409.0","","img/set2/S3.jpg","72","3","structured_normal","72","random,structured_normal,structured_load,structured_incentive","2,1,3,4,2,3","true","",""
"null","","html-keyboard-response","410","842429","0.0-410.0","","<img src=""img/set2/S3.jpg"" width=""540"" height = ""360"" style=""border:16px solid orange"">","null","","","","","","","",""
"null","","html-keyboard-response","411","842633","0.0-411.0","","","null","","","","","","","",""
"651.8999999761581","","image-keyboard-response","412","843285","0.0-412.0","","img/set2/S3.jpg","74","3","structured_normal","72","random,structured_normal,structured_load,structured_incentive","2,1,3,4,2,3","false","",""
"null","","html-keyboard-response","413","843639","0.0-413.0","","<img src=""img/set2/S3.jpg"" width=""540"" height = ""360"">","null","","","","","","","",""
"null","","html-keyboard-response","414","843840","0.0-414.0","","","null","","","","","","","",""
"806.3999999761581","","image-keyboard-response","415","844647","0.0-415.0","","img/set2/S2.jpg","74","2","structured_normal","68","random,structured_normal,structured_load,structured_incentive","2,1,3,4,2,3","false","",""
"null","","html-keyboard-response","416","845001","0.0-416.0","","<img src=""img/set2/S2.jpg"" width=""540"" height = ""360"">","null","","","","","","","",""
"null","","html-keyboard-response","417","845204","0.0-417.0","","","null","","","","","","","",""
"786.1000000238419","","image-keyboard-response","418","845991","0.0-418.0","","img/set2/S1.jpg","83","1","structured_normal","83","random,structured_normal,structured_load,structured_incentive","2,1,3,4,2,3","true","",""
"null","","html-keyboard-response","419","846348","0.0-419.0","","<img src=""img/set2/S1.jpg"" width=""540"" height = ""360"" style=""border:16px solid orange"">","null","","","","","","","",""
"null","","html-keyboard-response","420","846551","0.0-420.0","","","null","","","","","","","",""
"639.3999999761581","","image-keyboard-response","421","847191","0.0-421.0","","img/set2/S2.jpg","72","2","structured_normal","68","random,structured_normal,structured_load,structured_incentive","2,1,3,4,2,3","false","",""
"null","","html-keyboard-response","422","847544","0.0-422.0","","<img src=""img/set2/S2.jpg"" width=""540"" height = ""360"">","null","","","","","","","",""
"null","","html-keyboard-response","423","847747","0.0-423.0","","","null","","","","","","","",""
"603","","image-keyboard-response","424","848351","0.0-424.0","","img/set2/S1.jpg","83","1","structured_normal","83","random,structured_normal,structured_load,structured_incentive","2,1,3,4,2,3","true","",""
"null","","html-keyboard-response","425","848705","0.0-425.0","","<img src=""img/set2/S1.jpg"" width=""540"" height = ""360"" style=""border:16px solid orange"">","null","","","","","","","",""
"null","","html-keyboard-response","426","848908","0.0-426.0","","","null","","","","","","","",""
"1009.1000000238419","","image-keyboard-response","427","849918","0.0-427.0","","img/set2/S3.jpg","74","3","structured_normal","72","random,structured_normal,structured_load,structured_incentive","2,1,3,4,2,3","false","",""
"null","","html-keyboard-response","428","850272","0.0-428.0","","<img src=""img/set2/S3.jpg"" width=""540"" height = ""360"">","null","","","","","","","",""
"null","","html-keyboard-response","429","850475","0.0-429.0","","","null","","","","","","","",""
"741","","image-keyboard-response","430","851217","0.0-430.0","","img/set2/S2.jpg","72","2","structured_normal","68","random,structured_normal,structured_load,structured_incentive","2,1,3,4,2,3","false","",""
"null","","html-keyboard-response","431","851572","0.0-431.0","","<img src=""img/set2/S2.jpg"" width=""540"" height = ""360"">","null","","","","","","","",""
"null","","html-keyboard-response","432","851776","0.0-432.0","","","null","","","","","","","",""
"799.6000000238419","","image-keyboard-response","433","852576","0.0-433.0","","img/set2/S1.jpg","83","1","structured_normal","83","random,structured_normal,structured_load,structured_incentive","2,1,3,4,2,3","true","",""
"null","","html-keyboard-response","434","852931","0.0-434.0","","<img src=""img/set2/S1.jpg"" width=""540"" height = ""360"" style=""border:16px solid orange"">","null","","","","","","","",""
"null","","html-keyboard-response","435","853134","0.0-435.0","","","null","","","","","","","",""
"735.3999999761581","","image-keyboard-response","436","853870","0.0-436.0","","img/set2/S2.jpg","83","2","structured_normal","68","random,structured_normal,structured_load,structured_incentive","2,1,3,4,2,3","false","",""
"null","","html-keyboard-response","437","854226","0.0-437.0","","<img src=""img/set2/S2.jpg"" width=""540"" height = ""360"">","null","","","","","","","",""
"null","","html-keyboard-response","438","854428","0.0-438.0","","","null","","","","","","","",""
"801.0999999046326","","image-keyboard-response","439","855230","0.0-439.0","","img/set2/S1.jpg","83","1","structured_normal","83","random,structured_normal,structured_load,structured_incentive","2,1,3,4,2,3","true","",""
"null","","html-keyboard-response","440","855585","0.0-440.0","","<img src=""img/set2/S1.jpg"" width=""540"" height = ""360"" style=""border:16px solid orange"">","null","","","","","","","",""
"null","","html-keyboard-response","441","855786","0.0-441.0","","","null","","","","","","","",""
"1059.3999999761581","","image-keyboard-response","442","856847","0.0-442.0","","img/set2/S4.jpg","83","4","structured_normal","74","random,structured_normal,structured_load,structured_incentive","2,1,3,4,2,3","false","",""
"null","","html-keyboard-response","443","857198","0.0-443.0","","<img src=""img/set2/S4.jpg"" width=""540"" height = ""360"">","null","","","","","","","",""
"null","","html-keyboard-response","444","857401","0.0-444.0","","","null","","","","","","","",""
"798.5","","image-keyboard-response","445","858200","0.0-445.0","","img/set2/S3.jpg","83","3","structured_normal","72","random,structured_normal,structured_load,structured_incentive","2,1,3,4,2,3","false","",""
"null","","html-keyboard-response","446","858556","0.0-446.0","","<img src=""img/set2/S3.jpg"" width=""540"" height = ""360"">","null","","","","","","","",""
"null","","html-keyboard-response","447","858759","0.0-447.0","","","null","","","","","","","",""
"790.3999999761581","","image-keyboard-response","448","859551","0.0-448.0","","img/set2/S4.jpg","68","4","structured_normal","74","random,structured_normal,structured_load,structured_incentive","2,1,3,4,2,3","false","",""
"null","","html-keyboard-response","449","859903","0.0-449.0","","<img src=""img/set2/S4.jpg"" width=""540"" height = ""360"">","null","","","","","","","",""
"null","","html-keyboard-response","450","860106","0.0-450.0","","","null","","","","","","","",""
"708.5","","image-keyboard-response","451","860816","0.0-451.0","","img/set2/S4.jpg","72","4","structured_normal","74","random,structured_normal,structured_load,structured_incentive","2,1,3,4,2,3","false","",""
"null","","html-keyboard-response","452","861169","0.0-452.0","","<img src=""img/set2/S4.jpg"" width=""540"" height = ""360"">","null","","","","","","","",""
"null","","html-keyboard-response","453","861371","0.0-453.0","","","null","","","","","","","",""
"593.2999999523163","","image-keyboard-response","454","861967","0.0-454.0","","img/set2/S4.jpg","74","4","structured_normal","74","random,structured_normal,structured_load,structured_incentive","2,1,3,4,2,3","true","",""
"null","","html-keyboard-response","455","862324","0.0-455.0","","<img src=""img/set2/S4.jpg"" width=""540"" height = ""360"" style=""border:16px solid orange"">","null","","","","","","","",""
"null","","html-keyboard-response","456","862527","0.0-456.0","","","null","","","","","","","",""
"758.0999999046326","","image-keyboard-response","457","863286","0.0-457.0","","img/set2/S3.jpg","72","3","structured_normal","72","random,structured_normal,structured_load,structured_incentive","2,1,3,4,2,3","true","",""
"null","","html-keyboard-response","458","863641","0.0-458.0","","<img src=""img/set2/S3.jpg"" width=""540"" height = ""360"" style=""border:16px solid orange"">","null","","","","","","","",""
"null","","html-keyboard-response","459","863845","0.0-459.0","","","null","","","","","","","",""
"616.6999999284744","","image-keyboard-response","460","864462","0.0-460.0","","img/set2/S3.jpg","72","3","structured_normal","72","random,structured_normal,structured_load,structured_incentive","2,1,3,4,2,3","true","",""
"null","","html-keyboard-response","461","864818","0.0-461.0","","<img src=""img/set2/S3.jpg"" width=""540"" height = ""360"" style=""border:16px solid orange"">","null","","","","","","","",""
"null","","html-keyboard-response","462","865023","0.0-462.0","","","null","","","","","","","",""
"575.8000000715256","","image-keyboard-response","463","865599","0.0-463.0","","img/set2/S3.jpg","72","3","structured_normal","72","random,structured_normal,structured_load,structured_incentive","2,1,3,4,2,3","true","",""
"null","","html-keyboard-response","464","865952","0.0-464.0","","<img src=""img/set2/S3.jpg"" width=""540"" height = ""360"" style=""border:16px solid orange"">","null","","","","","","","",""
"null","","html-keyboard-response","465","866155","0.0-465.0","","","null","","","","","","","",""
"707.3000000715256","","image-keyboard-response","466","866863","0.0-466.0","","img/set2/S2.jpg","68","2","structured_normal","68","random,structured_normal,structured_load,structured_incentive","2,1,3,4,2,3","true","",""
"null","","html-keyboard-response","467","867217","0.0-467.0","","<img src=""img/set2/S2.jpg"" width=""540"" height = ""360"" style=""border:16px solid orange"">","null","","","","","","","",""
"null","","html-keyboard-response","468","867420","0.0-468.0","","","null","","","","","","","",""
"658.2999999523163","","image-keyboard-response","469","868079","0.0-469.0","","img/set2/S1.jpg","83","1","structured_normal","83","random,structured_normal,structured_load,structured_incentive","2,1,3,4,2,3","true","",""
"null","","html-keyboard-response","470","868431","0.0-470.0","","<img src=""img/set2/S1.jpg"" width=""540"" height = ""360"" style=""border:16px solid orange"">","null","","","","","","","",""
"null","","html-keyboard-response","471","868634","0.0-471.0","","","null","","","","","","","",""
"747.7999999523163","","image-keyboard-response","472","869382","0.0-472.0","","img/set2/S4.jpg","72","4","structured_normal","74","random,structured_normal,structured_load,structured_incentive","2,1,3,4,2,3","false","",""
"null","","html-keyboard-response","473","869738","0.0-473.0","","<img src=""img/set2/S4.jpg"" width=""540"" height = ""360"">","null","","","","","","","",""
"null","","html-keyboard-response","474","869940","0.0-474.0","","","null","","","","","","","",""
"658.5","","image-keyboard-response","475","870599","0.0-475.0","","img/set2/S4.jpg","74","4","structured_normal","74","random,structured_normal,structured_load,structured_incentive","2,1,3,4,2,3","true","",""
"null","","html-keyboard-response","476","870954","0.0-476.0","","<img src=""img/set2/S4.jpg"" width=""540"" height = ""360"" style=""border:16px solid orange"">","null","","","","","","","",""
"null","","html-keyboard-response","477","871159","0.0-477.0","","","null","","","","","","","",""
"969.0999999046326","","image-keyboard-response","478","872129","0.0-478.0","","img/set2/S2.jpg","72","2","structured_normal","68","random,structured_normal,structured_load,structured_incentive","2,1,3,4,2,3","false","",""
"null","","html-keyboard-response","479","872483","0.0-479.0","","<img src=""img/set2/S2.jpg"" width=""540"" height = ""360"">","null","","","","","","","",""
"null","","html-keyboard-response","480","872686","0.0-480.0","","","null","","","","","","","",""
"655.8999999761581","","image-keyboard-response","481","873343","0.0-481.0","","img/set2/S1.jpg","83","1","structured_normal","83","random,structured_normal,structured_load,structured_incentive","2,1,3,4,2,3","true","",""
"null","","html-keyboard-response","482","873696","0.0-482.0","","<img src=""img/set2/S1.jpg"" width=""540"" height = ""360"" style=""border:16px solid orange"">","null","","","","","","","",""
"null","","html-keyboard-response","483","873899","0.0-483.0","","","null","","","","","","","",""
"764","","image-keyboard-response","484","874664","0.0-484.0","","img/set2/S3.jpg","72","3","structured_normal","72","random,structured_normal,structured_load,structured_incentive","2,1,3,4,2,3","true","",""
"null","","html-keyboard-response","485","875019","0.0-485.0","","<img src=""img/set2/S3.jpg"" width=""540"" height = ""360"" style=""border:16px solid orange"">","null","","","","","","","",""
"null","","html-keyboard-response","486","875223","0.0-486.0","","","null","","","","","","","",""
"888.4000000953674","","image-keyboard-response","487","876112","0.0-487.0","","img/set2/S4.jpg","68","4","structured_normal","74","random,structured_normal,structured_load,structured_incentive","2,1,3,4,2,3","false","",""
"null","","html-keyboard-response","488","876465","0.0-488.0","","<img src=""img/set2/S4.jpg"" width=""540"" height = ""360"">","null","","","","","","","",""
"null","","html-keyboard-response","489","876668","0.0-489.0","","","null","","","","","","","",""
"819.1999999284744","","image-keyboard-response","490","877489","0.0-490.0","","img/set2/S3.jpg","72","3","structured_normal","72","random,structured_normal,structured_load,structured_incentive","2,1,3,4,2,3","true","",""
"null","","html-keyboard-response","491","877841","0.0-491.0","","<img src=""img/set2/S3.jpg"" width=""540"" height = ""360"" style=""border:16px solid orange"">","null","","","","","","","",""
"null","","html-keyboard-response","492","878044","0.0-492.0","","","null","","","","","","","",""
"962","","image-keyboard-response","493","879007","0.0-493.0","","img/set2/S3.jpg","72","3","structured_normal","72","random,structured_normal,structured_load,structured_incentive","2,1,3,4,2,3","true","",""
"null","","html-keyboard-response","494","879361","0.0-494.0","","<img src=""img/set2/S3.jpg"" width=""540"" height = ""360"" style=""border:16px solid orange"">","null","","","","","","","",""
"null","","html-keyboard-response","495","879565","0.0-495.0","","","null","","","","","","","",""
"842.3000000715256","","image-keyboard-response","496","880408","0.0-496.0","","img/set2/S2.jpg","68","2","structured_normal","68","random,structured_normal,structured_load,structured_incentive","2,1,3,4,2,3","true","",""
"null","","html-keyboard-response","497","880761","0.0-497.0","","<img src=""img/set2/S2.jpg"" width=""540"" height = ""360"" style=""border:16px solid orange"">","null","","","","","","","",""
"null","","html-keyboard-response","498","880964","0.0-498.0","","","null","","","","","","","",""
"1179.1000000238419","","image-keyboard-response","499","882145","0.0-499.0","","img/set2/S1.jpg","83","1","structured_normal","83","random,structured_normal,structured_load,structured_incentive","2,1,3,4,2,3","true","",""
"null","","html-keyboard-response","500","882497","0.0-500.0","","<img src=""img/set2/S1.jpg"" width=""540"" height = ""360"" style=""border:16px solid orange"">","null","","","","","","","",""
"null","","html-keyboard-response","501","882700","0.0-501.0","","","null","","","","","","","",""
"1155.2000000476837","","image-keyboard-response","502","883856","0.0-502.0","","img/set2/S3.jpg","72","3","structured_normal","72","random,structured_normal,structured_load,structured_incentive","2,1,3,4,2,3","true","",""
"null","","html-keyboard-response","503","884209","0.0-503.0","","<img src=""img/set2/S3.jpg"" width=""540"" height = ""360"" style=""border:16px solid orange"">","null","","","","","","","",""
"null","","html-keyboard-response","504","884412","0.0-504.0","","","null","","","","","","","",""
"778.9000000953674","","image-keyboard-response","505","885192","0.0-505.0","","img/set2/S4.jpg","68","4","structured_normal","74","random,structured_normal,structured_load,structured_incentive","2,1,3,4,2,3","false","",""
"null","","html-keyboard-response","506","885544","0.0-506.0","","<img src=""img/set2/S4.jpg"" width=""540"" height = ""360"">","null","","","","","","","",""
"null","","html-keyboard-response","507","885750","0.0-507.0","","","null","","","","","","","",""
"697.3999999761581","","image-keyboard-response","508","886448","0.0-508.0","","img/set2/S4.jpg","74","4","structured_normal","74","random,structured_normal,structured_load,structured_incentive","2,1,3,4,2,3","true","",""
"null","","html-keyboard-response","509","886804","0.0-509.0","","<img src=""img/set2/S4.jpg"" width=""540"" height = ""360"" style=""border:16px solid orange"">","null","","","","","","","",""
"null","","html-keyboard-response","510","887007","0.0-510.0","","","null","","","","","","","",""
"727.3999999761581","","image-keyboard-response","511","887735","0.0-511.0","","img/set2/S4.jpg","74","4","structured_normal","74","random,structured_normal,structured_load,structured_incentive","2,1,3,4,2,3","true","",""
"null","","html-keyboard-response","512","888087","0.0-512.0","","<img src=""img/set2/S4.jpg"" width=""540"" height = ""360"" style=""border:16px solid orange"">","null","","","","","","","",""
"null","","html-keyboard-response","513","888290","0.0-513.0","","","null","","","","","","","",""
"501.2000000476837","","image-keyboard-response","514","888793","0.0-514.0","","img/set2/S4.jpg","74","4","structured_normal","74","random,structured_normal,structured_load,structured_incentive","2,1,3,4,2,3","true","",""
"null","","html-keyboard-response","515","889149","0.0-515.0","","<img src=""img/set2/S4.jpg"" width=""540"" height = ""360"" style=""border:16px solid orange"">","null","","","","","","","",""
"null","","html-keyboard-response","516","889352","0.0-516.0","","","null","","","","","","","",""
"693.7999999523163","","image-keyboard-response","517","890047","0.0-517.0","","img/set2/S2.jpg","68","2","structured_normal","68","random,structured_normal,structured_load,structured_incentive","2,1,3,4,2,3","true","",""
"null","","html-keyboard-response","518","890402","0.0-518.0","","<img src=""img/set2/S2.jpg"" width=""540"" height = ""360"" style=""border:16px solid orange"">","null","","","","","","","",""
"null","","html-keyboard-response","519","890606","0.0-519.0","","","null","","","","","","","",""
"520.7000000476837","","image-keyboard-response","520","891128","0.0-520.0","","img/set2/S1.jpg","83","1","structured_normal","83","random,structured_normal,structured_load,structured_incentive","2,1,3,4,2,3","true","",""
"null","","html-keyboard-response","521","891483","0.0-521.0","","<img src=""img/set2/S1.jpg"" width=""540"" height = ""360"" style=""border:16px solid orange"">","null","","","","","","","",""
"null","","html-keyboard-response","522","891688","0.0-522.0","","","null","","","","","","","",""
"399.10000002384186","","image-keyboard-response","523","892088","0.0-523.0","","img/set2/S4.jpg","68","4","structured_normal","74","random,structured_normal,structured_load,structured_incentive","2,1,3,4,2,3","false","",""
"null","","html-keyboard-response","524","892441","0.0-524.0","","<img src=""img/set2/S4.jpg"" width=""540"" height = ""360"">","null","","","","","","","",""
"null","","html-keyboard-response","525","892644","0.0-525.0","","","null","","","","","","","",""
"828.5","","image-keyboard-response","526","893473","0.0-526.0","","img/set2/S2.jpg","68","2","structured_normal","68","random,structured_normal,structured_load,structured_incentive","2,1,3,4,2,3","true","",""
"null","","html-keyboard-response","527","893828","0.0-527.0","","<img src=""img/set2/S2.jpg"" width=""540"" height = ""360"" style=""border:16px solid orange"">","null","","","","","","","",""
"null","","html-keyboard-response","528","894032","0.0-528.0","","","null","","","","","","","",""
"639.1000000238419","","image-keyboard-response","529","894672","0.0-529.0","","img/set2/S1.jpg","83","1","structured_normal","83","random,structured_normal,structured_load,structured_incentive","2,1,3,4,2,3","true","",""
"null","","html-keyboard-response","530","895027","0.0-530.0","","<img src=""img/set2/S1.jpg"" width=""540"" height = ""360"" style=""border:16px solid orange"">","null","","","","","","","",""
"null","","html-keyboard-response","531","895233","0.0-531.0","","","null","","","","","","","",""
"550","","image-keyboard-response","532","895784","0.0-532.0","","img/set2/S2.jpg","68","2","structured_normal","68","random,structured_normal,structured_load,structured_incentive","2,1,3,4,2,3","true","",""
"null","","html-keyboard-response","533","896138","0.0-533.0","","<img src=""img/set2/S2.jpg"" width=""540"" height = ""360"" style=""border:16px solid orange"">","null","","","","","","","",""
"null","","html-keyboard-response","534","896342","0.0-534.0","","","null","","","","","","","",""
"785.6999999284744","","image-keyboard-response","535","897128","0.0-535.0","","img/set2/S1.jpg","83","1","structured_normal","83","random,structured_normal,structured_load,structured_incentive","2,1,3,4,2,3","true","",""
"null","","html-keyboard-response","536","897480","0.0-536.0","","<img src=""img/set2/S1.jpg"" width=""540"" height = ""360"" style=""border:16px solid orange"">","null","","","","","","","",""
"null","","html-keyboard-response","537","897683","0.0-537.0","","","null","","","","","","","",""
"700.0999999046326","","image-keyboard-response","538","898384","0.0-538.0","","img/set2/S2.jpg","68","2","structured_normal","68","random,structured_normal,structured_load,structured_incentive","2,1,3,4,2,3","true","",""
"null","","html-keyboard-response","539","898739","0.0-539.0","","<img src=""img/set2/S2.jpg"" width=""540"" height = ""360"" style=""border:16px solid orange"">","null","","","","","","","",""
"null","","html-keyboard-response","540","898942","0.0-540.0","","","null","","","","","","","",""
"705.1000000238419","","image-keyboard-response","541","899648","0.0-541.0","","img/set2/S1.jpg","83","1","structured_normal","83","random,structured_normal,structured_load,structured_incentive","2,1,3,4,2,3","true","",""
"null","","html-keyboard-response","542","900000","0.0-542.0","","<img src=""img/set2/S1.jpg"" width=""540"" height = ""360"" style=""border:16px solid orange"">","null","","","","","","","",""
"null","","html-keyboard-response","543","900205","0.0-543.0","","","null","","","","","","","",""
"666.1999999284744","","image-keyboard-response","544","900872","0.0-544.0","","img/set2/S3.jpg","72","3","structured_normal","72","random,structured_normal,structured_load,structured_incentive","2,1,3,4,2,3","true","",""
"null","","html-keyboard-response","545","901224","0.0-545.0","","<img src=""img/set2/S3.jpg"" width=""540"" height = ""360"" style=""border:16px solid orange"">","null","","","","","","","",""
"null","","html-keyboard-response","546","901427","0.0-546.0","","","null","","","","","","","",""
"507.10000002384186","","image-keyboard-response","547","901935","0.0-547.0","","img/set2/S3.jpg","72","3","structured_normal","72","random,structured_normal,structured_load,structured_incentive","2,1,3,4,2,3","true","",""
"null","","html-keyboard-response","548","902290","0.0-548.0","","<img src=""img/set2/S3.jpg"" width=""540"" height = ""360"" style=""border:16px solid orange"">","null","","","","","","","",""
"null","","html-keyboard-response","549","902495","0.0-549.0","","","null","","","","","","","",""
"688","","image-keyboard-response","550","903184","0.0-550.0","","img/set2/S2.jpg","68","2","structured_normal","68","random,structured_normal,structured_load,structured_incentive","2,1,3,4,2,3","true","",""
"null","","html-keyboard-response","551","903540","0.0-551.0","","<img src=""img/set2/S2.jpg"" width=""540"" height = ""360"" style=""border:16px solid orange"">","null","","","","","","","",""
"null","","html-keyboard-response","552","903744","0.0-552.0","","","null","","","","","","","",""
"559.3999999761581","","image-keyboard-response","553","904304","0.0-553.0","","img/set2/S1.jpg","83","1","structured_normal","83","random,structured_normal,structured_load,structured_incentive","2,1,3,4,2,3","true","",""
"null","","html-keyboard-response","554","904657","0.0-554.0","","<img src=""img/set2/S1.jpg"" width=""540"" height = ""360"" style=""border:16px solid orange"">","null","","","","","","","",""
"null","","html-keyboard-response","555","904858","0.0-555.0","","","null","","","","","","","",""
"637.5","","image-keyboard-response","556","905496","0.0-556.0","","img/set2/S3.jpg","72","3","structured_normal","72","random,structured_normal,structured_load,structured_incentive","2,1,3,4,2,3","true","",""
"null","","html-keyboard-response","557","905851","0.0-557.0","","<img src=""img/set2/S3.jpg"" width=""540"" height = ""360"" style=""border:16px solid orange"">","null","","","","","","","",""
"null","","html-keyboard-response","558","906054","0.0-558.0","","","null","","","","","","","",""
"544.2999999523163","","image-keyboard-response","559","906599","0.0-559.0","","img/set2/S2.jpg","68","2","structured_normal","68","random,structured_normal,structured_load,structured_incentive","2,1,3,4,2,3","true","",""
"null","","html-keyboard-response","560","906954","0.0-560.0","","<img src=""img/set2/S2.jpg"" width=""540"" height = ""360"" style=""border:16px solid orange"">","null","","","","","","","",""
"null","","html-keyboard-response","561","907156","0.0-561.0","","","null","","","","","","","",""
"571.1000000238419","","image-keyboard-response","562","907729","0.0-562.0","","img/set2/S1.jpg","83","1","structured_normal","83","random,structured_normal,structured_load,structured_incentive","2,1,3,4,2,3","true","",""
"null","","html-keyboard-response","563","908083","0.0-563.0","","<img src=""img/set2/S1.jpg"" width=""540"" height = ""360"" style=""border:16px solid orange"">","null","","","","","","","",""
"null","","html-keyboard-response","564","908288","0.0-564.0","","","null","","","","","","","",""
"863.9000000953674","","image-keyboard-response","565","909152","0.0-565.0","","img/set2/S2.jpg","68","2","structured_normal","68","random,structured_normal,structured_load,structured_incentive","2,1,3,4,2,3","true","",""
"null","","html-keyboard-response","566","909508","0.0-566.0","","<img src=""img/set2/S2.jpg"" width=""540"" height = ""360"" style=""border:16px solid orange"">","null","","","","","","","",""
"null","","html-keyboard-response","567","909711","0.0-567.0","","","null","","","","","","","",""
"655.3999999761581","","image-keyboard-response","568","910368","0.0-568.0","","img/set2/S1.jpg","83","1","structured_normal","83","random,structured_normal,structured_load,structured_incentive","2,1,3,4,2,3","true","",""
"null","","html-keyboard-response","569","910721","0.0-569.0","","<img src=""img/set2/S1.jpg"" width=""540"" height = ""360"" style=""border:16px solid orange"">","null","","","","","","","",""
"null","","html-keyboard-response","570","910925","0.0-570.0","","","null","","","","","","","",""
"731.1000000238419","","image-keyboard-response","571","911657","0.0-571.0","","img/set2/S3.jpg","72","3","structured_normal","72","random,structured_normal,structured_load,structured_incentive","2,1,3,4,2,3","true","",""
"null","","html-keyboard-response","572","912011","0.0-572.0","","<img src=""img/set2/S3.jpg"" width=""540"" height = ""360"" style=""border:16px solid orange"">","null","","","","","","","",""
"null","","html-keyboard-response","573","912213","0.0-573.0","","","null","","","","","","","",""
"651.4000000953674","","image-keyboard-response","574","912865","0.0-574.0","","img/set2/S3.jpg","72","3","structured_normal","72","random,structured_normal,structured_load,structured_incentive","2,1,3,4,2,3","true","",""
"null","","html-keyboard-response","575","913218","0.0-575.0","","<img src=""img/set2/S3.jpg"" width=""540"" height = ""360"" style=""border:16px solid orange"">","null","","","","","","","",""
"null","","html-keyboard-response","576","913421","0.0-576.0","","","null","","","","","","","",""
"715.1000000238419","","image-keyboard-response","577","914137","0.0-577.0","","img/set2/S2.jpg","68","2","structured_normal","68","random,structured_normal,structured_load,structured_incentive","2,1,3,4,2,3","true","",""
"null","","html-keyboard-response","578","914492","0.0-578.0","","<img src=""img/set2/S2.jpg"" width=""540"" height = ""360"" style=""border:16px solid orange"">","null","","","","","","","",""
"null","","html-keyboard-response","579","914694","0.0-579.0","","","null","","","","","","","",""
"538.9000000953674","","image-keyboard-response","580","915234","0.0-580.0","","img/set2/S1.jpg","83","1","structured_normal","83","random,structured_normal,structured_load,structured_incentive","2,1,3,4,2,3","true","",""
"null","","html-keyboard-response","581","915586","0.0-581.0","","<img src=""img/set2/S1.jpg"" width=""540"" height = ""360"" style=""border:16px solid orange"">","null","","","","","","","",""
"null","","html-keyboard-response","582","915790","0.0-582.0","","","null","","","","","","","",""
"625.5999999046326","","image-keyboard-response","583","916417","0.0-583.0","","img/set2/S3.jpg","72","3","structured_normal","72","random,structured_normal,structured_load,structured_incentive","2,1,3,4,2,3","true","",""
"null","","html-keyboard-response","584","916770","0.0-584.0","","<img src=""img/set2/S3.jpg"" width=""540"" height = ""360"" style=""border:16px solid orange"">","null","","","","","","","",""
"null","","html-keyboard-response","585","916973","0.0-585.0","","","null","","","","","","","",""
"937.8999999761581","","image-keyboard-response","586","917914","0.0-586.0","","img/set2/S4.jpg","74","4","structured_normal","74","random,structured_normal,structured_load,structured_incentive","2,1,3,4,2,3","true","",""
"null","","html-keyboard-response","587","918268","0.0-587.0","","<img src=""img/set2/S4.jpg"" width=""540"" height = ""360"" style=""border:16px solid orange"">","null","","","","","","","",""
"null","","html-keyboard-response","588","918471","0.0-588.0","","","null","","","","","","","",""
"712.1999999284744","","image-keyboard-response","589","919184","0.0-589.0","","img/set2/S3.jpg","72","3","structured_normal","72","random,structured_normal,structured_load,structured_incentive","2,1,3,4,2,3","true","",""
"null","","html-keyboard-response","590","919540","0.0-590.0","","<img src=""img/set2/S3.jpg"" width=""540"" height = ""360"" style=""border:16px solid orange"">","null","","","","","","","",""
"null","","html-keyboard-response","591","919743","0.0-591.0","","","null","","","","","","","",""
"584","","image-keyboard-response","592","920328","0.0-592.0","","img/set2/S2.jpg","68","2","structured_normal","68","random,structured_normal,structured_load,structured_incentive","2,1,3,4,2,3","true","",""
"null","","html-keyboard-response","593","920682","0.0-593.0","","<img src=""img/set2/S2.jpg"" width=""540"" height = ""360"" style=""border:16px solid orange"">","null","","","","","","","",""
"null","","html-keyboard-response","594","920886","0.0-594.0","","","null","","","","","","","",""
