"view_history","rt","trial_type","trial_index","time_elapsed","internal_node_id","block_order","chunk_order","stimulus","key_press","state","test_part","correct_response","correct","responses","question_order","bonus"
"[{""page_index"":0,""viewing_time"":1103.2000000001863},{""page_index"":1,""viewing_time"":627.4000000003725},{""page_index"":2,""viewing_time"":470.19999999925494},{""page_index"":3,""viewing_time"":1813.800000000745},{""page_index"":4,""viewing_time"":1482},{""page_index"":5,""viewing_time"":913.3999999994412},{""page_index"":6,""viewing_time"":804.7000000001863}]","7215.799999999814","instructions","0","7219","0.0-0.0","structured_load,structured_normal,random,structured_incentive","2,1,2,3,3,4","","","","","","","","",""
"[{""page_index"":0,""viewing_time"":1003.8000000007451}]","1004.1000000005588","instructions","1","8225","0.0-1.0","structured_load,structured_normal,random,structured_incentive","2,1,2,3,3,4","","","","","","","","",""
"[{""page_index"":0,""viewing_time"":912.0999999996275},{""page_index"":1,""viewing_time"":976}]","1888.3999999994412","instructions","2","10116","0.0-2.0","structured_load,structured_normal,random,structured_incentive","2,1,2,3,3,4","","","","","","","","",""
"","null","image-keyboard-response","3","12623","0.0-3.0","structured_load,structured_normal,random,structured_incentive","2,1,2,3,3,4","img/set1/S3.jpg","null","3","structured_load","72","false","","",""
"","null","html-keyboard-response","4","12982","0.0-4.0","structured_load,structured_normal,random,structured_incentive","2,1,2,3,3,4","<img src=""img/set1/S3.jpg"" width=""540"" height = ""360"">","null","","","","","","",""
"","null","html-keyboard-response","5","13187","0.0-5.0","structured_load,structured_normal,random,structured_incentive","2,1,2,3,3,4","","null","","","","","","",""
"","null","image-keyboard-response","6","15694","0.0-6.0","structured_load,structured_normal,random,structured_incentive","2,1,2,3,3,4","img/set1/S2.jpg","null","2","structured_load","68","false","","",""
"","null","html-keyboard-response","7","16052","0.0-7.0","structured_load,structured_normal,random,structured_incentive","2,1,2,3,3,4","<img src=""img/set1/S2.jpg"" width=""540"" height = ""360"">","null","","","","","","",""
"","null","html-keyboard-response","8","16259","0.0-8.0","structured_load,structured_normal,random,structured_incentive","2,1,2,3,3,4","","null","","","","","","",""
"","null","image-keyboard-response","9","18766","0.0-9.0","structured_load,structured_normal,random,structured_incentive","2,1,2,3,3,4","img/set1/S1.jpg","null","1","structured_load","83","false","","",""
"","null","html-keyboard-response","10","19123","0.0-10.0","structured_load,structured_normal,random,structured_incentive","2,1,2,3,3,4","<img src=""img/set1/S1.jpg"" width=""540"" height = ""360"">","null","","","","","","",""
"","null","html-keyboard-response","11","19329","0.0-11.0","structured_load,structured_normal,random,structured_incentive","2,1,2,3,3,4","","null","","","","","","",""
"","null","image-keyboard-response","12","21834","0.0-12.0","structured_load,structured_normal,random,structured_incentive","2,1,2,3,3,4","img/set1/S3.jpg","null","3","structured_load","72","false","","",""
"","null","html-keyboard-response","13","22187","0.0-13.0","structured_load,structured_normal,random,structured_incentive","2,1,2,3,3,4","<img src=""img/set1/S3.jpg"" width=""540"" height = ""360"">","null","","","","","","",""
"","null","html-keyboard-response","14","22393","0.0-14.0","structured_load,structured_normal,random,structured_incentive","2,1,2,3,3,4","","null","","","","","","",""
"","null","image-keyboard-response","15","24900","0.0-15.0","structured_load,structured_normal,random,structured_incentive","2,1,2,3,3,4","img/set1/S3.jpg","null","3","structured_load","72","false","","",""
"","null","html-keyboard-response","16","25257","0.0-16.0","structured_load,structured_normal,random,structured_incentive","2,1,2,3,3,4","<img src=""img/set1/S3.jpg"" width=""540"" height = ""360"">","null","","","","","","",""
"","null","html-keyboard-response","17","25458","0.0-17.0","structured_load,structured_normal,random,structured_incentive","2,1,2,3,3,4","","null","","","","","","",""
"","null","image-keyboard-response","18","27965","0.0-18.0","structured_load,structured_normal,random,structured_incentive","2,1,2,3,3,4","img/set1/S4.jpg","null","4","structured_load","74","false","","",""
"","null","html-keyboard-response","19","28321","0.0-19.0","structured_load,structured_normal,random,structured_incentive","2,1,2,3,3,4","<img src=""img/set1/S4.jpg"" width=""540"" height = ""360"">","null","","","","","","",""
"","null","html-keyboard-response","20","28527","0.0-20.0","structured_load,structured_normal,random,structured_incentive","2,1,2,3,3,4","","null","","","","","","",""
"","null","image-keyboard-response","21","31032","0.0-21.0","structured_load,structured_normal,random,structured_incentive","2,1,2,3,3,4","img/set1/S2.jpg","null","2","structured_load","68","false","","",""
"","null","html-keyboard-response","22","31384","0.0-22.0","structured_load,structured_normal,random,structured_incentive","2,1,2,3,3,4","<img src=""img/set1/S2.jpg"" width=""540"" height = ""360"">","null","","","","","","",""
"","null","html-keyboard-response","23","31587","0.0-23.0","structured_load,structured_normal,random,structured_incentive","2,1,2,3,3,4","","null","","","","","","",""
"","null","image-keyboard-response","24","34094","0.0-24.0","structured_load,structured_normal,random,structured_incentive","2,1,2,3,3,4","img/set1/S1.jpg","null","1","structured_load","83","false","","",""
"","null","html-keyboard-response","25","34451","0.0-25.0","structured_load,structured_normal,random,structured_incentive","2,1,2,3,3,4","<img src=""img/set1/S1.jpg"" width=""540"" height = ""360"">","null","","","","","","",""
"","null","html-keyboard-response","26","34654","0.0-26.0","structured_load,structured_normal,random,structured_incentive","2,1,2,3,3,4","","null","","","","","","",""
"","null","image-keyboard-response","27","37160","0.0-27.0","structured_load,structured_normal,random,structured_incentive","2,1,2,3,3,4","img/set1/S4.jpg","null","4","structured_load","74","false","","",""
"","null","html-keyboard-response","28","37515","0.0-28.0","structured_load,structured_normal,random,structured_incentive","2,1,2,3,3,4","<img src=""img/set1/S4.jpg"" width=""540"" height = ""360"">","null","","","","","","",""
"","null","html-keyboard-response","29","37721","0.0-29.0","structured_load,structured_normal,random,structured_incentive","2,1,2,3,3,4","","null","","","","","","",""
"","null","image-keyboard-response","30","40228","0.0-30.0","structured_load,structured_normal,random,structured_incentive","2,1,2,3,3,4","img/set1/S4.jpg","null","4","structured_load","74","false","","",""
"","null","html-keyboard-response","31","40585","0.0-31.0","structured_load,structured_normal,random,structured_incentive","2,1,2,3,3,4","<img src=""img/set1/S4.jpg"" width=""540"" height = ""360"">","null","","","","","","",""
"","null","html-keyboard-response","32","40787","0.0-32.0","structured_load,structured_normal,random,structured_incentive","2,1,2,3,3,4","","null","","","","","","",""
"","null","image-keyboard-response","33","43289","0.0-33.0","structured_load,structured_normal,random,structured_incentive","2,1,2,3,3,4","img/set1/S4.jpg","null","4","structured_load","74","false","","",""
"","null","html-keyboard-response","34","43646","0.0-34.0","structured_load,structured_normal,random,structured_incentive","2,1,2,3,3,4","<img src=""img/set1/S4.jpg"" width=""540"" height = ""360"">","null","","","","","","",""
"","null","html-keyboard-response","35","43850","0.0-35.0","structured_load,structured_normal,random,structured_incentive","2,1,2,3,3,4","","null","","","","","","",""
"","null","image-keyboard-response","36","46352","0.0-36.0","structured_load,structured_normal,random,structured_incentive","2,1,2,3,3,4","img/set1/S3.jpg","null","3","structured_load","72","false","","",""
"","null","html-keyboard-response","37","46708","0.0-37.0","structured_load,structured_normal,random,structured_incentive","2,1,2,3,3,4","<img src=""img/set1/S3.jpg"" width=""540"" height = ""360"">","null","","","","","","",""
"","null","html-keyboard-response","38","46914","0.0-38.0","structured_load,structured_normal,random,structured_incentive","2,1,2,3,3,4","","null","","","","","","",""
"","null","image-keyboard-response","39","49421","0.0-39.0","structured_load,structured_normal,random,structured_incentive","2,1,2,3,3,4","img/set1/S2.jpg","null","2","structured_load","68","false","","",""
"","null","html-keyboard-response","40","49775","0.0-40.0","structured_load,structured_normal,random,structured_incentive","2,1,2,3,3,4","<img src=""img/set1/S2.jpg"" width=""540"" height = ""360"">","null","","","","","","",""
"","null","html-keyboard-response","41","49977","0.0-41.0","structured_load,structured_normal,random,structured_incentive","2,1,2,3,3,4","","null","","","","","","",""
"","null","image-keyboard-response","42","52479","0.0-42.0","structured_load,structured_normal,random,structured_incentive","2,1,2,3,3,4","img/set1/S1.jpg","null","1","structured_load","83","false","","",""
"","null","html-keyboard-response","43","52834","0.0-43.0","structured_load,structured_normal,random,structured_incentive","2,1,2,3,3,4","<img src=""img/set1/S1.jpg"" width=""540"" height = ""360"">","null","","","","","","",""
"","null","html-keyboard-response","44","53039","0.0-44.0","structured_load,structured_normal,random,structured_incentive","2,1,2,3,3,4","","null","","","","","","",""
"","null","image-keyboard-response","45","55544","0.0-45.0","structured_load,structured_normal,random,structured_incentive","2,1,2,3,3,4","img/set1/S3.jpg","null","3","structured_load","72","false","","",""
"","null","html-keyboard-response","46","55897","0.0-46.0","structured_load,structured_normal,random,structured_incentive","2,1,2,3,3,4","<img src=""img/set1/S3.jpg"" width=""540"" height = ""360"">","null","","","","","","",""
"","null","html-keyboard-response","47","56098","0.0-47.0","structured_load,structured_normal,random,structured_incentive","2,1,2,3,3,4","","null","","","","","","",""
"","null","image-keyboard-response","48","58601","0.0-48.0","structured_load,structured_normal,random,structured_incentive","2,1,2,3,3,4","img/set1/S4.jpg","null","4","structured_load","74","false","","",""
"","null","html-keyboard-response","49","58954","0.0-49.0","structured_load,structured_normal,random,structured_incentive","2,1,2,3,3,4","<img src=""img/set1/S4.jpg"" width=""540"" height = ""360"">","null","","","","","","",""
"","null","html-keyboard-response","50","59158","0.0-50.0","structured_load,structured_normal,random,structured_incentive","2,1,2,3,3,4","","null","","","","","","",""
"","null","image-keyboard-response","51","61662","0.0-51.0","structured_load,structured_normal,random,structured_incentive","2,1,2,3,3,4","img/set1/S4.jpg","null","4","structured_load","74","false","","",""
"","null","html-keyboard-response","52","62018","0.0-52.0","structured_load,structured_normal,random,structured_incentive","2,1,2,3,3,4","<img src=""img/set1/S4.jpg"" width=""540"" height = ""360"">","null","","","","","","",""
"","null","html-keyboard-response","53","62220","0.0-53.0","structured_load,structured_normal,random,structured_incentive","2,1,2,3,3,4","","null","","","","","","",""
"","null","image-keyboard-response","54","64726","0.0-54.0","structured_load,structured_normal,random,structured_incentive","2,1,2,3,3,4","img/set1/S3.jpg","null","3","structured_load","72","false","","",""
"","null","html-keyboard-response","55","65083","0.0-55.0","structured_load,structured_normal,random,structured_incentive","2,1,2,3,3,4","<img src=""img/set1/S3.jpg"" width=""540"" height = ""360"">","null","","","","","","",""
"","null","html-keyboard-response","56","65289","0.0-56.0","structured_load,structured_normal,random,structured_incentive","2,1,2,3,3,4","","null","","","","","","",""
"","null","image-keyboard-response","57","67796","0.0-57.0","structured_load,structured_normal,random,structured_incentive","2,1,2,3,3,4","img/set1/S2.jpg","null","2","structured_load","68","false","","",""
"","null","html-keyboard-response","58","68151","0.0-58.0","structured_load,structured_normal,random,structured_incentive","2,1,2,3,3,4","<img src=""img/set1/S2.jpg"" width=""540"" height = ""360"">","null","","","","","","",""
"","null","html-keyboard-response","59","68357","0.0-59.0","structured_load,structured_normal,random,structured_incentive","2,1,2,3,3,4","","null","","","","","","",""
"","null","image-keyboard-response","60","70861","0.0-60.0","structured_load,structured_normal,random,structured_incentive","2,1,2,3,3,4","img/set1/S1.jpg","null","1","structured_load","83","false","","",""
"","null","html-keyboard-response","61","71218","0.0-61.0","structured_load,structured_normal,random,structured_incentive","2,1,2,3,3,4","<img src=""img/set1/S1.jpg"" width=""540"" height = ""360"">","null","","","","","","",""
"","null","html-keyboard-response","62","71424","0.0-62.0","structured_load,structured_normal,random,structured_incentive","2,1,2,3,3,4","","null","","","","","","",""
"","null","image-keyboard-response","63","73930","0.0-63.0","structured_load,structured_normal,random,structured_incentive","2,1,2,3,3,4","img/set1/S2.jpg","null","2","structured_load","68","false","","",""
"","null","html-keyboard-response","64","74286","0.0-64.0","structured_load,structured_normal,random,structured_incentive","2,1,2,3,3,4","<img src=""img/set1/S2.jpg"" width=""540"" height = ""360"">","null","","","","","","",""
"","null","html-keyboard-response","65","74489","0.0-65.0","structured_load,structured_normal,random,structured_incentive","2,1,2,3,3,4","","null","","","","","","",""
"","null","image-keyboard-response","66","76996","0.0-66.0","structured_load,structured_normal,random,structured_incentive","2,1,2,3,3,4","img/set1/S1.jpg","null","1","structured_load","83","false","","",""
"","null","html-keyboard-response","67","77348","0.0-67.0","structured_load,structured_normal,random,structured_incentive","2,1,2,3,3,4","<img src=""img/set1/S1.jpg"" width=""540"" height = ""360"">","null","","","","","","",""
"","null","html-keyboard-response","68","77549","0.0-68.0","structured_load,structured_normal,random,structured_incentive","2,1,2,3,3,4","","null","","","","","","",""
"","null","image-keyboard-response","69","80056","0.0-69.0","structured_load,structured_normal,random,structured_incentive","2,1,2,3,3,4","img/set1/S4.jpg","null","4","structured_load","74","false","","",""
"","null","html-keyboard-response","70","80412","0.0-70.0","structured_load,structured_normal,random,structured_incentive","2,1,2,3,3,4","<img src=""img/set1/S4.jpg"" width=""540"" height = ""360"">","null","","","","","","",""
"","null","html-keyboard-response","71","80615","0.0-71.0","structured_load,structured_normal,random,structured_incentive","2,1,2,3,3,4","","null","","","","","","",""
"","null","image-keyboard-response","72","83122","0.0-72.0","structured_load,structured_normal,random,structured_incentive","2,1,2,3,3,4","img/set1/S3.jpg","null","3","structured_load","72","false","","",""
"","null","html-keyboard-response","73","83474","0.0-73.0","structured_load,structured_normal,random,structured_incentive","2,1,2,3,3,4","<img src=""img/set1/S3.jpg"" width=""540"" height = ""360"">","null","","","","","","",""
"","null","html-keyboard-response","74","83680","0.0-74.0","structured_load,structured_normal,random,structured_incentive","2,1,2,3,3,4","","null","","","","","","",""
"","null","image-keyboard-response","75","86186","0.0-75.0","structured_load,structured_normal,random,structured_incentive","2,1,2,3,3,4","img/set1/S2.jpg","null","2","structured_load","68","false","","",""
"","null","html-keyboard-response","76","86542","0.0-76.0","structured_load,structured_normal,random,structured_incentive","2,1,2,3,3,4","<img src=""img/set1/S2.jpg"" width=""540"" height = ""360"">","null","","","","","","",""
"","null","html-keyboard-response","77","86748","0.0-77.0","structured_load,structured_normal,random,structured_incentive","2,1,2,3,3,4","","null","","","","","","",""
"","null","image-keyboard-response","78","89250","0.0-78.0","structured_load,structured_normal,random,structured_incentive","2,1,2,3,3,4","img/set1/S1.jpg","null","1","structured_load","83","false","","",""
"","null","html-keyboard-response","79","89607","0.0-79.0","structured_load,structured_normal,random,structured_incentive","2,1,2,3,3,4","<img src=""img/set1/S1.jpg"" width=""540"" height = ""360"">","null","","","","","","",""
"","null","html-keyboard-response","80","89810","0.0-80.0","structured_load,structured_normal,random,structured_incentive","2,1,2,3,3,4","","null","","","","","","",""
"","null","image-keyboard-response","81","92313","0.0-81.0","structured_load,structured_normal,random,structured_incentive","2,1,2,3,3,4","img/set1/S4.jpg","null","4","structured_load","74","false","","",""
"","null","html-keyboard-response","82","92666","0.0-82.0","structured_load,structured_normal,random,structured_incentive","2,1,2,3,3,4","<img src=""img/set1/S4.jpg"" width=""540"" height = ""360"">","null","","","","","","",""
"","null","html-keyboard-response","83","92872","0.0-83.0","structured_load,structured_normal,random,structured_incentive","2,1,2,3,3,4","","null","","","","","","",""
"","null","image-keyboard-response","84","95377","0.0-84.0","structured_load,structured_normal,random,structured_incentive","2,1,2,3,3,4","img/set1/S3.jpg","null","3","structured_load","72","false","","",""
"","null","html-keyboard-response","85","95730","0.0-85.0","structured_load,structured_normal,random,structured_incentive","2,1,2,3,3,4","<img src=""img/set1/S3.jpg"" width=""540"" height = ""360"">","null","","","","","","",""
"","null","html-keyboard-response","86","95936","0.0-86.0","structured_load,structured_normal,random,structured_incentive","2,1,2,3,3,4","","null","","","","","","",""
"","null","image-keyboard-response","87","98442","0.0-87.0","structured_load,structured_normal,random,structured_incentive","2,1,2,3,3,4","img/set1/S4.jpg","null","4","structured_load","74","false","","",""
"","null","html-keyboard-response","88","98799","0.0-88.0","structured_load,structured_normal,random,structured_incentive","2,1,2,3,3,4","<img src=""img/set1/S4.jpg"" width=""540"" height = ""360"">","null","","","","","","",""
"","null","html-keyboard-response","89","99002","0.0-89.0","structured_load,structured_normal,random,structured_incentive","2,1,2,3,3,4","","null","","","","","","",""
"","null","image-keyboard-response","90","101505","0.0-90.0","structured_load,structured_normal,random,structured_incentive","2,1,2,3,3,4","img/set1/S4.jpg","null","4","structured_load","74","false","","",""
"","null","html-keyboard-response","91","101857","0.0-91.0","structured_load,structured_normal,random,structured_incentive","2,1,2,3,3,4","<img src=""img/set1/S4.jpg"" width=""540"" height = ""360"">","null","","","","","","",""
"","null","html-keyboard-response","92","102063","0.0-92.0","structured_load,structured_normal,random,structured_incentive","2,1,2,3,3,4","","null","","","","","","",""
"","null","image-keyboard-response","93","104570","0.0-93.0","structured_load,structured_normal,random,structured_incentive","2,1,2,3,3,4","img/set1/S3.jpg","null","3","structured_load","72","false","","",""
"","null","html-keyboard-response","94","104926","0.0-94.0","structured_load,structured_normal,random,structured_incentive","2,1,2,3,3,4","<img src=""img/set1/S3.jpg"" width=""540"" height = ""360"">","null","","","","","","",""
"","null","html-keyboard-response","95","105128","0.0-95.0","structured_load,structured_normal,random,structured_incentive","2,1,2,3,3,4","","null","","","","","","",""
"","null","image-keyboard-response","96","107634","0.0-96.0","structured_load,structured_normal,random,structured_incentive","2,1,2,3,3,4","img/set1/S4.jpg","null","4","structured_load","74","false","","",""
"","null","html-keyboard-response","97","107988","0.0-97.0","structured_load,structured_normal,random,structured_incentive","2,1,2,3,3,4","<img src=""img/set1/S4.jpg"" width=""540"" height = ""360"">","null","","","","","","",""
"","null","html-keyboard-response","98","108194","0.0-98.0","structured_load,structured_normal,random,structured_incentive","2,1,2,3,3,4","","null","","","","","","",""
"","null","image-keyboard-response","99","110700","0.0-99.0","structured_load,structured_normal,random,structured_incentive","2,1,2,3,3,4","img/set1/S3.jpg","null","3","structured_load","72","false","","",""
"","null","html-keyboard-response","100","111053","0.0-100.0","structured_load,structured_normal,random,structured_incentive","2,1,2,3,3,4","<img src=""img/set1/S3.jpg"" width=""540"" height = ""360"">","null","","","","","","",""
"","null","html-keyboard-response","101","111258","0.0-101.0","structured_load,structured_normal,random,structured_incentive","2,1,2,3,3,4","","null","","","","","","",""
"","null","image-keyboard-response","102","113765","0.0-102.0","structured_load,structured_normal,random,structured_incentive","2,1,2,3,3,4","img/set1/S3.jpg","null","3","structured_load","72","false","","",""
"","null","html-keyboard-response","103","114119","0.0-103.0","structured_load,structured_normal,random,structured_incentive","2,1,2,3,3,4","<img src=""img/set1/S3.jpg"" width=""540"" height = ""360"">","null","","","","","","",""
"","null","html-keyboard-response","104","114320","0.0-104.0","structured_load,structured_normal,random,structured_incentive","2,1,2,3,3,4","","null","","","","","","",""
"","null","image-keyboard-response","105","116826","0.0-105.0","structured_load,structured_normal,random,structured_incentive","2,1,2,3,3,4","img/set1/S4.jpg","null","4","structured_load","74","false","","",""
"","null","html-keyboard-response","106","117183","0.0-106.0","structured_load,structured_normal,random,structured_incentive","2,1,2,3,3,4","<img src=""img/set1/S4.jpg"" width=""540"" height = ""360"">","null","","","","","","",""
"","null","html-keyboard-response","107","117389","0.0-107.0","structured_load,structured_normal,random,structured_incentive","2,1,2,3,3,4","","null","","","","","","",""
"","null","image-keyboard-response","108","119896","0.0-108.0","structured_load,structured_normal,random,structured_incentive","2,1,2,3,3,4","img/set1/S2.jpg","null","2","structured_load","68","false","","",""
"","null","html-keyboard-response","109","120253","0.0-109.0","structured_load,structured_normal,random,structured_incentive","2,1,2,3,3,4","<img src=""img/set1/S2.jpg"" width=""540"" height = ""360"">","null","","","","","","",""
"","null","html-keyboard-response","110","120459","0.0-110.0","structured_load,structured_normal,random,structured_incentive","2,1,2,3,3,4","","null","","","","","","",""
"","null","image-keyboard-response","111","122965","0.0-111.0","structured_load,structured_normal,random,structured_incentive","2,1,2,3,3,4","img/set1/S1.jpg","null","1","structured_load","83","false","","",""
"","null","html-keyboard-response","112","123322","0.0-112.0","structured_load,structured_normal,random,structured_incentive","2,1,2,3,3,4","<img src=""img/set1/S1.jpg"" width=""540"" height = ""360"">","null","","","","","","",""
"","null","html-keyboard-response","113","123528","0.0-113.0","structured_load,structured_normal,random,structured_incentive","2,1,2,3,3,4","","null","","","","","","",""
"","null","image-keyboard-response","114","126034","0.0-114.0","structured_load,structured_normal,random,structured_incentive","2,1,2,3,3,4","img/set1/S3.jpg","null","3","structured_load","72","false","","",""
"","null","html-keyboard-response","115","126386","0.0-115.0","structured_load,structured_normal,random,structured_incentive","2,1,2,3,3,4","<img src=""img/set1/S3.jpg"" width=""540"" height = ""360"">","null","","","","","","",""
"","null","html-keyboard-response","116","126588","0.0-116.0","structured_load,structured_normal,random,structured_incentive","2,1,2,3,3,4","","null","","","","","","",""
"","null","image-keyboard-response","117","129093","0.0-117.0","structured_load,structured_normal,random,structured_incentive","2,1,2,3,3,4","img/set1/S2.jpg","null","2","structured_load","68","false","","",""
"","null","html-keyboard-response","118","129450","0.0-118.0","structured_load,structured_normal,random,structured_incentive","2,1,2,3,3,4","<img src=""img/set1/S2.jpg"" width=""540"" height = ""360"">","null","","","","","","",""
"","null","html-keyboard-response","119","129654","0.0-119.0","structured_load,structured_normal,random,structured_incentive","2,1,2,3,3,4","","null","","","","","","",""
"","null","image-keyboard-response","120","132156","0.0-120.0","structured_load,structured_normal,random,structured_incentive","2,1,2,3,3,4","img/set1/S1.jpg","null","1","structured_load","83","false","","",""
"","null","html-keyboard-response","121","132513","0.0-121.0","structured_load,structured_normal,random,structured_incentive","2,1,2,3,3,4","<img src=""img/set1/S1.jpg"" width=""540"" height = ""360"">","null","","","","","","",""
"","null","html-keyboard-response","122","132714","0.0-122.0","structured_load,structured_normal,random,structured_incentive","2,1,2,3,3,4","","null","","","","","","",""
"","null","image-keyboard-response","123","135220","0.0-123.0","structured_load,structured_normal,random,structured_incentive","2,1,2,3,3,4","img/set1/S4.jpg","null","4","structured_load","74","false","","",""
"","null","html-keyboard-response","124","135575","0.0-124.0","structured_load,structured_normal,random,structured_incentive","2,1,2,3,3,4","<img src=""img/set1/S4.jpg"" width=""540"" height = ""360"">","null","","","","","","",""
"","null","html-keyboard-response","125","135781","0.0-125.0","structured_load,structured_normal,random,structured_incentive","2,1,2,3,3,4","","null","","","","","","",""
"","null","image-keyboard-response","126","138282","0.0-126.0","structured_load,structured_normal,random,structured_incentive","2,1,2,3,3,4","img/set1/S4.jpg","null","4","structured_load","74","false","","",""
"","null","html-keyboard-response","127","138635","0.0-127.0","structured_load,structured_normal,random,structured_incentive","2,1,2,3,3,4","<img src=""img/set1/S4.jpg"" width=""540"" height = ""360"">","null","","","","","","",""
"","null","html-keyboard-response","128","138838","0.0-128.0","structured_load,structured_normal,random,structured_incentive","2,1,2,3,3,4","","null","","","","","","",""
"","null","image-keyboard-response","129","141342","0.0-129.0","structured_load,structured_normal,random,structured_incentive","2,1,2,3,3,4","img/set1/S2.jpg","null","2","structured_load","68","false","","",""
"","null","html-keyboard-response","130","141698","0.0-130.0","structured_load,structured_normal,random,structured_incentive","2,1,2,3,3,4","<img src=""img/set1/S2.jpg"" width=""540"" height = ""360"">","null","","","","","","",""
"","null","html-keyboard-response","131","141904","0.0-131.0","structured_load,structured_normal,random,structured_incentive","2,1,2,3,3,4","","null","","","","","","",""
"","null","image-keyboard-response","132","144406","0.0-132.0","structured_load,structured_normal,random,structured_incentive","2,1,2,3,3,4","img/set1/S1.jpg","null","1","structured_load","83","false","","",""
"","null","html-keyboard-response","133","144762","0.0-133.0","structured_load,structured_normal,random,structured_incentive","2,1,2,3,3,4","<img src=""img/set1/S1.jpg"" width=""540"" height = ""360"">","null","","","","","","",""
"","null","html-keyboard-response","134","144968","0.0-134.0","structured_load,structured_normal,random,structured_incentive","2,1,2,3,3,4","","null","","","","","","",""
"","null","image-keyboard-response","135","147475","0.0-135.0","structured_load,structured_normal,random,structured_incentive","2,1,2,3,3,4","img/set1/S2.jpg","null","2","structured_load","68","false","","",""
"","null","html-keyboard-response","136","147832","0.0-136.0","structured_load,structured_normal,random,structured_incentive","2,1,2,3,3,4","<img src=""img/set1/S2.jpg"" width=""540"" height = ""360"">","null","","","","","","",""
"","null","html-keyboard-response","137","148038","0.0-137.0","structured_load,structured_normal,random,structured_incentive","2,1,2,3,3,4","","null","","","","","","",""
"","null","image-keyboard-response","138","150544","0.0-138.0","structured_load,structured_normal,random,structured_incentive","2,1,2,3,3,4","img/set1/S1.jpg","null","1","structured_load","83","false","","",""
"","null","html-keyboard-response","139","150898","0.0-139.0","structured_load,structured_normal,random,structured_incentive","2,1,2,3,3,4","<img src=""img/set1/S1.jpg"" width=""540"" height = ""360"">","null","","","","","","",""
"","null","html-keyboard-response","140","151102","0.0-140.0","structured_load,structured_normal,random,structured_incentive","2,1,2,3,3,4","","null","","","","","","",""
"","null","image-keyboard-response","141","153606","0.0-141.0","structured_load,structured_normal,random,structured_incentive","2,1,2,3,3,4","img/set1/S4.jpg","null","4","structured_load","74","false","","",""
"","null","html-keyboard-response","142","153963","0.0-142.0","structured_load,structured_normal,random,structured_incentive","2,1,2,3,3,4","<img src=""img/set1/S4.jpg"" width=""540"" height = ""360"">","null","","","","","","",""
"","null","html-keyboard-response","143","154164","0.0-143.0","structured_load,structured_normal,random,structured_incentive","2,1,2,3,3,4","","null","","","","","","",""
"","null","image-keyboard-response","144","156671","0.0-144.0","structured_load,structured_normal,random,structured_incentive","2,1,2,3,3,4","img/set1/S4.jpg","null","4","structured_load","74","false","","",""
"","null","html-keyboard-response","145","157028","0.0-145.0","structured_load,structured_normal,random,structured_incentive","2,1,2,3,3,4","<img src=""img/set1/S4.jpg"" width=""540"" height = ""360"">","null","","","","","","",""
"","null","html-keyboard-response","146","157229","0.0-146.0","structured_load,structured_normal,random,structured_incentive","2,1,2,3,3,4","","null","","","","","","",""
"","null","image-keyboard-response","147","159734","0.0-147.0","structured_load,structured_normal,random,structured_incentive","2,1,2,3,3,4","img/set1/S2.jpg","null","2","structured_load","68","false","","",""
"","null","html-keyboard-response","148","160090","0.0-148.0","structured_load,structured_normal,random,structured_incentive","2,1,2,3,3,4","<img src=""img/set1/S2.jpg"" width=""540"" height = ""360"">","null","","","","","","",""
"","null","html-keyboard-response","149","160293","0.0-149.0","structured_load,structured_normal,random,structured_incentive","2,1,2,3,3,4","","null","","","","","","",""
"","null","image-keyboard-response","150","162800","0.0-150.0","structured_load,structured_normal,random,structured_incentive","2,1,2,3,3,4","img/set1/S1.jpg","null","1","structured_load","83","false","","",""
"","null","html-keyboard-response","151","163156","0.0-151.0","structured_load,structured_normal,random,structured_incentive","2,1,2,3,3,4","<img src=""img/set1/S1.jpg"" width=""540"" height = ""360"">","null","","","","","","",""
"","null","html-keyboard-response","152","163362","0.0-152.0","structured_load,structured_normal,random,structured_incentive","2,1,2,3,3,4","","null","","","","","","",""
"","null","image-keyboard-response","153","165869","0.0-153.0","structured_load,structured_normal,random,structured_incentive","2,1,2,3,3,4","img/set1/S4.jpg","null","4","structured_load","74","false","","",""
"","null","html-keyboard-response","154","166227","0.0-154.0","structured_load,structured_normal,random,structured_incentive","2,1,2,3,3,4","<img src=""img/set1/S4.jpg"" width=""540"" height = ""360"">","null","","","","","","",""
"","null","html-keyboard-response","155","166428","0.0-155.0","structured_load,structured_normal,random,structured_incentive","2,1,2,3,3,4","","null","","","","","","",""
"","null","image-keyboard-response","156","168935","0.0-156.0","structured_load,structured_normal,random,structured_incentive","2,1,2,3,3,4","img/set1/S4.jpg","null","4","structured_load","74","false","","",""
"","null","html-keyboard-response","157","169290","0.0-157.0","structured_load,structured_normal,random,structured_incentive","2,1,2,3,3,4","<img src=""img/set1/S4.jpg"" width=""540"" height = ""360"">","null","","","","","","",""
"","null","html-keyboard-response","158","169496","0.0-158.0","structured_load,structured_normal,random,structured_incentive","2,1,2,3,3,4","","null","","","","","","",""
"","null","image-keyboard-response","159","172002","0.0-159.0","structured_load,structured_normal,random,structured_incentive","2,1,2,3,3,4","img/set1/S3.jpg","null","3","structured_load","72","false","","",""
"","null","html-keyboard-response","160","172359","0.0-160.0","structured_load,structured_normal,random,structured_incentive","2,1,2,3,3,4","<img src=""img/set1/S3.jpg"" width=""540"" height = ""360"">","null","","","","","","",""
"","null","html-keyboard-response","161","172562","0.0-161.0","structured_load,structured_normal,random,structured_incentive","2,1,2,3,3,4","","null","","","","","","",""
"","null","image-keyboard-response","162","175069","0.0-162.0","structured_load,structured_normal,random,structured_incentive","2,1,2,3,3,4","img/set1/S2.jpg","null","2","structured_load","68","false","","",""
"","null","html-keyboard-response","163","175426","0.0-163.0","structured_load,structured_normal,random,structured_incentive","2,1,2,3,3,4","<img src=""img/set1/S2.jpg"" width=""540"" height = ""360"">","null","","","","","","",""
"","null","html-keyboard-response","164","175632","0.0-164.0","structured_load,structured_normal,random,structured_incentive","2,1,2,3,3,4","","null","","","","","","",""
"","null","image-keyboard-response","165","178133","0.0-165.0","structured_load,structured_normal,random,structured_incentive","2,1,2,3,3,4","img/set1/S1.jpg","null","1","structured_load","83","false","","",""
"","null","html-keyboard-response","166","178487","0.0-166.0","structured_load,structured_normal,random,structured_incentive","2,1,2,3,3,4","<img src=""img/set1/S1.jpg"" width=""540"" height = ""360"">","null","","","","","","",""
"","null","html-keyboard-response","167","178693","0.0-167.0","structured_load,structured_normal,random,structured_incentive","2,1,2,3,3,4","","null","","","","","","",""
"","null","image-keyboard-response","168","181199","0.0-168.0","structured_load,structured_normal,random,structured_incentive","2,1,2,3,3,4","img/set1/S2.jpg","null","2","structured_load","68","false","","",""
"","null","html-keyboard-response","169","181556","0.0-169.0","structured_load,structured_normal,random,structured_incentive","2,1,2,3,3,4","<img src=""img/set1/S2.jpg"" width=""540"" height = ""360"">","null","","","","","","",""
"","null","html-keyboard-response","170","181762","0.0-170.0","structured_load,structured_normal,random,structured_incentive","2,1,2,3,3,4","","null","","","","","","",""
"","null","image-keyboard-response","171","184267","0.0-171.0","structured_load,structured_normal,random,structured_incentive","2,1,2,3,3,4","img/set1/S1.jpg","null","1","structured_load","83","false","","",""
"","null","html-keyboard-response","172","184624","0.0-172.0","structured_load,structured_normal,random,structured_incentive","2,1,2,3,3,4","<img src=""img/set1/S1.jpg"" width=""540"" height = ""360"">","null","","","","","","",""
"","null","html-keyboard-response","173","184826","0.0-173.0","structured_load,structured_normal,random,structured_incentive","2,1,2,3,3,4","","null","","","","","","",""
"","null","image-keyboard-response","174","187333","0.0-174.0","structured_load,structured_normal,random,structured_incentive","2,1,2,3,3,4","img/set1/S3.jpg","null","3","structured_load","72","false","","",""
"","null","html-keyboard-response","175","187687","0.0-175.0","structured_load,structured_normal,random,structured_incentive","2,1,2,3,3,4","<img src=""img/set1/S3.jpg"" width=""540"" height = ""360"">","null","","","","","","",""
"","null","html-keyboard-response","176","187893","0.0-176.0","structured_load,structured_normal,random,structured_incentive","2,1,2,3,3,4","","null","","","","","","",""
"","null","image-keyboard-response","177","190395","0.0-177.0","structured_load,structured_normal,random,structured_incentive","2,1,2,3,3,4","img/set1/S4.jpg","null","4","structured_load","74","false","","",""
"","null","html-keyboard-response","178","190748","0.0-178.0","structured_load,structured_normal,random,structured_incentive","2,1,2,3,3,4","<img src=""img/set1/S4.jpg"" width=""540"" height = ""360"">","null","","","","","","",""
"","null","html-keyboard-response","179","190954","0.0-179.0","structured_load,structured_normal,random,structured_incentive","2,1,2,3,3,4","","null","","","","","","",""
"","null","image-keyboard-response","180","193461","0.0-180.0","structured_load,structured_normal,random,structured_incentive","2,1,2,3,3,4","img/set1/S2.jpg","null","2","structured_load","68","false","","",""
"","null","html-keyboard-response","181","193818","0.0-181.0","structured_load,structured_normal,random,structured_incentive","2,1,2,3,3,4","<img src=""img/set1/S2.jpg"" width=""540"" height = ""360"">","null","","","","","","",""
"","null","html-keyboard-response","182","194019","0.0-182.0","structured_load,structured_normal,random,structured_incentive","2,1,2,3,3,4","","null","","","","","","",""
"","null","image-keyboard-response","183","196526","0.0-183.0","structured_load,structured_normal,random,structured_incentive","2,1,2,3,3,4","img/set1/S1.jpg","null","1","structured_load","83","false","","",""
"","null","html-keyboard-response","184","196880","0.0-184.0","structured_load,structured_normal,random,structured_incentive","2,1,2,3,3,4","<img src=""img/set1/S1.jpg"" width=""540"" height = ""360"">","null","","","","","","",""
"","null","html-keyboard-response","185","197086","0.0-185.0","structured_load,structured_normal,random,structured_incentive","2,1,2,3,3,4","","null","","","","","","",""
"","null","image-keyboard-response","186","199592","0.0-186.0","structured_load,structured_normal,random,structured_incentive","2,1,2,3,3,4","img/set1/S4.jpg","null","4","structured_load","74","false","","",""
"","null","html-keyboard-response","187","199945","0.0-187.0","structured_load,structured_normal,random,structured_incentive","2,1,2,3,3,4","<img src=""img/set1/S4.jpg"" width=""540"" height = ""360"">","null","","","","","","",""
"","null","html-keyboard-response","188","200149","0.0-188.0","structured_load,structured_normal,random,structured_incentive","2,1,2,3,3,4","","null","","","","","","",""
"","null","image-keyboard-response","189","202653","0.0-189.0","structured_load,structured_normal,random,structured_incentive","2,1,2,3,3,4","img/set1/S2.jpg","null","2","structured_load","68","false","","",""
"","null","html-keyboard-response","190","203010","0.0-190.0","structured_load,structured_normal,random,structured_incentive","2,1,2,3,3,4","<img src=""img/set1/S2.jpg"" width=""540"" height = ""360"">","null","","","","","","",""
"","null","html-keyboard-response","191","203216","0.0-191.0","structured_load,structured_normal,random,structured_incentive","2,1,2,3,3,4","","null","","","","","","",""
"","null","image-keyboard-response","192","205722","0.0-192.0","structured_load,structured_normal,random,structured_incentive","2,1,2,3,3,4","img/set1/S1.jpg","null","1","structured_load","83","false","","",""
"","null","html-keyboard-response","193","206078","0.0-193.0","structured_load,structured_normal,random,structured_incentive","2,1,2,3,3,4","<img src=""img/set1/S1.jpg"" width=""540"" height = ""360"">","null","","","","","","",""
"","null","html-keyboard-response","194","206284","0.0-194.0","structured_load,structured_normal,random,structured_incentive","2,1,2,3,3,4","","null","","","","","","",""
"","null","image-keyboard-response","195","208789","0.0-195.0","structured_load,structured_normal,random,structured_incentive","2,1,2,3,3,4","img/set1/S4.jpg","null","4","structured_load","74","false","","",""
"","null","html-keyboard-response","196","209146","0.0-196.0","structured_load,structured_normal,random,structured_incentive","2,1,2,3,3,4","<img src=""img/set1/S4.jpg"" width=""540"" height = ""360"">","null","","","","","","",""
"","null","html-keyboard-response","197","209352","0.0-197.0","structured_load,structured_normal,random,structured_incentive","2,1,2,3,3,4","","null","","","","","","",""
"","null","image-keyboard-response","198","211858","0.0-198.0","structured_load,structured_normal,random,structured_incentive","2,1,2,3,3,4","img/set1/S4.jpg","null","4","structured_load","74","false","","",""
"","null","html-keyboard-response","199","212210","0.0-199.0","structured_load,structured_normal,random,structured_incentive","2,1,2,3,3,4","<img src=""img/set1/S4.jpg"" width=""540"" height = ""360"">","null","","","","","","",""
"","null","html-keyboard-response","200","212416","0.0-200.0","structured_load,structured_normal,random,structured_incentive","2,1,2,3,3,4","","null","","","","","","",""
"","null","image-keyboard-response","201","214920","0.0-201.0","structured_load,structured_normal,random,structured_incentive","2,1,2,3,3,4","img/set1/S3.jpg","null","3","structured_load","72","false","","",""
"","null","html-keyboard-response","202","215271","0.0-202.0","structured_load,structured_normal,random,structured_incentive","2,1,2,3,3,4","<img src=""img/set1/S3.jpg"" width=""540"" height = ""360"">","null","","","","","","",""
"","null","html-keyboard-response","203","215477","0.0-203.0","structured_load,structured_normal,random,structured_incentive","2,1,2,3,3,4","","null","","","","","","",""
"","null","image-keyboard-response","204","217983","0.0-204.0","structured_load,structured_normal,random,structured_incentive","2,1,2,3,3,4","img/set1/S4.jpg","null","4","structured_load","74","false","","",""
"","null","html-keyboard-response","205","218335","0.0-205.0","structured_load,structured_normal,random,structured_incentive","2,1,2,3,3,4","<img src=""img/set1/S4.jpg"" width=""540"" height = ""360"">","null","","","","","","",""
"","null","html-keyboard-response","206","218538","0.0-206.0","structured_load,structured_normal,random,structured_incentive","2,1,2,3,3,4","","null","","","","","","",""
"","null","image-keyboard-response","207","221045","0.0-207.0","structured_load,structured_normal,random,structured_incentive","2,1,2,3,3,4","img/set1/S3.jpg","null","3","structured_load","72","false","","",""
"","null","html-keyboard-response","208","221402","0.0-208.0","structured_load,structured_normal,random,structured_incentive","2,1,2,3,3,4","<img src=""img/set1/S3.jpg"" width=""540"" height = ""360"">","null","","","","","","",""
"","null","html-keyboard-response","209","221608","0.0-209.0","structured_load,structured_normal,random,structured_incentive","2,1,2,3,3,4","","null","","","","","","",""
"","null","image-keyboard-response","210","224109","0.0-210.0","structured_load,structured_normal,random,structured_incentive","2,1,2,3,3,4","img/set1/S3.jpg","null","3","structured_load","72","false","","",""
"","null","html-keyboard-response","211","224462","0.0-211.0","structured_load,structured_normal,random,structured_incentive","2,1,2,3,3,4","<img src=""img/set1/S3.jpg"" width=""540"" height = ""360"">","null","","","","","","",""
"","null","html-keyboard-response","212","224668","0.0-212.0","structured_load,structured_normal,random,structured_incentive","2,1,2,3,3,4","","null","","","","","","",""
"","null","image-keyboard-response","213","227170","0.0-213.0","structured_load,structured_normal,random,structured_incentive","2,1,2,3,3,4","img/set1/S3.jpg","null","3","structured_load","72","false","","",""
"","null","html-keyboard-response","214","227527","0.0-214.0","structured_load,structured_normal,random,structured_incentive","2,1,2,3,3,4","<img src=""img/set1/S3.jpg"" width=""540"" height = ""360"">","null","","","","","","",""
"","null","html-keyboard-response","215","227729","0.0-215.0","structured_load,structured_normal,random,structured_incentive","2,1,2,3,3,4","","null","","","","","","",""
"","null","image-keyboard-response","216","230235","0.0-216.0","structured_load,structured_normal,random,structured_incentive","2,1,2,3,3,4","img/set1/S2.jpg","null","2","structured_load","68","false","","",""
"","null","html-keyboard-response","217","230592","0.0-217.0","structured_load,structured_normal,random,structured_incentive","2,1,2,3,3,4","<img src=""img/set1/S2.jpg"" width=""540"" height = ""360"">","null","","","","","","",""
"","null","html-keyboard-response","218","230797","0.0-218.0","structured_load,structured_normal,random,structured_incentive","2,1,2,3,3,4","","null","","","","","","",""
"","null","image-keyboard-response","219","233299","0.0-219.0","structured_load,structured_normal,random,structured_incentive","2,1,2,3,3,4","img/set1/S1.jpg","null","1","structured_load","83","false","","",""
"","null","html-keyboard-response","220","233651","0.0-220.0","structured_load,structured_normal,random,structured_incentive","2,1,2,3,3,4","<img src=""img/set1/S1.jpg"" width=""540"" height = ""360"">","null","","","","","","",""
"","null","html-keyboard-response","221","233857","0.0-221.0","structured_load,structured_normal,random,structured_incentive","2,1,2,3,3,4","","null","","","","","","",""
"","null","image-keyboard-response","222","236363","0.0-222.0","structured_load,structured_normal,random,structured_incentive","2,1,2,3,3,4","img/set1/S2.jpg","null","2","structured_load","68","false","","",""
"","null","html-keyboard-response","223","236720","0.0-223.0","structured_load,structured_normal,random,structured_incentive","2,1,2,3,3,4","<img src=""img/set1/S2.jpg"" width=""540"" height = ""360"">","null","","","","","","",""
"","null","html-keyboard-response","224","236922","0.0-224.0","structured_load,structured_normal,random,structured_incentive","2,1,2,3,3,4","","null","","","","","","",""
"","null","image-keyboard-response","225","239429","0.0-225.0","structured_load,structured_normal,random,structured_incentive","2,1,2,3,3,4","img/set1/S1.jpg","null","1","structured_load","83","false","","",""
"","null","html-keyboard-response","226","239781","0.0-226.0","structured_load,structured_normal,random,structured_incentive","2,1,2,3,3,4","<img src=""img/set1/S1.jpg"" width=""540"" height = ""360"">","null","","","","","","",""
"","null","html-keyboard-response","227","239987","0.0-227.0","structured_load,structured_normal,random,structured_incentive","2,1,2,3,3,4","","null","","","","","","",""
"","null","image-keyboard-response","228","242491","0.0-228.0","structured_load,structured_normal,random,structured_incentive","2,1,2,3,3,4","img/set1/S4.jpg","null","4","structured_load","74","false","","",""
"","null","html-keyboard-response","229","242847","0.0-229.0","structured_load,structured_normal,random,structured_incentive","2,1,2,3,3,4","<img src=""img/set1/S4.jpg"" width=""540"" height = ""360"">","null","","","","","","",""
"","null","html-keyboard-response","230","243054","0.0-230.0","structured_load,structured_normal,random,structured_incentive","2,1,2,3,3,4","","null","","","","","","",""
"","null","image-keyboard-response","231","245560","0.0-231.0","structured_load,structured_normal,random,structured_incentive","2,1,2,3,3,4","img/set1/S4.jpg","null","4","structured_load","74","false","","",""
"","null","html-keyboard-response","232","245916","0.0-232.0","structured_load,structured_normal,random,structured_incentive","2,1,2,3,3,4","<img src=""img/set1/S4.jpg"" width=""540"" height = ""360"">","null","","","","","","",""
"","null","html-keyboard-response","233","246118","0.0-233.0","structured_load,structured_normal,random,structured_incentive","2,1,2,3,3,4","","null","","","","","","",""
"","null","image-keyboard-response","234","248622","0.0-234.0","structured_load,structured_normal,random,structured_incentive","2,1,2,3,3,4","img/set1/S4.jpg","null","4","structured_load","74","false","","",""
"","null","html-keyboard-response","235","248976","0.0-235.0","structured_load,structured_normal,random,structured_incentive","2,1,2,3,3,4","<img src=""img/set1/S4.jpg"" width=""540"" height = ""360"">","null","","","","","","",""
"","null","html-keyboard-response","236","249182","0.0-236.0","structured_load,structured_normal,random,structured_incentive","2,1,2,3,3,4","","null","","","","","","",""
"","null","image-keyboard-response","237","251688","0.0-237.0","structured_load,structured_normal,random,structured_incentive","2,1,2,3,3,4","img/set1/S2.jpg","null","2","structured_load","68","false","","",""
"","null","html-keyboard-response","238","252043","0.0-238.0","structured_load,structured_normal,random,structured_incentive","2,1,2,3,3,4","<img src=""img/set1/S2.jpg"" width=""540"" height = ""360"">","null","","","","","","",""
"","null","html-keyboard-response","239","252249","0.0-239.0","structured_load,structured_normal,random,structured_incentive","2,1,2,3,3,4","","null","","","","","","",""
"","null","image-keyboard-response","240","254755","0.0-240.0","structured_load,structured_normal,random,structured_incentive","2,1,2,3,3,4","img/set1/S1.jpg","null","1","structured_load","83","false","","",""
"","null","html-keyboard-response","241","255107","0.0-241.0","structured_load,structured_normal,random,structured_incentive","2,1,2,3,3,4","<img src=""img/set1/S1.jpg"" width=""540"" height = ""360"">","null","","","","","","",""
"","null","html-keyboard-response","242","255313","0.0-242.0","structured_load,structured_normal,random,structured_incentive","2,1,2,3,3,4","","null","","","","","","",""
"","null","image-keyboard-response","243","257815","0.0-243.0","structured_load,structured_normal,random,structured_incentive","2,1,2,3,3,4","img/set1/S3.jpg","null","3","structured_load","72","false","","",""
"","null","html-keyboard-response","244","258172","0.0-244.0","structured_load,structured_normal,random,structured_incentive","2,1,2,3,3,4","<img src=""img/set1/S3.jpg"" width=""540"" height = ""360"">","null","","","","","","",""
"","null","html-keyboard-response","245","258378","0.0-245.0","structured_load,structured_normal,random,structured_incentive","2,1,2,3,3,4","","null","","","","","","",""
"","null","image-keyboard-response","246","260879","0.0-246.0","structured_load,structured_normal,random,structured_incentive","2,1,2,3,3,4","img/set1/S2.jpg","null","2","structured_load","68","false","","",""
"","null","html-keyboard-response","247","261231","0.0-247.0","structured_load,structured_normal,random,structured_incentive","2,1,2,3,3,4","<img src=""img/set1/S2.jpg"" width=""540"" height = ""360"">","null","","","","","","",""
"","null","html-keyboard-response","248","261437","0.0-248.0","structured_load,structured_normal,random,structured_incentive","2,1,2,3,3,4","","null","","","","","","",""
"","null","image-keyboard-response","249","263944","0.0-249.0","structured_load,structured_normal,random,structured_incentive","2,1,2,3,3,4","img/set1/S1.jpg","null","1","structured_load","83","false","","",""
"","null","html-keyboard-response","250","264299","0.0-250.0","structured_load,structured_normal,random,structured_incentive","2,1,2,3,3,4","<img src=""img/set1/S1.jpg"" width=""540"" height = ""360"">","null","","","","","","",""
"","null","html-keyboard-response","251","264505","0.0-251.0","structured_load,structured_normal,random,structured_incentive","2,1,2,3,3,4","","null","","","","","","",""
"","null","image-keyboard-response","252","267009","0.0-252.0","structured_load,structured_normal,random,structured_incentive","2,1,2,3,3,4","img/set1/S4.jpg","null","4","structured_load","74","false","","",""
"","null","html-keyboard-response","253","267365","0.0-253.0","structured_load,structured_normal,random,structured_incentive","2,1,2,3,3,4","<img src=""img/set1/S4.jpg"" width=""540"" height = ""360"">","null","","","","","","",""
"","null","html-keyboard-response","254","267571","0.0-254.0","structured_load,structured_normal,random,structured_incentive","2,1,2,3,3,4","","null","","","","","","",""
"","null","image-keyboard-response","255","270077","0.0-255.0","structured_load,structured_normal,random,structured_incentive","2,1,2,3,3,4","img/set1/S2.jpg","null","2","structured_load","68","false","","",""
"","null","html-keyboard-response","256","270429","0.0-256.0","structured_load,structured_normal,random,structured_incentive","2,1,2,3,3,4","<img src=""img/set1/S2.jpg"" width=""540"" height = ""360"">","null","","","","","","",""
"","null","html-keyboard-response","257","270633","0.0-257.0","structured_load,structured_normal,random,structured_incentive","2,1,2,3,3,4","","null","","","","","","",""
"","null","image-keyboard-response","258","273137","0.0-258.0","structured_load,structured_normal,random,structured_incentive","2,1,2,3,3,4","img/set1/S1.jpg","null","1","structured_load","83","false","","",""
"","null","html-keyboard-response","259","273494","0.0-259.0","structured_load,structured_normal,random,structured_incentive","2,1,2,3,3,4","<img src=""img/set1/S1.jpg"" width=""540"" height = ""360"">","null","","","","","","",""
"","null","html-keyboard-response","260","273700","0.0-260.0","structured_load,structured_normal,random,structured_incentive","2,1,2,3,3,4","","null","","","","","","",""
"","null","image-keyboard-response","261","276203","0.0-261.0","structured_load,structured_normal,random,structured_incentive","2,1,2,3,3,4","img/set1/S2.jpg","null","2","structured_load","68","false","","",""
"","null","html-keyboard-response","262","276560","0.0-262.0","structured_load,structured_normal,random,structured_incentive","2,1,2,3,3,4","<img src=""img/set1/S2.jpg"" width=""540"" height = ""360"">","null","","","","","","",""
"","null","html-keyboard-response","263","276766","0.0-263.0","structured_load,structured_normal,random,structured_incentive","2,1,2,3,3,4","","null","","","","","","",""
"","null","image-keyboard-response","264","279272","0.0-264.0","structured_load,structured_normal,random,structured_incentive","2,1,2,3,3,4","img/set1/S1.jpg","null","1","structured_load","83","false","","",""
"","null","html-keyboard-response","265","279629","0.0-265.0","structured_load,structured_normal,random,structured_incentive","2,1,2,3,3,4","<img src=""img/set1/S1.jpg"" width=""540"" height = ""360"">","null","","","","","","",""
"","null","html-keyboard-response","266","279834","0.0-266.0","structured_load,structured_normal,random,structured_incentive","2,1,2,3,3,4","","null","","","","","","",""
"","null","image-keyboard-response","267","282339","0.0-267.0","structured_load,structured_normal,random,structured_incentive","2,1,2,3,3,4","img/set1/S4.jpg","null","4","structured_load","74","false","","",""
"","null","html-keyboard-response","268","282696","0.0-268.0","structured_load,structured_normal,random,structured_incentive","2,1,2,3,3,4","<img src=""img/set1/S4.jpg"" width=""540"" height = ""360"">","null","","","","","","",""
"","null","html-keyboard-response","269","282899","0.0-269.0","structured_load,structured_normal,random,structured_incentive","2,1,2,3,3,4","","null","","","","","","",""
"","null","image-keyboard-response","270","285405","0.0-270.0","structured_load,structured_normal,random,structured_incentive","2,1,2,3,3,4","img/set1/S3.jpg","null","3","structured_load","72","false","","",""
"","null","html-keyboard-response","271","285762","0.0-271.0","structured_load,structured_normal,random,structured_incentive","2,1,2,3,3,4","<img src=""img/set1/S3.jpg"" width=""540"" height = ""360"">","null","","","","","","",""
"","null","html-keyboard-response","272","285968","0.0-272.0","structured_load,structured_normal,random,structured_incentive","2,1,2,3,3,4","","null","","","","","","",""
"","null","image-keyboard-response","273","288474","0.0-273.0","structured_load,structured_normal,random,structured_incentive","2,1,2,3,3,4","img/set1/S2.jpg","null","2","structured_load","68","false","","",""
"","null","html-keyboard-response","274","288827","0.0-274.0","structured_load,structured_normal,random,structured_incentive","2,1,2,3,3,4","<img src=""img/set1/S2.jpg"" width=""540"" height = ""360"">","null","","","","","","",""
"","null","html-keyboard-response","275","289033","0.0-275.0","structured_load,structured_normal,random,structured_incentive","2,1,2,3,3,4","","null","","","","","","",""
"","null","image-keyboard-response","276","291537","0.0-276.0","structured_load,structured_normal,random,structured_incentive","2,1,2,3,3,4","img/set1/S1.jpg","null","1","structured_load","83","false","","",""
"","null","html-keyboard-response","277","291891","0.0-277.0","structured_load,structured_normal,random,structured_incentive","2,1,2,3,3,4","<img src=""img/set1/S1.jpg"" width=""540"" height = ""360"">","null","","","","","","",""
"","null","html-keyboard-response","278","292097","0.0-278.0","structured_load,structured_normal,random,structured_incentive","2,1,2,3,3,4","","null","","","","","","",""
"","null","image-keyboard-response","279","294603","0.0-279.0","structured_load,structured_normal,random,structured_incentive","2,1,2,3,3,4","img/set1/S3.jpg","null","3","structured_load","72","false","","",""
"","null","html-keyboard-response","280","294959","0.0-280.0","structured_load,structured_normal,random,structured_incentive","2,1,2,3,3,4","<img src=""img/set1/S3.jpg"" width=""540"" height = ""360"">","null","","","","","","",""
"","null","html-keyboard-response","281","295165","0.0-281.0","structured_load,structured_normal,random,structured_incentive","2,1,2,3,3,4","","null","","","","","","",""
"","null","image-keyboard-response","282","297672","0.0-282.0","structured_load,structured_normal,random,structured_incentive","2,1,2,3,3,4","img/set1/S2.jpg","null","2","structured_load","68","false","","",""
"","null","html-keyboard-response","283","298025","0.0-283.0","structured_load,structured_normal,random,structured_incentive","2,1,2,3,3,4","<img src=""img/set1/S2.jpg"" width=""540"" height = ""360"">","null","","","","","","",""
"","null","html-keyboard-response","284","298227","0.0-284.0","structured_load,structured_normal,random,structured_incentive","2,1,2,3,3,4","","null","","","","","","",""
"","null","image-keyboard-response","285","300730","0.0-285.0","structured_load,structured_normal,random,structured_incentive","2,1,2,3,3,4","img/set1/S1.jpg","null","1","structured_load","83","false","","",""
"","null","html-keyboard-response","286","301083","0.0-286.0","structured_load,structured_normal,random,structured_incentive","2,1,2,3,3,4","<img src=""img/set1/S1.jpg"" width=""540"" height = ""360"">","null","","","","","","",""
"","null","html-keyboard-response","287","301283","0.0-287.0","structured_load,structured_normal,random,structured_incentive","2,1,2,3,3,4","","null","","","","","","",""
"","null","image-keyboard-response","288","303786","0.0-288.0","structured_load,structured_normal,random,structured_incentive","2,1,2,3,3,4","img/set1/S3.jpg","null","3","structured_load","72","false","","",""
"","null","html-keyboard-response","289","304138","0.0-289.0","structured_load,structured_normal,random,structured_incentive","2,1,2,3,3,4","<img src=""img/set1/S3.jpg"" width=""540"" height = ""360"">","null","","","","","","",""
"","null","html-keyboard-response","290","304344","0.0-290.0","structured_load,structured_normal,random,structured_incentive","2,1,2,3,3,4","","null","","","","","","",""
"","null","image-keyboard-response","291","306851","0.0-291.0","structured_load,structured_normal,random,structured_incentive","2,1,2,3,3,4","img/set1/S2.jpg","null","2","structured_load","68","false","","",""
"","null","html-keyboard-response","292","307208","0.0-292.0","structured_load,structured_normal,random,structured_incentive","2,1,2,3,3,4","<img src=""img/set1/S2.jpg"" width=""540"" height = ""360"">","null","","","","","","",""
"","null","html-keyboard-response","293","307412","0.0-293.0","structured_load,structured_normal,random,structured_incentive","2,1,2,3,3,4","","null","","","","","","",""
"","null","image-keyboard-response","294","309915","0.0-294.0","structured_load,structured_normal,random,structured_incentive","2,1,2,3,3,4","img/set1/S1.jpg","null","1","structured_load","83","false","","",""
"","null","html-keyboard-response","295","310271","0.0-295.0","structured_load,structured_normal,random,structured_incentive","2,1,2,3,3,4","<img src=""img/set1/S1.jpg"" width=""540"" height = ""360"">","null","","","","","","",""
"","null","html-keyboard-response","296","310478","0.0-296.0","structured_load,structured_normal,random,structured_incentive","2,1,2,3,3,4","","null","","","","","","",""
"","null","image-keyboard-response","297","312986","0.0-297.0","structured_load,structured_normal,random,structured_incentive","2,1,2,3,3,4","img/set1/S4.jpg","null","4","structured_load","74","false","","",""
"","null","html-keyboard-response","298","313342","0.0-298.0","structured_load,structured_normal,random,structured_incentive","2,1,2,3,3,4","<img src=""img/set1/S4.jpg"" width=""540"" height = ""360"">","null","","","","","","",""
"","null","html-keyboard-response","299","313553","0.0-299.0","structured_load,structured_normal,random,structured_incentive","2,1,2,3,3,4","","null","","","","","","",""
"","null","image-keyboard-response","300","316807","0.0-300.0","structured_load,structured_normal,random,structured_incentive","2,1,2,3,3,4","img/set1/S2.jpg","null","2","structured_load","68","false","","",""
"","null","html-keyboard-response","301","317835","0.0-301.0","structured_load,structured_normal,random,structured_incentive","2,1,2,3,3,4","<img src=""img/set1/S2.jpg"" width=""540"" height = ""360"">","null","","","","","","",""
"","null","html-keyboard-response","302","318837","0.0-302.0","structured_load,structured_normal,random,structured_incentive","2,1,2,3,3,4","","null","","","","","","",""
"","null","image-keyboard-response","303","322759","0.0-303.0","structured_load,structured_normal,random,structured_incentive","2,1,2,3,3,4","img/set1/S1.jpg","null","1","structured_load","83","false","","",""
"","null","html-keyboard-response","304","323731","0.0-304.0","structured_load,structured_normal,random,structured_incentive","2,1,2,3,3,4","<img src=""img/set1/S1.jpg"" width=""540"" height = ""360"">","null","","","","","","",""
"","null","html-keyboard-response","305","324669","0.0-305.0","structured_load,structured_normal,random,structured_incentive","2,1,2,3,3,4","","null","","","","","","",""
"","null","image-keyboard-response","306","328793","0.0-306.0","structured_load,structured_normal,random,structured_incentive","2,1,2,3,3,4","img/set1/S2.jpg","null","2","structured_load","68","false","","",""
"","null","html-keyboard-response","307","329730","0.0-307.0","structured_load,structured_normal,random,structured_incentive","2,1,2,3,3,4","<img src=""img/set1/S2.jpg"" width=""540"" height = ""360"">","null","","","","","","",""
"","null","html-keyboard-response","308","330835","0.0-308.0","structured_load,structured_normal,random,structured_incentive","2,1,2,3,3,4","","null","","","","","","",""
"","null","image-keyboard-response","309","334147","0.0-309.0","structured_load,structured_normal,random,structured_incentive","2,1,2,3,3,4","img/set1/S1.jpg","null","1","structured_load","83","false","","",""
"","null","html-keyboard-response","310","334675","0.0-310.0","structured_load,structured_normal,random,structured_incentive","2,1,2,3,3,4","<img src=""img/set1/S1.jpg"" width=""540"" height = ""360"">","null","","","","","","",""
"","null","html-keyboard-response","311","335593","0.0-311.0","structured_load,structured_normal,random,structured_incentive","2,1,2,3,3,4","","null","","","","","","",""
"","null","image-keyboard-response","312","339952","0.0-312.0","structured_load,structured_normal,random,structured_incentive","2,1,2,3,3,4","img/set1/S2.jpg","null","2","structured_load","68","false","","",""
"","null","html-keyboard-response","313","340753","0.0-313.0","structured_load,structured_normal,random,structured_incentive","2,1,2,3,3,4","<img src=""img/set1/S2.jpg"" width=""540"" height = ""360"">","null","","","","","","",""
"","null","html-keyboard-response","314","341731","0.0-314.0","structured_load,structured_normal,random,structured_incentive","2,1,2,3,3,4","","null","","","","","","",""
"","null","image-keyboard-response","315","345907","0.0-315.0","structured_load,structured_normal,random,structured_incentive","2,1,2,3,3,4","img/set1/S1.jpg","null","1","structured_load","83","false","","",""
"","null","html-keyboard-response","316","346789","0.0-316.0","structured_load,structured_normal,random,structured_incentive","2,1,2,3,3,4","<img src=""img/set1/S1.jpg"" width=""540"" height = ""360"">","null","","","","","","",""
"","null","html-keyboard-response","317","347823","0.0-317.0","structured_load,structured_normal,random,structured_incentive","2,1,2,3,3,4","","null","","","","","","",""
"","null","image-keyboard-response","318","351726","0.0-318.0","structured_load,structured_normal,random,structured_incentive","2,1,2,3,3,4","img/set1/S3.jpg","null","3","structured_load","72","false","","",""
"","null","html-keyboard-response","319","352817","0.0-319.0","structured_load,structured_normal,random,structured_incentive","2,1,2,3,3,4","<img src=""img/set1/S3.jpg"" width=""540"" height = ""360"">","null","","","","","","",""
"","null","html-keyboard-response","320","353735","0.0-320.0","structured_load,structured_normal,random,structured_incentive","2,1,2,3,3,4","","null","","","","","","",""
"","null","image-keyboard-response","321","357748","0.0-321.0","structured_load,structured_normal,random,structured_incentive","2,1,2,3,3,4","img/set1/S4.jpg","null","4","structured_load","74","false","","",""
"","null","html-keyboard-response","322","358805","0.0-322.0","structured_load,structured_normal,random,structured_incentive","2,1,2,3,3,4","<img src=""img/set1/S4.jpg"" width=""540"" height = ""360"">","null","","","","","","",""
"","null","html-keyboard-response","323","359853","0.0-323.0","structured_load,structured_normal,random,structured_incentive","2,1,2,3,3,4","","null","","","","","","",""
"","null","image-keyboard-response","324","363361","0.0-324.0","structured_load,structured_normal,random,structured_incentive","2,1,2,3,3,4","img/set1/S3.jpg","null","3","structured_load","72","false","","",""
"","null","html-keyboard-response","325","364828","0.0-325.0","structured_load,structured_normal,random,structured_incentive","2,1,2,3,3,4","<img src=""img/set1/S3.jpg"" width=""540"" height = ""360"">","null","","","","","","",""
"","null","html-keyboard-response","326","365848","0.0-326.0","structured_load,structured_normal,random,structured_incentive","2,1,2,3,3,4","","null","","","","","","",""
"","null","image-keyboard-response","327","369869","0.0-327.0","structured_load,structured_normal,random,structured_incentive","2,1,2,3,3,4","img/set1/S3.jpg","null","3","structured_load","72","false","","",""
"","null","html-keyboard-response","328","370851","0.0-328.0","structured_load,structured_normal,random,structured_incentive","2,1,2,3,3,4","<img src=""img/set1/S3.jpg"" width=""540"" height = ""360"">","null","","","","","","",""
"","null","html-keyboard-response","329","371770","0.0-329.0","structured_load,structured_normal,random,structured_incentive","2,1,2,3,3,4","","null","","","","","","",""
"","null","image-keyboard-response","330","375907","0.0-330.0","structured_load,structured_normal,random,structured_incentive","2,1,2,3,3,4","img/set1/S3.jpg","null","3","structured_load","72","false","","",""
"","null","html-keyboard-response","331","376808","0.0-331.0","structured_load,structured_normal,random,structured_incentive","2,1,2,3,3,4","<img src=""img/set1/S3.jpg"" width=""540"" height = ""360"">","null","","","","","","",""
"","null","html-keyboard-response","332","377807","0.0-332.0","structured_load,structured_normal,random,structured_incentive","2,1,2,3,3,4","","null","","","","","","",""
"","null","image-keyboard-response","333","381863","0.0-333.0","structured_load,structured_normal,random,structured_incentive","2,1,2,3,3,4","img/set1/S2.jpg","null","2","structured_load","68","false","","",""
"","null","html-keyboard-response","334","382829","0.0-334.0","structured_load,structured_normal,random,structured_incentive","2,1,2,3,3,4","<img src=""img/set1/S2.jpg"" width=""540"" height = ""360"">","null","","","","","","",""
"","null","html-keyboard-response","335","383832","0.0-335.0","structured_load,structured_normal,random,structured_incentive","2,1,2,3,3,4","","null","","","","","","",""
"","null","image-keyboard-response","336","387849","0.0-336.0","structured_load,structured_normal,random,structured_incentive","2,1,2,3,3,4","img/set1/S1.jpg","null","1","structured_load","83","false","","",""
"","null","html-keyboard-response","337","388854","0.0-337.0","structured_load,structured_normal,random,structured_incentive","2,1,2,3,3,4","<img src=""img/set1/S1.jpg"" width=""540"" height = ""360"">","null","","","","","","",""
"","null","html-keyboard-response","338","389856","0.0-338.0","structured_load,structured_normal,random,structured_incentive","2,1,2,3,3,4","","null","","","","","","",""
"","null","image-keyboard-response","339","393871","0.0-339.0","structured_load,structured_normal,random,structured_incentive","2,1,2,3,3,4","img/set1/S3.jpg","null","3","structured_load","72","false","","",""
"","null","html-keyboard-response","340","394730","0.0-340.0","structured_load,structured_normal,random,structured_incentive","2,1,2,3,3,4","<img src=""img/set1/S3.jpg"" width=""540"" height = ""360"">","null","","","","","","",""
"","null","html-keyboard-response","341","395797","0.0-341.0","structured_load,structured_normal,random,structured_incentive","2,1,2,3,3,4","","null","","","","","","",""
"","null","image-keyboard-response","342","399897","0.0-342.0","structured_load,structured_normal,random,structured_incentive","2,1,2,3,3,4","img/set1/S3.jpg","null","3","structured_load","72","false","","",""
"","null","html-keyboard-response","343","400758","0.0-343.0","structured_load,structured_normal,random,structured_incentive","2,1,2,3,3,4","<img src=""img/set1/S3.jpg"" width=""540"" height = ""360"">","null","","","","","","",""
"","null","html-keyboard-response","344","401728","0.0-344.0","structured_load,structured_normal,random,structured_incentive","2,1,2,3,3,4","","null","","","","","","",""
"","null","image-keyboard-response","345","405923","0.0-345.0","structured_load,structured_normal,random,structured_incentive","2,1,2,3,3,4","img/set1/S2.jpg","null","2","structured_load","68","false","","",""
"","null","html-keyboard-response","346","406788","0.0-346.0","structured_load,structured_normal,random,structured_incentive","2,1,2,3,3,4","<img src=""img/set1/S2.jpg"" width=""540"" height = ""360"">","null","","","","","","",""
"","null","html-keyboard-response","347","407759","0.0-347.0","structured_load,structured_normal,random,structured_incentive","2,1,2,3,3,4","","null","","","","","","",""
"","null","image-keyboard-response","348","411815","0.0-348.0","structured_load,structured_normal,random,structured_incentive","2,1,2,3,3,4","img/set1/S1.jpg","null","1","structured_load","83","false","","",""
"","null","html-keyboard-response","349","412761","0.0-349.0","structured_load,structured_normal,random,structured_incentive","2,1,2,3,3,4","<img src=""img/set1/S1.jpg"" width=""540"" height = ""360"">","null","","","","","","",""
"","null","html-keyboard-response","350","413826","0.0-350.0","structured_load,structured_normal,random,structured_incentive","2,1,2,3,3,4","","null","","","","","","",""
"","null","image-keyboard-response","351","417785","0.0-351.0","structured_load,structured_normal,random,structured_incentive","2,1,2,3,3,4","img/set1/S2.jpg","null","2","structured_load","68","false","","",""
"","null","html-keyboard-response","352","418852","0.0-352.0","structured_load,structured_normal,random,structured_incentive","2,1,2,3,3,4","<img src=""img/set1/S2.jpg"" width=""540"" height = ""360"">","null","","","","","","",""
"","null","html-keyboard-response","353","419791","0.0-353.0","structured_load,structured_normal,random,structured_incentive","2,1,2,3,3,4","","null","","","","","","",""
"","null","image-keyboard-response","354","423889","0.0-354.0","structured_load,structured_normal,random,structured_incentive","2,1,2,3,3,4","img/set1/S1.jpg","null","1","structured_load","83","false","","",""
"","null","html-keyboard-response","355","424851","0.0-355.0","structured_load,structured_normal,random,structured_incentive","2,1,2,3,3,4","<img src=""img/set1/S1.jpg"" width=""540"" height = ""360"">","null","","","","","","",""
"","null","html-keyboard-response","356","425748","0.0-356.0","structured_load,structured_normal,random,structured_incentive","2,1,2,3,3,4","","null","","","","","","",""
"","null","image-keyboard-response","357","429911","0.0-357.0","structured_load,structured_normal,random,structured_incentive","2,1,2,3,3,4","img/set1/S3.jpg","null","3","structured_load","72","false","","",""
"","null","html-keyboard-response","358","430812","0.0-358.0","structured_load,structured_normal,random,structured_incentive","2,1,2,3,3,4","<img src=""img/set1/S3.jpg"" width=""540"" height = ""360"">","null","","","","","","",""
"","null","html-keyboard-response","359","431727","0.0-359.0","structured_load,structured_normal,random,structured_incentive","2,1,2,3,3,4","","null","","","","","","",""
"","null","image-keyboard-response","360","435898","0.0-360.0","structured_load,structured_normal,random,structured_incentive","2,1,2,3,3,4","img/set1/S3.jpg","null","3","structured_load","72","false","","",""
"","null","html-keyboard-response","361","436849","0.0-361.0","structured_load,structured_normal,random,structured_incentive","2,1,2,3,3,4","<img src=""img/set1/S3.jpg"" width=""540"" height = ""360"">","null","","","","","","",""
"","null","html-keyboard-response","362","437771","0.0-362.0","structured_load,structured_normal,random,structured_incentive","2,1,2,3,3,4","","null","","","","","","",""
"","620461.8999999994","survey-multi-choice","363","1058265","0.0-363.0","structured_load,structured_normal,random,structured_incentive","2,1,2,3,3,4","","","","","","","{""Q0"":""Picture A""}","[0]",""
"","1833.7999999998137","html-keyboard-response","364","1060101","0.0-364.0","structured_load,structured_normal,random,structured_incentive","2,1,2,3,3,4","<p class=""center-content"">You have completed a block! </p><p class=""center-content"">Press any key on the keyboard to continue, </p><p class=""center-content"">or wait for the automatic progression to the next block after one minute.</p>","32","","","","","","",""
"[{""page_index"":0,""viewing_time"":2142.399999999441}]","2142.7000000001863","instructions","365","1062245","0.0-365.0","structured_load,structured_normal,random,structured_incentive","2,1,2,3,3,4","","","","","","","","",""
"[{""page_index"":0,""viewing_time"":1924.4000000003725}]","1924.7000000001863","instructions","366","1064170","0.0-366.0","structured_load,structured_normal,random,structured_incentive","2,1,2,3,3,4","","","","","","","","",""
"","null","image-keyboard-response","367","1066674","0.0-367.0","structured_load,structured_normal,random,structured_incentive","2,1,2,3,3,4","img/set2/S1.jpg","null","1","structured_normal","83","false","","",""
"","null","html-keyboard-response","368","1067026","0.0-368.0","structured_load,structured_normal,random,structured_incentive","2,1,2,3,3,4","<img src=""img/set2/S1.jpg"" width=""540"" height = ""360"">","null","","","","","","",""
"","null","html-keyboard-response","369","1067232","0.0-369.0","structured_load,structured_normal,random,structured_incentive","2,1,2,3,3,4","","null","","","","","","",""
"","null","image-keyboard-response","370","1069739","0.0-370.0","structured_load,structured_normal,random,structured_incentive","2,1,2,3,3,4","img/set2/S1.jpg","null","1","structured_normal","83","false","","",""
"","null","html-keyboard-response","371","1070094","0.0-371.0","structured_load,structured_normal,random,structured_incentive","2,1,2,3,3,4","<img src=""img/set2/S1.jpg"" width=""540"" height = ""360"">","null","","","","","","",""
"","null","html-keyboard-response","372","1070296","0.0-372.0","structured_load,structured_normal,random,structured_incentive","2,1,2,3,3,4","","null","","","","","","",""
"","null","image-keyboard-response","373","1072798","0.0-373.0","structured_load,structured_normal,random,structured_incentive","2,1,2,3,3,4","img/set2/S2.jpg","null","2","structured_normal","68","false","","",""
"","null","html-keyboard-response","374","1073150","0.0-374.0","structured_load,structured_normal,random,structured_incentive","2,1,2,3,3,4","<img src=""img/set2/S2.jpg"" width=""540"" height = ""360"">","null","","","","","","",""
"","null","html-keyboard-response","375","1073354","0.0-375.0","structured_load,structured_normal,random,structured_incentive","2,1,2,3,3,4","","null","","","","","","",""
"","null","image-keyboard-response","376","1075860","0.0-376.0","structured_load,structured_normal,random,structured_incentive","2,1,2,3,3,4","img/set2/S3.jpg","null","3","structured_normal","72","false","","",""
"","null","html-keyboard-response","377","1076213","0.0-377.0","structured_load,structured_normal,random,structured_incentive","2,1,2,3,3,4","<img src=""img/set2/S3.jpg"" width=""540"" height = ""360"">","null","","","","","","",""
"","null","html-keyboard-response","378","1076414","0.0-378.0","structured_load,structured_normal,random,structured_incentive","2,1,2,3,3,4","","null","","","","","","",""
"","null","image-keyboard-response","379","1078920","0.0-379.0","structured_load,structured_normal,random,structured_incentive","2,1,2,3,3,4","img/set2/S4.jpg","null","4","structured_normal","74","false","","",""
"","null","html-keyboard-response","380","1079275","0.0-380.0","structured_load,structured_normal,random,structured_incentive","2,1,2,3,3,4","<img src=""img/set2/S4.jpg"" width=""540"" height = ""360"">","null","","","","","","",""
"","null","html-keyboard-response","381","1079479","0.0-381.0","structured_load,structured_normal,random,structured_incentive","2,1,2,3,3,4","","null","","","","","","",""
"","null","image-keyboard-response","382","1081980","0.0-382.0","structured_load,structured_normal,random,structured_incentive","2,1,2,3,3,4","img/set2/S4.jpg","null","4","structured_normal","74","false","","",""
"","null","html-keyboard-response","383","1082332","0.0-383.0","structured_load,structured_normal,random,structured_incentive","2,1,2,3,3,4","<img src=""img/set2/S4.jpg"" width=""540"" height = ""360"">","null","","","","","","",""
"","null","html-keyboard-response","384","1082534","0.0-384.0","structured_load,structured_normal,random,structured_incentive","2,1,2,3,3,4","","null","","","","","","",""
"","null","image-keyboard-response","385","1085041","0.0-385.0","structured_load,structured_normal,random,structured_incentive","2,1,2,3,3,4","img/set2/S2.jpg","null","2","structured_normal","68","false","","",""
"","null","html-keyboard-response","386","1085398","0.0-386.0","structured_load,structured_normal,random,structured_incentive","2,1,2,3,3,4","<img src=""img/set2/S2.jpg"" width=""540"" height = ""360"">","null","","","","","","",""
"","null","html-keyboard-response","387","1085604","0.0-387.0","structured_load,structured_normal,random,structured_incentive","2,1,2,3,3,4","","null","","","","","","",""
"","null","image-keyboard-response","388","1088110","0.0-388.0","structured_load,structured_normal,random,structured_incentive","2,1,2,3,3,4","img/set2/S3.jpg","null","3","structured_normal","72","false","","",""
"","null","html-keyboard-response","389","1088464","0.0-389.0","structured_load,structured_normal,random,structured_incentive","2,1,2,3,3,4","<img src=""img/set2/S3.jpg"" width=""540"" height = ""360"">","null","","","","","","",""
"","null","html-keyboard-response","390","1088667","0.0-390.0","structured_load,structured_normal,random,structured_incentive","2,1,2,3,3,4","","null","","","","","","",""
"","null","image-keyboard-response","391","1091169","0.0-391.0","structured_load,structured_normal,random,structured_incentive","2,1,2,3,3,4","img/set2/S2.jpg","null","2","structured_normal","68","false","","",""
"","null","html-keyboard-response","392","1091525","0.0-392.0","structured_load,structured_normal,random,structured_incentive","2,1,2,3,3,4","<img src=""img/set2/S2.jpg"" width=""540"" height = ""360"">","null","","","","","","",""
"","null","html-keyboard-response","393","1091728","0.0-393.0","structured_load,structured_normal,random,structured_incentive","2,1,2,3,3,4","","null","","","","","","",""
"","null","image-keyboard-response","394","1094235","0.0-394.0","structured_load,structured_normal,random,structured_incentive","2,1,2,3,3,4","img/set2/S3.jpg","null","3","structured_normal","72","false","","",""
"","null","html-keyboard-response","395","1094591","0.0-395.0","structured_load,structured_normal,random,structured_incentive","2,1,2,3,3,4","<img src=""img/set2/S3.jpg"" width=""540"" height = ""360"">","null","","","","","","",""
"","null","html-keyboard-response","396","1094794","0.0-396.0","structured_load,structured_normal,random,structured_incentive","2,1,2,3,3,4","","null","","","","","","",""
"","null","image-keyboard-response","397","1097296","0.0-397.0","structured_load,structured_normal,random,structured_incentive","2,1,2,3,3,4","img/set2/S2.jpg","null","2","structured_normal","68","false","","",""
"","null","html-keyboard-response","398","1097653","0.0-398.0","structured_load,structured_normal,random,structured_incentive","2,1,2,3,3,4","<img src=""img/set2/S2.jpg"" width=""540"" height = ""360"">","null","","","","","","",""
"","null","html-keyboard-response","399","1097855","0.0-399.0","structured_load,structured_normal,random,structured_incentive","2,1,2,3,3,4","","null","","","","","","",""
"","null","image-keyboard-response","400","1100359","0.0-400.0","structured_load,structured_normal,random,structured_incentive","2,1,2,3,3,4","img/set2/S3.jpg","null","3","structured_normal","72","false","","",""
"","null","html-keyboard-response","401","1100716","0.0-401.0","structured_load,structured_normal,random,structured_incentive","2,1,2,3,3,4","<img src=""img/set2/S3.jpg"" width=""540"" height = ""360"">","null","","","","","","",""
"","null","html-keyboard-response","402","1100921","0.0-402.0","structured_load,structured_normal,random,structured_incentive","2,1,2,3,3,4","","null","","","","","","",""
"","null","image-keyboard-response","403","1103425","0.0-403.0","structured_load,structured_normal,random,structured_incentive","2,1,2,3,3,4","img/set2/S2.jpg","null","2","structured_normal","68","false","","",""
"","null","html-keyboard-response","404","1103782","0.0-404.0","structured_load,structured_normal,random,structured_incentive","2,1,2,3,3,4","<img src=""img/set2/S2.jpg"" width=""540"" height = ""360"">","null","","","","","","",""
"","null","html-keyboard-response","405","1103988","0.0-405.0","structured_load,structured_normal,random,structured_incentive","2,1,2,3,3,4","","null","","","","","","",""
"","null","image-keyboard-response","406","1106495","0.0-406.0","structured_load,structured_normal,random,structured_incentive","2,1,2,3,3,4","img/set2/S3.jpg","null","3","structured_normal","72","false","","",""
"","null","html-keyboard-response","407","1106848","0.0-407.0","structured_load,structured_normal,random,structured_incentive","2,1,2,3,3,4","<img src=""img/set2/S3.jpg"" width=""540"" height = ""360"">","null","","","","","","",""
"","null","html-keyboard-response","408","1107054","0.0-408.0","structured_load,structured_normal,random,structured_incentive","2,1,2,3,3,4","","null","","","","","","",""
"","null","image-keyboard-response","409","1109560","0.0-409.0","structured_load,structured_normal,random,structured_incentive","2,1,2,3,3,4","img/set2/S1.jpg","null","1","structured_normal","83","false","","",""
"","null","html-keyboard-response","410","1109917","0.0-410.0","structured_load,structured_normal,random,structured_incentive","2,1,2,3,3,4","<img src=""img/set2/S1.jpg"" width=""540"" height = ""360"">","null","","","","","","",""
"","null","html-keyboard-response","411","1110122","0.0-411.0","structured_load,structured_normal,random,structured_incentive","2,1,2,3,3,4","","null","","","","","","",""
"","null","image-keyboard-response","412","1112624","0.0-412.0","structured_load,structured_normal,random,structured_incentive","2,1,2,3,3,4","img/set2/S4.jpg","null","4","structured_normal","74","false","","",""
"","null","html-keyboard-response","413","1112981","0.0-413.0","structured_load,structured_normal,random,structured_incentive","2,1,2,3,3,4","<img src=""img/set2/S4.jpg"" width=""540"" height = ""360"">","null","","","","","","",""
"","null","html-keyboard-response","414","1113187","0.0-414.0","structured_load,structured_normal,random,structured_incentive","2,1,2,3,3,4","","null","","","","","","",""
"","null","image-keyboard-response","415","1115694","0.0-415.0","structured_load,structured_normal,random,structured_incentive","2,1,2,3,3,4","img/set2/S4.jpg","null","4","structured_normal","74","false","","",""
"","null","html-keyboard-response","416","1116051","0.0-416.0","structured_load,structured_normal,random,structured_incentive","2,1,2,3,3,4","<img src=""img/set2/S4.jpg"" width=""540"" height = ""360"">","null","","","","","","",""
"","null","html-keyboard-response","417","1116257","0.0-417.0","structured_load,structured_normal,random,structured_incentive","2,1,2,3,3,4","","null","","","","","","",""
"","null","image-keyboard-response","418","1118759","0.0-418.0","structured_load,structured_normal,random,structured_incentive","2,1,2,3,3,4","img/set2/S2.jpg","null","2","structured_normal","68","false","","",""
"","null","html-keyboard-response","419","1119114","0.0-419.0","structured_load,structured_normal,random,structured_incentive","2,1,2,3,3,4","<img src=""img/set2/S2.jpg"" width=""540"" height = ""360"">","null","","","","","","",""
"","null","html-keyboard-response","420","1119316","0.0-420.0","structured_load,structured_normal,random,structured_incentive","2,1,2,3,3,4","","null","","","","","","",""
"","null","image-keyboard-response","421","1121818","0.0-421.0","structured_load,structured_normal,random,structured_incentive","2,1,2,3,3,4","img/set2/S3.jpg","null","3","structured_normal","72","false","","",""
"","null","html-keyboard-response","422","1122175","0.0-422.0","structured_load,structured_normal,random,structured_incentive","2,1,2,3,3,4","<img src=""img/set2/S3.jpg"" width=""540"" height = ""360"">","null","","","","","","",""
"","null","html-keyboard-response","423","1122381","0.0-423.0","structured_load,structured_normal,random,structured_incentive","2,1,2,3,3,4","","null","","","","","","",""
"","null","image-keyboard-response","424","1124888","0.0-424.0","structured_load,structured_normal,random,structured_incentive","2,1,2,3,3,4","img/set2/S2.jpg","null","2","structured_normal","68","false","","",""
"","null","html-keyboard-response","425","1125245","0.0-425.0","structured_load,structured_normal,random,structured_incentive","2,1,2,3,3,4","<img src=""img/set2/S2.jpg"" width=""540"" height = ""360"">","null","","","","","","",""
"","null","html-keyboard-response","426","1125451","0.0-426.0","structured_load,structured_normal,random,structured_incentive","2,1,2,3,3,4","","null","","","","","","",""
"","null","image-keyboard-response","427","1127957","0.0-427.0","structured_load,structured_normal,random,structured_incentive","2,1,2,3,3,4","img/set2/S3.jpg","null","3","structured_normal","72","false","","",""
"","null","html-keyboard-response","428","1128314","0.0-428.0","structured_load,structured_normal,random,structured_incentive","2,1,2,3,3,4","<img src=""img/set2/S3.jpg"" width=""540"" height = ""360"">","null","","","","","","",""
"","null","html-keyboard-response","429","1128517","0.0-429.0","structured_load,structured_normal,random,structured_incentive","2,1,2,3,3,4","","null","","","","","","",""
"","null","image-keyboard-response","430","1131023","0.0-430.0","structured_load,structured_normal,random,structured_incentive","2,1,2,3,3,4","img/set2/S1.jpg","null","1","structured_normal","83","false","","",""
"","null","html-keyboard-response","431","1131380","0.0-431.0","structured_load,structured_normal,random,structured_incentive","2,1,2,3,3,4","<img src=""img/set2/S1.jpg"" width=""540"" height = ""360"">","null","","","","","","",""
"","null","html-keyboard-response","432","1131582","0.0-432.0","structured_load,structured_normal,random,structured_incentive","2,1,2,3,3,4","","null","","","","","","",""
"","null","image-keyboard-response","433","1134088","0.0-433.0","structured_load,structured_normal,random,structured_incentive","2,1,2,3,3,4","img/set2/S2.jpg","null","2","structured_normal","68","false","","",""
"","null","html-keyboard-response","434","1134445","0.0-434.0","structured_load,structured_normal,random,structured_incentive","2,1,2,3,3,4","<img src=""img/set2/S2.jpg"" width=""540"" height = ""360"">","null","","","","","","",""
"","null","html-keyboard-response","435","1134652","0.0-435.0","structured_load,structured_normal,random,structured_incentive","2,1,2,3,3,4","","null","","","","","","",""
"","null","image-keyboard-response","436","1137158","0.0-436.0","structured_load,structured_normal,random,structured_incentive","2,1,2,3,3,4","img/set2/S3.jpg","null","3","structured_normal","72","false","","",""
"","null","html-keyboard-response","437","1137511","0.0-437.0","structured_load,structured_normal,random,structured_incentive","2,1,2,3,3,4","<img src=""img/set2/S3.jpg"" width=""540"" height = ""360"">","null","","","","","","",""
"","null","html-keyboard-response","438","1137714","0.0-438.0","structured_load,structured_normal,random,structured_incentive","2,1,2,3,3,4","","null","","","","","","",""
"","null","image-keyboard-response","439","1140221","0.0-439.0","structured_load,structured_normal,random,structured_incentive","2,1,2,3,3,4","img/set2/S1.jpg","null","1","structured_normal","83","false","","",""
"","null","html-keyboard-response","440","1140578","0.0-440.0","structured_load,structured_normal,random,structured_incentive","2,1,2,3,3,4","<img src=""img/set2/S1.jpg"" width=""540"" height = ""360"">","null","","","","","","",""
"","null","html-keyboard-response","441","1140779","0.0-441.0","structured_load,structured_normal,random,structured_incentive","2,1,2,3,3,4","","null","","","","","","",""
"","null","image-keyboard-response","442","1143285","0.0-442.0","structured_load,structured_normal,random,structured_incentive","2,1,2,3,3,4","img/set2/S4.jpg","null","4","structured_normal","74","false","","",""
"","null","html-keyboard-response","443","1143642","0.0-443.0","structured_load,structured_normal,random,structured_incentive","2,1,2,3,3,4","<img src=""img/set2/S4.jpg"" width=""540"" height = ""360"">","null","","","","","","",""
"","null","html-keyboard-response","444","1143845","0.0-444.0","structured_load,structured_normal,random,structured_incentive","2,1,2,3,3,4","","null","","","","","","",""
"","null","image-keyboard-response","445","1146349","0.0-445.0","structured_load,structured_normal,random,structured_incentive","2,1,2,3,3,4","img/set2/S4.jpg","null","4","structured_normal","74","false","","",""
"","null","html-keyboard-response","446","1146705","0.0-446.0","structured_load,structured_normal,random,structured_incentive","2,1,2,3,3,4","<img src=""img/set2/S4.jpg"" width=""540"" height = ""360"">","null","","","","","","",""
"","null","html-keyboard-response","447","1146911","0.0-447.0","structured_load,structured_normal,random,structured_incentive","2,1,2,3,3,4","","null","","","","","","",""
"","null","image-keyboard-response","448","1149417","0.0-448.0","structured_load,structured_normal,random,structured_incentive","2,1,2,3,3,4","img/set2/S4.jpg","null","4","structured_normal","74","false","","",""
"","null","html-keyboard-response","449","1149774","0.0-449.0","structured_load,structured_normal,random,structured_incentive","2,1,2,3,3,4","<img src=""img/set2/S4.jpg"" width=""540"" height = ""360"">","null","","","","","","",""
"","null","html-keyboard-response","450","1149980","0.0-450.0","structured_load,structured_normal,random,structured_incentive","2,1,2,3,3,4","","null","","","","","","",""
"","null","image-keyboard-response","451","1152487","0.0-451.0","structured_load,structured_normal,random,structured_incentive","2,1,2,3,3,4","img/set2/S4.jpg","null","4","structured_normal","74","false","","",""
"","null","html-keyboard-response","452","1152840","0.0-452.0","structured_load,structured_normal,random,structured_incentive","2,1,2,3,3,4","<img src=""img/set2/S4.jpg"" width=""540"" height = ""360"">","null","","","","","","",""
"","null","html-keyboard-response","453","1153046","0.0-453.0","structured_load,structured_normal,random,structured_incentive","2,1,2,3,3,4","","null","","","","","","",""
"","null","image-keyboard-response","454","1155552","0.0-454.0","structured_load,structured_normal,random,structured_incentive","2,1,2,3,3,4","img/set2/S2.jpg","null","2","structured_normal","68","false","","",""
"","null","html-keyboard-response","455","1155906","0.0-455.0","structured_load,structured_normal,random,structured_incentive","2,1,2,3,3,4","<img src=""img/set2/S2.jpg"" width=""540"" height = ""360"">","null","","","","","","",""
"","null","html-keyboard-response","456","1156111","0.0-456.0","structured_load,structured_normal,random,structured_incentive","2,1,2,3,3,4","","null","","","","","","",""
"","null","image-keyboard-response","457","1158613","0.0-457.0","structured_load,structured_normal,random,structured_incentive","2,1,2,3,3,4","img/set2/S3.jpg","null","3","structured_normal","72","false","","",""
"","null","html-keyboard-response","458","1158965","0.0-458.0","structured_load,structured_normal,random,structured_incentive","2,1,2,3,3,4","<img src=""img/set2/S3.jpg"" width=""540"" height = ""360"">","null","","","","","","",""
"","null","html-keyboard-response","459","1159166","0.0-459.0","structured_load,structured_normal,random,structured_incentive","2,1,2,3,3,4","","null","","","","","","",""
"","null","image-keyboard-response","460","1161667","0.0-460.0","structured_load,structured_normal,random,structured_incentive","2,1,2,3,3,4","img/set2/S2.jpg","null","2","structured_normal","68","false","","",""
"","null","html-keyboard-response","461","1162018","0.0-461.0","structured_load,structured_normal,random,structured_incentive","2,1,2,3,3,4","<img src=""img/set2/S2.jpg"" width=""540"" height = ""360"">","null","","","","","","",""
"","null","html-keyboard-response","462","1162218","0.0-462.0","structured_load,structured_normal,random,structured_incentive","2,1,2,3,3,4","","null","","","","","","",""
"","null","image-keyboard-response","463","1164719","0.0-463.0","structured_load,structured_normal,random,structured_incentive","2,1,2,3,3,4","img/set2/S3.jpg","null","3","structured_normal","72","false","","",""
"","null","html-keyboard-response","464","1165073","0.0-464.0","structured_load,structured_normal,random,structured_incentive","2,1,2,3,3,4","<img src=""img/set2/S3.jpg"" width=""540"" height = ""360"">","null","","","","","","",""
"","null","html-keyboard-response","465","1165277","0.0-465.0","structured_load,structured_normal,random,structured_incentive","2,1,2,3,3,4","","null","","","","","","",""
"","null","image-keyboard-response","466","1167783","0.0-466.0","structured_load,structured_normal,random,structured_incentive","2,1,2,3,3,4","img/set2/S2.jpg","null","2","structured_normal","68","false","","",""
"","null","html-keyboard-response","467","1168135","0.0-467.0","structured_load,structured_normal,random,structured_incentive","2,1,2,3,3,4","<img src=""img/set2/S2.jpg"" width=""540"" height = ""360"">","null","","","","","","",""
"","null","html-keyboard-response","468","1168341","0.0-468.0","structured_load,structured_normal,random,structured_incentive","2,1,2,3,3,4","","null","","","","","","",""
"","null","image-keyboard-response","469","1170848","0.0-469.0","structured_load,structured_normal,random,structured_incentive","2,1,2,3,3,4","img/set2/S3.jpg","null","3","structured_normal","72","false","","",""
"","null","html-keyboard-response","470","1171200","0.0-470.0","structured_load,structured_normal,random,structured_incentive","2,1,2,3,3,4","<img src=""img/set2/S3.jpg"" width=""540"" height = ""360"">","null","","","","","","",""
"","null","html-keyboard-response","471","1171406","0.0-471.0","structured_load,structured_normal,random,structured_incentive","2,1,2,3,3,4","","null","","","","","","",""
"","null","image-keyboard-response","472","1173913","0.0-472.0","structured_load,structured_normal,random,structured_incentive","2,1,2,3,3,4","img/set2/S1.jpg","null","1","structured_normal","83","false","","",""
"","null","html-keyboard-response","473","1174266","0.0-473.0","structured_load,structured_normal,random,structured_incentive","2,1,2,3,3,4","<img src=""img/set2/S1.jpg"" width=""540"" height = ""360"">","null","","","","","","",""
"","null","html-keyboard-response","474","1174472","0.0-474.0","structured_load,structured_normal,random,structured_incentive","2,1,2,3,3,4","","null","","","","","","",""
"","null","image-keyboard-response","475","1176976","0.0-475.0","structured_load,structured_normal,random,structured_incentive","2,1,2,3,3,4","img/set2/S4.jpg","null","4","structured_normal","74","false","","",""
"","null","html-keyboard-response","476","1177333","0.0-476.0","structured_load,structured_normal,random,structured_incentive","2,1,2,3,3,4","<img src=""img/set2/S4.jpg"" width=""540"" height = ""360"">","null","","","","","","",""
"","null","html-keyboard-response","477","1177539","0.0-477.0","structured_load,structured_normal,random,structured_incentive","2,1,2,3,3,4","","null","","","","","","",""
"","null","image-keyboard-response","478","1180044","0.0-478.0","structured_load,structured_normal,random,structured_incentive","2,1,2,3,3,4","img/set2/S4.jpg","null","4","structured_normal","74","false","","",""
"","null","html-keyboard-response","479","1180399","0.0-479.0","structured_load,structured_normal,random,structured_incentive","2,1,2,3,3,4","<img src=""img/set2/S4.jpg"" width=""540"" height = ""360"">","null","","","","","","",""
"","null","html-keyboard-response","480","1180600","0.0-480.0","structured_load,structured_normal,random,structured_incentive","2,1,2,3,3,4","","null","","","","","","",""
"","null","image-keyboard-response","481","1183107","0.0-481.0","structured_load,structured_normal,random,structured_incentive","2,1,2,3,3,4","img/set2/S1.jpg","null","1","structured_normal","83","false","","",""
"","null","html-keyboard-response","482","1183464","0.0-482.0","structured_load,structured_normal,random,structured_incentive","2,1,2,3,3,4","<img src=""img/set2/S1.jpg"" width=""540"" height = ""360"">","null","","","","","","",""
