"rt","url","trial_type","trial_index","time_elapsed","internal_node_id","assignmentID","mturkID","hitID","view_history","stimulus","key_press","state","test_part","correct_response","order_block","order_chunk","order_freq","correct","bonus","responses"
"3939","consent.html","external-html","0","3986","0.0-0.0","","","","","","","","","","","","","","",""
"11242","","instructions","1","15232","0.0-1.0","","","","[{""page_index"":0,""viewing_time"":1511},{""page_index"":1,""viewing_time"":1658},{""page_index"":2,""viewing_time"":1193},{""page_index"":3,""viewing_time"":1267},{""page_index"":4,""viewing_time"":1692},{""page_index"":5,""viewing_time"":1048},{""page_index"":6,""viewing_time"":2872}]","","","","","","","","","","",""
"2288","","instructions","2","17522","0.0-2.0","","","","[{""page_index"":0,""viewing_time"":2288}]","","","","","","","","","","",""
"1005","","instructions","3","18529","0.0-3.0","","","","[{""page_index"":0,""viewing_time"":1005}]","","","","","","","","","","",""
"null","","image-keyboard-response","4","21033","0.0-4.0","","","","","img/set1/S4.jpg","null","4","random","74","random,structured_normal,structured_incentive","2,3,1,2","2,1,4,3","false","",""
"null","","html-keyboard-response","5","21387","0.0-5.0","","","","","<img src=""img/set1/S4.jpg"" width=""540"" height = ""360"">","null","","","","","","","","",""
"null","","html-keyboard-response","6","21588","0.0-6.0","","","","","","null","","","","","","","","",""
"null","","image-keyboard-response","7","24090","0.0-7.0","","","","","img/set1/S1.jpg","null","1","random","83","random,structured_normal,structured_incentive","2,3,1,2","2,1,4,3","false","",""
"null","","html-keyboard-response","8","24443","0.0-8.0","","","","","<img src=""img/set1/S1.jpg"" width=""540"" height = ""360"">","null","","","","","","","","",""
"null","","html-keyboard-response","9","24645","0.0-9.0","","","","","","null","","","","","","","","",""
"null","","image-keyboard-response","10","27147","0.0-10.0","","","","","img/set1/S1.jpg","null","1","random","83","random,structured_normal,structured_incentive","2,3,1,2","2,1,4,3","false","",""
"null","","html-keyboard-response","11","27500","0.0-11.0","","","","","<img src=""img/set1/S1.jpg"" width=""540"" height = ""360"">","null","","","","","","","","",""
"null","","html-keyboard-response","12","27701","0.0-12.0","","","","","","null","","","","","","","","",""
"null","","image-keyboard-response","13","30204","0.0-13.0","","","","","img/set1/S3.jpg","null","3","random","72","random,structured_normal,structured_incentive","2,3,1,2","2,1,4,3","false","",""
"null","","html-keyboard-response","14","30556","0.0-14.0","","","","","<img src=""img/set1/S3.jpg"" width=""540"" height = ""360"">","null","","","","","","","","",""
"null","","html-keyboard-response","15","30758","0.0-15.0","","","","","","null","","","","","","","","",""
"null","","image-keyboard-response","16","33260","0.0-16.0","","","","","img/set1/S4.jpg","null","4","random","74","random,structured_normal,structured_incentive","2,3,1,2","2,1,4,3","false","",""
"null","","html-keyboard-response","17","33613","0.0-17.0","","","","","<img src=""img/set1/S4.jpg"" width=""540"" height = ""360"">","null","","","","","","","","",""
"null","","html-keyboard-response","18","33815","0.0-18.0","","","","","","null","","","","","","","","",""
"null","","image-keyboard-response","19","36318","0.0-19.0","","","","","img/set1/S4.jpg","null","4","random","74","random,structured_normal,structured_incentive","2,3,1,2","2,1,4,3","false","",""
"null","","html-keyboard-response","20","36671","0.0-20.0","","","","","<img src=""img/set1/S4.jpg"" width=""540"" height = ""360"">","null","","","","","","","","",""
"null","","html-keyboard-response","21","36872","0.0-21.0","","","","","","null","","","","","","","","",""
"null","","image-keyboard-response","22","39375","0.0-22.0","","","","","img/set1/S3.jpg","null","3","random","72","random,structured_normal,structured_incentive","2,3,1,2","2,1,4,3","false","",""
"null","","html-keyboard-response","23","39728","0.0-23.0","","","","","<img src=""img/set1/S3.jpg"" width=""540"" height = ""360"">","null","","","","","","","","",""
"null","","html-keyboard-response","24","39930","0.0-24.0","","","","","","null","","","","","","","","",""
"null","","image-keyboard-response","25","42432","0.0-25.0","","","","","img/set1/S2.jpg","null","2","random","68","random,structured_normal,structured_incentive","2,3,1,2","2,1,4,3","false","",""
"null","","html-keyboard-response","26","42785","0.0-26.0","","","","","<img src=""img/set1/S2.jpg"" width=""540"" height = ""360"">","null","","","","","","","","",""
"null","","html-keyboard-response","27","42986","0.0-27.0","","","","","","null","","","","","","","","",""
"null","","image-keyboard-response","28","45488","0.0-28.0","","","","","img/set1/S1.jpg","null","1","random","83","random,structured_normal,structured_incentive","2,3,1,2","2,1,4,3","false","",""
"null","","html-keyboard-response","29","45840","0.0-29.0","","","","","<img src=""img/set1/S1.jpg"" width=""540"" height = ""360"">","null","","","","","","","","",""
"null","","html-keyboard-response","30","46043","0.0-30.0","","","","","","null","","","","","","","","",""
"null","","image-keyboard-response","31","48545","0.0-31.0","","","","","img/set1/S2.jpg","null","2","random","68","random,structured_normal,structured_incentive","2,3,1,2","2,1,4,3","false","",""
"null","","html-keyboard-response","32","48897","0.0-32.0","","","","","<img src=""img/set1/S2.jpg"" width=""540"" height = ""360"">","null","","","","","","","","",""
"null","","html-keyboard-response","33","49099","0.0-33.0","","","","","","null","","","","","","","","",""
"null","","image-keyboard-response","34","51602","0.0-34.0","","","","","img/set1/S1.jpg","null","1","random","83","random,structured_normal,structured_incentive","2,3,1,2","2,1,4,3","false","",""
"null","","html-keyboard-response","35","51955","0.0-35.0","","","","","<img src=""img/set1/S1.jpg"" width=""540"" height = ""360"">","null","","","","","","","","",""
"null","","html-keyboard-response","36","52157","0.0-36.0","","","","","","null","","","","","","","","",""
"null","","image-keyboard-response","37","54660","0.0-37.0","","","","","img/set1/S1.jpg","null","1","random","83","random,structured_normal,structured_incentive","2,3,1,2","2,1,4,3","false","",""
"null","","html-keyboard-response","38","55012","0.0-38.0","","","","","<img src=""img/set1/S1.jpg"" width=""540"" height = ""360"">","null","","","","","","","","",""
"null","","html-keyboard-response","39","55213","0.0-39.0","","","","","","null","","","","","","","","",""
"null","","image-keyboard-response","40","57715","0.0-40.0","","","","","img/set1/S1.jpg","null","1","random","83","random,structured_normal,structured_incentive","2,3,1,2","2,1,4,3","false","",""
"null","","html-keyboard-response","41","58073","0.0-41.0","","","","","<img src=""img/set1/S1.jpg"" width=""540"" height = ""360"">","null","","","","","","","","",""
"null","","html-keyboard-response","42","58275","0.0-42.0","","","","","","null","","","","","","","","",""
"null","","image-keyboard-response","43","60778","0.0-43.0","","","","","img/set1/S4.jpg","null","4","random","74","random,structured_normal,structured_incentive","2,3,1,2","2,1,4,3","false","",""
"null","","html-keyboard-response","44","61131","0.0-44.0","","","","","<img src=""img/set1/S4.jpg"" width=""540"" height = ""360"">","null","","","","","","","","",""
"null","","html-keyboard-response","45","61333","0.0-45.0","","","","","","null","","","","","","","","",""
"null","","image-keyboard-response","46","63836","0.0-46.0","","","","","img/set1/S2.jpg","null","2","random","68","random,structured_normal,structured_incentive","2,3,1,2","2,1,4,3","false","",""
"null","","html-keyboard-response","47","64192","0.0-47.0","","","","","<img src=""img/set1/S2.jpg"" width=""540"" height = ""360"">","null","","","","","","","","",""
"null","","html-keyboard-response","48","64393","0.0-48.0","","","","","","null","","","","","","","","",""
"null","","image-keyboard-response","49","66896","0.0-49.0","","","","","img/set1/S3.jpg","null","3","random","72","random,structured_normal,structured_incentive","2,3,1,2","2,1,4,3","false","",""
"null","","html-keyboard-response","50","67248","0.0-50.0","","","","","<img src=""img/set1/S3.jpg"" width=""540"" height = ""360"">","null","","","","","","","","",""
"null","","html-keyboard-response","51","67451","0.0-51.0","","","","","","null","","","","","","","","",""
"null","","image-keyboard-response","52","69953","0.0-52.0","","","","","img/set1/S4.jpg","null","4","random","74","random,structured_normal,structured_incentive","2,3,1,2","2,1,4,3","false","",""
"null","","html-keyboard-response","53","70306","0.0-53.0","","","","","<img src=""img/set1/S4.jpg"" width=""540"" height = ""360"">","null","","","","","","","","",""
"null","","html-keyboard-response","54","70508","0.0-54.0","","","","","","null","","","","","","","","",""
"null","","image-keyboard-response","55","73010","0.0-55.0","","","","","img/set1/S4.jpg","null","4","random","74","random,structured_normal,structured_incentive","2,3,1,2","2,1,4,3","false","",""
"null","","html-keyboard-response","56","73362","0.0-56.0","","","","","<img src=""img/set1/S4.jpg"" width=""540"" height = ""360"">","null","","","","","","","","",""
"null","","html-keyboard-response","57","73564","0.0-57.0","","","","","","null","","","","","","","","",""
"null","","image-keyboard-response","58","76067","0.0-58.0","","","","","img/set1/S2.jpg","null","2","random","68","random,structured_normal,structured_incentive","2,3,1,2","2,1,4,3","false","",""
"null","","html-keyboard-response","59","76419","0.0-59.0","","","","","<img src=""img/set1/S2.jpg"" width=""540"" height = ""360"">","null","","","","","","","","",""
"null","","html-keyboard-response","60","76620","0.0-60.0","","","","","","null","","","","","","","","",""
"null","","image-keyboard-response","61","79123","0.0-61.0","","","","","img/set1/S2.jpg","null","2","random","68","random,structured_normal,structured_incentive","2,3,1,2","2,1,4,3","false","",""
"null","","html-keyboard-response","62","79477","0.0-62.0","","","","","<img src=""img/set1/S2.jpg"" width=""540"" height = ""360"">","null","","","","","","","","",""
"null","","html-keyboard-response","63","79680","0.0-63.0","","","","","","null","","","","","","","","",""
"null","","image-keyboard-response","64","82182","0.0-64.0","","","","","img/set1/S4.jpg","null","4","random","74","random,structured_normal,structured_incentive","2,3,1,2","2,1,4,3","false","",""
"null","","html-keyboard-response","65","82535","0.0-65.0","","","","","<img src=""img/set1/S4.jpg"" width=""540"" height = ""360"">","null","","","","","","","","",""
"null","","html-keyboard-response","66","82737","0.0-66.0","","","","","","null","","","","","","","","",""
"null","","image-keyboard-response","67","85240","0.0-67.0","","","","","img/set1/S4.jpg","null","4","random","74","random,structured_normal,structured_incentive","2,3,1,2","2,1,4,3","false","",""
"null","","html-keyboard-response","68","85592","0.0-68.0","","","","","<img src=""img/set1/S4.jpg"" width=""540"" height = ""360"">","null","","","","","","","","",""
"null","","html-keyboard-response","69","85793","0.0-69.0","","","","","","null","","","","","","","","",""
"null","","image-keyboard-response","70","88295","0.0-70.0","","","","","img/set1/S1.jpg","null","1","random","83","random,structured_normal,structured_incentive","2,3,1,2","2,1,4,3","false","",""
"null","","html-keyboard-response","71","88650","0.0-71.0","","","","","<img src=""img/set1/S1.jpg"" width=""540"" height = ""360"">","null","","","","","","","","",""
"null","","html-keyboard-response","72","88852","0.0-72.0","","","","","","null","","","","","","","","",""
"null","","image-keyboard-response","73","91356","0.0-73.0","","","","","img/set1/S3.jpg","null","3","random","72","random,structured_normal,structured_incentive","2,3,1,2","2,1,4,3","false","",""
"null","","html-keyboard-response","74","91709","0.0-74.0","","","","","<img src=""img/set1/S3.jpg"" width=""540"" height = ""360"">","null","","","","","","","","",""
"null","","html-keyboard-response","75","91910","0.0-75.0","","","","","","null","","","","","","","","",""
"null","","image-keyboard-response","76","94412","0.0-76.0","","","","","img/set1/S4.jpg","null","4","random","74","random,structured_normal,structured_incentive","2,3,1,2","2,1,4,3","false","",""
"null","","html-keyboard-response","77","94765","0.0-77.0","","","","","<img src=""img/set1/S4.jpg"" width=""540"" height = ""360"">","null","","","","","","","","",""
"null","","html-keyboard-response","78","94967","0.0-78.0","","","","","","null","","","","","","","","",""
"null","","image-keyboard-response","79","97469","0.0-79.0","","","","","img/set1/S2.jpg","null","2","random","68","random,structured_normal,structured_incentive","2,3,1,2","2,1,4,3","false","",""
"null","","html-keyboard-response","80","97823","0.0-80.0","","","","","<img src=""img/set1/S2.jpg"" width=""540"" height = ""360"">","null","","","","","","","","",""
"null","","html-keyboard-response","81","98025","0.0-81.0","","","","","","null","","","","","","","","",""
"null","","image-keyboard-response","82","100528","0.0-82.0","","","","","img/set1/S1.jpg","null","1","random","83","random,structured_normal,structured_incentive","2,3,1,2","2,1,4,3","false","",""
"null","","html-keyboard-response","83","100881","0.0-83.0","","","","","<img src=""img/set1/S1.jpg"" width=""540"" height = ""360"">","null","","","","","","","","",""
"null","","html-keyboard-response","84","101083","0.0-84.0","","","","","","null","","","","","","","","",""
"null","","image-keyboard-response","85","103586","0.0-85.0","","","","","img/set1/S2.jpg","null","2","random","68","random,structured_normal,structured_incentive","2,3,1,2","2,1,4,3","false","",""
"null","","html-keyboard-response","86","103939","0.0-86.0","","","","","<img src=""img/set1/S2.jpg"" width=""540"" height = ""360"">","null","","","","","","","","",""
"null","","html-keyboard-response","87","104141","0.0-87.0","","","","","","null","","","","","","","","",""
"null","","image-keyboard-response","88","106644","0.0-88.0","","","","","img/set1/S1.jpg","null","1","random","83","random,structured_normal,structured_incentive","2,3,1,2","2,1,4,3","false","",""
"null","","html-keyboard-response","89","107065","0.0-89.0","","","","","<img src=""img/set1/S1.jpg"" width=""540"" height = ""360"">","null","","","","","","","","",""
"null","","html-keyboard-response","90","109259","0.0-90.0","","","","","","null","","","","","","","","",""
"null","","image-keyboard-response","91","112280","0.0-91.0","","","","","img/set1/S1.jpg","null","1","random","83","random,structured_normal,structured_incentive","2,3,1,2","2,1,4,3","false","",""
"null","","html-keyboard-response","92","112631","0.0-92.0","","","","","<img src=""img/set1/S1.jpg"" width=""540"" height = ""360"">","null","","","","","","","","",""
"null","","html-keyboard-response","93","112833","0.0-93.0","","","","","","null","","","","","","","","",""
"null","","image-keyboard-response","94","115335","0.0-94.0","","","","","img/set1/S4.jpg","null","4","random","74","random,structured_normal,structured_incentive","2,3,1,2","2,1,4,3","false","",""
"null","","html-keyboard-response","95","115687","0.0-95.0","","","","","<img src=""img/set1/S4.jpg"" width=""540"" height = ""360"">","null","","","","","","","","",""
"null","","html-keyboard-response","96","115889","0.0-96.0","","","","","","null","","","","","","","","",""
"null","","image-keyboard-response","97","118392","0.0-97.0","","","","","img/set1/S1.jpg","null","1","random","83","random,structured_normal,structured_incentive","2,3,1,2","2,1,4,3","false","",""
"null","","html-keyboard-response","98","119727","0.0-98.0","","","","","<img src=""img/set1/S1.jpg"" width=""540"" height = ""360"">","null","","","","","","","","",""
"null","","html-keyboard-response","99","121925","0.0-99.0","","","","","","null","","","","","","","","",""
"null","","image-keyboard-response","100","127592","0.0-100.0","","","","","img/set1/S2.jpg","null","2","random","68","random,structured_normal,structured_incentive","2,3,1,2","2,1,4,3","false","",""
"null","","html-keyboard-response","101","128651","0.0-101.0","","","","","<img src=""img/set1/S2.jpg"" width=""540"" height = ""360"">","null","","","","","","","","",""
"null","","html-keyboard-response","102","138672","0.0-102.0","","","","","","null","","","","","","","","",""
"null","","image-keyboard-response","103","158339","0.0-103.0","","","","","img/set1/S2.jpg","null","2","random","68","random,structured_normal,structured_incentive","2,3,1,2","2,1,4,3","false","",""
"null","","html-keyboard-response","104","175408","0.0-104.0","","","","","<img src=""img/set1/S2.jpg"" width=""540"" height = ""360"">","null","","","","","","","","",""
"null","","html-keyboard-response","105","203967","0.0-105.0","","","","","","null","","","","","","","","",""
"null","","image-keyboard-response","106","248424","0.0-106.0","","","","","img/set1/S4.jpg","null","4","random","74","random,structured_normal,structured_incentive","2,3,1,2","2,1,4,3","false","",""
"null","","html-keyboard-response","107","283972","0.0-107.0","","","","","<img src=""img/set1/S4.jpg"" width=""540"" height = ""360"">","null","","","","","","","","",""
"null","","html-keyboard-response","108","323971","0.0-108.0","","","","","","null","","","","","","","","",""
"null","","image-keyboard-response","109","328325","0.0-109.0","","","","","img/set1/S2.jpg","null","2","random","68","random,structured_normal,structured_incentive","2,3,1,2","2,1,4,3","false","",""
"null","","html-keyboard-response","110","328678","0.0-110.0","","","","","<img src=""img/set1/S2.jpg"" width=""540"" height = ""360"">","null","","","","","","","","",""
"null","","html-keyboard-response","111","328880","0.0-111.0","","","","","","null","","","","","","","","",""
"1596","","image-keyboard-response","112","330477","0.0-112.0","","","","","img/set1/S3.jpg","83","3","random","72","random,structured_normal,structured_incentive","2,3,1,2","2,1,4,3","false","",""
"null","","html-keyboard-response","113","330830","0.0-113.0","","","","","<img src=""img/set1/S3.jpg"" width=""540"" height = ""360"">","null","","","","","","","","",""
"null","","html-keyboard-response","114","331032","0.0-114.0","","","","","","null","","","","","","","","",""
"171","","image-keyboard-response","115","331204","0.0-115.0","","","","","img/set1/S3.jpg","68","3","random","72","random,structured_normal,structured_incentive","2,3,1,2","2,1,4,3","false","",""
"null","","html-keyboard-response","116","331557","0.0-116.0","","","","","<img src=""img/set1/S3.jpg"" width=""540"" height = ""360"">","null","","","","","","","","",""
"null","","html-keyboard-response","117","331759","0.0-117.0","","","","","","null","","","","","","","","",""
"75","","image-keyboard-response","118","331836","0.0-118.0","","","","","img/set1/S3.jpg","68","3","random","72","random,structured_normal,structured_incentive","2,3,1,2","2,1,4,3","false","",""
"null","","html-keyboard-response","119","332189","0.0-119.0","","","","","<img src=""img/set1/S3.jpg"" width=""540"" height = ""360"">","null","","","","","","","","",""
"null","","html-keyboard-response","120","332391","0.0-120.0","","","","","","null","","","","","","","","",""
"124","","image-keyboard-response","121","332516","0.0-121.0","","","","","img/set1/S2.jpg","68","2","random","68","random,structured_normal,structured_incentive","2,3,1,2","2,1,4,3","true","",""
"null","","html-keyboard-response","122","332869","0.0-122.0","","","","","<img src=""img/set1/S2.jpg"" width=""540"" height = ""360"" style=""border:16px solid orange"">","null","","","","","","","","",""
"null","","html-keyboard-response","123","333071","0.0-123.0","","","","","","null","","","","","","","","",""
"145.9999999999418","","image-keyboard-response","124","333218","0.0-124.0","","","","","img/set1/S1.jpg","83","1","random","83","random,structured_normal,structured_incentive","2,3,1,2","2,1,4,3","true","",""
"null","","html-keyboard-response","125","333570","0.0-125.0","","","","","<img src=""img/set1/S1.jpg"" width=""540"" height = ""360"" style=""border:16px solid orange"">","null","","","","","","","","",""
"null","","html-keyboard-response","126","333773","0.0-126.0","","","","","","null","","","","","","","","",""
"29.999999999941792","","image-keyboard-response","127","333804","0.0-127.0","","","","","img/set1/S1.jpg","68","1","random","83","random,structured_normal,structured_incentive","2,3,1,2","2,1,4,3","false","",""
"null","","html-keyboard-response","128","334156","0.0-128.0","","","","","<img src=""img/set1/S1.jpg"" width=""540"" height = ""360"">","null","","","","","","","","",""
"null","","html-keyboard-response","129","334358","0.0-129.0","","","","","","null","","","","","","","","",""
"172","","image-keyboard-response","130","334532","0.0-130.0","","","","","img/set1/S4.jpg","68","4","random","74","random,structured_normal,structured_incentive","2,3,1,2","2,1,4,3","false","",""
"null","","html-keyboard-response","131","334884","0.0-131.0","","","","","<img src=""img/set1/S4.jpg"" width=""540"" height = ""360"">","null","","","","","","","","",""
"null","","html-keyboard-response","132","335086","0.0-132.0","","","","","","null","","","","","","","","",""
"null","","image-keyboard-response","133","337589","0.0-133.0","","","","","img/set1/S1.jpg","null","1","random","83","random,structured_normal,structured_incentive","2,3,1,2","2,1,4,3","false","",""
"null","","html-keyboard-response","134","337941","0.0-134.0","","","","","<img src=""img/set1/S1.jpg"" width=""540"" height = ""360"">","null","","","","","","","","",""
"null","","html-keyboard-response","135","338143","0.0-135.0","","","","","","null","","","","","","","","",""
"null","","image-keyboard-response","136","343644","0.0-136.0","","","","","img/set1/S3.jpg","null","3","random","72","random,structured_normal,structured_incentive","2,3,1,2","2,1,4,3","false","",""
"null","","html-keyboard-response","137","344045","0.0-137.0","","","","","<img src=""img/set1/S3.jpg"" width=""540"" height = ""360"">","null","","","","","","","","",""
"null","","html-keyboard-response","138","344492","0.0-138.0","","","","","","null","","","","","","","","",""
"799","","image-keyboard-response","139","345292","0.0-139.0","","","","","img/set1/S1.jpg","68","1","random","83","random,structured_normal,structured_incentive","2,3,1,2","2,1,4,3","false","",""
"null","","html-keyboard-response","140","345644","0.0-140.0","","","","","<img src=""img/set1/S1.jpg"" width=""540"" height = ""360"">","null","","","","","","","","",""
"null","","html-keyboard-response","141","345845","0.0-141.0","","","","","","null","","","","","","","","",""
"13","","image-keyboard-response","142","345860","0.0-142.0","","","","","img/set1/S1.jpg","83","1","random","83","random,structured_normal,structured_incentive","2,3,1,2","2,1,4,3","true","",""
"null","","html-keyboard-response","143","346213","0.0-143.0","","","","","<img src=""img/set1/S1.jpg"" width=""540"" height = ""360"" style=""border:16px solid orange"">","null","","","","","","","","",""
"null","","html-keyboard-response","144","346414","0.0-144.0","","","","","","null","","","","","","","","",""
"41","","image-keyboard-response","145","346457","0.0-145.0","","","","","img/set1/S4.jpg","83","4","random","74","random,structured_normal,structured_incentive","2,3,1,2","2,1,4,3","false","",""
"null","","html-keyboard-response","146","346808","0.0-146.0","","","","","<img src=""img/set1/S4.jpg"" width=""540"" height = ""360"">","null","","","","","","","","",""
"null","","html-keyboard-response","147","347010","0.0-147.0","","","","","","null","","","","","","","","",""
"null","","image-keyboard-response","148","349513","0.0-148.0","","","","","img/set1/S1.jpg","null","1","random","83","random,structured_normal,structured_incentive","2,3,1,2","2,1,4,3","false","",""
"null","","html-keyboard-response","149","349871","0.0-149.0","","","","","<img src=""img/set1/S1.jpg"" width=""540"" height = ""360"">","null","","","","","","","","",""
"null","","html-keyboard-response","150","350073","0.0-150.0","","","","","","null","","","","","","","","",""
"null","","image-keyboard-response","151","353932","0.0-151.0","","","","","img/set1/S4.jpg","null","4","random","74","random,structured_normal,structured_incentive","2,3,1,2","2,1,4,3","false","",""
"null","","html-keyboard-response","152","363932","0.0-152.0","","","","","<img src=""img/set1/S4.jpg"" width=""540"" height = ""360"">","null","","","","","","","","",""
"null","","html-keyboard-response","153","376716","0.0-153.0","","","","","","null","","","","","","","","",""
"null","","image-keyboard-response","154","397441","0.0-154.0","","","","","img/set1/S4.jpg","null","4","random","74","random,structured_normal,structured_incentive","2,3,1,2","2,1,4,3","false","",""
"null","","html-keyboard-response","155","397794","0.0-155.0","","","","","<img src=""img/set1/S4.jpg"" width=""540"" height = ""360"">","null","","","","","","","","",""
"null","","html-keyboard-response","156","397995","0.0-156.0","","","","","","null","","","","","","","","",""
"null","","image-keyboard-response","157","400498","0.0-157.0","","","","","img/set1/S3.jpg","null","3","random","72","random,structured_normal,structured_incentive","2,3,1,2","2,1,4,3","false","",""
"null","","html-keyboard-response","158","400851","0.0-158.0","","","","","<img src=""img/set1/S3.jpg"" width=""540"" height = ""360"">","null","","","","","","","","",""
"null","","html-keyboard-response","159","401052","0.0-159.0","","","","","","null","","","","","","","","",""
"null","","image-keyboard-response","160","403554","0.0-160.0","","","","","img/set1/S4.jpg","null","4","random","74","random,structured_normal,structured_incentive","2,3,1,2","2,1,4,3","false","",""
"null","","html-keyboard-response","161","403906","0.0-161.0","","","","","<img src=""img/set1/S4.jpg"" width=""540"" height = ""360"">","null","","","","","","","","",""
"null","","html-keyboard-response","162","404107","0.0-162.0","","","","","","null","","","","","","","","",""
"null","","image-keyboard-response","163","406609","0.0-163.0","","","","","img/set1/S1.jpg","null","1","random","83","random,structured_normal,structured_incentive","2,3,1,2","2,1,4,3","false","",""
"null","","html-keyboard-response","164","406961","0.0-164.0","","","","","<img src=""img/set1/S1.jpg"" width=""540"" height = ""360"">","null","","","","","","","","",""
"null","","html-keyboard-response","165","407162","0.0-165.0","","","","","","null","","","","","","","","",""
"null","","image-keyboard-response","166","409665","0.0-166.0","","","","","img/set1/S1.jpg","null","1","random","83","random,structured_normal,structured_incentive","2,3,1,2","2,1,4,3","false","",""
"null","","html-keyboard-response","167","410017","0.0-167.0","","","","","<img src=""img/set1/S1.jpg"" width=""540"" height = ""360"">","null","","","","","","","","",""
"null","","html-keyboard-response","168","410218","0.0-168.0","","","","","","null","","","","","","","","",""
"null","","image-keyboard-response","169","412720","0.0-169.0","","","","","img/set1/S4.jpg","null","4","random","74","random,structured_normal,structured_incentive","2,3,1,2","2,1,4,3","false","",""
"null","","html-keyboard-response","170","413073","0.0-170.0","","","","","<img src=""img/set1/S4.jpg"" width=""540"" height = ""360"">","null","","","","","","","","",""
"null","","html-keyboard-response","171","413275","0.0-171.0","","","","","","null","","","","","","","","",""
"null","","image-keyboard-response","172","415778","0.0-172.0","","","","","img/set1/S3.jpg","null","3","random","72","random,structured_normal,structured_incentive","2,3,1,2","2,1,4,3","false","",""
"null","","html-keyboard-response","173","416131","0.0-173.0","","","","","<img src=""img/set1/S3.jpg"" width=""540"" height = ""360"">","null","","","","","","","","",""
"null","","html-keyboard-response","174","416333","0.0-174.0","","","","","","null","","","","","","","","",""
"null","","image-keyboard-response","175","418836","0.0-175.0","","","","","img/set1/S3.jpg","null","3","random","72","random,structured_normal,structured_incentive","2,3,1,2","2,1,4,3","false","",""
"null","","html-keyboard-response","176","419188","0.0-176.0","","","","","<img src=""img/set1/S3.jpg"" width=""540"" height = ""360"">","null","","","","","","","","",""
"null","","html-keyboard-response","177","419390","0.0-177.0","","","","","","null","","","","","","","","",""
"null","","image-keyboard-response","178","421892","0.0-178.0","","","","","img/set1/S1.jpg","null","1","random","83","random,structured_normal,structured_incentive","2,3,1,2","2,1,4,3","false","",""
"null","","html-keyboard-response","179","422245","0.0-179.0","","","","","<img src=""img/set1/S1.jpg"" width=""540"" height = ""360"">","null","","","","","","","","",""
"null","","html-keyboard-response","180","422447","0.0-180.0","","","","","","null","","","","","","","","",""
"null","","image-keyboard-response","181","424949","0.0-181.0","","","","","img/set1/S4.jpg","null","4","random","74","random,structured_normal,structured_incentive","2,3,1,2","2,1,4,3","false","",""
"null","","html-keyboard-response","182","425302","0.0-182.0","","","","","<img src=""img/set1/S4.jpg"" width=""540"" height = ""360"">","null","","","","","","","","",""
"null","","html-keyboard-response","183","425504","0.0-183.0","","","","","","null","","","","","","","","",""
"null","","image-keyboard-response","184","428006","0.0-184.0","","","","","img/set1/S2.jpg","null","2","random","68","random,structured_normal,structured_incentive","2,3,1,2","2,1,4,3","false","",""
"null","","html-keyboard-response","185","428359","0.0-185.0","","","","","<img src=""img/set1/S2.jpg"" width=""540"" height = ""360"">","null","","","","","","","","",""
"null","","html-keyboard-response","186","428561","0.0-186.0","","","","","","null","","","","","","","","",""
"null","","image-keyboard-response","187","431064","0.0-187.0","","","","","img/set1/S2.jpg","null","2","random","68","random,structured_normal,structured_incentive","2,3,1,2","2,1,4,3","false","",""
"null","","html-keyboard-response","188","431417","0.0-188.0","","","","","<img src=""img/set1/S2.jpg"" width=""540"" height = ""360"">","null","","","","","","","","",""
"null","","html-keyboard-response","189","431620","0.0-189.0","","","","","","null","","","","","","","","",""
"null","","image-keyboard-response","190","434122","0.0-190.0","","","","","img/set1/S4.jpg","null","4","random","74","random,structured_normal,structured_incentive","2,3,1,2","2,1,4,3","false","",""
"null","","html-keyboard-response","191","434475","0.0-191.0","","","","","<img src=""img/set1/S4.jpg"" width=""540"" height = ""360"">","null","","","","","","","","",""
"null","","html-keyboard-response","192","434676","0.0-192.0","","","","","","null","","","","","","","","",""
"null","","image-keyboard-response","193","437178","0.0-193.0","","","","","img/set1/S1.jpg","null","1","random","83","random,structured_normal,structured_incentive","2,3,1,2","2,1,4,3","false","",""
"null","","html-keyboard-response","194","437531","0.0-194.0","","","","","<img src=""img/set1/S1.jpg"" width=""540"" height = ""360"">","null","","","","","","","","",""
"null","","html-keyboard-response","195","437734","0.0-195.0","","","","","","null","","","","","","","","",""
"null","","image-keyboard-response","196","440236","0.0-196.0","","","","","img/set1/S2.jpg","null","2","random","68","random,structured_normal,structured_incentive","2,3,1,2","2,1,4,3","false","",""
"null","","html-keyboard-response","197","440589","0.0-197.0","","","","","<img src=""img/set1/S2.jpg"" width=""540"" height = ""360"">","null","","","","","","","","",""
"null","","html-keyboard-response","198","440791","0.0-198.0","","","","","","null","","","","","","","","",""
"null","","image-keyboard-response","199","443293","0.0-199.0","","","","","img/set1/S2.jpg","null","2","random","68","random,structured_normal,structured_incentive","2,3,1,2","2,1,4,3","false","",""
"null","","html-keyboard-response","200","443646","0.0-200.0","","","","","<img src=""img/set1/S2.jpg"" width=""540"" height = ""360"">","null","","","","","","","","",""
"null","","html-keyboard-response","201","443848","0.0-201.0","","","","","","null","","","","","","","","",""
"null","","image-keyboard-response","202","446351","0.0-202.0","","","","","img/set1/S3.jpg","null","3","random","72","random,structured_normal,structured_incentive","2,3,1,2","2,1,4,3","false","",""
"null","","html-keyboard-response","203","446703","0.0-203.0","","","","","<img src=""img/set1/S3.jpg"" width=""540"" height = ""360"">","null","","","","","","","","",""
"null","","html-keyboard-response","204","446905","0.0-204.0","","","","","","null","","","","","","","","",""
"null","","image-keyboard-response","205","449406","0.0-205.0","","","","","img/set1/S2.jpg","null","2","random","68","random,structured_normal,structured_incentive","2,3,1,2","2,1,4,3","false","",""
"null","","html-keyboard-response","206","449758","0.0-206.0","","","","","<img src=""img/set1/S2.jpg"" width=""540"" height = ""360"">","null","","","","","","","","",""
"null","","html-keyboard-response","207","449959","0.0-207.0","","","","","","null","","","","","","","","",""
"null","","image-keyboard-response","208","452460","0.0-208.0","","","","","img/set1/S2.jpg","null","2","random","68","random,structured_normal,structured_incentive","2,3,1,2","2,1,4,3","false","",""
"null","","html-keyboard-response","209","452811","0.0-209.0","","","","","<img src=""img/set1/S2.jpg"" width=""540"" height = ""360"">","null","","","","","","","","",""
"null","","html-keyboard-response","210","453012","0.0-210.0","","","","","","null","","","","","","","","",""
"null","","image-keyboard-response","211","455514","0.0-211.0","","","","","img/set1/S4.jpg","null","4","random","74","random,structured_normal,structured_incentive","2,3,1,2","2,1,4,3","false","",""
"null","","html-keyboard-response","212","455865","0.0-212.0","","","","","<img src=""img/set1/S4.jpg"" width=""540"" height = ""360"">","null","","","","","","","","",""
"null","","html-keyboard-response","213","456066","0.0-213.0","","","","","","null","","","","","","","","",""
"null","","image-keyboard-response","214","458567","0.0-214.0","","","","","img/set1/S3.jpg","null","3","random","72","random,structured_normal,structured_incentive","2,3,1,2","2,1,4,3","false","",""
"null","","html-keyboard-response","215","458919","0.0-215.0","","","","","<img src=""img/set1/S3.jpg"" width=""540"" height = ""360"">","null","","","","","","","","",""
"null","","html-keyboard-response","216","459121","0.0-216.0","","","","","","null","","","","","","","","",""
"null","","image-keyboard-response","217","461622","0.0-217.0","","","","","img/set1/S2.jpg","null","2","random","68","random,structured_normal,structured_incentive","2,3,1,2","2,1,4,3","false","",""
"null","","html-keyboard-response","218","461974","0.0-218.0","","","","","<img src=""img/set1/S2.jpg"" width=""540"" height = ""360"">","null","","","","","","","","",""
"null","","html-keyboard-response","219","462175","0.0-219.0","","","","","","null","","","","","","","","",""
"null","","image-keyboard-response","220","464677","0.0-220.0","","","","","img/set1/S1.jpg","null","1","random","83","random,structured_normal,structured_incentive","2,3,1,2","2,1,4,3","false","",""
"null","","html-keyboard-response","221","465028","0.0-221.0","","","","","<img src=""img/set1/S1.jpg"" width=""540"" height = ""360"">","null","","","","","","","","",""
"null","","html-keyboard-response","222","465230","0.0-222.0","","","","","","null","","","","","","","","",""
"null","","image-keyboard-response","223","467732","0.0-223.0","","","","","img/set1/S3.jpg","null","3","random","72","random,structured_normal,structured_incentive","2,3,1,2","2,1,4,3","false","",""
"null","","html-keyboard-response","224","468084","0.0-224.0","","","","","<img src=""img/set1/S3.jpg"" width=""540"" height = ""360"">","null","","","","","","","","",""
"null","","html-keyboard-response","225","468285","0.0-225.0","","","","","","null","","","","","","","","",""
"null","","image-keyboard-response","226","470786","0.0-226.0","","","","","img/set1/S1.jpg","null","1","random","83","random,structured_normal,structured_incentive","2,3,1,2","2,1,4,3","false","",""
"null","","html-keyboard-response","227","471138","0.0-227.0","","","","","<img src=""img/set1/S1.jpg"" width=""540"" height = ""360"">","null","","","","","","","","",""
"null","","html-keyboard-response","228","471339","0.0-228.0","","","","","","null","","","","","","","","",""
"null","","image-keyboard-response","229","473841","0.0-229.0","","","","","img/set1/S2.jpg","null","2","random","68","random,structured_normal,structured_incentive","2,3,1,2","2,1,4,3","false","",""
"null","","html-keyboard-response","230","474193","0.0-230.0","","","","","<img src=""img/set1/S2.jpg"" width=""540"" height = ""360"">","null","","","","","","","","",""
"null","","html-keyboard-response","231","474395","0.0-231.0","","","","","","null","","","","","","","","",""
"null","","image-keyboard-response","232","476896","0.0-232.0","","","","","img/set1/S1.jpg","null","1","random","83","random,structured_normal,structured_incentive","2,3,1,2","2,1,4,3","false","",""
"null","","html-keyboard-response","233","477248","0.0-233.0","","","","","<img src=""img/set1/S1.jpg"" width=""540"" height = ""360"">","null","","","","","","","","",""
"null","","html-keyboard-response","234","477449","0.0-234.0","","","","","","null","","","","","","","","",""
"null","","image-keyboard-response","235","479950","0.0-235.0","","","","","img/set1/S1.jpg","null","1","random","83","random,structured_normal,structured_incentive","2,3,1,2","2,1,4,3","false","",""
"null","","html-keyboard-response","236","480301","0.0-236.0","","","","","<img src=""img/set1/S1.jpg"" width=""540"" height = ""360"">","null","","","","","","","","",""
"null","","html-keyboard-response","237","480502","0.0-237.0","","","","","","null","","","","","","","","",""
"null","","image-keyboard-response","238","483004","0.0-238.0","","","","","img/set1/S3.jpg","null","3","random","72","random,structured_normal,structured_incentive","2,3,1,2","2,1,4,3","false","",""
"null","","html-keyboard-response","239","483355","0.0-239.0","","","","","<img src=""img/set1/S3.jpg"" width=""540"" height = ""360"">","null","","","","","","","","",""
"null","","html-keyboard-response","240","483556","0.0-240.0","","","","","","null","","","","","","","","",""
"null","","image-keyboard-response","241","486058","0.0-241.0","","","","","img/set1/S4.jpg","null","4","random","74","random,structured_normal,structured_incentive","2,3,1,2","2,1,4,3","false","",""
"null","","html-keyboard-response","242","486410","0.0-242.0","","","","","<img src=""img/set1/S4.jpg"" width=""540"" height = ""360"">","null","","","","","","","","",""
"null","","html-keyboard-response","243","486611","0.0-243.0","","","","","","null","","","","","","","","",""
"null","","image-keyboard-response","244","489113","0.0-244.0","","","","","img/set1/S2.jpg","null","2","random","68","random,structured_normal,structured_incentive","2,3,1,2","2,1,4,3","false","",""
"null","","html-keyboard-response","245","489465","0.0-245.0","","","","","<img src=""img/set1/S2.jpg"" width=""540"" height = ""360"">","null","","","","","","","","",""
"null","","html-keyboard-response","246","489666","0.0-246.0","","","","","","null","","","","","","","","",""
"null","","image-keyboard-response","247","492168","0.0-247.0","","","","","img/set1/S1.jpg","null","1","random","83","random,structured_normal,structured_incentive","2,3,1,2","2,1,4,3","false","",""
"null","","html-keyboard-response","248","492520","0.0-248.0","","","","","<img src=""img/set1/S1.jpg"" width=""540"" height = ""360"">","null","","","","","","","","",""
"null","","html-keyboard-response","249","492721","0.0-249.0","","","","","","null","","","","","","","","",""
"null","","image-keyboard-response","250","495224","0.0-250.0","","","","","img/set1/S3.jpg","null","3","random","72","random,structured_normal,structured_incentive","2,3,1,2","2,1,4,3","false","",""
"null","","html-keyboard-response","251","495576","0.0-251.0","","","","","<img src=""img/set1/S3.jpg"" width=""540"" height = ""360"">","null","","","","","","","","",""
"null","","html-keyboard-response","252","495778","0.0-252.0","","","","","","null","","","","","","","","",""
"null","","image-keyboard-response","253","498279","0.0-253.0","","","","","img/set1/S4.jpg","null","4","random","74","random,structured_normal,structured_incentive","2,3,1,2","2,1,4,3","false","",""
"null","","html-keyboard-response","254","498632","0.0-254.0","","","","","<img src=""img/set1/S4.jpg"" width=""540"" height = ""360"">","null","","","","","","","","",""
"null","","html-keyboard-response","255","498834","0.0-255.0","","","","","","null","","","","","","","","",""
"null","","image-keyboard-response","256","501336","0.0-256.0","","","","","img/set1/S4.jpg","null","4","random","74","random,structured_normal,structured_incentive","2,3,1,2","2,1,4,3","false","",""
"null","","html-keyboard-response","257","501689","0.0-257.0","","","","","<img src=""img/set1/S4.jpg"" width=""540"" height = ""360"">","null","","","","","","","","",""
"null","","html-keyboard-response","258","501891","0.0-258.0","","","","","","null","","","","","","","","",""
"null","","image-keyboard-response","259","504394","0.0-259.0","","","","","img/set1/S2.jpg","null","2","random","68","random,structured_normal,structured_incentive","2,3,1,2","2,1,4,3","false","",""
"null","","html-keyboard-response","260","504747","0.0-260.0","","","","","<img src=""img/set1/S2.jpg"" width=""540"" height = ""360"">","null","","","","","","","","",""
"null","","html-keyboard-response","261","504949","0.0-261.0","","","","","","null","","","","","","","","",""
"null","","image-keyboard-response","262","507452","0.0-262.0","","","","","img/set1/S3.jpg","null","3","random","72","random,structured_normal,structured_incentive","2,3,1,2","2,1,4,3","false","",""
"null","","html-keyboard-response","263","507805","0.0-263.0","","","","","<img src=""img/set1/S3.jpg"" width=""540"" height = ""360"">","null","","","","","","","","",""
"null","","html-keyboard-response","264","508007","0.0-264.0","","","","","","null","","","","","","","","",""
"null","","image-keyboard-response","265","510510","0.0-265.0","","","","","img/set1/S3.jpg","null","3","random","72","random,structured_normal,structured_incentive","2,3,1,2","2,1,4,3","false","",""
"null","","html-keyboard-response","266","510863","0.0-266.0","","","","","<img src=""img/set1/S3.jpg"" width=""540"" height = ""360"">","null","","","","","","","","",""
"null","","html-keyboard-response","267","511065","0.0-267.0","","","","","","null","","","","","","","","",""
"null","","image-keyboard-response","268","513568","0.0-268.0","","","","","img/set1/S2.jpg","null","2","random","68","random,structured_normal,structured_incentive","2,3,1,2","2,1,4,3","false","",""
"null","","html-keyboard-response","269","513921","0.0-269.0","","","","","<img src=""img/set1/S2.jpg"" width=""540"" height = ""360"">","null","","","","","","","","",""
"null","","html-keyboard-response","270","514122","0.0-270.0","","","","","","null","","","","","","","","",""
"null","","image-keyboard-response","271","516625","0.0-271.0","","","","","img/set1/S2.jpg","null","2","random","68","random,structured_normal,structured_incentive","2,3,1,2","2,1,4,3","false","",""
"null","","html-keyboard-response","272","516977","0.0-272.0","","","","","<img src=""img/set1/S2.jpg"" width=""540"" height = ""360"">","null","","","","","","","","",""
"null","","html-keyboard-response","273","517179","0.0-273.0","","","","","","null","","","","","","","","",""
"null","","image-keyboard-response","274","519682","0.0-274.0","","","","","img/set1/S1.jpg","null","1","random","83","random,structured_normal,structured_incentive","2,3,1,2","2,1,4,3","false","",""
"null","","html-keyboard-response","275","520035","0.0-275.0","","","","","<img src=""img/set1/S1.jpg"" width=""540"" height = ""360"">","null","","","","","","","","",""
"null","","html-keyboard-response","276","520237","0.0-276.0","","","","","","null","","","","","","","","",""
"null","","image-keyboard-response","277","522740","0.0-277.0","","","","","img/set1/S2.jpg","null","2","random","68","random,structured_normal,structured_incentive","2,3,1,2","2,1,4,3","false","",""
"null","","html-keyboard-response","278","523093","0.0-278.0","","","","","<img src=""img/set1/S2.jpg"" width=""540"" height = ""360"">","null","","","","","","","","",""
"null","","html-keyboard-response","279","523295","0.0-279.0","","","","","","null","","","","","","","","",""
"null","","image-keyboard-response","280","525798","0.0-280.0","","","","","img/set1/S4.jpg","null","4","random","74","random,structured_normal,structured_incentive","2,3,1,2","2,1,4,3","false","",""
"null","","html-keyboard-response","281","526151","0.0-281.0","","","","","<img src=""img/set1/S4.jpg"" width=""540"" height = ""360"">","null","","","","","","","","",""
"null","","html-keyboard-response","282","526353","0.0-282.0","","","","","","null","","","","","","","","",""
"null","","image-keyboard-response","283","528856","0.0-283.0","","","","","img/set1/S3.jpg","null","3","random","72","random,structured_normal,structured_incentive","2,3,1,2","2,1,4,3","false","",""
"null","","html-keyboard-response","284","529208","0.0-284.0","","","","","<img src=""img/set1/S3.jpg"" width=""540"" height = ""360"">","null","","","","","","","","",""
"null","","html-keyboard-response","285","529410","0.0-285.0","","","","","","null","","","","","","","","",""
"null","","image-keyboard-response","286","531913","0.0-286.0","","","","","img/set1/S3.jpg","null","3","random","72","random,structured_normal,structured_incentive","2,3,1,2","2,1,4,3","false","",""
"null","","html-keyboard-response","287","532265","0.0-287.0","","","","","<img src=""img/set1/S3.jpg"" width=""540"" height = ""360"">","null","","","","","","","","",""
"null","","html-keyboard-response","288","532468","0.0-288.0","","","","","","null","","","","","","","","",""
"null","","image-keyboard-response","289","534970","0.0-289.0","","","","","img/set1/S2.jpg","null","2","random","68","random,structured_normal,structured_incentive","2,3,1,2","2,1,4,3","false","",""
"null","","html-keyboard-response","290","535324","0.0-290.0","","","","","<img src=""img/set1/S2.jpg"" width=""540"" height = ""360"">","null","","","","","","","","",""
"null","","html-keyboard-response","291","535526","0.0-291.0","","","","","","null","","","","","","","","",""
"null","","image-keyboard-response","292","538028","0.0-292.0","","","","","img/set1/S1.jpg","null","1","random","83","random,structured_normal,structured_incentive","2,3,1,2","2,1,4,3","false","",""
"null","","html-keyboard-response","293","538379","0.0-293.0","","","","","<img src=""img/set1/S1.jpg"" width=""540"" height = ""360"">","null","","","","","","","","",""
"null","","html-keyboard-response","294","538581","0.0-294.0","","","","","","null","","","","","","","","",""
"null","","image-keyboard-response","295","541084","0.0-295.0","","","","","img/set1/S2.jpg","null","2","random","68","random,structured_normal,structured_incentive","2,3,1,2","2,1,4,3","false","",""
"null","","html-keyboard-response","296","541437","0.0-296.0","","","","","<img src=""img/set1/S2.jpg"" width=""540"" height = ""360"">","null","","","","","","","","",""
"null","","html-keyboard-response","297","541639","0.0-297.0","","","","","","null","","","","","","","","",""
"null","","image-keyboard-response","298","544142","0.0-298.0","","","","","img/set1/S3.jpg","null","3","random","72","random,structured_normal,structured_incentive","2,3,1,2","2,1,4,3","false","",""
"null","","html-keyboard-response","299","544495","0.0-299.0","","","","","<img src=""img/set1/S3.jpg"" width=""540"" height = ""360"">","null","","","","","","","","",""
"null","","html-keyboard-response","300","544697","0.0-300.0","","","","","","null","","","","","","","","",""
"null","","image-keyboard-response","301","547200","0.0-301.0","","","","","img/set1/S4.jpg","null","4","random","74","random,structured_normal,structured_incentive","2,3,1,2","2,1,4,3","false","",""
"null","","html-keyboard-response","302","547552","0.0-302.0","","","","","<img src=""img/set1/S4.jpg"" width=""540"" height = ""360"">","null","","","","","","","","",""
"null","","html-keyboard-response","303","547754","0.0-303.0","","","","","","null","","","","","","","","",""
"null","","image-keyboard-response","304","550257","0.0-304.0","","","","","img/set1/S3.jpg","null","3","random","72","random,structured_normal,structured_incentive","2,3,1,2","2,1,4,3","false","",""
"null","","html-keyboard-response","305","550610","0.0-305.0","","","","","<img src=""img/set1/S3.jpg"" width=""540"" height = ""360"">","null","","","","","","","","",""
"null","","html-keyboard-response","306","550811","0.0-306.0","","","","","","null","","","","","","","","",""
"null","","image-keyboard-response","307","553313","0.0-307.0","","","","","img/set1/S4.jpg","null","4","random","74","random,structured_normal,structured_incentive","2,3,1,2","2,1,4,3","false","",""
"null","","html-keyboard-response","308","553666","0.0-308.0","","","","","<img src=""img/set1/S4.jpg"" width=""540"" height = ""360"">","null","","","","","","","","",""
"null","","html-keyboard-response","309","553869","0.0-309.0","","","","","","null","","","","","","","","",""
"null","","image-keyboard-response","310","556371","0.0-310.0","","","","","img/set1/S4.jpg","null","4","random","74","random,structured_normal,structured_incentive","2,3,1,2","2,1,4,3","false","",""
"null","","html-keyboard-response","311","556723","0.0-311.0","","","","","<img src=""img/set1/S4.jpg"" width=""540"" height = ""360"">","null","","","","","","","","",""
"null","","html-keyboard-response","312","556924","0.0-312.0","","","","","","null","","","","","","","","",""
"1150","","image-keyboard-response","313","558076","0.0-313.0","","","","","img/set1/S3.jpg","83","3","random","72","random,structured_normal,structured_incentive","2,3,1,2","2,1,4,3","false","",""
"null","","html-keyboard-response","314","558429","0.0-314.0","","","","","<img src=""img/set1/S3.jpg"" width=""540"" height = ""360"">","null","","","","","","","","",""
"null","","html-keyboard-response","315","558631","0.0-315.0","","","","","","null","","","","","","","","",""
"60","","image-keyboard-response","316","558693","0.0-316.0","","","","","img/set1/S1.jpg","83","1","random","83","random,structured_normal,structured_incentive","2,3,1,2","2,1,4,3","true","",""
"null","","html-keyboard-response","317","559045","0.0-317.0","","","","","<img src=""img/set1/S1.jpg"" width=""540"" height = ""360"" style=""border:16px solid orange"">","null","","","","","","","","",""
"null","","html-keyboard-response","318","559248","0.0-318.0","","","","","","null","","","","","","","","",""
"131","","image-keyboard-response","319","559380","0.0-319.0","","","","","img/set1/S4.jpg","83","4","random","74","random,structured_normal,structured_incentive","2,3,1,2","2,1,4,3","false","",""
"null","","html-keyboard-response","320","559733","0.0-320.0","","","","","<img src=""img/set1/S4.jpg"" width=""540"" height = ""360"">","null","","","","","","","","",""
"null","","html-keyboard-response","321","559935","0.0-321.0","","","","","","null","","","","","","","","",""
"27","","image-keyboard-response","322","559963","0.0-322.0","","","","","img/set1/S3.jpg","83","3","random","72","random,structured_normal,structured_incentive","2,3,1,2","2,1,4,3","false","",""
"null","","html-keyboard-response","323","560316","0.0-323.0","","","","","<img src=""img/set1/S3.jpg"" width=""540"" height = ""360"">","null","","","","","","","","",""
"null","","html-keyboard-response","324","560519","0.0-324.0","","","","","","null","","","","","","","","",""
"91.99999999988358","","image-keyboard-response","325","560611","0.0-325.0","","","","","img/set1/S2.jpg","83","2","random","68","random,structured_normal,structured_incentive","2,3,1,2","2,1,4,3","false","",""
"null","","html-keyboard-response","326","560964","0.0-326.0","","","","","<img src=""img/set1/S2.jpg"" width=""540"" height = ""360"">","null","","","","","","","","",""
"null","","html-keyboard-response","327","561167","0.0-327.0","","","","","","null","","","","","","","","",""
"156","","image-keyboard-response","328","561324","0.0-328.0","","","","","img/set1/S1.jpg","83","1","random","83","random,structured_normal,structured_incentive","2,3,1,2","2,1,4,3","true","",""
"null","","html-keyboard-response","329","561676","0.0-329.0","","","","","<img src=""img/set1/S1.jpg"" width=""540"" height = ""360"" style=""border:16px solid orange"">","null","","","","","","","","",""
"null","","html-keyboard-response","330","561879","0.0-330.0","","","","","","null","","","","","","","","",""
"107","","image-keyboard-response","331","561988","0.0-331.0","","","","","img/set1/S4.jpg","83","4","random","74","random,structured_normal,structured_incentive","2,3,1,2","2,1,4,3","false","",""
"null","","html-keyboard-response","332","562340","0.0-332.0","","","","","<img src=""img/set1/S4.jpg"" width=""540"" height = ""360"">","null","","","","","","","","",""
"null","","html-keyboard-response","333","562543","0.0-333.0","","","","","","null","","","","","","","","",""
"92","","image-keyboard-response","334","562635","0.0-334.0","","","","","img/set1/S1.jpg","83","1","random","83","random,structured_normal,structured_incentive","2,3,1,2","2,1,4,3","true","",""
"null","","html-keyboard-response","335","562988","0.0-335.0","","","","","<img src=""img/set1/S1.jpg"" width=""540"" height = ""360"" style=""border:16px solid orange"">","null","","","","","","","","",""
"null","","html-keyboard-response","336","563190","0.0-336.0","","","","","","null","","","","","","","","",""
"116","","image-keyboard-response","337","563307","0.0-337.0","","","","","img/set1/S1.jpg","83","1","random","83","random,structured_normal,structured_incentive","2,3,1,2","2,1,4,3","true","",""
"null","","html-keyboard-response","338","563660","0.0-338.0","","","","","<img src=""img/set1/S1.jpg"" width=""540"" height = ""360"" style=""border:16px solid orange"">","null","","","","","","","","",""
"null","","html-keyboard-response","339","563862","0.0-339.0","","","","","","null","","","","","","","","",""
"132.00000000011642","","image-keyboard-response","340","563996","0.0-340.0","","","","","img/set1/S1.jpg","83","1","random","83","random,structured_normal,structured_incentive","2,3,1,2","2,1,4,3","true","",""
"null","","html-keyboard-response","341","564348","0.0-341.0","","","","","<img src=""img/set1/S1.jpg"" width=""540"" height = ""360"" style=""border:16px solid orange"">","null","","","","","","","","",""
"null","","html-keyboard-response","342","564551","0.0-342.0","","","","","","null","","","","","","","","",""
"162","","image-keyboard-response","343","564715","0.0-343.0","","","","","img/set1/S4.jpg","83","4","random","74","random,structured_normal,structured_incentive","2,3,1,2","2,1,4,3","false","",""
"null","","html-keyboard-response","344","565067","0.0-344.0","","","","","<img src=""img/set1/S4.jpg"" width=""540"" height = ""360"">","null","","","","","","","","",""
"null","","html-keyboard-response","345","565270","0.0-345.0","","","","","","null","","","","","","","","",""
"165","","image-keyboard-response","346","565436","0.0-346.0","","","","","img/set1/S1.jpg","83","1","random","83","random,structured_normal,structured_incentive","2,3,1,2","2,1,4,3","true","",""
"null","","html-keyboard-response","347","565788","0.0-347.0","","","","","<img src=""img/set1/S1.jpg"" width=""540"" height = ""360"" style=""border:16px solid orange"">","null","","","","","","","","",""
"null","","html-keyboard-response","348","565990","0.0-348.0","","","","","","null","","","","","","","","",""
"148","","image-keyboard-response","349","566140","0.0-349.0","","","","","img/set1/S1.jpg","83","1","random","83","random,structured_normal,structured_incentive","2,3,1,2","2,1,4,3","true","",""
"null","","html-keyboard-response","350","566491","0.0-350.0","","","","","<img src=""img/set1/S1.jpg"" width=""540"" height = ""360"" style=""border:16px solid orange"">","null","","","","","","","","",""
"null","","html-keyboard-response","351","566693","0.0-351.0","","","","","","null","","","","","","","","",""
"159","","image-keyboard-response","352","566852","0.0-352.0","","","","","img/set1/S2.jpg","83","2","random","68","random,structured_normal,structured_incentive","2,3,1,2","2,1,4,3","false","",""
"null","","html-keyboard-response","353","567205","0.0-353.0","","","","","<img src=""img/set1/S2.jpg"" width=""540"" height = ""360"">","null","","","","","","","","",""
"null","","html-keyboard-response","354","567407","0.0-354.0","","","","","","null","","","","","","","","",""
"3","","image-keyboard-response","355","567412","0.0-355.0","","","","","img/set1/S4.jpg","83","4","random","74","random,structured_normal,structured_incentive","2,3,1,2","2,1,4,3","false","",""
"null","","html-keyboard-response","356","567764","0.0-356.0","","","","","<img src=""img/set1/S4.jpg"" width=""540"" height = ""360"">","null","","","","","","","","",""
"null","","html-keyboard-response","357","567967","0.0-357.0","","","","","","null","","","","","","","","",""
"89","","image-keyboard-response","358","568056","0.0-358.0","","","","","img/set1/S4.jpg","83","4","random","74","random,structured_normal,structured_incentive","2,3,1,2","2,1,4,3","false","",""
"null","","html-keyboard-response","359","568409","0.0-359.0","","","","","<img src=""img/set1/S4.jpg"" width=""540"" height = ""360"">","null","","","","","","","","",""
"null","","html-keyboard-response","360","568610","0.0-360.0","","","","","","null","","","","","","","","",""
"64","","image-keyboard-response","361","568675","0.0-361.0","","","","","img/set1/S2.jpg","83","2","random","68","random,structured_normal,structured_incentive","2,3,1,2","2,1,4,3","false","",""
"null","","html-keyboard-response","362","569028","0.0-362.0","","","","","<img src=""img/set1/S2.jpg"" width=""540"" height = ""360"">","null","","","","","","","","",""
"null","","html-keyboard-response","363","569231","0.0-363.0","","","","","","null","","","","","","","","",""
"318","","image-keyboard-response","364","569556","0.0-364.0","","","","","img/set1/S4.jpg","83","4","random","74","random,structured_normal,structured_incentive","2,3,1,2","2,1,4,3","false","",""
"null","","html-keyboard-response","365","569909","0.0-365.0","","","","","<img src=""img/set1/S4.jpg"" width=""540"" height = ""360"">","null","","","","","","","","",""
"null","","html-keyboard-response","366","570112","0.0-366.0","","","","","","null","","","","","","","","",""
"154","","image-keyboard-response","367","570268","0.0-367.0","","","","","img/set1/S4.jpg","83","4","random","74","random,structured_normal,structured_incentive","2,3,1,2","2,1,4,3","false","",""
"null","","html-keyboard-response","368","570621","0.0-368.0","","","","","<img src=""img/set1/S4.jpg"" width=""540"" height = ""360"">","null","","","","","","","","",""
"null","","html-keyboard-response","369","570823","0.0-369.0","","","","","","null","","","","","","","","",""
"19","","image-keyboard-response","370","570843","0.0-370.0","","","","","img/set1/S4.jpg","83","4","random","74","random,structured_normal,structured_incentive","2,3,1,2","2,1,4,3","false","",""
"null","","html-keyboard-response","371","571196","0.0-371.0","","","","","<img src=""img/set1/S4.jpg"" width=""540"" height = ""360"">","null","","","","","","","","",""
"null","","html-keyboard-response","372","571399","0.0-372.0","","","","","","null","","","","","","","","",""
"115","","image-keyboard-response","373","571515","0.0-373.0","","","","","img/set1/S4.jpg","83","4","random","74","random,structured_normal,structured_incentive","2,3,1,2","2,1,4,3","false","",""
"null","","html-keyboard-response","374","571868","0.0-374.0","","","","","<img src=""img/set1/S4.jpg"" width=""540"" height = ""360"">","null","","","","","","","","",""
"null","","html-keyboard-response","375","572070","0.0-375.0","","","","","","null","","","","","","","","",""
"84","","image-keyboard-response","376","572155","0.0-376.0","","","","","img/set1/S1.jpg","83","1","random","83","random,structured_normal,structured_incentive","2,3,1,2","2,1,4,3","true","",""
"null","","html-keyboard-response","377","572508","0.0-377.0","","","","","<img src=""img/set1/S1.jpg"" width=""540"" height = ""360"" style=""border:16px solid orange"">","null","","","","","","","","",""
"null","","html-keyboard-response","378","572710","0.0-378.0","","","","","","null","","","","","","","","",""
"436","","image-keyboard-response","379","573148","0.0-379.0","","","","","img/set1/S1.jpg","83","1","random","83","random,structured_normal,structured_incentive","2,3,1,2","2,1,4,3","true","",""
"null","","html-keyboard-response","380","573501","0.0-380.0","","","","","<img src=""img/set1/S1.jpg"" width=""540"" height = ""360"" style=""border:16px solid orange"">","null","","","","","","","","",""
"null","","html-keyboard-response","381","573703","0.0-381.0","","","","","","null","","","","","","","","",""
"19","","image-keyboard-response","382","573723","0.0-382.0","","","","","img/set1/S2.jpg","83","2","random","68","random,structured_normal,structured_incentive","2,3,1,2","2,1,4,3","false","",""
"null","","html-keyboard-response","383","574076","0.0-383.0","","","","","<img src=""img/set1/S2.jpg"" width=""540"" height = ""360"">","null","","","","","","","","",""
"null","","html-keyboard-response","384","574278","0.0-384.0","","","","","","null","","","","","","","","",""
"36.999999999883585","","image-keyboard-response","385","574316","0.0-385.0","","","","","img/set1/S2.jpg","83","2","random","68","random,structured_normal,structured_incentive","2,3,1,2","2,1,4,3","false","",""
"null","","html-keyboard-response","386","574668","0.0-386.0","","","","","<img src=""img/set1/S2.jpg"" width=""540"" height = ""360"">","null","","","","","","","","",""
"null","","html-keyboard-response","387","574871","0.0-387.0","","","","","","null","","","","","","","","",""
"20","","image-keyboard-response","388","574891","0.0-388.0","","","","","img/set1/S1.jpg","83","1","random","83","random,structured_normal,structured_incentive","2,3,1,2","2,1,4,3","true","",""
"null","","html-keyboard-response","389","575244","0.0-389.0","","","","","<img src=""img/set1/S1.jpg"" width=""540"" height = ""360"" style=""border:16px solid orange"">","null","","","","","","","","",""
"null","","html-keyboard-response","390","575446","0.0-390.0","","","","","","null","","","","","","","","",""
"43.999999999883585","","image-keyboard-response","391","575491","0.0-391.0","","","","","img/set1/S2.jpg","83","2","random","68","random,structured_normal,structured_incentive","2,3,1,2","2,1,4,3","false","",""
"null","","html-keyboard-response","392","575844","0.0-392.0","","","","","<img src=""img/set1/S2.jpg"" width=""540"" height = ""360"">","null","","","","","","","","",""
"null","","html-keyboard-response","393","576046","0.0-393.0","","","","","","null","","","","","","","","",""
"68","","image-keyboard-response","394","576115","0.0-394.0","","","","","img/set1/S3.jpg","83","3","random","72","random,structured_normal,structured_incentive","2,3,1,2","2,1,4,3","false","",""
"null","","html-keyboard-response","395","576468","0.0-395.0","","","","","<img src=""img/set1/S3.jpg"" width=""540"" height = ""360"">","null","","","","","","","","",""
"null","","html-keyboard-response","396","576669","0.0-396.0","","","","","","null","","","","","","","","",""
"453","","image-keyboard-response","397","577123","0.0-397.0","","","","","img/set1/S3.jpg","83","3","random","72","random,structured_normal,structured_incentive","2,3,1,2","2,1,4,3","false","",""
"null","","html-keyboard-response","398","577476","0.0-398.0","","","","","<img src=""img/set1/S3.jpg"" width=""540"" height = ""360"">","null","","","","","","","","",""
"null","","html-keyboard-response","399","577678","0.0-399.0","","","","","","null","","","","","","","","",""
"42.000000000116415","","image-keyboard-response","400","577722","0.0-400.0","","","","","img/set1/S1.jpg","83","1","random","83","random,structured_normal,structured_incentive","2,3,1,2","2,1,4,3","true","",""
"null","","html-keyboard-response","401","578074","0.0-401.0","","","","","<img src=""img/set1/S1.jpg"" width=""540"" height = ""360"" style=""border:16px solid orange"">","null","","","","","","","","",""
"null","","html-keyboard-response","402","578275","0.0-402.0","","","","","","null","","","","","","","","",""
"135","","image-keyboard-response","403","578411","0.0-403.0","","","","","img/set1/S1.jpg","83","1","random","83","random,structured_normal,structured_incentive","2,3,1,2","2,1,4,3","true","",""
"null","","html-keyboard-response","404","578763","0.0-404.0","","","","","<img src=""img/set1/S1.jpg"" width=""540"" height = ""360"" style=""border:16px solid orange"">","null","","","","","","","","",""
"null","","html-keyboard-response","405","578965","0.0-405.0","","","","","","null","","","","","","","","",""
"1349","","image-keyboard-response","406","580316","0.0-406.0","","","","","img/set1/S2.jpg","83","2","random","68","random,structured_normal,structured_incentive","2,3,1,2","2,1,4,3","false","",""
"null","","html-keyboard-response","407","580669","0.0-407.0","","","","","<img src=""img/set1/S2.jpg"" width=""540"" height = ""360"">","null","","","","","","","","",""
"null","","html-keyboard-response","408","580871","0.0-408.0","","","","","","null","","","","","","","","",""
"49","","image-keyboard-response","409","580922","0.0-409.0","","","","","img/set1/S1.jpg","83","1","random","83","random,structured_normal,structured_incentive","2,3,1,2","2,1,4,3","true","",""
"null","","html-keyboard-response","410","581274","0.0-410.0","","","","","<img src=""img/set1/S1.jpg"" width=""540"" height = ""360"" style=""border:16px solid orange"">","null","","","","","","","","",""
"null","","html-keyboard-response","411","581476","0.0-411.0","","","","","","null","","","","","","","","",""
"102","","image-keyboard-response","412","581579","0.0-412.0","","","","","img/set1/S3.jpg","83","3","random","72","random,structured_normal,structured_incentive","2,3,1,2","2,1,4,3","false","",""
"null","","html-keyboard-response","413","581932","0.0-413.0","","","","","<img src=""img/set1/S3.jpg"" width=""540"" height = ""360"">","null","","","","","","","","",""
"null","","html-keyboard-response","414","582135","0.0-414.0","","","","","","null","","","","","","","","",""
"156","","image-keyboard-response","415","582291","0.0-415.0","","","","","img/set1/S1.jpg","83","1","random","83","random,structured_normal,structured_incentive","2,3,1,2","2,1,4,3","true","",""
"null","","html-keyboard-response","416","582644","0.0-416.0","","","","","<img src=""img/set1/S1.jpg"" width=""540"" height = ""360"" style=""border:16px solid orange"">","null","","","","","","","","",""
"null","","html-keyboard-response","417","582846","0.0-417.0","","","","","","null","","","","","","","","",""
"37","","image-keyboard-response","418","582884","0.0-418.0","","","","","img/set1/S2.jpg","83","2","random","68","random,structured_normal,structured_incentive","2,3,1,2","2,1,4,3","false","",""
"null","","html-keyboard-response","419","583236","0.0-419.0","","","","","<img src=""img/set1/S2.jpg"" width=""540"" height = ""360"">","null","","","","","","","","",""
"null","","html-keyboard-response","420","583438","0.0-420.0","","","","","","null","","","","","","","","",""
"36","","image-keyboard-response","421","583476","0.0-421.0","","","","","img/set1/S2.jpg","83","2","random","68","random,structured_normal,structured_incentive","2,3,1,2","2,1,4,3","false","",""
"null","","html-keyboard-response","422","583828","0.0-422.0","","","","","<img src=""img/set1/S2.jpg"" width=""540"" height = ""360"">","null","","","","","","","","",""
"null","","html-keyboard-response","423","584030","0.0-423.0","","","","","","null","","","","","","","","",""
"60","","image-keyboard-response","424","584091","0.0-424.0","","","","","img/set1/S4.jpg","83","4","random","74","random,structured_normal,structured_incentive","2,3,1,2","2,1,4,3","false","",""
"null","","html-keyboard-response","425","584442","0.0-425.0","","","","","<img src=""img/set1/S4.jpg"" width=""540"" height = ""360"">","null","","","","","","","","",""
"null","","html-keyboard-response","426","584644","0.0-426.0","","","","","","null","","","","","","","","",""
"230.00000000011642","","image-keyboard-response","427","584876","0.0-427.0","","","","","img/set1/S3.jpg","83","3","random","72","random,structured_normal,structured_incentive","2,3,1,2","2,1,4,3","false","",""
"null","","html-keyboard-response","428","585229","0.0-428.0","","","","","<img src=""img/set1/S3.jpg"" width=""540"" height = ""360"">","null","","","","","","","","",""
"null","","html-keyboard-response","429","585431","0.0-429.0","","","","","","null","","","","","","","","",""
"27","","image-keyboard-response","430","585459","0.0-430.0","","","","","img/set1/S4.jpg","83","4","random","74","random,structured_normal,structured_incentive","2,3,1,2","2,1,4,3","false","",""
"null","","html-keyboard-response","431","585812","0.0-431.0","","","","","<img src=""img/set1/S4.jpg"" width=""540"" height = ""360"">","null","","","","","","","","",""
"null","","html-keyboard-response","432","586014","0.0-432.0","","","","","","null","","","","","","","","",""
"4.000000000116415","","image-keyboard-response","433","586019","0.0-433.0","","","","","img/set1/S3.jpg","83","3","random","72","random,structured_normal,structured_incentive","2,3,1,2","2,1,4,3","false","",""
"null","","html-keyboard-response","434","586372","0.0-434.0","","","","","<img src=""img/set1/S3.jpg"" width=""540"" height = ""360"">","null","","","","","","","","",""
"null","","html-keyboard-response","435","586574","0.0-435.0","","","","","","null","","","","","","","","",""
"42","","image-keyboard-response","436","586618","0.0-436.0","","","","","img/set1/S2.jpg","83","2","random","68","random,structured_normal,structured_incentive","2,3,1,2","2,1,4,3","false","",""
"null","","html-keyboard-response","437","586970","0.0-437.0","","","","","<img src=""img/set1/S2.jpg"" width=""540"" height = ""360"">","null","","","","","","","","",""
"null","","html-keyboard-response","438","587172","0.0-438.0","","","","","","null","","","","","","","","",""
"165.99999999988358","","image-keyboard-response","439","587339","0.0-439.0","","","","","img/set1/S1.jpg","83","1","random","83","random,structured_normal,structured_incentive","2,3,1,2","2,1,4,3","true","",""
"null","","html-keyboard-response","440","587692","0.0-440.0","","","","","<img src=""img/set1/S1.jpg"" width=""540"" height = ""360"" style=""border:16px solid orange"">","null","","","","","","","","",""
"null","","html-keyboard-response","441","587893","0.0-441.0","","","","","","null","","","","","","","","",""
"26.999999999883585","","image-keyboard-response","442","587921","0.0-442.0","","","","","img/set1/S3.jpg","68","3","random","72","random,structured_normal,structured_incentive","2,3,1,2","2,1,4,3","false","",""
"null","","html-keyboard-response","443","588273","0.0-443.0","","","","","<img src=""img/set1/S3.jpg"" width=""540"" height = ""360"">","null","","","","","","","","",""
"null","","html-keyboard-response","444","588475","0.0-444.0","","","","","","null","","","","","","","","",""
"233","","image-keyboard-response","445","588708","0.0-445.0","","","","","img/set1/S4.jpg","83","4","random","74","random,structured_normal,structured_incentive","2,3,1,2","2,1,4,3","false","",""
"null","","html-keyboard-response","446","589061","0.0-446.0","","","","","<img src=""img/set1/S4.jpg"" width=""540"" height = ""360"">","null","","","","","","","","",""
"null","","html-keyboard-response","447","589263","0.0-447.0","","","","","","null","","","","","","","","",""
"155","","image-keyboard-response","448","589419","0.0-448.0","","","","","img/set1/S2.jpg","83","2","random","68","random,structured_normal,structured_incentive","2,3,1,2","2,1,4,3","false","",""
"null","","html-keyboard-response","449","589772","0.0-449.0","","","","","<img src=""img/set1/S2.jpg"" width=""540"" height = ""360"">","null","","","","","","","","",""
"null","","html-keyboard-response","450","589974","0.0-450.0","","","","","","null","","","","","","","","",""
"189","","image-keyboard-response","451","590163","0.0-451.0","","","","","img/set1/S2.jpg","83","2","random","68","random,structured_normal,structured_incentive","2,3,1,2","2,1,4,3","false","",""
"null","","html-keyboard-response","452","590516","0.0-452.0","","","","","<img src=""img/set1/S2.jpg"" width=""540"" height = ""360"">","null","","","","","","","","",""
"null","","html-keyboard-response","453","590718","0.0-453.0","","","","","","null","","","","","","","","",""
"43","","image-keyboard-response","454","590762","0.0-454.0","","","","","img/set1/S1.jpg","83","1","random","83","random,structured_normal,structured_incentive","2,3,1,2","2,1,4,3","true","",""
"null","","html-keyboard-response","455","591114","0.0-455.0","","","","","<img src=""img/set1/S1.jpg"" width=""540"" height = ""360"" style=""border:16px solid orange"">","null","","","","","","","","",""
"null","","html-keyboard-response","456","591316","0.0-456.0","","","","","","null","","","","","","","","",""
"45","","image-keyboard-response","457","591363","0.0-457.0","","","","","img/set1/S1.jpg","83","1","random","83","random,structured_normal,structured_incentive","2,3,1,2","2,1,4,3","true","",""
"null","","html-keyboard-response","458","591715","0.0-458.0","","","","","<img src=""img/set1/S1.jpg"" width=""540"" height = ""360"" style=""border:16px solid orange"">","null","","","","","","","","",""
"null","","html-keyboard-response","459","591917","0.0-459.0","","","","","","null","","","","","","","","",""
"60.999999999883585","","image-keyboard-response","460","591979","0.0-460.0","","","","","img/set1/S4.jpg","83","4","random","74","random,structured_normal,structured_incentive","2,3,1,2","2,1,4,3","false","",""
"null","","html-keyboard-response","461","592332","0.0-461.0","","","","","<img src=""img/set1/S4.jpg"" width=""540"" height = ""360"">","null","","","","","","","","",""
"null","","html-keyboard-response","462","592533","0.0-462.0","","","","","","null","","","","","","","","",""
"29","","image-keyboard-response","463","592563","0.0-463.0","","","","","img/set1/S3.jpg","83","3","random","72","random,structured_normal,structured_incentive","2,3,1,2","2,1,4,3","false","",""
"null","","html-keyboard-response","464","592916","0.0-464.0","","","","","<img src=""img/set1/S3.jpg"" width=""540"" height = ""360"">","null","","","","","","","","",""
"null","","html-keyboard-response","465","593118","0.0-465.0","","","","","","null","","","","","","","","",""
"60","","image-keyboard-response","466","593179","0.0-466.0","","","","","img/set1/S1.jpg","83","1","random","83","random,structured_normal,structured_incentive","2,3,1,2","2,1,4,3","true","",""
"null","","html-keyboard-response","467","593532","0.0-467.0","","","","","<img src=""img/set1/S1.jpg"" width=""540"" height = ""360"" style=""border:16px solid orange"">","null","","","","","","","","",""
"null","","html-keyboard-response","468","593734","0.0-468.0","","","","","","null","","","","","","","","",""
"92.00000000011642","","image-keyboard-response","469","593827","0.0-469.0","","","","","img/set1/S1.jpg","83","1","random","83","random,structured_normal,structured_incentive","2,3,1,2","2,1,4,3","true","",""
"null","","html-keyboard-response","470","594180","0.0-470.0","","","","","<img src=""img/set1/S1.jpg"" width=""540"" height = ""360"" style=""border:16px solid orange"">","null","","","","","","","","",""
"null","","html-keyboard-response","471","594382","0.0-471.0","","","","","","null","","","","","","","","",""
"39","","image-keyboard-response","472","594423","0.0-472.0","","","","","img/set1/S4.jpg","83","4","random","74","random,structured_normal,structured_incentive","2,3,1,2","2,1,4,3","false","",""
"null","","html-keyboard-response","473","594775","0.0-473.0","","","","","<img src=""img/set1/S4.jpg"" width=""540"" height = ""360"">","null","","","","","","","","",""
"null","","html-keyboard-response","474","594977","0.0-474.0","","","","","","null","","","","","","","","",""
"49","","image-keyboard-response","475","595027","0.0-475.0","","","","","img/set1/S1.jpg","83","1","random","83","random,structured_normal,structured_incentive","2,3,1,2","2,1,4,3","true","",""
"null","","html-keyboard-response","476","595379","0.0-476.0","","","","","<img src=""img/set1/S1.jpg"" width=""540"" height = ""360"" style=""border:16px solid orange"">","null","","","","","","","","",""
"null","","html-keyboard-response","477","595581","0.0-477.0","","","","","","null","","","","","","","","",""
"165","","image-keyboard-response","478","595747","0.0-478.0","","","","","img/set1/S3.jpg","83","3","random","72","random,structured_normal,structured_incentive","2,3,1,2","2,1,4,3","false","",""
"null","","html-keyboard-response","479","596099","0.0-479.0","","","","","<img src=""img/set1/S3.jpg"" width=""540"" height = ""360"">","null","","","","","","","","",""
"null","","html-keyboard-response","480","596301","0.0-480.0","","","","","","null","","","","","","","","",""
"21","","image-keyboard-response","481","596323","0.0-481.0","","","","","img/set1/S4.jpg","83","4","random","74","random,structured_normal,structured_incentive","2,3,1,2","2,1,4,3","false","",""
"null","","html-keyboard-response","482","596676","0.0-482.0","","","","","<img src=""img/set1/S4.jpg"" width=""540"" height = ""360"">","null","","","","","","","","",""
"null","","html-keyboard-response","483","596878","0.0-483.0","","","","","","null","","","","","","","","",""
"3","","image-keyboard-response","484","596883","0.0-484.0","","","","","img/set1/S4.jpg","83","4","random","74","random,structured_normal,structured_incentive","2,3,1,2","2,1,4,3","false","",""
"null","","html-keyboard-response","485","597236","0.0-485.0","","","","","<img src=""img/set1/S4.jpg"" width=""540"" height = ""360"">","null","","","","","","","","",""
"null","","html-keyboard-response","486","597438","0.0-486.0","","","","","","null","","","","","","","","",""
"null","","image-keyboard-response","487","599939","0.0-487.0","","","","","img/set1/S2.jpg","null","2","random","68","random,structured_normal,structured_incentive","2,3,1,2","2,1,4,3","false","",""
"null","","html-keyboard-response","488","600291","0.0-488.0","","","","","<img src=""img/set1/S2.jpg"" width=""540"" height = ""360"">","null","","","","","","","","",""
"null","","html-keyboard-response","489","600494","0.0-489.0","","","","","","null","","","","","","","","",""
"null","","image-keyboard-response","490","602996","0.0-490.0","","","","","img/set1/S2.jpg","null","2","random","68","random,structured_normal,structured_incentive","2,3,1,2","2,1,4,3","false","",""
"null","","html-keyboard-response","491","603354","0.0-491.0","","","","","<img src=""img/set1/S2.jpg"" width=""540"" height = ""360"">","null","","","","","","","","",""
"null","","html-keyboard-response","492","603556","0.0-492.0","","","","","","null","","","","","","","","",""
"null","","image-keyboard-response","493","606062","0.0-493.0","","","","","img/set1/S2.jpg","null","2","random","68","random,structured_normal,structured_incentive","2,3,1,2","2,1,4,3","false","",""
"null","","html-keyboard-response","494","606415","0.0-494.0","","","","","<img src=""img/set1/S2.jpg"" width=""540"" height = ""360"">","null","","","","","","","","",""
"null","","html-keyboard-response","495","606617","0.0-495.0","","","","","","null","","","","","","","","",""
"97","","image-keyboard-response","496","606716","0.0-496.0","","","","","img/set1/S3.jpg","83","3","random","72","random,structured_normal,structured_incentive","2,3,1,2","2,1,4,3","false","",""
"null","","html-keyboard-response","497","607069","0.0-497.0","","","","","<img src=""img/set1/S3.jpg"" width=""540"" height = ""360"">","null","","","","","","","","",""
"null","","html-keyboard-response","498","607271","0.0-498.0","","","","","","null","","","","","","","","",""
"155","","image-keyboard-response","499","607427","0.0-499.0","","","","","img/set1/S2.jpg","83","2","random","68","random,structured_normal,structured_incentive","2,3,1,2","2,1,4,3","false","",""
"null","","html-keyboard-response","500","607780","0.0-500.0","","","","","<img src=""img/set1/S2.jpg"" width=""540"" height = ""360"">","null","","","","","","","","",""
"null","","html-keyboard-response","501","607983","0.0-501.0","","","","","","null","","","","","","","","",""
"36.000000000116415","","image-keyboard-response","502","608019","0.0-502.0","","","","","img/set1/S2.jpg","83","2","random","68","random,structured_normal,structured_incentive","2,3,1,2","2,1,4,3","false","",""
"null","","html-keyboard-response","503","608372","0.0-503.0","","","","","<img src=""img/set1/S2.jpg"" width=""540"" height = ""360"">","null","","","","","","","","",""
"null","","html-keyboard-response","504","608574","0.0-504.0","","","","","","null","","","","","","","","",""
"12","","image-keyboard-response","505","608587","0.0-505.0","","","","","img/set1/S4.jpg","83","4","random","74","random,structured_normal,structured_incentive","2,3,1,2","2,1,4,3","false","",""
"null","","html-keyboard-response","506","608940","0.0-506.0","","","","","<img src=""img/set1/S4.jpg"" width=""540"" height = ""360"">","null","","","","","","","","",""
"null","","html-keyboard-response","507","609142","0.0-507.0","","","","","","null","","","","","","","","",""
"45","","image-keyboard-response","508","609189","0.0-508.0","","","","","img/set1/S1.jpg","83","1","random","83","random,structured_normal,structured_incentive","2,3,1,2","2,1,4,3","true","",""
"null","","html-keyboard-response","509","609541","0.0-509.0","","","","","<img src=""img/set1/S1.jpg"" width=""540"" height = ""360"" style=""border:16px solid orange"">","null","","","","","","","","",""
"null","","html-keyboard-response","510","609743","0.0-510.0","","","","","","null","","","","","","","","",""
"384","","image-keyboard-response","511","610129","0.0-511.0","","","","","img/set1/S3.jpg","83","3","random","72","random,structured_normal,structured_incentive","2,3,1,2","2,1,4,3","false","",""
"null","","html-keyboard-response","512","610481","0.0-512.0","","","","","<img src=""img/set1/S3.jpg"" width=""540"" height = ""360"">","null","","","","","","","","",""
"null","","html-keyboard-response","513","610683","0.0-513.0","","","","","","null","","","","","","","","",""
"40","","image-keyboard-response","514","610724","0.0-514.0","","","","","img/set1/S4.jpg","83","4","random","74","random,structured_normal,structured_incentive","2,3,1,2","2,1,4,3","false","",""
"null","","html-keyboard-response","515","611076","0.0-515.0","","","","","<img src=""img/set1/S4.jpg"" width=""540"" height = ""360"">","null","","","","","","","","",""
"null","","html-keyboard-response","516","611279","0.0-516.0","","","","","","null","","","","","","","","",""
"155","","image-keyboard-response","517","611435","0.0-517.0","","","","","img/set1/S2.jpg","83","2","random","68","random,structured_normal,structured_incentive","2,3,1,2","2,1,4,3","false","",""
"null","","html-keyboard-response","518","611788","0.0-518.0","","","","","<img src=""img/set1/S2.jpg"" width=""540"" height = ""360"">","null","","","","","","","","",""
"null","","html-keyboard-response","519","611990","0.0-519.0","","","","","","null","","","","","","","","",""
"132","","image-keyboard-response","520","612123","0.0-520.0","","","","","img/set1/S2.jpg","83","2","random","68","random,structured_normal,structured_incentive","2,3,1,2","2,1,4,3","false","",""
"null","","html-keyboard-response","521","612476","0.0-521.0","","","","","<img src=""img/set1/S2.jpg"" width=""540"" height = ""360"">","null","","","","","","","","",""
"null","","html-keyboard-response","522","612678","0.0-522.0","","","","","","null","","","","","","","","",""
"348","","image-keyboard-response","523","613027","0.0-523.0","","","","","img/set1/S4.jpg","83","4","random","74","random,structured_normal,structured_incentive","2,3,1,2","2,1,4,3","false","",""
"null","","html-keyboard-response","524","613380","0.0-524.0","","","","","<img src=""img/set1/S4.jpg"" width=""540"" height = ""360"">","null","","","","","","","","",""
"null","","html-keyboard-response","525","613583","0.0-525.0","","","","","","null","","","","","","","","",""
"100","","image-keyboard-response","526","613683","0.0-526.0","","","","","img/set1/S1.jpg","83","1","random","83","random,structured_normal,structured_incentive","2,3,1,2","2,1,4,3","true","",""
"null","","html-keyboard-response","527","614036","0.0-527.0","","","","","<img src=""img/set1/S1.jpg"" width=""540"" height = ""360"" style=""border:16px solid orange"">","null","","","","","","","","",""
"null","","html-keyboard-response","528","614238","0.0-528.0","","","","","","null","","","","","","","","",""
"316","","image-keyboard-response","529","614555","0.0-529.0","","","","","img/set1/S1.jpg","83","1","random","83","random,structured_normal,structured_incentive","2,3,1,2","2,1,4,3","true","",""
"null","","html-keyboard-response","530","614908","0.0-530.0","","","","","<img src=""img/set1/S1.jpg"" width=""540"" height = ""360"" style=""border:16px solid orange"">","null","","","","","","","","",""
"null","","html-keyboard-response","531","615110","0.0-531.0","","","","","","null","","","","","","","","",""
"156","","image-keyboard-response","532","615267","0.0-532.0","","","","","img/set1/S1.jpg","83","1","random","83","random,structured_normal,structured_incentive","2,3,1,2","2,1,4,3","true","",""
"null","","html-keyboard-response","533","615620","0.0-533.0","","","","","<img src=""img/set1/S1.jpg"" width=""540"" height = ""360"" style=""border:16px solid orange"">","null","","","","","","","","",""
"null","","html-keyboard-response","534","615822","0.0-534.0","","","","","","null","","","","","","","","",""
"68","","image-keyboard-response","535","615891","0.0-535.0","","","","","img/set1/S4.jpg","83","4","random","74","random,structured_normal,structured_incentive","2,3,1,2","2,1,4,3","false","",""
"null","","html-keyboard-response","536","616244","0.0-536.0","","","","","<img src=""img/set1/S4.jpg"" width=""540"" height = ""360"">","null","","","","","","","","",""
"null","","html-keyboard-response","537","616446","0.0-537.0","","","","","","null","","","","","","","","",""
"3.9999999998835847","","image-keyboard-response","538","616451","0.0-538.0","","","","","img/set1/S3.jpg","83","3","random","72","random,structured_normal,structured_incentive","2,3,1,2","2,1,4,3","false","",""
"null","","html-keyboard-response","539","616804","0.0-539.0","","","","","<img src=""img/set1/S3.jpg"" width=""540"" height = ""360"">","null","","","","","","","","",""
"null","","html-keyboard-response","540","617006","0.0-540.0","","","","","","null","","","","","","","","",""
"164","","image-keyboard-response","541","617171","0.0-541.0","","","","","img/set1/S2.jpg","83","2","random","68","random,structured_normal,structured_incentive","2,3,1,2","2,1,4,3","false","",""
"null","","html-keyboard-response","542","617524","0.0-542.0","","","","","<img src=""img/set1/S2.jpg"" width=""540"" height = ""360"">","null","","","","","","","","",""
"null","","html-keyboard-response","543","617727","0.0-543.0","","","","","","null","","","","","","","","",""
"131","","html-keyboard-response","544","617860","0.0-544.0","","","","","<p class=""center-content"">You have completed a block! </p><p class=""center-content"">Press any key on the keyboard to continue, </p><p class=""center-content"">or wait for the automatic progression to the next block after one minute.</p>","83","","","","","","","","",""
"33987","","instructions","545","651848","0.0-545.0","","","","[{""page_index"":0,""viewing_time"":33987}]","","","","","","","","","","",""
"2964","","instructions","546","654814","0.0-546.0","","","","[{""page_index"":0,""viewing_time"":2964}]","","","","","","","","","","",""
"2108.0000000001164","","image-keyboard-response","547","656924","0.0-547.0","","","","","img/set2/S1.jpg","83","1","structured_normal","83","random,structured_normal,structured_incentive","2,3,1,2","2,1,4,3","true","",""
"null","","html-keyboard-response","548","657276","0.0-548.0","","","","","<img src=""img/set2/S1.jpg"" width=""540"" height = ""360"" style=""border:16px solid orange"">","null","","","","","","","","",""
"null","","html-keyboard-response","549","657478","0.0-549.0","","","","","","null","","","","","","","","",""
"124","","image-keyboard-response","550","657603","0.0-550.0","","","","","img/set2/S1.jpg","83","1","structured_normal","83","random,structured_normal,structured_incentive","2,3,1,2","2,1,4,3","true","",""
"null","","html-keyboard-response","551","657956","0.0-551.0","","","","","<img src=""img/set2/S1.jpg"" width=""540"" height = ""360"" style=""border:16px solid orange"">","null","","","","","","","","",""
"null","","html-keyboard-response","552","658158","0.0-552.0","","","","","","null","","","","","","","","",""
"148","","image-keyboard-response","553","658307","0.0-553.0","","","","","img/set2/S2.jpg","83","2","structured_normal","68","random,structured_normal,structured_incentive","2,3,1,2","2,1,4,3","false","",""
"null","","html-keyboard-response","554","658660","0.0-554.0","","","","","<img src=""img/set2/S2.jpg"" width=""540"" height = ""360"">","null","","","","","","","","",""
"null","","html-keyboard-response","555","658863","0.0-555.0","","","","","","null","","","","","","","","",""
"147","","image-keyboard-response","556","659011","0.0-556.0","","","","","img/set2/S3.jpg","83","3","structured_normal","72","random,structured_normal,structured_incentive","2,3,1,2","2,1,4,3","false","",""
"null","","html-keyboard-response","557","659364","0.0-557.0","","","","","<img src=""img/set2/S3.jpg"" width=""540"" height = ""360"">","null","","","","","","","","",""
"null","","html-keyboard-response","558","659567","0.0-558.0","","","","","","null","","","","","","","","",""
"99.99999999988358","","image-keyboard-response","559","659667","0.0-559.0","","","","","img/set2/S2.jpg","83","2","structured_normal","68","random,structured_normal,structured_incentive","2,3,1,2","2,1,4,3","false","",""
"null","","html-keyboard-response","560","660020","0.0-560.0","","","","","<img src=""img/set2/S2.jpg"" width=""540"" height = ""360"">","null","","","","","","","","",""
"null","","html-keyboard-response","561","660222","0.0-561.0","","","","","","null","","","","","","","","",""
"300","","image-keyboard-response","562","660523","0.0-562.0","","","","","img/set2/S3.jpg","83","3","structured_normal","72","random,structured_normal,structured_incentive","2,3,1,2","2,1,4,3","false","",""
"null","","html-keyboard-response","563","660876","0.0-563.0","","","","","<img src=""img/set2/S3.jpg"" width=""540"" height = ""360"">","null","","","","","","","","",""
"null","","html-keyboard-response","564","661079","0.0-564.0","","","","","","null","","","","","","","","",""
"99","","image-keyboard-response","565","661179","0.0-565.0","","","","","img/set2/S1.jpg","83","1","structured_normal","83","random,structured_normal,structured_incentive","2,3,1,2","2,1,4,3","true","",""
"null","","html-keyboard-response","566","661532","0.0-566.0","","","","","<img src=""img/set2/S1.jpg"" width=""540"" height = ""360"" style=""border:16px solid orange"">","null","","","","","","","","",""
"null","","html-keyboard-response","567","661734","0.0-567.0","","","","","","null","","","","","","","","",""
"220","","image-keyboard-response","568","661955","0.0-568.0","","","","","img/set2/S2.jpg","83","2","structured_normal","68","random,structured_normal,structured_incentive","2,3,1,2","2,1,4,3","false","",""
"null","","html-keyboard-response","569","662308","0.0-569.0","","","","","<img src=""img/set2/S2.jpg"" width=""540"" height = ""360"">","null","","","","","","","","",""
"null","","html-keyboard-response","570","662510","0.0-570.0","","","","","","null","","","","","","","","",""
"452","","image-keyboard-response","571","662963","0.0-571.0","","","","","img/set2/S4.jpg","83","4","structured_normal","74","random,structured_normal,structured_incentive","2,3,1,2","2,1,4,3","false","",""
"null","","html-keyboard-response","572","663316","0.0-572.0","","","","","<img src=""img/set2/S4.jpg"" width=""540"" height = ""360"">","null","","","","","","","","",""
"null","","html-keyboard-response","573","663518","0.0-573.0","","","","","","null","","","","","","","","",""
"19.999999999883585","","image-keyboard-response","574","663539","0.0-574.0","","","","","img/set2/S2.jpg","83","2","structured_normal","68","random,structured_normal,structured_incentive","2,3,1,2","2,1,4,3","false","",""
"null","","html-keyboard-response","575","663892","0.0-575.0","","","","","<img src=""img/set2/S2.jpg"" width=""540"" height = ""360"">","null","","","","","","","","",""
"null","","html-keyboard-response","576","664094","0.0-576.0","","","","","","null","","","","","","","","",""
"36","","image-keyboard-response","577","664131","0.0-577.0","","","","","img/set2/S3.jpg","68","3","structured_normal","72","random,structured_normal,structured_incentive","2,3,1,2","2,1,4,3","false","",""
"null","","html-keyboard-response","578","664484","0.0-578.0","","","","","<img src=""img/set2/S3.jpg"" width=""540"" height = ""360"">","null","","","","","","","","",""
"null","","html-keyboard-response","579","664687","0.0-579.0","","","","","","null","","","","","","","","",""
"395","","image-keyboard-response","580","665083","0.0-580.0","","","","","img/set2/S2.jpg","68","2","structured_normal","68","random,structured_normal,structured_incentive","2,3,1,2","2,1,4,3","true","",""
"null","","html-keyboard-response","581","665436","0.0-581.0","","","","","<img src=""img/set2/S2.jpg"" width=""540"" height = ""360"" style=""border:16px solid orange"">","null","","","","","","","","",""
"null","","html-keyboard-response","582","665639","0.0-582.0","","","","","","null","","","","","","","","",""
"147","","image-keyboard-response","583","665787","0.0-583.0","","","","","img/set2/S3.jpg","68","3","structured_normal","72","random,structured_normal,structured_incentive","2,3,1,2","2,1,4,3","false","",""
"null","","html-keyboard-response","584","666140","0.0-584.0","","","","","<img src=""img/set2/S3.jpg"" width=""540"" height = ""360"">","null","","","","","","","","",""
"null","","html-keyboard-response","585","666343","0.0-585.0","","","","","","null","","","","","","","","",""
"67","","image-keyboard-response","586","666411","0.0-586.0","","","","","img/set2/S1.jpg","83","1","structured_normal","83","random,structured_normal,structured_incentive","2,3,1,2","2,1,4,3","true","",""
"null","","html-keyboard-response","587","666764","0.0-587.0","","","","","<img src=""img/set2/S1.jpg"" width=""540"" height = ""360"" style=""border:16px solid orange"">","null","","","","","","","","",""
"null","","html-keyboard-response","588","666967","0.0-588.0","","","","","","null","","","","","","","","",""
"11","","image-keyboard-response","589","666979","0.0-589.0","","","","","img/set2/S1.jpg","83","1","structured_normal","83","random,structured_normal,structured_incentive","2,3,1,2","2,1,4,3","true","",""
"null","","html-keyboard-response","590","667332","0.0-590.0","","","","","<img src=""img/set2/S1.jpg"" width=""540"" height = ""360"" style=""border:16px solid orange"">","null","","","","","","","","",""
"null","","html-keyboard-response","591","667534","0.0-591.0","","","","","","null","","","","","","","","",""
"140","","image-keyboard-response","592","667675","0.0-592.0","","","","","img/set2/S4.jpg","83","4","structured_normal","74","random,structured_normal,structured_incentive","2,3,1,2","2,1,4,3","false","",""
"null","","html-keyboard-response","593","668027","0.0-593.0","","","","","<img src=""img/set2/S4.jpg"" width=""540"" height = ""360"">","null","","","","","","","","",""
"null","","html-keyboard-response","594","668230","0.0-594.0","","","","","","null","","","","","","","","",""
"252","","image-keyboard-response","595","668483","0.0-595.0","","","","","img/set2/S2.jpg","83","2","structured_normal","68","random,structured_normal,structured_incentive","2,3,1,2","2,1,4,3","false","",""
"null","","html-keyboard-response","596","668836","0.0-596.0","","","","","<img src=""img/set2/S2.jpg"" width=""540"" height = ""360"">","null","","","","","","","","",""
"null","","html-keyboard-response","597","669038","0.0-597.0","","","","","","null","","","","","","","","",""
"116","","image-keyboard-response","598","669155","0.0-598.0","","","","","img/set2/S3.jpg","83","3","structured_normal","72","random,structured_normal,structured_incentive","2,3,1,2","2,1,4,3","false","",""
"null","","html-keyboard-response","599","669508","0.0-599.0","","","","","<img src=""img/set2/S3.jpg"" width=""540"" height = ""360"">","null","","","","","","","","",""
"null","","html-keyboard-response","600","669710","0.0-600.0","","","","","","null","","","","","","","","",""
"100","","image-keyboard-response","601","669811","0.0-601.0","","","","","img/set2/S1.jpg","83","1","structured_normal","83","random,structured_normal,structured_incentive","2,3,1,2","2,1,4,3","true","",""
"null","","html-keyboard-response","602","670163","0.0-602.0","","","","","<img src=""img/set2/S1.jpg"" width=""540"" height = ""360"" style=""border:16px solid orange"">","null","","","","","","","","",""
"null","","html-keyboard-response","603","670366","0.0-603.0","","","","","","null","","","","","","","","",""
"97","","image-keyboard-response","604","670464","0.0-604.0","","","","","img/set2/S4.jpg","83","4","structured_normal","74","random,structured_normal,structured_incentive","2,3,1,2","2,1,4,3","false","",""
"null","","html-keyboard-response","605","670816","0.0-605.0","","","","","<img src=""img/set2/S4.jpg"" width=""540"" height = ""360"">","null","","","","","","","","",""
"null","","html-keyboard-response","606","671018","0.0-606.0","","","","","","null","","","","","","","","",""
"135.99999999988358","","image-keyboard-response","607","671155","0.0-607.0","","","","","img/set2/S1.jpg","83","1","structured_normal","83","random,structured_normal,structured_incentive","2,3,1,2","2,1,4,3","true","",""
