"rt","url","trial_type","trial_index","time_elapsed","internal_node_id","assignmentID","mturkID","hitID","view_history","stimulus","key_press","state","test_part","correct_response","order_block","order_chunk","order_freq","correct","responses","question_order","bonus"
"1692.7999999821186","consent.html","external-html","0","1894","0.0-0.0","3X87C8JFV7XZ3T6MOFHHE4MA0DDSQU","AOWW3URQNRJ6U","3RSBJ6YZECCLSSQQCGKCTHC9OPAFOK","","","","","","","","","","","","",""
"34244.09999999404","","instructions","1","36144","0.0-1.0","3X87C8JFV7XZ3T6MOFHHE4MA0DDSQU","AOWW3URQNRJ6U","3RSBJ6YZECCLSSQQCGKCTHC9OPAFOK","[{""page_index"":0,""viewing_time"":1685.2999999821186},{""page_index"":1,""viewing_time"":3984.5},{""page_index"":2,""viewing_time"":4826.100000023842},{""page_index"":3,""viewing_time"":4660.5999999940395},{""page_index"":4,""viewing_time"":2618.0999999940395},{""page_index"":5,""viewing_time"":12701.199999988079},{""page_index"":6,""viewing_time"":3767.300000011921}]","","","","","","","","","","","",""
"5505.100000023842","","instructions","2","41650","0.0-2.0","3X87C8JFV7XZ3T6MOFHHE4MA0DDSQU","AOWW3URQNRJ6U","3RSBJ6YZECCLSSQQCGKCTHC9OPAFOK","[{""page_index"":0,""viewing_time"":5504.9000000059605}]","","","","","","","","","","","",""
"1565.1000000238419","","instructions","3","43217","0.0-3.0","3X87C8JFV7XZ3T6MOFHHE4MA0DDSQU","AOWW3URQNRJ6U","3RSBJ6YZECCLSSQQCGKCTHC9OPAFOK","[{""page_index"":0,""viewing_time"":1564.9000000059605}]","","","","","","","","","","","",""
"null","","image-keyboard-response","4","45720","0.0-4.0","3X87C8JFV7XZ3T6MOFHHE4MA0DDSQU","AOWW3URQNRJ6U","3RSBJ6YZECCLSSQQCGKCTHC9OPAFOK","","img/set1/S4.jpg","null","4","random","74","random,structured_incentive,structured_normal,structured_load","1,2,2,3,4,2","3,1,2,4","false","","",""
"null","","html-keyboard-response","5","46072","0.0-5.0","3X87C8JFV7XZ3T6MOFHHE4MA0DDSQU","AOWW3URQNRJ6U","3RSBJ6YZECCLSSQQCGKCTHC9OPAFOK","","<img src=""img/set1/S4.jpg"" width=""540"" height = ""360"">","null","","","","","","","","","",""
"null","","html-keyboard-response","6","46274","0.0-6.0","3X87C8JFV7XZ3T6MOFHHE4MA0DDSQU","AOWW3URQNRJ6U","3RSBJ6YZECCLSSQQCGKCTHC9OPAFOK","","","null","","","","","","","","","",""
"820.0999999940395","","image-keyboard-response","7","47096","0.0-7.0","3X87C8JFV7XZ3T6MOFHHE4MA0DDSQU","AOWW3URQNRJ6U","3RSBJ6YZECCLSSQQCGKCTHC9OPAFOK","","img/set1/S3.jpg","72","3","random","72","random,structured_incentive,structured_normal,structured_load","1,2,2,3,4,2","3,1,2,4","true","","",""
"null","","html-keyboard-response","8","47449","0.0-8.0","3X87C8JFV7XZ3T6MOFHHE4MA0DDSQU","AOWW3URQNRJ6U","3RSBJ6YZECCLSSQQCGKCTHC9OPAFOK","","<img src=""img/set1/S3.jpg"" width=""540"" height = ""360"" style=""border:16px solid orange"">","null","","","","","","","","","",""
"null","","html-keyboard-response","9","47651","0.0-9.0","3X87C8JFV7XZ3T6MOFHHE4MA0DDSQU","AOWW3URQNRJ6U","3RSBJ6YZECCLSSQQCGKCTHC9OPAFOK","","","null","","","","","","","","","",""
"808.2000000178814","","image-keyboard-response","10","48460","0.0-10.0","3X87C8JFV7XZ3T6MOFHHE4MA0DDSQU","AOWW3URQNRJ6U","3RSBJ6YZECCLSSQQCGKCTHC9OPAFOK","","img/set1/S1.jpg","74","1","random","83","random,structured_incentive,structured_normal,structured_load","1,2,2,3,4,2","3,1,2,4","false","","",""
"null","","html-keyboard-response","11","48812","0.0-11.0","3X87C8JFV7XZ3T6MOFHHE4MA0DDSQU","AOWW3URQNRJ6U","3RSBJ6YZECCLSSQQCGKCTHC9OPAFOK","","<img src=""img/set1/S1.jpg"" width=""540"" height = ""360"">","null","","","","","","","","","",""
"null","","html-keyboard-response","12","49014","0.0-12.0","3X87C8JFV7XZ3T6MOFHHE4MA0DDSQU","AOWW3URQNRJ6U","3RSBJ6YZECCLSSQQCGKCTHC9OPAFOK","","","null","","","","","","","","","",""
"510.2000000178814","","image-keyboard-response","13","49526","0.0-13.0","3X87C8JFV7XZ3T6MOFHHE4MA0DDSQU","AOWW3URQNRJ6U","3RSBJ6YZECCLSSQQCGKCTHC9OPAFOK","","img/set1/S1.jpg","72","1","random","83","random,structured_incentive,structured_normal,structured_load","1,2,2,3,4,2","3,1,2,4","false","","",""
"null","","html-keyboard-response","14","49879","0.0-14.0","3X87C8JFV7XZ3T6MOFHHE4MA0DDSQU","AOWW3URQNRJ6U","3RSBJ6YZECCLSSQQCGKCTHC9OPAFOK","","<img src=""img/set1/S1.jpg"" width=""540"" height = ""360"">","null","","","","","","","","","",""
"null","","html-keyboard-response","15","50081","0.0-15.0","3X87C8JFV7XZ3T6MOFHHE4MA0DDSQU","AOWW3URQNRJ6U","3RSBJ6YZECCLSSQQCGKCTHC9OPAFOK","","","null","","","","","","","","","",""
"219.90000000596046","","image-keyboard-response","16","50302","0.0-16.0","3X87C8JFV7XZ3T6MOFHHE4MA0DDSQU","AOWW3URQNRJ6U","3RSBJ6YZECCLSSQQCGKCTHC9OPAFOK","","img/set1/S4.jpg","68","4","random","74","random,structured_incentive,structured_normal,structured_load","1,2,2,3,4,2","3,1,2,4","false","","",""
"null","","html-keyboard-response","17","50654","0.0-17.0","3X87C8JFV7XZ3T6MOFHHE4MA0DDSQU","AOWW3URQNRJ6U","3RSBJ6YZECCLSSQQCGKCTHC9OPAFOK","","<img src=""img/set1/S4.jpg"" width=""540"" height = ""360"">","null","","","","","","","","","",""
"null","","html-keyboard-response","18","50856","0.0-18.0","3X87C8JFV7XZ3T6MOFHHE4MA0DDSQU","AOWW3URQNRJ6U","3RSBJ6YZECCLSSQQCGKCTHC9OPAFOK","","","null","","","","","","","","","",""
"959.6999999880791","","image-keyboard-response","19","51817","0.0-19.0","3X87C8JFV7XZ3T6MOFHHE4MA0DDSQU","AOWW3URQNRJ6U","3RSBJ6YZECCLSSQQCGKCTHC9OPAFOK","","img/set1/S1.jpg","83","1","random","83","random,structured_incentive,structured_normal,structured_load","1,2,2,3,4,2","3,1,2,4","true","","",""
"null","","html-keyboard-response","20","52169","0.0-20.0","3X87C8JFV7XZ3T6MOFHHE4MA0DDSQU","AOWW3URQNRJ6U","3RSBJ6YZECCLSSQQCGKCTHC9OPAFOK","","<img src=""img/set1/S1.jpg"" width=""540"" height = ""360"" style=""border:16px solid orange"">","null","","","","","","","","","",""
"null","","html-keyboard-response","21","52372","0.0-21.0","3X87C8JFV7XZ3T6MOFHHE4MA0DDSQU","AOWW3URQNRJ6U","3RSBJ6YZECCLSSQQCGKCTHC9OPAFOK","","","null","","","","","","","","","",""
"608","","image-keyboard-response","22","52982","0.0-22.0","3X87C8JFV7XZ3T6MOFHHE4MA0DDSQU","AOWW3URQNRJ6U","3RSBJ6YZECCLSSQQCGKCTHC9OPAFOK","","img/set1/S2.jpg","68","2","random","68","random,structured_incentive,structured_normal,structured_load","1,2,2,3,4,2","3,1,2,4","true","","",""
"null","","html-keyboard-response","23","53336","0.0-23.0","3X87C8JFV7XZ3T6MOFHHE4MA0DDSQU","AOWW3URQNRJ6U","3RSBJ6YZECCLSSQQCGKCTHC9OPAFOK","","<img src=""img/set1/S2.jpg"" width=""540"" height = ""360"" style=""border:16px solid orange"">","null","","","","","","","","","",""
"null","","html-keyboard-response","24","53538","0.0-24.0","3X87C8JFV7XZ3T6MOFHHE4MA0DDSQU","AOWW3URQNRJ6U","3RSBJ6YZECCLSSQQCGKCTHC9OPAFOK","","","null","","","","","","","","","",""
"572.2000000178814","","image-keyboard-response","25","54111","0.0-25.0","3X87C8JFV7XZ3T6MOFHHE4MA0DDSQU","AOWW3URQNRJ6U","3RSBJ6YZECCLSSQQCGKCTHC9OPAFOK","","img/set1/S4.jpg","72","4","random","74","random,structured_incentive,structured_normal,structured_load","1,2,2,3,4,2","3,1,2,4","false","","",""
"null","","html-keyboard-response","26","54463","0.0-26.0","3X87C8JFV7XZ3T6MOFHHE4MA0DDSQU","AOWW3URQNRJ6U","3RSBJ6YZECCLSSQQCGKCTHC9OPAFOK","","<img src=""img/set1/S4.jpg"" width=""540"" height = ""360"">","null","","","","","","","","","",""
"null","","html-keyboard-response","27","54664","0.0-27.0","3X87C8JFV7XZ3T6MOFHHE4MA0DDSQU","AOWW3URQNRJ6U","3RSBJ6YZECCLSSQQCGKCTHC9OPAFOK","","","null","","","","","","","","","",""
"600.6000000238419","","image-keyboard-response","28","55266","0.0-28.0","3X87C8JFV7XZ3T6MOFHHE4MA0DDSQU","AOWW3URQNRJ6U","3RSBJ6YZECCLSSQQCGKCTHC9OPAFOK","","img/set1/S1.jpg","83","1","random","83","random,structured_incentive,structured_normal,structured_load","1,2,2,3,4,2","3,1,2,4","true","","",""
"null","","html-keyboard-response","29","55618","0.0-29.0","3X87C8JFV7XZ3T6MOFHHE4MA0DDSQU","AOWW3URQNRJ6U","3RSBJ6YZECCLSSQQCGKCTHC9OPAFOK","","<img src=""img/set1/S1.jpg"" width=""540"" height = ""360"" style=""border:16px solid orange"">","null","","","","","","","","","",""
"null","","html-keyboard-response","30","55819","0.0-30.0","3X87C8JFV7XZ3T6MOFHHE4MA0DDSQU","AOWW3URQNRJ6U","3RSBJ6YZECCLSSQQCGKCTHC9OPAFOK","","","null","","","","","","","","","",""
"664.1999999880791","","image-keyboard-response","31","56485","0.0-31.0","3X87C8JFV7XZ3T6MOFHHE4MA0DDSQU","AOWW3URQNRJ6U","3RSBJ6YZECCLSSQQCGKCTHC9OPAFOK","","img/set1/S4.jpg","74","4","random","74","random,structured_incentive,structured_normal,structured_load","1,2,2,3,4,2","3,1,2,4","true","","",""
"null","","html-keyboard-response","32","56838","0.0-32.0","3X87C8JFV7XZ3T6MOFHHE4MA0DDSQU","AOWW3URQNRJ6U","3RSBJ6YZECCLSSQQCGKCTHC9OPAFOK","","<img src=""img/set1/S4.jpg"" width=""540"" height = ""360"" style=""border:16px solid orange"">","null","","","","","","","","","",""
"null","","html-keyboard-response","33","57040","0.0-33.0","3X87C8JFV7XZ3T6MOFHHE4MA0DDSQU","AOWW3URQNRJ6U","3RSBJ6YZECCLSSQQCGKCTHC9OPAFOK","","","null","","","","","","","","","",""
"995.0999999940395","","image-keyboard-response","34","58036","0.0-34.0","3X87C8JFV7XZ3T6MOFHHE4MA0DDSQU","AOWW3URQNRJ6U","3RSBJ6YZECCLSSQQCGKCTHC9OPAFOK","","img/set1/S1.jpg","83","1","random","83","random,structured_incentive,structured_normal,structured_load","1,2,2,3,4,2","3,1,2,4","true","","",""
"null","","html-keyboard-response","35","58388","0.0-35.0","3X87C8JFV7XZ3T6MOFHHE4MA0DDSQU","AOWW3URQNRJ6U","3RSBJ6YZECCLSSQQCGKCTHC9OPAFOK","","<img src=""img/set1/S1.jpg"" width=""540"" height = ""360"" style=""border:16px solid orange"">","null","","","","","","","","","",""
"null","","html-keyboard-response","36","58590","0.0-36.0","3X87C8JFV7XZ3T6MOFHHE4MA0DDSQU","AOWW3URQNRJ6U","3RSBJ6YZECCLSSQQCGKCTHC9OPAFOK","","","null","","","","","","","","","",""
"494.59999999403954","","image-keyboard-response","37","59086","0.0-37.0","3X87C8JFV7XZ3T6MOFHHE4MA0DDSQU","AOWW3URQNRJ6U","3RSBJ6YZECCLSSQQCGKCTHC9OPAFOK","","img/set1/S3.jpg","68","3","random","72","random,structured_incentive,structured_normal,structured_load","1,2,2,3,4,2","3,1,2,4","false","","",""
"null","","html-keyboard-response","38","59439","0.0-38.0","3X87C8JFV7XZ3T6MOFHHE4MA0DDSQU","AOWW3URQNRJ6U","3RSBJ6YZECCLSSQQCGKCTHC9OPAFOK","","<img src=""img/set1/S3.jpg"" width=""540"" height = ""360"">","null","","","","","","","","","",""
"null","","html-keyboard-response","39","59641","0.0-39.0","3X87C8JFV7XZ3T6MOFHHE4MA0DDSQU","AOWW3URQNRJ6U","3RSBJ6YZECCLSSQQCGKCTHC9OPAFOK","","","null","","","","","","","","","",""
"731.4000000059605","","image-keyboard-response","40","60373","0.0-40.0","3X87C8JFV7XZ3T6MOFHHE4MA0DDSQU","AOWW3URQNRJ6U","3RSBJ6YZECCLSSQQCGKCTHC9OPAFOK","","img/set1/S4.jpg","74","4","random","74","random,structured_incentive,structured_normal,structured_load","1,2,2,3,4,2","3,1,2,4","true","","",""
"null","","html-keyboard-response","41","60727","0.0-41.0","3X87C8JFV7XZ3T6MOFHHE4MA0DDSQU","AOWW3URQNRJ6U","3RSBJ6YZECCLSSQQCGKCTHC9OPAFOK","","<img src=""img/set1/S4.jpg"" width=""540"" height = ""360"" style=""border:16px solid orange"">","null","","","","","","","","","",""
"null","","html-keyboard-response","42","60929","0.0-42.0","3X87C8JFV7XZ3T6MOFHHE4MA0DDSQU","AOWW3URQNRJ6U","3RSBJ6YZECCLSSQQCGKCTHC9OPAFOK","","","null","","","","","","","","","",""
"421.5","","image-keyboard-response","43","61351","0.0-43.0","3X87C8JFV7XZ3T6MOFHHE4MA0DDSQU","AOWW3URQNRJ6U","3RSBJ6YZECCLSSQQCGKCTHC9OPAFOK","","img/set1/S4.jpg","74","4","random","74","random,structured_incentive,structured_normal,structured_load","1,2,2,3,4,2","3,1,2,4","true","","",""
"null","","html-keyboard-response","44","61704","0.0-44.0","3X87C8JFV7XZ3T6MOFHHE4MA0DDSQU","AOWW3URQNRJ6U","3RSBJ6YZECCLSSQQCGKCTHC9OPAFOK","","<img src=""img/set1/S4.jpg"" width=""540"" height = ""360"" style=""border:16px solid orange"">","null","","","","","","","","","",""
"null","","html-keyboard-response","45","61905","0.0-45.0","3X87C8JFV7XZ3T6MOFHHE4MA0DDSQU","AOWW3URQNRJ6U","3RSBJ6YZECCLSSQQCGKCTHC9OPAFOK","","","null","","","","","","","","","",""
"689.0999999940395","","image-keyboard-response","46","62595","0.0-46.0","3X87C8JFV7XZ3T6MOFHHE4MA0DDSQU","AOWW3URQNRJ6U","3RSBJ6YZECCLSSQQCGKCTHC9OPAFOK","","img/set1/S3.jpg","72","3","random","72","random,structured_incentive,structured_normal,structured_load","1,2,2,3,4,2","3,1,2,4","true","","",""
"null","","html-keyboard-response","47","62947","0.0-47.0","3X87C8JFV7XZ3T6MOFHHE4MA0DDSQU","AOWW3URQNRJ6U","3RSBJ6YZECCLSSQQCGKCTHC9OPAFOK","","<img src=""img/set1/S3.jpg"" width=""540"" height = ""360"" style=""border:16px solid orange"">","null","","","","","","","","","",""
"null","","html-keyboard-response","48","63149","0.0-48.0","3X87C8JFV7XZ3T6MOFHHE4MA0DDSQU","AOWW3URQNRJ6U","3RSBJ6YZECCLSSQQCGKCTHC9OPAFOK","","","null","","","","","","","","","",""
"822.5999999940395","","image-keyboard-response","49","63972","0.0-49.0","3X87C8JFV7XZ3T6MOFHHE4MA0DDSQU","AOWW3URQNRJ6U","3RSBJ6YZECCLSSQQCGKCTHC9OPAFOK","","img/set1/S2.jpg","68","2","random","68","random,structured_incentive,structured_normal,structured_load","1,2,2,3,4,2","3,1,2,4","true","","",""
"null","","html-keyboard-response","50","64324","0.0-50.0","3X87C8JFV7XZ3T6MOFHHE4MA0DDSQU","AOWW3URQNRJ6U","3RSBJ6YZECCLSSQQCGKCTHC9OPAFOK","","<img src=""img/set1/S2.jpg"" width=""540"" height = ""360"" style=""border:16px solid orange"">","null","","","","","","","","","",""
"null","","html-keyboard-response","51","64526","0.0-51.0","3X87C8JFV7XZ3T6MOFHHE4MA0DDSQU","AOWW3URQNRJ6U","3RSBJ6YZECCLSSQQCGKCTHC9OPAFOK","","","null","","","","","","","","","",""
"608","","image-keyboard-response","52","65135","0.0-52.0","3X87C8JFV7XZ3T6MOFHHE4MA0DDSQU","AOWW3URQNRJ6U","3RSBJ6YZECCLSSQQCGKCTHC9OPAFOK","","img/set1/S1.jpg","83","1","random","83","random,structured_incentive,structured_normal,structured_load","1,2,2,3,4,2","3,1,2,4","true","","",""
"null","","html-keyboard-response","53","65487","0.0-53.0","3X87C8JFV7XZ3T6MOFHHE4MA0DDSQU","AOWW3URQNRJ6U","3RSBJ6YZECCLSSQQCGKCTHC9OPAFOK","","<img src=""img/set1/S1.jpg"" width=""540"" height = ""360"" style=""border:16px solid orange"">","null","","","","","","","","","",""
"null","","html-keyboard-response","54","65688","0.0-54.0","3X87C8JFV7XZ3T6MOFHHE4MA0DDSQU","AOWW3URQNRJ6U","3RSBJ6YZECCLSSQQCGKCTHC9OPAFOK","","","null","","","","","","","","","",""
"552.2999999821186","","image-keyboard-response","55","66241","0.0-55.0","3X87C8JFV7XZ3T6MOFHHE4MA0DDSQU","AOWW3URQNRJ6U","3RSBJ6YZECCLSSQQCGKCTHC9OPAFOK","","img/set1/S2.jpg","68","2","random","68","random,structured_incentive,structured_normal,structured_load","1,2,2,3,4,2","3,1,2,4","true","","",""
"null","","html-keyboard-response","56","66594","0.0-56.0","3X87C8JFV7XZ3T6MOFHHE4MA0DDSQU","AOWW3URQNRJ6U","3RSBJ6YZECCLSSQQCGKCTHC9OPAFOK","","<img src=""img/set1/S2.jpg"" width=""540"" height = ""360"" style=""border:16px solid orange"">","null","","","","","","","","","",""
"null","","html-keyboard-response","57","66796","0.0-57.0","3X87C8JFV7XZ3T6MOFHHE4MA0DDSQU","AOWW3URQNRJ6U","3RSBJ6YZECCLSSQQCGKCTHC9OPAFOK","","","null","","","","","","","","","",""
"482.90000000596046","","image-keyboard-response","58","67280","0.0-58.0","3X87C8JFV7XZ3T6MOFHHE4MA0DDSQU","AOWW3URQNRJ6U","3RSBJ6YZECCLSSQQCGKCTHC9OPAFOK","","img/set1/S4.jpg","74","4","random","74","random,structured_incentive,structured_normal,structured_load","1,2,2,3,4,2","3,1,2,4","true","","",""
"null","","html-keyboard-response","59","67632","0.0-59.0","3X87C8JFV7XZ3T6MOFHHE4MA0DDSQU","AOWW3URQNRJ6U","3RSBJ6YZECCLSSQQCGKCTHC9OPAFOK","","<img src=""img/set1/S4.jpg"" width=""540"" height = ""360"" style=""border:16px solid orange"">","null","","","","","","","","","",""
"null","","html-keyboard-response","60","67833","0.0-60.0","3X87C8JFV7XZ3T6MOFHHE4MA0DDSQU","AOWW3URQNRJ6U","3RSBJ6YZECCLSSQQCGKCTHC9OPAFOK","","","null","","","","","","","","","",""
"431","","image-keyboard-response","61","68265","0.0-61.0","3X87C8JFV7XZ3T6MOFHHE4MA0DDSQU","AOWW3URQNRJ6U","3RSBJ6YZECCLSSQQCGKCTHC9OPAFOK","","img/set1/S4.jpg","74","4","random","74","random,structured_incentive,structured_normal,structured_load","1,2,2,3,4,2","3,1,2,4","true","","",""
"null","","html-keyboard-response","62","68617","0.0-62.0","3X87C8JFV7XZ3T6MOFHHE4MA0DDSQU","AOWW3URQNRJ6U","3RSBJ6YZECCLSSQQCGKCTHC9OPAFOK","","<img src=""img/set1/S4.jpg"" width=""540"" height = ""360"" style=""border:16px solid orange"">","null","","","","","","","","","",""
"null","","html-keyboard-response","63","68820","0.0-63.0","3X87C8JFV7XZ3T6MOFHHE4MA0DDSQU","AOWW3URQNRJ6U","3RSBJ6YZECCLSSQQCGKCTHC9OPAFOK","","","null","","","","","","","","","",""
"331.90000000596046","","image-keyboard-response","64","69153","0.0-64.0","3X87C8JFV7XZ3T6MOFHHE4MA0DDSQU","AOWW3URQNRJ6U","3RSBJ6YZECCLSSQQCGKCTHC9OPAFOK","","img/set1/S4.jpg","74","4","random","74","random,structured_incentive,structured_normal,structured_load","1,2,2,3,4,2","3,1,2,4","true","","",""
"null","","html-keyboard-response","65","69506","0.0-65.0","3X87C8JFV7XZ3T6MOFHHE4MA0DDSQU","AOWW3URQNRJ6U","3RSBJ6YZECCLSSQQCGKCTHC9OPAFOK","","<img src=""img/set1/S4.jpg"" width=""540"" height = ""360"" style=""border:16px solid orange"">","null","","","","","","","","","",""
"null","","html-keyboard-response","66","69709","0.0-66.0","3X87C8JFV7XZ3T6MOFHHE4MA0DDSQU","AOWW3URQNRJ6U","3RSBJ6YZECCLSSQQCGKCTHC9OPAFOK","","","null","","","","","","","","","",""
"600.2999999821186","","image-keyboard-response","67","70311","0.0-67.0","3X87C8JFV7XZ3T6MOFHHE4MA0DDSQU","AOWW3URQNRJ6U","3RSBJ6YZECCLSSQQCGKCTHC9OPAFOK","","img/set1/S3.jpg","72","3","random","72","random,structured_incentive,structured_normal,structured_load","1,2,2,3,4,2","3,1,2,4","true","","",""
"null","","html-keyboard-response","68","70663","0.0-68.0","3X87C8JFV7XZ3T6MOFHHE4MA0DDSQU","AOWW3URQNRJ6U","3RSBJ6YZECCLSSQQCGKCTHC9OPAFOK","","<img src=""img/set1/S3.jpg"" width=""540"" height = ""360"" style=""border:16px solid orange"">","null","","","","","","","","","",""
"null","","html-keyboard-response","69","70865","0.0-69.0","3X87C8JFV7XZ3T6MOFHHE4MA0DDSQU","AOWW3URQNRJ6U","3RSBJ6YZECCLSSQQCGKCTHC9OPAFOK","","","null","","","","","","","","","",""
"534.7000000178814","","image-keyboard-response","70","71401","0.0-70.0","3X87C8JFV7XZ3T6MOFHHE4MA0DDSQU","AOWW3URQNRJ6U","3RSBJ6YZECCLSSQQCGKCTHC9OPAFOK","","img/set1/S2.jpg","68","2","random","68","random,structured_incentive,structured_normal,structured_load","1,2,2,3,4,2","3,1,2,4","true","","",""
"null","","html-keyboard-response","71","71753","0.0-71.0","3X87C8JFV7XZ3T6MOFHHE4MA0DDSQU","AOWW3URQNRJ6U","3RSBJ6YZECCLSSQQCGKCTHC9OPAFOK","","<img src=""img/set1/S2.jpg"" width=""540"" height = ""360"" style=""border:16px solid orange"">","null","","","","","","","","","",""
"null","","html-keyboard-response","72","71955","0.0-72.0","3X87C8JFV7XZ3T6MOFHHE4MA0DDSQU","AOWW3URQNRJ6U","3RSBJ6YZECCLSSQQCGKCTHC9OPAFOK","","","null","","","","","","","","","",""
"686.8000000119209","","image-keyboard-response","73","72643","0.0-73.0","3X87C8JFV7XZ3T6MOFHHE4MA0DDSQU","AOWW3URQNRJ6U","3RSBJ6YZECCLSSQQCGKCTHC9OPAFOK","","img/set1/S3.jpg","72","3","random","72","random,structured_incentive,structured_normal,structured_load","1,2,2,3,4,2","3,1,2,4","true","","",""
"null","","html-keyboard-response","74","72995","0.0-74.0","3X87C8JFV7XZ3T6MOFHHE4MA0DDSQU","AOWW3URQNRJ6U","3RSBJ6YZECCLSSQQCGKCTHC9OPAFOK","","<img src=""img/set1/S3.jpg"" width=""540"" height = ""360"" style=""border:16px solid orange"">","null","","","","","","","","","",""
"null","","html-keyboard-response","75","73198","0.0-75.0","3X87C8JFV7XZ3T6MOFHHE4MA0DDSQU","AOWW3URQNRJ6U","3RSBJ6YZECCLSSQQCGKCTHC9OPAFOK","","","null","","","","","","","","","",""
"466.19999998807907","","image-keyboard-response","76","73665","0.0-76.0","3X87C8JFV7XZ3T6MOFHHE4MA0DDSQU","AOWW3URQNRJ6U","3RSBJ6YZECCLSSQQCGKCTHC9OPAFOK","","img/set1/S1.jpg","83","1","random","83","random,structured_incentive,structured_normal,structured_load","1,2,2,3,4,2","3,1,2,4","true","","",""
"null","","html-keyboard-response","77","74017","0.0-77.0","3X87C8JFV7XZ3T6MOFHHE4MA0DDSQU","AOWW3URQNRJ6U","3RSBJ6YZECCLSSQQCGKCTHC9OPAFOK","","<img src=""img/set1/S1.jpg"" width=""540"" height = ""360"" style=""border:16px solid orange"">","null","","","","","","","","","",""
"null","","html-keyboard-response","78","74218","0.0-78.0","3X87C8JFV7XZ3T6MOFHHE4MA0DDSQU","AOWW3URQNRJ6U","3RSBJ6YZECCLSSQQCGKCTHC9OPAFOK","","","null","","","","","","","","","",""
"539","","image-keyboard-response","79","74758","0.0-79.0","3X87C8JFV7XZ3T6MOFHHE4MA0DDSQU","AOWW3URQNRJ6U","3RSBJ6YZECCLSSQQCGKCTHC9OPAFOK","","img/set1/S2.jpg","68","2","random","68","random,structured_incentive,structured_normal,structured_load","1,2,2,3,4,2","3,1,2,4","true","","",""
"null","","html-keyboard-response","80","75110","0.0-80.0","3X87C8JFV7XZ3T6MOFHHE4MA0DDSQU","AOWW3URQNRJ6U","3RSBJ6YZECCLSSQQCGKCTHC9OPAFOK","","<img src=""img/set1/S2.jpg"" width=""540"" height = ""360"" style=""border:16px solid orange"">","null","","","","","","","","","",""
"null","","html-keyboard-response","81","75312","0.0-81.0","3X87C8JFV7XZ3T6MOFHHE4MA0DDSQU","AOWW3URQNRJ6U","3RSBJ6YZECCLSSQQCGKCTHC9OPAFOK","","","null","","","","","","","","","",""
"394.90000000596046","","image-keyboard-response","82","75708","0.0-82.0","3X87C8JFV7XZ3T6MOFHHE4MA0DDSQU","AOWW3URQNRJ6U","3RSBJ6YZECCLSSQQCGKCTHC9OPAFOK","","img/set1/S4.jpg","72","4","random","74","random,structured_incentive,structured_normal,structured_load","1,2,2,3,4,2","3,1,2,4","false","","",""
"null","","html-keyboard-response","83","76060","0.0-83.0","3X87C8JFV7XZ3T6MOFHHE4MA0DDSQU","AOWW3URQNRJ6U","3RSBJ6YZECCLSSQQCGKCTHC9OPAFOK","","<img src=""img/set1/S4.jpg"" width=""540"" height = ""360"">","null","","","","","","","","","",""
"null","","html-keyboard-response","84","76262","0.0-84.0","3X87C8JFV7XZ3T6MOFHHE4MA0DDSQU","AOWW3URQNRJ6U","3RSBJ6YZECCLSSQQCGKCTHC9OPAFOK","","","null","","","","","","","","","",""
"505.5","","image-keyboard-response","85","76769","0.0-85.0","3X87C8JFV7XZ3T6MOFHHE4MA0DDSQU","AOWW3URQNRJ6U","3RSBJ6YZECCLSSQQCGKCTHC9OPAFOK","","img/set1/S1.jpg","83","1","random","83","random,structured_incentive,structured_normal,structured_load","1,2,2,3,4,2","3,1,2,4","true","","",""
"null","","html-keyboard-response","86","77122","0.0-86.0","3X87C8JFV7XZ3T6MOFHHE4MA0DDSQU","AOWW3URQNRJ6U","3RSBJ6YZECCLSSQQCGKCTHC9OPAFOK","","<img src=""img/set1/S1.jpg"" width=""540"" height = ""360"" style=""border:16px solid orange"">","null","","","","","","","","","",""
"null","","html-keyboard-response","87","77323","0.0-87.0","3X87C8JFV7XZ3T6MOFHHE4MA0DDSQU","AOWW3URQNRJ6U","3RSBJ6YZECCLSSQQCGKCTHC9OPAFOK","","","null","","","","","","","","","",""
"437.7999999821186","","image-keyboard-response","88","77762","0.0-88.0","3X87C8JFV7XZ3T6MOFHHE4MA0DDSQU","AOWW3URQNRJ6U","3RSBJ6YZECCLSSQQCGKCTHC9OPAFOK","","img/set1/S1.jpg","83","1","random","83","random,structured_incentive,structured_normal,structured_load","1,2,2,3,4,2","3,1,2,4","true","","",""
"null","","html-keyboard-response","89","78114","0.0-89.0","3X87C8JFV7XZ3T6MOFHHE4MA0DDSQU","AOWW3URQNRJ6U","3RSBJ6YZECCLSSQQCGKCTHC9OPAFOK","","<img src=""img/set1/S1.jpg"" width=""540"" height = ""360"" style=""border:16px solid orange"">","null","","","","","","","","","",""
"null","","html-keyboard-response","90","78317","0.0-90.0","3X87C8JFV7XZ3T6MOFHHE4MA0DDSQU","AOWW3URQNRJ6U","3RSBJ6YZECCLSSQQCGKCTHC9OPAFOK","","","null","","","","","","","","","",""
"421.19999998807907","","image-keyboard-response","91","78739","0.0-91.0","3X87C8JFV7XZ3T6MOFHHE4MA0DDSQU","AOWW3URQNRJ6U","3RSBJ6YZECCLSSQQCGKCTHC9OPAFOK","","img/set1/S1.jpg","83","1","random","83","random,structured_incentive,structured_normal,structured_load","1,2,2,3,4,2","3,1,2,4","true","","",""
"null","","html-keyboard-response","92","79091","0.0-92.0","3X87C8JFV7XZ3T6MOFHHE4MA0DDSQU","AOWW3URQNRJ6U","3RSBJ6YZECCLSSQQCGKCTHC9OPAFOK","","<img src=""img/set1/S1.jpg"" width=""540"" height = ""360"" style=""border:16px solid orange"">","null","","","","","","","","","",""
"null","","html-keyboard-response","93","79294","0.0-93.0","3X87C8JFV7XZ3T6MOFHHE4MA0DDSQU","AOWW3URQNRJ6U","3RSBJ6YZECCLSSQQCGKCTHC9OPAFOK","","","null","","","","","","","","","",""
"659.0999999940395","","image-keyboard-response","94","79954","0.0-94.0","3X87C8JFV7XZ3T6MOFHHE4MA0DDSQU","AOWW3URQNRJ6U","3RSBJ6YZECCLSSQQCGKCTHC9OPAFOK","","img/set1/S4.jpg","74","4","random","74","random,structured_incentive,structured_normal,structured_load","1,2,2,3,4,2","3,1,2,4","true","","",""
"null","","html-keyboard-response","95","80306","0.0-95.0","3X87C8JFV7XZ3T6MOFHHE4MA0DDSQU","AOWW3URQNRJ6U","3RSBJ6YZECCLSSQQCGKCTHC9OPAFOK","","<img src=""img/set1/S4.jpg"" width=""540"" height = ""360"" style=""border:16px solid orange"">","null","","","","","","","","","",""
"null","","html-keyboard-response","96","80508","0.0-96.0","3X87C8JFV7XZ3T6MOFHHE4MA0DDSQU","AOWW3URQNRJ6U","3RSBJ6YZECCLSSQQCGKCTHC9OPAFOK","","","null","","","","","","","","","",""
"445.59999999403954","","image-keyboard-response","97","80955","0.0-97.0","3X87C8JFV7XZ3T6MOFHHE4MA0DDSQU","AOWW3URQNRJ6U","3RSBJ6YZECCLSSQQCGKCTHC9OPAFOK","","img/set1/S4.jpg","74","4","random","74","random,structured_incentive,structured_normal,structured_load","1,2,2,3,4,2","3,1,2,4","true","","",""
"null","","html-keyboard-response","98","81309","0.0-98.0","3X87C8JFV7XZ3T6MOFHHE4MA0DDSQU","AOWW3URQNRJ6U","3RSBJ6YZECCLSSQQCGKCTHC9OPAFOK","","<img src=""img/set1/S4.jpg"" width=""540"" height = ""360"" style=""border:16px solid orange"">","null","","","","","","","","","",""
"null","","html-keyboard-response","99","81511","0.0-99.0","3X87C8JFV7XZ3T6MOFHHE4MA0DDSQU","AOWW3URQNRJ6U","3RSBJ6YZECCLSSQQCGKCTHC9OPAFOK","","","null","","","","","","","","","",""
"408.19999998807907","","image-keyboard-response","100","81920","0.0-100.0","3X87C8JFV7XZ3T6MOFHHE4MA0DDSQU","AOWW3URQNRJ6U","3RSBJ6YZECCLSSQQCGKCTHC9OPAFOK","","img/set1/S4.jpg","74","4","random","74","random,structured_incentive,structured_normal,structured_load","1,2,2,3,4,2","3,1,2,4","true","","",""
"null","","html-keyboard-response","101","82273","0.0-101.0","3X87C8JFV7XZ3T6MOFHHE4MA0DDSQU","AOWW3URQNRJ6U","3RSBJ6YZECCLSSQQCGKCTHC9OPAFOK","","<img src=""img/set1/S4.jpg"" width=""540"" height = ""360"" style=""border:16px solid orange"">","null","","","","","","","","","",""
"null","","html-keyboard-response","102","82475","0.0-102.0","3X87C8JFV7XZ3T6MOFHHE4MA0DDSQU","AOWW3URQNRJ6U","3RSBJ6YZECCLSSQQCGKCTHC9OPAFOK","","","null","","","","","","","","","",""
"380.7999999821186","","image-keyboard-response","103","82857","0.0-103.0","3X87C8JFV7XZ3T6MOFHHE4MA0DDSQU","AOWW3URQNRJ6U","3RSBJ6YZECCLSSQQCGKCTHC9OPAFOK","","img/set1/S4.jpg","74","4","random","74","random,structured_incentive,structured_normal,structured_load","1,2,2,3,4,2","3,1,2,4","true","","",""
"null","","html-keyboard-response","104","83209","0.0-104.0","3X87C8JFV7XZ3T6MOFHHE4MA0DDSQU","AOWW3URQNRJ6U","3RSBJ6YZECCLSSQQCGKCTHC9OPAFOK","","<img src=""img/set1/S4.jpg"" width=""540"" height = ""360"" style=""border:16px solid orange"">","null","","","","","","","","","",""
"null","","html-keyboard-response","105","83411","0.0-105.0","3X87C8JFV7XZ3T6MOFHHE4MA0DDSQU","AOWW3URQNRJ6U","3RSBJ6YZECCLSSQQCGKCTHC9OPAFOK","","","null","","","","","","","","","",""
"338.7999999821186","","image-keyboard-response","106","83750","0.0-106.0","3X87C8JFV7XZ3T6MOFHHE4MA0DDSQU","AOWW3URQNRJ6U","3RSBJ6YZECCLSSQQCGKCTHC9OPAFOK","","img/set1/S4.jpg","74","4","random","74","random,structured_incentive,structured_normal,structured_load","1,2,2,3,4,2","3,1,2,4","true","","",""
"null","","html-keyboard-response","107","84102","0.0-107.0","3X87C8JFV7XZ3T6MOFHHE4MA0DDSQU","AOWW3URQNRJ6U","3RSBJ6YZECCLSSQQCGKCTHC9OPAFOK","","<img src=""img/set1/S4.jpg"" width=""540"" height = ""360"" style=""border:16px solid orange"">","null","","","","","","","","","",""
"null","","html-keyboard-response","108","84303","0.0-108.0","3X87C8JFV7XZ3T6MOFHHE4MA0DDSQU","AOWW3URQNRJ6U","3RSBJ6YZECCLSSQQCGKCTHC9OPAFOK","","","null","","","","","","","","","",""
"751.2999999821186","","image-keyboard-response","109","85055","0.0-109.0","3X87C8JFV7XZ3T6MOFHHE4MA0DDSQU","AOWW3URQNRJ6U","3RSBJ6YZECCLSSQQCGKCTHC9OPAFOK","","img/set1/S3.jpg","68","3","random","72","random,structured_incentive,structured_normal,structured_load","1,2,2,3,4,2","3,1,2,4","false","","",""
"null","","html-keyboard-response","110","85408","0.0-110.0","3X87C8JFV7XZ3T6MOFHHE4MA0DDSQU","AOWW3URQNRJ6U","3RSBJ6YZECCLSSQQCGKCTHC9OPAFOK","","<img src=""img/set1/S3.jpg"" width=""540"" height = ""360"">","null","","","","","","","","","",""
"null","","html-keyboard-response","111","85611","0.0-111.0","3X87C8JFV7XZ3T6MOFHHE4MA0DDSQU","AOWW3URQNRJ6U","3RSBJ6YZECCLSSQQCGKCTHC9OPAFOK","","","null","","","","","","","","","",""
"452.80000001192093","","image-keyboard-response","112","86065","0.0-112.0","3X87C8JFV7XZ3T6MOFHHE4MA0DDSQU","AOWW3URQNRJ6U","3RSBJ6YZECCLSSQQCGKCTHC9OPAFOK","","img/set1/S3.jpg","72","3","random","72","random,structured_incentive,structured_normal,structured_load","1,2,2,3,4,2","3,1,2,4","true","","",""
"null","","html-keyboard-response","113","86417","0.0-113.0","3X87C8JFV7XZ3T6MOFHHE4MA0DDSQU","AOWW3URQNRJ6U","3RSBJ6YZECCLSSQQCGKCTHC9OPAFOK","","<img src=""img/set1/S3.jpg"" width=""540"" height = ""360"" style=""border:16px solid orange"">","null","","","","","","","","","",""
"null","","html-keyboard-response","114","86619","0.0-114.0","3X87C8JFV7XZ3T6MOFHHE4MA0DDSQU","AOWW3URQNRJ6U","3RSBJ6YZECCLSSQQCGKCTHC9OPAFOK","","","null","","","","","","","","","",""
"521.8000000119209","","image-keyboard-response","115","87142","0.0-115.0","3X87C8JFV7XZ3T6MOFHHE4MA0DDSQU","AOWW3URQNRJ6U","3RSBJ6YZECCLSSQQCGKCTHC9OPAFOK","","img/set1/S1.jpg","83","1","random","83","random,structured_incentive,structured_normal,structured_load","1,2,2,3,4,2","3,1,2,4","true","","",""
"null","","html-keyboard-response","116","87494","0.0-116.0","3X87C8JFV7XZ3T6MOFHHE4MA0DDSQU","AOWW3URQNRJ6U","3RSBJ6YZECCLSSQQCGKCTHC9OPAFOK","","<img src=""img/set1/S1.jpg"" width=""540"" height = ""360"" style=""border:16px solid orange"">","null","","","","","","","","","",""
"null","","html-keyboard-response","117","87695","0.0-117.0","3X87C8JFV7XZ3T6MOFHHE4MA0DDSQU","AOWW3URQNRJ6U","3RSBJ6YZECCLSSQQCGKCTHC9OPAFOK","","","null","","","","","","","","","",""
"336.09999999403954","","image-keyboard-response","118","88032","0.0-118.0","3X87C8JFV7XZ3T6MOFHHE4MA0DDSQU","AOWW3URQNRJ6U","3RSBJ6YZECCLSSQQCGKCTHC9OPAFOK","","img/set1/S2.jpg","68","2","random","68","random,structured_incentive,structured_normal,structured_load","1,2,2,3,4,2","3,1,2,4","true","","",""
"null","","html-keyboard-response","119","88385","0.0-119.0","3X87C8JFV7XZ3T6MOFHHE4MA0DDSQU","AOWW3URQNRJ6U","3RSBJ6YZECCLSSQQCGKCTHC9OPAFOK","","<img src=""img/set1/S2.jpg"" width=""540"" height = ""360"" style=""border:16px solid orange"">","null","","","","","","","","","",""
"null","","html-keyboard-response","120","88587","0.0-120.0","3X87C8JFV7XZ3T6MOFHHE4MA0DDSQU","AOWW3URQNRJ6U","3RSBJ6YZECCLSSQQCGKCTHC9OPAFOK","","","null","","","","","","","","","",""
"375.5","","image-keyboard-response","121","88963","0.0-121.0","3X87C8JFV7XZ3T6MOFHHE4MA0DDSQU","AOWW3URQNRJ6U","3RSBJ6YZECCLSSQQCGKCTHC9OPAFOK","","img/set1/S3.jpg","72","3","random","72","random,structured_incentive,structured_normal,structured_load","1,2,2,3,4,2","3,1,2,4","true","","",""
"null","","html-keyboard-response","122","89315","0.0-122.0","3X87C8JFV7XZ3T6MOFHHE4MA0DDSQU","AOWW3URQNRJ6U","3RSBJ6YZECCLSSQQCGKCTHC9OPAFOK","","<img src=""img/set1/S3.jpg"" width=""540"" height = ""360"" style=""border:16px solid orange"">","null","","","","","","","","","",""
"null","","html-keyboard-response","123","89517","0.0-123.0","3X87C8JFV7XZ3T6MOFHHE4MA0DDSQU","AOWW3URQNRJ6U","3RSBJ6YZECCLSSQQCGKCTHC9OPAFOK","","","null","","","","","","","","","",""
"496.59999999403954","","image-keyboard-response","124","90014","0.0-124.0","3X87C8JFV7XZ3T6MOFHHE4MA0DDSQU","AOWW3URQNRJ6U","3RSBJ6YZECCLSSQQCGKCTHC9OPAFOK","","img/set1/S2.jpg","68","2","random","68","random,structured_incentive,structured_normal,structured_load","1,2,2,3,4,2","3,1,2,4","true","","",""
"null","","html-keyboard-response","125","90366","0.0-125.0","3X87C8JFV7XZ3T6MOFHHE4MA0DDSQU","AOWW3URQNRJ6U","3RSBJ6YZECCLSSQQCGKCTHC9OPAFOK","","<img src=""img/set1/S2.jpg"" width=""540"" height = ""360"" style=""border:16px solid orange"">","null","","","","","","","","","",""
"null","","html-keyboard-response","126","90567","0.0-126.0","3X87C8JFV7XZ3T6MOFHHE4MA0DDSQU","AOWW3URQNRJ6U","3RSBJ6YZECCLSSQQCGKCTHC9OPAFOK","","","null","","","","","","","","","",""
"483.2999999821186","","image-keyboard-response","127","91051","0.0-127.0","3X87C8JFV7XZ3T6MOFHHE4MA0DDSQU","AOWW3URQNRJ6U","3RSBJ6YZECCLSSQQCGKCTHC9OPAFOK","","img/set1/S2.jpg","68","2","random","68","random,structured_incentive,structured_normal,structured_load","1,2,2,3,4,2","3,1,2,4","true","","",""
"null","","html-keyboard-response","128","91404","0.0-128.0","3X87C8JFV7XZ3T6MOFHHE4MA0DDSQU","AOWW3URQNRJ6U","3RSBJ6YZECCLSSQQCGKCTHC9OPAFOK","","<img src=""img/set1/S2.jpg"" width=""540"" height = ""360"" style=""border:16px solid orange"">","null","","","","","","","","","",""
"null","","html-keyboard-response","129","91606","0.0-129.0","3X87C8JFV7XZ3T6MOFHHE4MA0DDSQU","AOWW3URQNRJ6U","3RSBJ6YZECCLSSQQCGKCTHC9OPAFOK","","","null","","","","","","","","","",""
"323.09999999403954","","image-keyboard-response","130","91930","0.0-130.0","3X87C8JFV7XZ3T6MOFHHE4MA0DDSQU","AOWW3URQNRJ6U","3RSBJ6YZECCLSSQQCGKCTHC9OPAFOK","","img/set1/S2.jpg","68","2","random","68","random,structured_incentive,structured_normal,structured_load","1,2,2,3,4,2","3,1,2,4","true","","",""
"null","","html-keyboard-response","131","92282","0.0-131.0","3X87C8JFV7XZ3T6MOFHHE4MA0DDSQU","AOWW3URQNRJ6U","3RSBJ6YZECCLSSQQCGKCTHC9OPAFOK","","<img src=""img/set1/S2.jpg"" width=""540"" height = ""360"" style=""border:16px solid orange"">","null","","","","","","","","","",""
"null","","html-keyboard-response","132","92484","0.0-132.0","3X87C8JFV7XZ3T6MOFHHE4MA0DDSQU","AOWW3URQNRJ6U","3RSBJ6YZECCLSSQQCGKCTHC9OPAFOK","","","null","","","","","","","","","",""
"515.5999999940395","","image-keyboard-response","133","93000","0.0-133.0","3X87C8JFV7XZ3T6MOFHHE4MA0DDSQU","AOWW3URQNRJ6U","3RSBJ6YZECCLSSQQCGKCTHC9OPAFOK","","img/set1/S4.jpg","74","4","random","74","random,structured_incentive,structured_normal,structured_load","1,2,2,3,4,2","3,1,2,4","true","","",""
"null","","html-keyboard-response","134","93352","0.0-134.0","3X87C8JFV7XZ3T6MOFHHE4MA0DDSQU","AOWW3URQNRJ6U","3RSBJ6YZECCLSSQQCGKCTHC9OPAFOK","","<img src=""img/set1/S4.jpg"" width=""540"" height = ""360"" style=""border:16px solid orange"">","null","","","","","","","","","",""
"null","","html-keyboard-response","135","93554","0.0-135.0","3X87C8JFV7XZ3T6MOFHHE4MA0DDSQU","AOWW3URQNRJ6U","3RSBJ6YZECCLSSQQCGKCTHC9OPAFOK","","","null","","","","","","","","","",""
"631.7000000178814","","image-keyboard-response","136","94187","0.0-136.0","3X87C8JFV7XZ3T6MOFHHE4MA0DDSQU","AOWW3URQNRJ6U","3RSBJ6YZECCLSSQQCGKCTHC9OPAFOK","","img/set1/S3.jpg","72","3","random","72","random,structured_incentive,structured_normal,structured_load","1,2,2,3,4,2","3,1,2,4","true","","",""
"null","","html-keyboard-response","137","94539","0.0-137.0","3X87C8JFV7XZ3T6MOFHHE4MA0DDSQU","AOWW3URQNRJ6U","3RSBJ6YZECCLSSQQCGKCTHC9OPAFOK","","<img src=""img/set1/S3.jpg"" width=""540"" height = ""360"" style=""border:16px solid orange"">","null","","","","","","","","","",""
"null","","html-keyboard-response","138","94742","0.0-138.0","3X87C8JFV7XZ3T6MOFHHE4MA0DDSQU","AOWW3URQNRJ6U","3RSBJ6YZECCLSSQQCGKCTHC9OPAFOK","","","null","","","","","","","","","",""
"524.5","","image-keyboard-response","139","95267","0.0-139.0","3X87C8JFV7XZ3T6MOFHHE4MA0DDSQU","AOWW3URQNRJ6U","3RSBJ6YZECCLSSQQCGKCTHC9OPAFOK","","img/set1/S2.jpg","68","2","random","68","random,structured_incentive,structured_normal,structured_load","1,2,2,3,4,2","3,1,2,4","true","","",""
"null","","html-keyboard-response","140","95620","0.0-140.0","3X87C8JFV7XZ3T6MOFHHE4MA0DDSQU","AOWW3URQNRJ6U","3RSBJ6YZECCLSSQQCGKCTHC9OPAFOK","","<img src=""img/set1/S2.jpg"" width=""540"" height = ""360"" style=""border:16px solid orange"">","null","","","","","","","","","",""
"null","","html-keyboard-response","141","95822","0.0-141.0","3X87C8JFV7XZ3T6MOFHHE4MA0DDSQU","AOWW3URQNRJ6U","3RSBJ6YZECCLSSQQCGKCTHC9OPAFOK","","","null","","","","","","","","","",""
"471.09999999403954","","image-keyboard-response","142","96294","0.0-142.0","3X87C8JFV7XZ3T6MOFHHE4MA0DDSQU","AOWW3URQNRJ6U","3RSBJ6YZECCLSSQQCGKCTHC9OPAFOK","","img/set1/S3.jpg","72","3","random","72","random,structured_incentive,structured_normal,structured_load","1,2,2,3,4,2","3,1,2,4","true","","",""
"null","","html-keyboard-response","143","96646","0.0-143.0","3X87C8JFV7XZ3T6MOFHHE4MA0DDSQU","AOWW3URQNRJ6U","3RSBJ6YZECCLSSQQCGKCTHC9OPAFOK","","<img src=""img/set1/S3.jpg"" width=""540"" height = ""360"" style=""border:16px solid orange"">","null","","","","","","","","","",""
"null","","html-keyboard-response","144","96848","0.0-144.0","3X87C8JFV7XZ3T6MOFHHE4MA0DDSQU","AOWW3URQNRJ6U","3RSBJ6YZECCLSSQQCGKCTHC9OPAFOK","","","null","","","","","","","","","",""
"359.09999999403954","","image-keyboard-response","145","97209","0.0-145.0","3X87C8JFV7XZ3T6MOFHHE4MA0DDSQU","AOWW3URQNRJ6U","3RSBJ6YZECCLSSQQCGKCTHC9OPAFOK","","img/set1/S3.jpg","72","3","random","72","random,structured_incentive,structured_normal,structured_load","1,2,2,3,4,2","3,1,2,4","true","","",""
"null","","html-keyboard-response","146","97560","0.0-146.0","3X87C8JFV7XZ3T6MOFHHE4MA0DDSQU","AOWW3URQNRJ6U","3RSBJ6YZECCLSSQQCGKCTHC9OPAFOK","","<img src=""img/set1/S3.jpg"" width=""540"" height = ""360"" style=""border:16px solid orange"">","null","","","","","","","","","",""
"null","","html-keyboard-response","147","97761","0.0-147.0","3X87C8JFV7XZ3T6MOFHHE4MA0DDSQU","AOWW3URQNRJ6U","3RSBJ6YZECCLSSQQCGKCTHC9OPAFOK","","","null","","","","","","","","","",""
"597.9000000059605","","image-keyboard-response","148","98360","0.0-148.0","3X87C8JFV7XZ3T6MOFHHE4MA0DDSQU","AOWW3URQNRJ6U","3RSBJ6YZECCLSSQQCGKCTHC9OPAFOK","","img/set1/S1.jpg","83","1","random","83","random,structured_incentive,structured_normal,structured_load","1,2,2,3,4,2","3,1,2,4","true","","",""
"null","","html-keyboard-response","149","98713","0.0-149.0","3X87C8JFV7XZ3T6MOFHHE4MA0DDSQU","AOWW3URQNRJ6U","3RSBJ6YZECCLSSQQCGKCTHC9OPAFOK","","<img src=""img/set1/S1.jpg"" width=""540"" height = ""360"" style=""border:16px solid orange"">","null","","","","","","","","","",""
"null","","html-keyboard-response","150","98914","0.0-150.0","3X87C8JFV7XZ3T6MOFHHE4MA0DDSQU","AOWW3URQNRJ6U","3RSBJ6YZECCLSSQQCGKCTHC9OPAFOK","","","null","","","","","","","","","",""
"511.5","","image-keyboard-response","151","99427","0.0-151.0","3X87C8JFV7XZ3T6MOFHHE4MA0DDSQU","AOWW3URQNRJ6U","3RSBJ6YZECCLSSQQCGKCTHC9OPAFOK","","img/set1/S2.jpg","68","2","random","68","random,structured_incentive,structured_normal,structured_load","1,2,2,3,4,2","3,1,2,4","true","","",""
"null","","html-keyboard-response","152","99782","0.0-152.0","3X87C8JFV7XZ3T6MOFHHE4MA0DDSQU","AOWW3URQNRJ6U","3RSBJ6YZECCLSSQQCGKCTHC9OPAFOK","","<img src=""img/set1/S2.jpg"" width=""540"" height = ""360"" style=""border:16px solid orange"">","null","","","","","","","","","",""
"null","","html-keyboard-response","153","99984","0.0-153.0","3X87C8JFV7XZ3T6MOFHHE4MA0DDSQU","AOWW3URQNRJ6U","3RSBJ6YZECCLSSQQCGKCTHC9OPAFOK","","","null","","","","","","","","","",""
"302.90000000596046","","image-keyboard-response","154","100288","0.0-154.0","3X87C8JFV7XZ3T6MOFHHE4MA0DDSQU","AOWW3URQNRJ6U","3RSBJ6YZECCLSSQQCGKCTHC9OPAFOK","","img/set1/S2.jpg","68","2","random","68","random,structured_incentive,structured_normal,structured_load","1,2,2,3,4,2","3,1,2,4","true","","",""
"null","","html-keyboard-response","155","100640","0.0-155.0","3X87C8JFV7XZ3T6MOFHHE4MA0DDSQU","AOWW3URQNRJ6U","3RSBJ6YZECCLSSQQCGKCTHC9OPAFOK","","<img src=""img/set1/S2.jpg"" width=""540"" height = ""360"" style=""border:16px solid orange"">","null","","","","","","","","","",""
"null","","html-keyboard-response","156","100842","0.0-156.0","3X87C8JFV7XZ3T6MOFHHE4MA0DDSQU","AOWW3URQNRJ6U","3RSBJ6YZECCLSSQQCGKCTHC9OPAFOK","","","null","","","","","","","","","",""
"546.7000000178814","","image-keyboard-response","157","101390","0.0-157.0","3X87C8JFV7XZ3T6MOFHHE4MA0DDSQU","AOWW3URQNRJ6U","3RSBJ6YZECCLSSQQCGKCTHC9OPAFOK","","img/set1/S1.jpg","83","1","random","83","random,structured_incentive,structured_normal,structured_load","1,2,2,3,4,2","3,1,2,4","true","","",""
"null","","html-keyboard-response","158","101741","0.0-158.0","3X87C8JFV7XZ3T6MOFHHE4MA0DDSQU","AOWW3URQNRJ6U","3RSBJ6YZECCLSSQQCGKCTHC9OPAFOK","","<img src=""img/set1/S1.jpg"" width=""540"" height = ""360"" style=""border:16px solid orange"">","null","","","","","","","","","",""
"null","","html-keyboard-response","159","101944","0.0-159.0","3X87C8JFV7XZ3T6MOFHHE4MA0DDSQU","AOWW3URQNRJ6U","3RSBJ6YZECCLSSQQCGKCTHC9OPAFOK","","","null","","","","","","","","","",""
"404.7000000178814","","image-keyboard-response","160","102350","0.0-160.0","3X87C8JFV7XZ3T6MOFHHE4MA0DDSQU","AOWW3URQNRJ6U","3RSBJ6YZECCLSSQQCGKCTHC9OPAFOK","","img/set1/S1.jpg","83","1","random","83","random,structured_incentive,structured_normal,structured_load","1,2,2,3,4,2","3,1,2,4","true","","",""
"null","","html-keyboard-response","161","102702","0.0-161.0","3X87C8JFV7XZ3T6MOFHHE4MA0DDSQU","AOWW3URQNRJ6U","3RSBJ6YZECCLSSQQCGKCTHC9OPAFOK","","<img src=""img/set1/S1.jpg"" width=""540"" height = ""360"" style=""border:16px solid orange"">","null","","","","","","","","","",""
"null","","html-keyboard-response","162","102904","0.0-162.0","3X87C8JFV7XZ3T6MOFHHE4MA0DDSQU","AOWW3URQNRJ6U","3RSBJ6YZECCLSSQQCGKCTHC9OPAFOK","","","null","","","","","","","","","",""
"696","","image-keyboard-response","163","103601","0.0-163.0","3X87C8JFV7XZ3T6MOFHHE4MA0DDSQU","AOWW3URQNRJ6U","3RSBJ6YZECCLSSQQCGKCTHC9OPAFOK","","img/set1/S2.jpg","68","2","random","68","random,structured_incentive,structured_normal,structured_load","1,2,2,3,4,2","3,1,2,4","true","","",""
"null","","html-keyboard-response","164","103953","0.0-164.0","3X87C8JFV7XZ3T6MOFHHE4MA0DDSQU","AOWW3URQNRJ6U","3RSBJ6YZECCLSSQQCGKCTHC9OPAFOK","","<img src=""img/set1/S2.jpg"" width=""540"" height = ""360"" style=""border:16px solid orange"">","null","","","","","","","","","",""
"null","","html-keyboard-response","165","104155","0.0-165.0","3X87C8JFV7XZ3T6MOFHHE4MA0DDSQU","AOWW3URQNRJ6U","3RSBJ6YZECCLSSQQCGKCTHC9OPAFOK","","","null","","","","","","","","","",""
"631.5999999940395","","image-keyboard-response","166","104788","0.0-166.0","3X87C8JFV7XZ3T6MOFHHE4MA0DDSQU","AOWW3URQNRJ6U","3RSBJ6YZECCLSSQQCGKCTHC9OPAFOK","","img/set1/S1.jpg","83","1","random","83","random,structured_incentive,structured_normal,structured_load","1,2,2,3,4,2","3,1,2,4","true","","",""
"null","","html-keyboard-response","167","105140","0.0-167.0","3X87C8JFV7XZ3T6MOFHHE4MA0DDSQU","AOWW3URQNRJ6U","3RSBJ6YZECCLSSQQCGKCTHC9OPAFOK","","<img src=""img/set1/S1.jpg"" width=""540"" height = ""360"" style=""border:16px solid orange"">","null","","","","","","","","","",""
"null","","html-keyboard-response","168","105341","0.0-168.0","3X87C8JFV7XZ3T6MOFHHE4MA0DDSQU","AOWW3URQNRJ6U","3RSBJ6YZECCLSSQQCGKCTHC9OPAFOK","","","null","","","","","","","","","",""
"476.7000000178814","","image-keyboard-response","169","105819","0.0-169.0","3X87C8JFV7XZ3T6MOFHHE4MA0DDSQU","AOWW3URQNRJ6U","3RSBJ6YZECCLSSQQCGKCTHC9OPAFOK","","img/set1/S3.jpg","72","3","random","72","random,structured_incentive,structured_normal,structured_load","1,2,2,3,4,2","3,1,2,4","true","","",""
"null","","html-keyboard-response","170","106170","0.0-170.0","3X87C8JFV7XZ3T6MOFHHE4MA0DDSQU","AOWW3URQNRJ6U","3RSBJ6YZECCLSSQQCGKCTHC9OPAFOK","","<img src=""img/set1/S3.jpg"" width=""540"" height = ""360"" style=""border:16px solid orange"">","null","","","","","","","","","",""
"null","","html-keyboard-response","171","106372","0.0-171.0","3X87C8JFV7XZ3T6MOFHHE4MA0DDSQU","AOWW3URQNRJ6U","3RSBJ6YZECCLSSQQCGKCTHC9OPAFOK","","","null","","","","","","","","","",""
"515.5","","image-keyboard-response","172","106889","0.0-172.0","3X87C8JFV7XZ3T6MOFHHE4MA0DDSQU","AOWW3URQNRJ6U","3RSBJ6YZECCLSSQQCGKCTHC9OPAFOK","","img/set1/S1.jpg","83","1","random","83","random,structured_incentive,structured_normal,structured_load","1,2,2,3,4,2","3,1,2,4","true","","",""
"null","","html-keyboard-response","173","107240","0.0-173.0","3X87C8JFV7XZ3T6MOFHHE4MA0DDSQU","AOWW3URQNRJ6U","3RSBJ6YZECCLSSQQCGKCTHC9OPAFOK","","<img src=""img/set1/S1.jpg"" width=""540"" height = ""360"" style=""border:16px solid orange"">","null","","","","","","","","","",""
"null","","html-keyboard-response","174","107443","0.0-174.0","3X87C8JFV7XZ3T6MOFHHE4MA0DDSQU","AOWW3URQNRJ6U","3RSBJ6YZECCLSSQQCGKCTHC9OPAFOK","","","null","","","","","","","","","",""
"463.30000001192093","","image-keyboard-response","175","107907","0.0-175.0","3X87C8JFV7XZ3T6MOFHHE4MA0DDSQU","AOWW3URQNRJ6U","3RSBJ6YZECCLSSQQCGKCTHC9OPAFOK","","img/set1/S2.jpg","68","2","random","68","random,structured_incentive,structured_normal,structured_load","1,2,2,3,4,2","3,1,2,4","true","","",""
"null","","html-keyboard-response","176","108259","0.0-176.0","3X87C8JFV7XZ3T6MOFHHE4MA0DDSQU","AOWW3URQNRJ6U","3RSBJ6YZECCLSSQQCGKCTHC9OPAFOK","","<img src=""img/set1/S2.jpg"" width=""540"" height = ""360"" style=""border:16px solid orange"">","null","","","","","","","","","",""
"null","","html-keyboard-response","177","108460","0.0-177.0","3X87C8JFV7XZ3T6MOFHHE4MA0DDSQU","AOWW3URQNRJ6U","3RSBJ6YZECCLSSQQCGKCTHC9OPAFOK","","","null","","","","","","","","","",""
"800.1999999880791","","image-keyboard-response","178","109261","0.0-178.0","3X87C8JFV7XZ3T6MOFHHE4MA0DDSQU","AOWW3URQNRJ6U","3RSBJ6YZECCLSSQQCGKCTHC9OPAFOK","","img/set1/S3.jpg","72","3","random","72","random,structured_incentive,structured_normal,structured_load","1,2,2,3,4,2","3,1,2,4","true","","",""
"null","","html-keyboard-response","179","109614","0.0-179.0","3X87C8JFV7XZ3T6MOFHHE4MA0DDSQU","AOWW3URQNRJ6U","3RSBJ6YZECCLSSQQCGKCTHC9OPAFOK","","<img src=""img/set1/S3.jpg"" width=""540"" height = ""360"" style=""border:16px solid orange"">","null","","","","","","","","","",""
"null","","html-keyboard-response","180","109816","0.0-180.0","3X87C8JFV7XZ3T6MOFHHE4MA0DDSQU","AOWW3URQNRJ6U","3RSBJ6YZECCLSSQQCGKCTHC9OPAFOK","","","null","","","","","","","","","",""
"590.2999999821186","","image-keyboard-response","181","110407","0.0-181.0","3X87C8JFV7XZ3T6MOFHHE4MA0DDSQU","AOWW3URQNRJ6U","3RSBJ6YZECCLSSQQCGKCTHC9OPAFOK","","img/set1/S1.jpg","83","1","random","83","random,structured_incentive,structured_normal,structured_load","1,2,2,3,4,2","3,1,2,4","true","","",""
"null","","html-keyboard-response","182","110759","0.0-182.0","3X87C8JFV7XZ3T6MOFHHE4MA0DDSQU","AOWW3URQNRJ6U","3RSBJ6YZECCLSSQQCGKCTHC9OPAFOK","","<img src=""img/set1/S1.jpg"" width=""540"" height = ""360"" style=""border:16px solid orange"">","null","","","","","","","","","",""
"null","","html-keyboard-response","183","110960","0.0-183.0","3X87C8JFV7XZ3T6MOFHHE4MA0DDSQU","AOWW3URQNRJ6U","3RSBJ6YZECCLSSQQCGKCTHC9OPAFOK","","","null","","","","","","","","","",""
"539.1999999880791","","image-keyboard-response","184","111500","0.0-184.0","3X87C8JFV7XZ3T6MOFHHE4MA0DDSQU","AOWW3URQNRJ6U","3RSBJ6YZECCLSSQQCGKCTHC9OPAFOK","","img/set1/S1.jpg","83","1","random","83","random,structured_incentive,structured_normal,structured_load","1,2,2,3,4,2","3,1,2,4","true","","",""
"null","","html-keyboard-response","185","111852","0.0-185.0","3X87C8JFV7XZ3T6MOFHHE4MA0DDSQU","AOWW3URQNRJ6U","3RSBJ6YZECCLSSQQCGKCTHC9OPAFOK","","<img src=""img/set1/S1.jpg"" width=""540"" height = ""360"" style=""border:16px solid orange"">","null","","","","","","","","","",""
"null","","html-keyboard-response","186","112054","0.0-186.0","3X87C8JFV7XZ3T6MOFHHE4MA0DDSQU","AOWW3URQNRJ6U","3RSBJ6YZECCLSSQQCGKCTHC9OPAFOK","","","null","","","","","","","","","",""
"506.19999998807907","","image-keyboard-response","187","112561","0.0-187.0","3X87C8JFV7XZ3T6MOFHHE4MA0DDSQU","AOWW3URQNRJ6U","3RSBJ6YZECCLSSQQCGKCTHC9OPAFOK","","img/set1/S4.jpg","74","4","random","74","random,structured_incentive,structured_normal,structured_load","1,2,2,3,4,2","3,1,2,4","true","","",""
"null","","html-keyboard-response","188","112925","0.0-188.0","3X87C8JFV7XZ3T6MOFHHE4MA0DDSQU","AOWW3URQNRJ6U","3RSBJ6YZECCLSSQQCGKCTHC9OPAFOK","","<img src=""img/set1/S4.jpg"" width=""540"" height = ""360"" style=""border:16px solid orange"">","null","","","","","","","","","",""
"null","","html-keyboard-response","189","113126","0.0-189.0","3X87C8JFV7XZ3T6MOFHHE4MA0DDSQU","AOWW3URQNRJ6U","3RSBJ6YZECCLSSQQCGKCTHC9OPAFOK","","","null","","","","","","","","","",""
"533.2999999821186","","image-keyboard-response","190","113660","0.0-190.0","3X87C8JFV7XZ3T6MOFHHE4MA0DDSQU","AOWW3URQNRJ6U","3RSBJ6YZECCLSSQQCGKCTHC9OPAFOK","","img/set1/S1.jpg","83","1","random","83","random,structured_incentive,structured_normal,structured_load","1,2,2,3,4,2","3,1,2,4","true","","",""
"null","","html-keyboard-response","191","114012","0.0-191.0","3X87C8JFV7XZ3T6MOFHHE4MA0DDSQU","AOWW3URQNRJ6U","3RSBJ6YZECCLSSQQCGKCTHC9OPAFOK","","<img src=""img/set1/S1.jpg"" width=""540"" height = ""360"" style=""border:16px solid orange"">","null","","","","","","","","","",""
"null","","html-keyboard-response","192","114213","0.0-192.0","3X87C8JFV7XZ3T6MOFHHE4MA0DDSQU","AOWW3URQNRJ6U","3RSBJ6YZECCLSSQQCGKCTHC9OPAFOK","","","null","","","","","","","","","",""
"340","","image-keyboard-response","193","114554","0.0-193.0","3X87C8JFV7XZ3T6MOFHHE4MA0DDSQU","AOWW3URQNRJ6U","3RSBJ6YZECCLSSQQCGKCTHC9OPAFOK","","img/set1/S1.jpg","83","1","random","83","random,structured_incentive,structured_normal,structured_load","1,2,2,3,4,2","3,1,2,4","true","","",""
"null","","html-keyboard-response","194","114906","0.0-194.0","3X87C8JFV7XZ3T6MOFHHE4MA0DDSQU","AOWW3URQNRJ6U","3RSBJ6YZECCLSSQQCGKCTHC9OPAFOK","","<img src=""img/set1/S1.jpg"" width=""540"" height = ""360"" style=""border:16px solid orange"">","null","","","","","","","","","",""
"null","","html-keyboard-response","195","115108","0.0-195.0","3X87C8JFV7XZ3T6MOFHHE4MA0DDSQU","AOWW3URQNRJ6U","3RSBJ6YZECCLSSQQCGKCTHC9OPAFOK","","","null","","","","","","","","","",""
"301.59999999403954","","image-keyboard-response","196","115410","0.0-196.0","3X87C8JFV7XZ3T6MOFHHE4MA0DDSQU","AOWW3URQNRJ6U","3RSBJ6YZECCLSSQQCGKCTHC9OPAFOK","","img/set1/S1.jpg","83","1","random","83","random,structured_incentive,structured_normal,structured_load","1,2,2,3,4,2","3,1,2,4","true","","",""
"null","","html-keyboard-response","197","115761","0.0-197.0","3X87C8JFV7XZ3T6MOFHHE4MA0DDSQU","AOWW3URQNRJ6U","3RSBJ6YZECCLSSQQCGKCTHC9OPAFOK","","<img src=""img/set1/S1.jpg"" width=""540"" height = ""360"" style=""border:16px solid orange"">","null","","","","","","","","","",""
"null","","html-keyboard-response","198","115963","0.0-198.0","3X87C8JFV7XZ3T6MOFHHE4MA0DDSQU","AOWW3URQNRJ6U","3RSBJ6YZECCLSSQQCGKCTHC9OPAFOK","","","null","","","","","","","","","",""
"337","","image-keyboard-response","199","116301","0.0-199.0","3X87C8JFV7XZ3T6MOFHHE4MA0DDSQU","AOWW3URQNRJ6U","3RSBJ6YZECCLSSQQCGKCTHC9OPAFOK","","img/set1/S1.jpg","83","1","random","83","random,structured_incentive,structured_normal,structured_load","1,2,2,3,4,2","3,1,2,4","true","","",""
"null","","html-keyboard-response","200","116654","0.0-200.0","3X87C8JFV7XZ3T6MOFHHE4MA0DDSQU","AOWW3URQNRJ6U","3RSBJ6YZECCLSSQQCGKCTHC9OPAFOK","","<img src=""img/set1/S1.jpg"" width=""540"" height = ""360"" style=""border:16px solid orange"">","null","","","","","","","","","",""
"null","","html-keyboard-response","201","116855","0.0-201.0","3X87C8JFV7XZ3T6MOFHHE4MA0DDSQU","AOWW3URQNRJ6U","3RSBJ6YZECCLSSQQCGKCTHC9OPAFOK","","","null","","","","","","","","","",""
"466.90000000596046","","image-keyboard-response","202","117323","0.0-202.0","3X87C8JFV7XZ3T6MOFHHE4MA0DDSQU","AOWW3URQNRJ6U","3RSBJ6YZECCLSSQQCGKCTHC9OPAFOK","","img/set1/S3.jpg","72","3","random","72","random,structured_incentive,structured_normal,structured_load","1,2,2,3,4,2","3,1,2,4","true","","",""
"null","","html-keyboard-response","203","117676","0.0-203.0","3X87C8JFV7XZ3T6MOFHHE4MA0DDSQU","AOWW3URQNRJ6U","3RSBJ6YZECCLSSQQCGKCTHC9OPAFOK","","<img src=""img/set1/S3.jpg"" width=""540"" height = ""360"" style=""border:16px solid orange"">","null","","","","","","","","","",""
"null","","html-keyboard-response","204","117877","0.0-204.0","3X87C8JFV7XZ3T6MOFHHE4MA0DDSQU","AOWW3URQNRJ6U","3RSBJ6YZECCLSSQQCGKCTHC9OPAFOK","","","null","","","","","","","","","",""
"476","","image-keyboard-response","205","118354","0.0-205.0","3X87C8JFV7XZ3T6MOFHHE4MA0DDSQU","AOWW3URQNRJ6U","3RSBJ6YZECCLSSQQCGKCTHC9OPAFOK","","img/set1/S4.jpg","74","4","random","74","random,structured_incentive,structured_normal,structured_load","1,2,2,3,4,2","3,1,2,4","true","","",""
"null","","html-keyboard-response","206","118706","0.0-206.0","3X87C8JFV7XZ3T6MOFHHE4MA0DDSQU","AOWW3URQNRJ6U","3RSBJ6YZECCLSSQQCGKCTHC9OPAFOK","","<img src=""img/set1/S4.jpg"" width=""540"" height = ""360"" style=""border:16px solid orange"">","null","","","","","","","","","",""
"null","","html-keyboard-response","207","118909","0.0-207.0","3X87C8JFV7XZ3T6MOFHHE4MA0DDSQU","AOWW3URQNRJ6U","3RSBJ6YZECCLSSQQCGKCTHC9OPAFOK","","","null","","","","","","","","","",""
"344.7999999821186","","image-keyboard-response","208","119255","0.0-208.0","3X87C8JFV7XZ3T6MOFHHE4MA0DDSQU","AOWW3URQNRJ6U","3RSBJ6YZECCLSSQQCGKCTHC9OPAFOK","","img/set1/S4.jpg","74","4","random","74","random,structured_incentive,structured_normal,structured_load","1,2,2,3,4,2","3,1,2,4","true","","",""
"null","","html-keyboard-response","209","119608","0.0-209.0","3X87C8JFV7XZ3T6MOFHHE4MA0DDSQU","AOWW3URQNRJ6U","3RSBJ6YZECCLSSQQCGKCTHC9OPAFOK","","<img src=""img/set1/S4.jpg"" width=""540"" height = ""360"" style=""border:16px solid orange"">","null","","","","","","","","","",""
"null","","html-keyboard-response","210","119810","0.0-210.0","3X87C8JFV7XZ3T6MOFHHE4MA0DDSQU","AOWW3URQNRJ6U","3RSBJ6YZECCLSSQQCGKCTHC9OPAFOK","","","null","","","","","","","","","",""
"495.09999999403954","","image-keyboard-response","211","120306","0.0-211.0","3X87C8JFV7XZ3T6MOFHHE4MA0DDSQU","AOWW3URQNRJ6U","3RSBJ6YZECCLSSQQCGKCTHC9OPAFOK","","img/set1/S1.jpg","83","1","random","83","random,structured_incentive,structured_normal,structured_load","1,2,2,3,4,2","3,1,2,4","true","","",""
"null","","html-keyboard-response","212","120658","0.0-212.0","3X87C8JFV7XZ3T6MOFHHE4MA0DDSQU","AOWW3URQNRJ6U","3RSBJ6YZECCLSSQQCGKCTHC9OPAFOK","","<img src=""img/set1/S1.jpg"" width=""540"" height = ""360"" style=""border:16px solid orange"">","null","","","","","","","","","",""
"null","","html-keyboard-response","213","120860","0.0-213.0","3X87C8JFV7XZ3T6MOFHHE4MA0DDSQU","AOWW3URQNRJ6U","3RSBJ6YZECCLSSQQCGKCTHC9OPAFOK","","","null","","","","","","","","","",""
"464.7999999821186","","image-keyboard-response","214","121326","0.0-214.0","3X87C8JFV7XZ3T6MOFHHE4MA0DDSQU","AOWW3URQNRJ6U","3RSBJ6YZECCLSSQQCGKCTHC9OPAFOK","","img/set1/S3.jpg","72","3","random","72","random,structured_incentive,structured_normal,structured_load","1,2,2,3,4,2","3,1,2,4","true","","",""
"null","","html-keyboard-response","215","121679","0.0-215.0","3X87C8JFV7XZ3T6MOFHHE4MA0DDSQU","AOWW3URQNRJ6U","3RSBJ6YZECCLSSQQCGKCTHC9OPAFOK","","<img src=""img/set1/S3.jpg"" width=""540"" height = ""360"" style=""border:16px solid orange"">","null","","","","","","","","","",""
"null","","html-keyboard-response","216","121897","0.0-216.0","3X87C8JFV7XZ3T6MOFHHE4MA0DDSQU","AOWW3URQNRJ6U","3RSBJ6YZECCLSSQQCGKCTHC9OPAFOK","","","null","","","","","","","","","",""
"365.80000001192093","","image-keyboard-response","217","122264","0.0-217.0","3X87C8JFV7XZ3T6MOFHHE4MA0DDSQU","AOWW3URQNRJ6U","3RSBJ6YZECCLSSQQCGKCTHC9OPAFOK","","img/set1/S3.jpg","72","3","random","72","random,structured_incentive,structured_normal,structured_load","1,2,2,3,4,2","3,1,2,4","true","","",""
"null","","html-keyboard-response","218","122616","0.0-218.0","3X87C8JFV7XZ3T6MOFHHE4MA0DDSQU","AOWW3URQNRJ6U","3RSBJ6YZECCLSSQQCGKCTHC9OPAFOK","","<img src=""img/set1/S3.jpg"" width=""540"" height = ""360"" style=""border:16px solid orange"">","null","","","","","","","","","",""
"null","","html-keyboard-response","219","122817","0.0-219.0","3X87C8JFV7XZ3T6MOFHHE4MA0DDSQU","AOWW3URQNRJ6U","3RSBJ6YZECCLSSQQCGKCTHC9OPAFOK","","","null","","","","","","","","","",""
"329","","image-keyboard-response","220","123147","0.0-220.0","3X87C8JFV7XZ3T6MOFHHE4MA0DDSQU","AOWW3URQNRJ6U","3RSBJ6YZECCLSSQQCGKCTHC9OPAFOK","","img/set1/S3.jpg","72","3","random","72","random,structured_incentive,structured_normal,structured_load","1,2,2,3,4,2","3,1,2,4","true","","",""
"null","","html-keyboard-response","221","123499","0.0-221.0","3X87C8JFV7XZ3T6MOFHHE4MA0DDSQU","AOWW3URQNRJ6U","3RSBJ6YZECCLSSQQCGKCTHC9OPAFOK","","<img src=""img/set1/S3.jpg"" width=""540"" height = ""360"" style=""border:16px solid orange"">","null","","","","","","","","","",""
"null","","html-keyboard-response","222","123701","0.0-222.0","3X87C8JFV7XZ3T6MOFHHE4MA0DDSQU","AOWW3URQNRJ6U","3RSBJ6YZECCLSSQQCGKCTHC9OPAFOK","","","null","","","","","","","","","",""
"351.59999999403954","","image-keyboard-response","223","124053","0.0-223.0","3X87C8JFV7XZ3T6MOFHHE4MA0DDSQU","AOWW3URQNRJ6U","3RSBJ6YZECCLSSQQCGKCTHC9OPAFOK","","img/set1/S4.jpg","72","4","random","74","random,structured_incentive,structured_normal,structured_load","1,2,2,3,4,2","3,1,2,4","false","","",""
"null","","html-keyboard-response","224","124404","0.0-224.0","3X87C8JFV7XZ3T6MOFHHE4MA0DDSQU","AOWW3URQNRJ6U","3RSBJ6YZECCLSSQQCGKCTHC9OPAFOK","","<img src=""img/set1/S4.jpg"" width=""540"" height = ""360"">","null","","","","","","","","","",""
"null","","html-keyboard-response","225","124606","0.0-225.0","3X87C8JFV7XZ3T6MOFHHE4MA0DDSQU","AOWW3URQNRJ6U","3RSBJ6YZECCLSSQQCGKCTHC9OPAFOK","","","null","","","","","","","","","",""
"531.2999999821186","","image-keyboard-response","226","125138","0.0-226.0","3X87C8JFV7XZ3T6MOFHHE4MA0DDSQU","AOWW3URQNRJ6U","3RSBJ6YZECCLSSQQCGKCTHC9OPAFOK","","img/set1/S3.jpg","72","3","random","72","random,structured_incentive,structured_normal,structured_load","1,2,2,3,4,2","3,1,2,4","true","","",""
"null","","html-keyboard-response","227","125490","0.0-227.0","3X87C8JFV7XZ3T6MOFHHE4MA0DDSQU","AOWW3URQNRJ6U","3RSBJ6YZECCLSSQQCGKCTHC9OPAFOK","","<img src=""img/set1/S3.jpg"" width=""540"" height = ""360"" style=""border:16px solid orange"">","null","","","","","","","","","",""
"null","","html-keyboard-response","228","125692","0.0-228.0","3X87C8JFV7XZ3T6MOFHHE4MA0DDSQU","AOWW3URQNRJ6U","3RSBJ6YZECCLSSQQCGKCTHC9OPAFOK","","","null","","","","","","","","","",""
"468.59999999403954","","image-keyboard-response","229","126161","0.0-229.0","3X87C8JFV7XZ3T6MOFHHE4MA0DDSQU","AOWW3URQNRJ6U","3RSBJ6YZECCLSSQQCGKCTHC9OPAFOK","","img/set1/S1.jpg","83","1","random","83","random,structured_incentive,structured_normal,structured_load","1,2,2,3,4,2","3,1,2,4","true","","",""
"null","","html-keyboard-response","230","126514","0.0-230.0","3X87C8JFV7XZ3T6MOFHHE4MA0DDSQU","AOWW3URQNRJ6U","3RSBJ6YZECCLSSQQCGKCTHC9OPAFOK","","<img src=""img/set1/S1.jpg"" width=""540"" height = ""360"" style=""border:16px solid orange"">","null","","","","","","","","","",""
"null","","html-keyboard-response","231","126715","0.0-231.0","3X87C8JFV7XZ3T6MOFHHE4MA0DDSQU","AOWW3URQNRJ6U","3RSBJ6YZECCLSSQQCGKCTHC9OPAFOK","","","null","","","","","","","","","",""
"363.59999999403954","","image-keyboard-response","232","127080","0.0-232.0","3X87C8JFV7XZ3T6MOFHHE4MA0DDSQU","AOWW3URQNRJ6U","3RSBJ6YZECCLSSQQCGKCTHC9OPAFOK","","img/set1/S1.jpg","68","1","random","83","random,structured_incentive,structured_normal,structured_load","1,2,2,3,4,2","3,1,2,4","false","","",""
"null","","html-keyboard-response","233","127433","0.0-233.0","3X87C8JFV7XZ3T6MOFHHE4MA0DDSQU","AOWW3URQNRJ6U","3RSBJ6YZECCLSSQQCGKCTHC9OPAFOK","","<img src=""img/set1/S1.jpg"" width=""540"" height = ""360"">","null","","","","","","","","","",""
"null","","html-keyboard-response","234","127635","0.0-234.0","3X87C8JFV7XZ3T6MOFHHE4MA0DDSQU","AOWW3URQNRJ6U","3RSBJ6YZECCLSSQQCGKCTHC9OPAFOK","","","null","","","","","","","","","",""
"458","","image-keyboard-response","235","128094","0.0-235.0","3X87C8JFV7XZ3T6MOFHHE4MA0DDSQU","AOWW3URQNRJ6U","3RSBJ6YZECCLSSQQCGKCTHC9OPAFOK","","img/set1/S3.jpg","72","3","random","72","random,structured_incentive,structured_normal,structured_load","1,2,2,3,4,2","3,1,2,4","true","","",""
"null","","html-keyboard-response","236","128445","0.0-236.0","3X87C8JFV7XZ3T6MOFHHE4MA0DDSQU","AOWW3URQNRJ6U","3RSBJ6YZECCLSSQQCGKCTHC9OPAFOK","","<img src=""img/set1/S3.jpg"" width=""540"" height = ""360"" style=""border:16px solid orange"">","null","","","","","","","","","",""
"null","","html-keyboard-response","237","128646","0.0-237.0","3X87C8JFV7XZ3T6MOFHHE4MA0DDSQU","AOWW3URQNRJ6U","3RSBJ6YZECCLSSQQCGKCTHC9OPAFOK","","","null","","","","","","","","","",""
"429.69999998807907","","image-keyboard-response","238","129077","0.0-238.0","3X87C8JFV7XZ3T6MOFHHE4MA0DDSQU","AOWW3URQNRJ6U","3RSBJ6YZECCLSSQQCGKCTHC9OPAFOK","","img/set1/S2.jpg","83","2","random","68","random,structured_incentive,structured_normal,structured_load","1,2,2,3,4,2","3,1,2,4","false","","",""
"null","","html-keyboard-response","239","129429","0.0-239.0","3X87C8JFV7XZ3T6MOFHHE4MA0DDSQU","AOWW3URQNRJ6U","3RSBJ6YZECCLSSQQCGKCTHC9OPAFOK","","<img src=""img/set1/S2.jpg"" width=""540"" height = ""360"">","null","","","","","","","","","",""
"null","","html-keyboard-response","240","129630","0.0-240.0","3X87C8JFV7XZ3T6MOFHHE4MA0DDSQU","AOWW3URQNRJ6U","3RSBJ6YZECCLSSQQCGKCTHC9OPAFOK","","","null","","","","","","","","","",""
"515.9000000059605","","image-keyboard-response","241","130147","0.0-241.0","3X87C8JFV7XZ3T6MOFHHE4MA0DDSQU","AOWW3URQNRJ6U","3RSBJ6YZECCLSSQQCGKCTHC9OPAFOK","","img/set1/S3.jpg","72","3","random","72","random,structured_incentive,structured_normal,structured_load","1,2,2,3,4,2","3,1,2,4","true","","",""
"null","","html-keyboard-response","242","130500","0.0-242.0","3X87C8JFV7XZ3T6MOFHHE4MA0DDSQU","AOWW3URQNRJ6U","3RSBJ6YZECCLSSQQCGKCTHC9OPAFOK","","<img src=""img/set1/S3.jpg"" width=""540"" height = ""360"" style=""border:16px solid orange"">","null","","","","","","","","","",""
"null","","html-keyboard-response","243","130702","0.0-243.0","3X87C8JFV7XZ3T6MOFHHE4MA0DDSQU","AOWW3URQNRJ6U","3RSBJ6YZECCLSSQQCGKCTHC9OPAFOK","","","null","","","","","","","","","",""
"420.5","","image-keyboard-response","244","131123","0.0-244.0","3X87C8JFV7XZ3T6MOFHHE4MA0DDSQU","AOWW3URQNRJ6U","3RSBJ6YZECCLSSQQCGKCTHC9OPAFOK","","img/set1/S2.jpg","68","2","random","68","random,structured_incentive,structured_normal,structured_load","1,2,2,3,4,2","3,1,2,4","true","","",""
"null","","html-keyboard-response","245","131475","0.0-245.0","3X87C8JFV7XZ3T6MOFHHE4MA0DDSQU","AOWW3URQNRJ6U","3RSBJ6YZECCLSSQQCGKCTHC9OPAFOK","","<img src=""img/set1/S2.jpg"" width=""540"" height = ""360"" style=""border:16px solid orange"">","null","","","","","","","","","",""
"null","","html-keyboard-response","246","131677","0.0-246.0","3X87C8JFV7XZ3T6MOFHHE4MA0DDSQU","AOWW3URQNRJ6U","3RSBJ6YZECCLSSQQCGKCTHC9OPAFOK","","","null","","","","","","","","","",""
"519.5","","image-keyboard-response","247","132197","0.0-247.0","3X87C8JFV7XZ3T6MOFHHE4MA0DDSQU","AOWW3URQNRJ6U","3RSBJ6YZECCLSSQQCGKCTHC9OPAFOK","","img/set1/S3.jpg","72","3","random","72","random,structured_incentive,structured_normal,structured_load","1,2,2,3,4,2","3,1,2,4","true","","",""
"null","","html-keyboard-response","248","132549","0.0-248.0","3X87C8JFV7XZ3T6MOFHHE4MA0DDSQU","AOWW3URQNRJ6U","3RSBJ6YZECCLSSQQCGKCTHC9OPAFOK","","<img src=""img/set1/S3.jpg"" width=""540"" height = ""360"" style=""border:16px solid orange"">","null","","","","","","","","","",""
"null","","html-keyboard-response","249","132750","0.0-249.0","3X87C8JFV7XZ3T6MOFHHE4MA0DDSQU","AOWW3URQNRJ6U","3RSBJ6YZECCLSSQQCGKCTHC9OPAFOK","","","null","","","","","","","","","",""
"545.7999999821186","","image-keyboard-response","250","133297","0.0-250.0","3X87C8JFV7XZ3T6MOFHHE4MA0DDSQU","AOWW3URQNRJ6U","3RSBJ6YZECCLSSQQCGKCTHC9OPAFOK","","img/set1/S1.jpg","83","1","random","83","random,structured_incentive,structured_normal,structured_load","1,2,2,3,4,2","3,1,2,4","true","","",""
"null","","html-keyboard-response","251","133650","0.0-251.0","3X87C8JFV7XZ3T6MOFHHE4MA0DDSQU","AOWW3URQNRJ6U","3RSBJ6YZECCLSSQQCGKCTHC9OPAFOK","","<img src=""img/set1/S1.jpg"" width=""540"" height = ""360"" style=""border:16px solid orange"">","null","","","","","","","","","",""
"null","","html-keyboard-response","252","133851","0.0-252.0","3X87C8JFV7XZ3T6MOFHHE4MA0DDSQU","AOWW3URQNRJ6U","3RSBJ6YZECCLSSQQCGKCTHC9OPAFOK","","","null","","","","","","","","","",""
"473.7999999821186","","image-keyboard-response","253","134326","0.0-253.0","3X87C8JFV7XZ3T6MOFHHE4MA0DDSQU","AOWW3URQNRJ6U","3RSBJ6YZECCLSSQQCGKCTHC9OPAFOK","","img/set1/S3.jpg","72","3","random","72","random,structured_incentive,structured_normal,structured_load","1,2,2,3,4,2","3,1,2,4","true","","",""
"null","","html-keyboard-response","254","134678","0.0-254.0","3X87C8JFV7XZ3T6MOFHHE4MA0DDSQU","AOWW3URQNRJ6U","3RSBJ6YZECCLSSQQCGKCTHC9OPAFOK","","<img src=""img/set1/S3.jpg"" width=""540"" height = ""360"" style=""border:16px solid orange"">","null","","","","","","","","","",""
"null","","html-keyboard-response","255","134879","0.0-255.0","3X87C8JFV7XZ3T6MOFHHE4MA0DDSQU","AOWW3URQNRJ6U","3RSBJ6YZECCLSSQQCGKCTHC9OPAFOK","","","null","","","","","","","","","",""
"552","","image-keyboard-response","256","135432","0.0-256.0","3X87C8JFV7XZ3T6MOFHHE4MA0DDSQU","AOWW3URQNRJ6U","3RSBJ6YZECCLSSQQCGKCTHC9OPAFOK","","img/set1/S2.jpg","68","2","random","68","random,structured_incentive,structured_normal,structured_load","1,2,2,3,4,2","3,1,2,4","true","","",""
"null","","html-keyboard-response","257","135785","0.0-257.0","3X87C8JFV7XZ3T6MOFHHE4MA0DDSQU","AOWW3URQNRJ6U","3RSBJ6YZECCLSSQQCGKCTHC9OPAFOK","","<img src=""img/set1/S2.jpg"" width=""540"" height = ""360"" style=""border:16px solid orange"">","null","","","","","","","","","",""
"null","","html-keyboard-response","258","135987","0.0-258.0","3X87C8JFV7XZ3T6MOFHHE4MA0DDSQU","AOWW3URQNRJ6U","3RSBJ6YZECCLSSQQCGKCTHC9OPAFOK","","","null","","","","","","","","","",""
"507.5","","image-keyboard-response","259","136495","0.0-259.0","3X87C8JFV7XZ3T6MOFHHE4MA0DDSQU","AOWW3URQNRJ6U","3RSBJ6YZECCLSSQQCGKCTHC9OPAFOK","","img/set1/S3.jpg","72","3","random","72","random,structured_incentive,structured_normal,structured_load","1,2,2,3,4,2","3,1,2,4","true","","",""
"null","","html-keyboard-response","260","136848","0.0-260.0","3X87C8JFV7XZ3T6MOFHHE4MA0DDSQU","AOWW3URQNRJ6U","3RSBJ6YZECCLSSQQCGKCTHC9OPAFOK","","<img src=""img/set1/S3.jpg"" width=""540"" height = ""360"" style=""border:16px solid orange"">","null","","","","","","","","","",""
"null","","html-keyboard-response","261","137051","0.0-261.0","3X87C8JFV7XZ3T6MOFHHE4MA0DDSQU","AOWW3URQNRJ6U","3RSBJ6YZECCLSSQQCGKCTHC9OPAFOK","","","null","","","","","","","","","",""
"484","","image-keyboard-response","262","137536","0.0-262.0","3X87C8JFV7XZ3T6MOFHHE4MA0DDSQU","AOWW3URQNRJ6U","3RSBJ6YZECCLSSQQCGKCTHC9OPAFOK","","img/set1/S4.jpg","74","4","random","74","random,structured_incentive,structured_normal,structured_load","1,2,2,3,4,2","3,1,2,4","true","","",""
"null","","html-keyboard-response","263","137888","0.0-263.0","3X87C8JFV7XZ3T6MOFHHE4MA0DDSQU","AOWW3URQNRJ6U","3RSBJ6YZECCLSSQQCGKCTHC9OPAFOK","","<img src=""img/set1/S4.jpg"" width=""540"" height = ""360"" style=""border:16px solid orange"">","null","","","","","","","","","",""
"null","","html-keyboard-response","264","138090","0.0-264.0","3X87C8JFV7XZ3T6MOFHHE4MA0DDSQU","AOWW3URQNRJ6U","3RSBJ6YZECCLSSQQCGKCTHC9OPAFOK","","","null","","","","","","","","","",""
"425.5","","image-keyboard-response","265","138517","0.0-265.0","3X87C8JFV7XZ3T6MOFHHE4MA0DDSQU","AOWW3URQNRJ6U","3RSBJ6YZECCLSSQQCGKCTHC9OPAFOK","","img/set1/S1.jpg","83","1","random","83","random,structured_incentive,structured_normal,structured_load","1,2,2,3,4,2","3,1,2,4","true","","",""
"null","","html-keyboard-response","266","138869","0.0-266.0","3X87C8JFV7XZ3T6MOFHHE4MA0DDSQU","AOWW3URQNRJ6U","3RSBJ6YZECCLSSQQCGKCTHC9OPAFOK","","<img src=""img/set1/S1.jpg"" width=""540"" height = ""360"" style=""border:16px solid orange"">","null","","","","","","","","","",""
"null","","html-keyboard-response","267","139071","0.0-267.0","3X87C8JFV7XZ3T6MOFHHE4MA0DDSQU","AOWW3URQNRJ6U","3RSBJ6YZECCLSSQQCGKCTHC9OPAFOK","","","null","","","","","","","","","",""
"595.1999999880791","","image-keyboard-response","268","139667","0.0-268.0","3X87C8JFV7XZ3T6MOFHHE4MA0DDSQU","AOWW3URQNRJ6U","3RSBJ6YZECCLSSQQCGKCTHC9OPAFOK","","img/set1/S2.jpg","68","2","random","68","random,structured_incentive,structured_normal,structured_load","1,2,2,3,4,2","3,1,2,4","true","","",""
"null","","html-keyboard-response","269","140020","0.0-269.0","3X87C8JFV7XZ3T6MOFHHE4MA0DDSQU","AOWW3URQNRJ6U","3RSBJ6YZECCLSSQQCGKCTHC9OPAFOK","","<img src=""img/set1/S2.jpg"" width=""540"" height = ""360"" style=""border:16px solid orange"">","null","","","","","","","","","",""
"null","","html-keyboard-response","270","140223","0.0-270.0","3X87C8JFV7XZ3T6MOFHHE4MA0DDSQU","AOWW3URQNRJ6U","3RSBJ6YZECCLSSQQCGKCTHC9OPAFOK","","","null","","","","","","","","","",""
"538.0999999940395","","image-keyboard-response","271","140763","0.0-271.0","3X87C8JFV7XZ3T6MOFHHE4MA0DDSQU","AOWW3URQNRJ6U","3RSBJ6YZECCLSSQQCGKCTHC9OPAFOK","","img/set1/S3.jpg","72","3","random","72","random,structured_incentive,structured_normal,structured_load","1,2,2,3,4,2","3,1,2,4","true","","",""
"null","","html-keyboard-response","272","141116","0.0-272.0","3X87C8JFV7XZ3T6MOFHHE4MA0DDSQU","AOWW3URQNRJ6U","3RSBJ6YZECCLSSQQCGKCTHC9OPAFOK","","<img src=""img/set1/S3.jpg"" width=""540"" height = ""360"" style=""border:16px solid orange"">","null","","","","","","","","","",""
"null","","html-keyboard-response","273","141317","0.0-273.0","3X87C8JFV7XZ3T6MOFHHE4MA0DDSQU","AOWW3URQNRJ6U","3RSBJ6YZECCLSSQQCGKCTHC9OPAFOK","","","null","","","","","","","","","",""
"399","","image-keyboard-response","274","141716","0.0-274.0","3X87C8JFV7XZ3T6MOFHHE4MA0DDSQU","AOWW3URQNRJ6U","3RSBJ6YZECCLSSQQCGKCTHC9OPAFOK","","img/set1/S3.jpg","72","3","random","72","random,structured_incentive,structured_normal,structured_load","1,2,2,3,4,2","3,1,2,4","true","","",""
"null","","html-keyboard-response","275","142069","0.0-275.0","3X87C8JFV7XZ3T6MOFHHE4MA0DDSQU","AOWW3URQNRJ6U","3RSBJ6YZECCLSSQQCGKCTHC9OPAFOK","","<img src=""img/set1/S3.jpg"" width=""540"" height = ""360"" style=""border:16px solid orange"">","null","","","","","","","","","",""
"null","","html-keyboard-response","276","142270","0.0-276.0","3X87C8JFV7XZ3T6MOFHHE4MA0DDSQU","AOWW3URQNRJ6U","3RSBJ6YZECCLSSQQCGKCTHC9OPAFOK","","","null","","","","","","","","","",""
"505.90000000596046","","image-keyboard-response","277","142777","0.0-277.0","3X87C8JFV7XZ3T6MOFHHE4MA0DDSQU","AOWW3URQNRJ6U","3RSBJ6YZECCLSSQQCGKCTHC9OPAFOK","","img/set1/S4.jpg","74","4","random","74","random,structured_incentive,structured_normal,structured_load","1,2,2,3,4,2","3,1,2,4","true","","",""
"null","","html-keyboard-response","278","143130","0.0-278.0","3X87C8JFV7XZ3T6MOFHHE4MA0DDSQU","AOWW3URQNRJ6U","3RSBJ6YZECCLSSQQCGKCTHC9OPAFOK","","<img src=""img/set1/S4.jpg"" width=""540"" height = ""360"" style=""border:16px solid orange"">","null","","","","","","","","","",""
"null","","html-keyboard-response","279","143332","0.0-279.0","3X87C8JFV7XZ3T6MOFHHE4MA0DDSQU","AOWW3URQNRJ6U","3RSBJ6YZECCLSSQQCGKCTHC9OPAFOK","","","null","","","","","","","","","",""
"345.59999999403954","","image-keyboard-response","280","143679","0.0-280.0","3X87C8JFV7XZ3T6MOFHHE4MA0DDSQU","AOWW3URQNRJ6U","3RSBJ6YZECCLSSQQCGKCTHC9OPAFOK","","img/set1/S4.jpg","74","4","random","74","random,structured_incentive,structured_normal,structured_load","1,2,2,3,4,2","3,1,2,4","true","","",""
"null","","html-keyboard-response","281","144031","0.0-281.0","3X87C8JFV7XZ3T6MOFHHE4MA0DDSQU","AOWW3URQNRJ6U","3RSBJ6YZECCLSSQQCGKCTHC9OPAFOK","","<img src=""img/set1/S4.jpg"" width=""540"" height = ""360"" style=""border:16px solid orange"">","null","","","","","","","","","",""
"null","","html-keyboard-response","282","144233","0.0-282.0","3X87C8JFV7XZ3T6MOFHHE4MA0DDSQU","AOWW3URQNRJ6U","3RSBJ6YZECCLSSQQCGKCTHC9OPAFOK","","","null","","","","","","","","","",""
"470.40000000596046","","image-keyboard-response","283","144705","0.0-283.0","3X87C8JFV7XZ3T6MOFHHE4MA0DDSQU","AOWW3URQNRJ6U","3RSBJ6YZECCLSSQQCGKCTHC9OPAFOK","","img/set1/S1.jpg","83","1","random","83","random,structured_incentive,structured_normal,structured_load","1,2,2,3,4,2","3,1,2,4","true","","",""
"null","","html-keyboard-response","284","145057","0.0-284.0","3X87C8JFV7XZ3T6MOFHHE4MA0DDSQU","AOWW3URQNRJ6U","3RSBJ6YZECCLSSQQCGKCTHC9OPAFOK","","<img src=""img/set1/S1.jpg"" width=""540"" height = ""360"" style=""border:16px solid orange"">","null","","","","","","","","","",""
"null","","html-keyboard-response","285","145259","0.0-285.0","3X87C8JFV7XZ3T6MOFHHE4MA0DDSQU","AOWW3URQNRJ6U","3RSBJ6YZECCLSSQQCGKCTHC9OPAFOK","","","null","","","","","","","","","",""
"635.8999999761581","","image-keyboard-response","286","145896","0.0-286.0","3X87C8JFV7XZ3T6MOFHHE4MA0DDSQU","AOWW3URQNRJ6U","3RSBJ6YZECCLSSQQCGKCTHC9OPAFOK","","img/set1/S4.jpg","74","4","random","74","random,structured_incentive,structured_normal,structured_load","1,2,2,3,4,2","3,1,2,4","true","","",""
"null","","html-keyboard-response","287","146248","0.0-287.0","3X87C8JFV7XZ3T6MOFHHE4MA0DDSQU","AOWW3URQNRJ6U","3RSBJ6YZECCLSSQQCGKCTHC9OPAFOK","","<img src=""img/set1/S4.jpg"" width=""540"" height = ""360"" style=""border:16px solid orange"">","null","","","","","","","","","",""
"null","","html-keyboard-response","288","146450","0.0-288.0","3X87C8JFV7XZ3T6MOFHHE4MA0DDSQU","AOWW3URQNRJ6U","3RSBJ6YZECCLSSQQCGKCTHC9OPAFOK","","","null","","","","","","","","","",""
"595.0999999940395","","image-keyboard-response","289","147049","0.0-289.0","3X87C8JFV7XZ3T6MOFHHE4MA0DDSQU","AOWW3URQNRJ6U","3RSBJ6YZECCLSSQQCGKCTHC9OPAFOK","","img/set1/S2.jpg","68","2","random","68","random,structured_incentive,structured_normal,structured_load","1,2,2,3,4,2","3,1,2,4","true","","",""
"null","","html-keyboard-response","290","147401","0.0-290.0","3X87C8JFV7XZ3T6MOFHHE4MA0DDSQU","AOWW3URQNRJ6U","3RSBJ6YZECCLSSQQCGKCTHC9OPAFOK","","<img src=""img/set1/S2.jpg"" width=""540"" height = ""360"" style=""border:16px solid orange"">","null","","","","","","","","","",""
"null","","html-keyboard-response","291","147603","0.0-291.0","3X87C8JFV7XZ3T6MOFHHE4MA0DDSQU","AOWW3URQNRJ6U","3RSBJ6YZECCLSSQQCGKCTHC9OPAFOK","","","null","","","","","","","","","",""
"885.8000000119209","","image-keyboard-response","292","148489","0.0-292.0","3X87C8JFV7XZ3T6MOFHHE4MA0DDSQU","AOWW3URQNRJ6U","3RSBJ6YZECCLSSQQCGKCTHC9OPAFOK","","img/set1/S1.jpg","83","1","random","83","random,structured_incentive,structured_normal,structured_load","1,2,2,3,4,2","3,1,2,4","true","","",""
"null","","html-keyboard-response","293","148842","0.0-293.0","3X87C8JFV7XZ3T6MOFHHE4MA0DDSQU","AOWW3URQNRJ6U","3RSBJ6YZECCLSSQQCGKCTHC9OPAFOK","","<img src=""img/set1/S1.jpg"" width=""540"" height = ""360"" style=""border:16px solid orange"">","null","","","","","","","","","",""
"null","","html-keyboard-response","294","149043","0.0-294.0","3X87C8JFV7XZ3T6MOFHHE4MA0DDSQU","AOWW3URQNRJ6U","3RSBJ6YZECCLSSQQCGKCTHC9OPAFOK","","","null","","","","","","","","","",""
"445.19999998807907","","image-keyboard-response","295","149490","0.0-295.0","3X87C8JFV7XZ3T6MOFHHE4MA0DDSQU","AOWW3URQNRJ6U","3RSBJ6YZECCLSSQQCGKCTHC9OPAFOK","","img/set1/S3.jpg","72","3","random","72","random,structured_incentive,structured_normal,structured_load","1,2,2,3,4,2","3,1,2,4","true","","",""
"null","","html-keyboard-response","296","149843","0.0-296.0","3X87C8JFV7XZ3T6MOFHHE4MA0DDSQU","AOWW3URQNRJ6U","3RSBJ6YZECCLSSQQCGKCTHC9OPAFOK","","<img src=""img/set1/S3.jpg"" width=""540"" height = ""360"" style=""border:16px solid orange"">","null","","","","","","","","","",""
"null","","html-keyboard-response","297","150045","0.0-297.0","3X87C8JFV7XZ3T6MOFHHE4MA0DDSQU","AOWW3URQNRJ6U","3RSBJ6YZECCLSSQQCGKCTHC9OPAFOK","","","null","","","","","","","","","",""
"550.5999999940395","","image-keyboard-response","298","150597","0.0-298.0","3X87C8JFV7XZ3T6MOFHHE4MA0DDSQU","AOWW3URQNRJ6U","3RSBJ6YZECCLSSQQCGKCTHC9OPAFOK","","img/set1/S4.jpg","74","4","random","74","random,structured_incentive,structured_normal,structured_load","1,2,2,3,4,2","3,1,2,4","true","","",""
"null","","html-keyboard-response","299","150949","0.0-299.0","3X87C8JFV7XZ3T6MOFHHE4MA0DDSQU","AOWW3URQNRJ6U","3RSBJ6YZECCLSSQQCGKCTHC9OPAFOK","","<img src=""img/set1/S4.jpg"" width=""540"" height = ""360"" style=""border:16px solid orange"">","null","","","","","","","","","",""
"null","","html-keyboard-response","300","151152","0.0-300.0","3X87C8JFV7XZ3T6MOFHHE4MA0DDSQU","AOWW3URQNRJ6U","3RSBJ6YZECCLSSQQCGKCTHC9OPAFOK","","","null","","","","","","","","","",""
"472.5","","image-keyboard-response","301","151625","0.0-301.0","3X87C8JFV7XZ3T6MOFHHE4MA0DDSQU","AOWW3URQNRJ6U","3RSBJ6YZECCLSSQQCGKCTHC9OPAFOK","","img/set1/S3.jpg","72","3","random","72","random,structured_incentive,structured_normal,structured_load","1,2,2,3,4,2","3,1,2,4","true","","",""
"null","","html-keyboard-response","302","151976","0.0-302.0","3X87C8JFV7XZ3T6MOFHHE4MA0DDSQU","AOWW3URQNRJ6U","3RSBJ6YZECCLSSQQCGKCTHC9OPAFOK","","<img src=""img/set1/S3.jpg"" width=""540"" height = ""360"" style=""border:16px solid orange"">","null","","","","","","","","","",""
"null","","html-keyboard-response","303","152178","0.0-303.0","3X87C8JFV7XZ3T6MOFHHE4MA0DDSQU","AOWW3URQNRJ6U","3RSBJ6YZECCLSSQQCGKCTHC9OPAFOK","","","null","","","","","","","","","",""
"338.19999998807907","","image-keyboard-response","304","152517","0.0-304.0","3X87C8JFV7XZ3T6MOFHHE4MA0DDSQU","AOWW3URQNRJ6U","3RSBJ6YZECCLSSQQCGKCTHC9OPAFOK","","img/set1/S3.jpg","72","3","random","72","random,structured_incentive,structured_normal,structured_load","1,2,2,3,4,2","3,1,2,4","true","","",""
"null","","html-keyboard-response","305","152869","0.0-305.0","3X87C8JFV7XZ3T6MOFHHE4MA0DDSQU","AOWW3URQNRJ6U","3RSBJ6YZECCLSSQQCGKCTHC9OPAFOK","","<img src=""img/set1/S3.jpg"" width=""540"" height = ""360"" style=""border:16px solid orange"">","null","","","","","","","","","",""
"null","","html-keyboard-response","306","153072","0.0-306.0","3X87C8JFV7XZ3T6MOFHHE4MA0DDSQU","AOWW3URQNRJ6U","3RSBJ6YZECCLSSQQCGKCTHC9OPAFOK","","","null","","","","","","","","","",""
"593.3000000119209","","image-keyboard-response","307","153666","0.0-307.0","3X87C8JFV7XZ3T6MOFHHE4MA0DDSQU","AOWW3URQNRJ6U","3RSBJ6YZECCLSSQQCGKCTHC9OPAFOK","","img/set1/S4.jpg","74","4","random","74","random,structured_incentive,structured_normal,structured_load","1,2,2,3,4,2","3,1,2,4","true","","",""
"null","","html-keyboard-response","308","154018","0.0-308.0","3X87C8JFV7XZ3T6MOFHHE4MA0DDSQU","AOWW3URQNRJ6U","3RSBJ6YZECCLSSQQCGKCTHC9OPAFOK","","<img src=""img/set1/S4.jpg"" width=""540"" height = ""360"" style=""border:16px solid orange"">","null","","","","","","","","","",""
"null","","html-keyboard-response","309","154220","0.0-309.0","3X87C8JFV7XZ3T6MOFHHE4MA0DDSQU","AOWW3URQNRJ6U","3RSBJ6YZECCLSSQQCGKCTHC9OPAFOK","","","null","","","","","","","","","",""
"549.2000000178814","","image-keyboard-response","310","154771","0.0-310.0","3X87C8JFV7XZ3T6MOFHHE4MA0DDSQU","AOWW3URQNRJ6U","3RSBJ6YZECCLSSQQCGKCTHC9OPAFOK","","img/set1/S1.jpg","83","1","random","83","random,structured_incentive,structured_normal,structured_load","1,2,2,3,4,2","3,1,2,4","true","","",""
"null","","html-keyboard-response","311","155122","0.0-311.0","3X87C8JFV7XZ3T6MOFHHE4MA0DDSQU","AOWW3URQNRJ6U","3RSBJ6YZECCLSSQQCGKCTHC9OPAFOK","","<img src=""img/set1/S1.jpg"" width=""540"" height = ""360"" style=""border:16px solid orange"">","null","","","","","","","","","",""
"null","","html-keyboard-response","312","155324","0.0-312.0","3X87C8JFV7XZ3T6MOFHHE4MA0DDSQU","AOWW3URQNRJ6U","3RSBJ6YZECCLSSQQCGKCTHC9OPAFOK","","","null","","","","","","","","","",""
"670.6999999880791","","image-keyboard-response","313","155996","0.0-313.0","3X87C8JFV7XZ3T6MOFHHE4MA0DDSQU","AOWW3URQNRJ6U","3RSBJ6YZECCLSSQQCGKCTHC9OPAFOK","","img/set1/S2.jpg","68","2","random","68","random,structured_incentive,structured_normal,structured_load","1,2,2,3,4,2","3,1,2,4","true","","",""
"null","","html-keyboard-response","314","156348","0.0-314.0","3X87C8JFV7XZ3T6MOFHHE4MA0DDSQU","AOWW3URQNRJ6U","3RSBJ6YZECCLSSQQCGKCTHC9OPAFOK","","<img src=""img/set1/S2.jpg"" width=""540"" height = ""360"" style=""border:16px solid orange"">","null","","","","","","","","","",""
"null","","html-keyboard-response","315","156549","0.0-315.0","3X87C8JFV7XZ3T6MOFHHE4MA0DDSQU","AOWW3URQNRJ6U","3RSBJ6YZECCLSSQQCGKCTHC9OPAFOK","","","null","","","","","","","","","",""
"361.40000000596046","","image-keyboard-response","316","156911","0.0-316.0","3X87C8JFV7XZ3T6MOFHHE4MA0DDSQU","AOWW3URQNRJ6U","3RSBJ6YZECCLSSQQCGKCTHC9OPAFOK","","img/set1/S2.jpg","68","2","random","68","random,structured_incentive,structured_normal,structured_load","1,2,2,3,4,2","3,1,2,4","true","","",""
"null","","html-keyboard-response","317","157264","0.0-317.0","3X87C8JFV7XZ3T6MOFHHE4MA0DDSQU","AOWW3URQNRJ6U","3RSBJ6YZECCLSSQQCGKCTHC9OPAFOK","","<img src=""img/set1/S2.jpg"" width=""540"" height = ""360"" style=""border:16px solid orange"">","null","","","","","","","","","",""
"null","","html-keyboard-response","318","157465","0.0-318.0","3X87C8JFV7XZ3T6MOFHHE4MA0DDSQU","AOWW3URQNRJ6U","3RSBJ6YZECCLSSQQCGKCTHC9OPAFOK","","","null","","","","","","","","","",""
"518.2000000178814","","image-keyboard-response","319","157984","0.0-319.0","3X87C8JFV7XZ3T6MOFHHE4MA0DDSQU","AOWW3URQNRJ6U","3RSBJ6YZECCLSSQQCGKCTHC9OPAFOK","","img/set1/S1.jpg","83","1","random","83","random,structured_incentive,structured_normal,structured_load","1,2,2,3,4,2","3,1,2,4","true","","",""
"null","","html-keyboard-response","320","158336","0.0-320.0","3X87C8JFV7XZ3T6MOFHHE4MA0DDSQU","AOWW3URQNRJ6U","3RSBJ6YZECCLSSQQCGKCTHC9OPAFOK","","<img src=""img/set1/S1.jpg"" width=""540"" height = ""360"" style=""border:16px solid orange"">","null","","","","","","","","","",""
"null","","html-keyboard-response","321","158537","0.0-321.0","3X87C8JFV7XZ3T6MOFHHE4MA0DDSQU","AOWW3URQNRJ6U","3RSBJ6YZECCLSSQQCGKCTHC9OPAFOK","","","null","","","","","","","","","",""
"387.59999999403954","","image-keyboard-response","322","158926","0.0-322.0","3X87C8JFV7XZ3T6MOFHHE4MA0DDSQU","AOWW3URQNRJ6U","3RSBJ6YZECCLSSQQCGKCTHC9OPAFOK","","img/set1/S1.jpg","83","1","random","83","random,structured_incentive,structured_normal,structured_load","1,2,2,3,4,2","3,1,2,4","true","","",""
"null","","html-keyboard-response","323","159279","0.0-323.0","3X87C8JFV7XZ3T6MOFHHE4MA0DDSQU","AOWW3URQNRJ6U","3RSBJ6YZECCLSSQQCGKCTHC9OPAFOK","","<img src=""img/set1/S1.jpg"" width=""540"" height = ""360"" style=""border:16px solid orange"">","null","","","","","","","","","",""
"null","","html-keyboard-response","324","159486","0.0-324.0","3X87C8JFV7XZ3T6MOFHHE4MA0DDSQU","AOWW3URQNRJ6U","3RSBJ6YZECCLSSQQCGKCTHC9OPAFOK","","","null","","","","","","","","","",""
"462.59999999403954","","image-keyboard-response","325","159950","0.0-325.0","3X87C8JFV7XZ3T6MOFHHE4MA0DDSQU","AOWW3URQNRJ6U","3RSBJ6YZECCLSSQQCGKCTHC9OPAFOK","","img/set1/S3.jpg","72","3","random","72","random,structured_incentive,structured_normal,structured_load","1,2,2,3,4,2","3,1,2,4","true","","",""
"null","","html-keyboard-response","326","160302","0.0-326.0","3X87C8JFV7XZ3T6MOFHHE4MA0DDSQU","AOWW3URQNRJ6U","3RSBJ6YZECCLSSQQCGKCTHC9OPAFOK","","<img src=""img/set1/S3.jpg"" width=""540"" height = ""360"" style=""border:16px solid orange"">","null","","","","","","","","","",""
"null","","html-keyboard-response","327","160505","0.0-327.0","3X87C8JFV7XZ3T6MOFHHE4MA0DDSQU","AOWW3URQNRJ6U","3RSBJ6YZECCLSSQQCGKCTHC9OPAFOK","","","null","","","","","","","","","",""
"375.80000001192093","","image-keyboard-response","328","160882","0.0-328.0","3X87C8JFV7XZ3T6MOFHHE4MA0DDSQU","AOWW3URQNRJ6U","3RSBJ6YZECCLSSQQCGKCTHC9OPAFOK","","img/set1/S3.jpg","72","3","random","72","random,structured_incentive,structured_normal,structured_load","1,2,2,3,4,2","3,1,2,4","true","","",""
"null","","html-keyboard-response","329","161234","0.0-329.0","3X87C8JFV7XZ3T6MOFHHE4MA0DDSQU","AOWW3URQNRJ6U","3RSBJ6YZECCLSSQQCGKCTHC9OPAFOK","","<img src=""img/set1/S3.jpg"" width=""540"" height = ""360"" style=""border:16px solid orange"">","null","","","","","","","","","",""
"null","","html-keyboard-response","330","161436","0.0-330.0","3X87C8JFV7XZ3T6MOFHHE4MA0DDSQU","AOWW3URQNRJ6U","3RSBJ6YZECCLSSQQCGKCTHC9OPAFOK","","","null","","","","","","","","","",""
"478.09999999403954","","image-keyboard-response","331","161915","0.0-331.0","3X87C8JFV7XZ3T6MOFHHE4MA0DDSQU","AOWW3URQNRJ6U","3RSBJ6YZECCLSSQQCGKCTHC9OPAFOK","","img/set1/S2.jpg","68","2","random","68","random,structured_incentive,structured_normal,structured_load","1,2,2,3,4,2","3,1,2,4","true","","",""
"null","","html-keyboard-response","332","162267","0.0-332.0","3X87C8JFV7XZ3T6MOFHHE4MA0DDSQU","AOWW3URQNRJ6U","3RSBJ6YZECCLSSQQCGKCTHC9OPAFOK","","<img src=""img/set1/S2.jpg"" width=""540"" height = ""360"" style=""border:16px solid orange"">","null","","","","","","","","","",""
"null","","html-keyboard-response","333","162470","0.0-333.0","3X87C8JFV7XZ3T6MOFHHE4MA0DDSQU","AOWW3URQNRJ6U","3RSBJ6YZECCLSSQQCGKCTHC9OPAFOK","","","null","","","","","","","","","",""
"393.5","","image-keyboard-response","334","162864","0.0-334.0","3X87C8JFV7XZ3T6MOFHHE4MA0DDSQU","AOWW3URQNRJ6U","3RSBJ6YZECCLSSQQCGKCTHC9OPAFOK","","img/set1/S3.jpg","68","3","random","72","random,structured_incentive,structured_normal,structured_load","1,2,2,3,4,2","3,1,2,4","false","","",""
"null","","html-keyboard-response","335","163217","0.0-335.0","3X87C8JFV7XZ3T6MOFHHE4MA0DDSQU","AOWW3URQNRJ6U","3RSBJ6YZECCLSSQQCGKCTHC9OPAFOK","","<img src=""img/set1/S3.jpg"" width=""540"" height = ""360"">","null","","","","","","","","","",""
"null","","html-keyboard-response","336","163419","0.0-336.0","3X87C8JFV7XZ3T6MOFHHE4MA0DDSQU","AOWW3URQNRJ6U","3RSBJ6YZECCLSSQQCGKCTHC9OPAFOK","","","null","","","","","","","","","",""
"456.09999999403954","","image-keyboard-response","337","163876","0.0-337.0","3X87C8JFV7XZ3T6MOFHHE4MA0DDSQU","AOWW3URQNRJ6U","3RSBJ6YZECCLSSQQCGKCTHC9OPAFOK","","img/set1/S1.jpg","83","1","random","83","random,structured_incentive,structured_normal,structured_load","1,2,2,3,4,2","3,1,2,4","true","","",""
"null","","html-keyboard-response","338","164228","0.0-338.0","3X87C8JFV7XZ3T6MOFHHE4MA0DDSQU","AOWW3URQNRJ6U","3RSBJ6YZECCLSSQQCGKCTHC9OPAFOK","","<img src=""img/set1/S1.jpg"" width=""540"" height = ""360"" style=""border:16px solid orange"">","null","","","","","","","","","",""
"null","","html-keyboard-response","339","164431","0.0-339.0","3X87C8JFV7XZ3T6MOFHHE4MA0DDSQU","AOWW3URQNRJ6U","3RSBJ6YZECCLSSQQCGKCTHC9OPAFOK","","","null","","","","","","","","","",""
"560.5","","image-keyboard-response","340","164992","0.0-340.0","3X87C8JFV7XZ3T6MOFHHE4MA0DDSQU","AOWW3URQNRJ6U","3RSBJ6YZECCLSSQQCGKCTHC9OPAFOK","","img/set1/S3.jpg","72","3","random","72","random,structured_incentive,structured_normal,structured_load","1,2,2,3,4,2","3,1,2,4","true","","",""
"null","","html-keyboard-response","341","165344","0.0-341.0","3X87C8JFV7XZ3T6MOFHHE4MA0DDSQU","AOWW3URQNRJ6U","3RSBJ6YZECCLSSQQCGKCTHC9OPAFOK","","<img src=""img/set1/S3.jpg"" width=""540"" height = ""360"" style=""border:16px solid orange"">","null","","","","","","","","","",""
"null","","html-keyboard-response","342","165545","0.0-342.0","3X87C8JFV7XZ3T6MOFHHE4MA0DDSQU","AOWW3URQNRJ6U","3RSBJ6YZECCLSSQQCGKCTHC9OPAFOK","","","null","","","","","","","","","",""
"399.7999999821186","","image-keyboard-response","343","165946","0.0-343.0","3X87C8JFV7XZ3T6MOFHHE4MA0DDSQU","AOWW3URQNRJ6U","3RSBJ6YZECCLSSQQCGKCTHC9OPAFOK","","img/set1/S3.jpg","72","3","random","72","random,structured_incentive,structured_normal,structured_load","1,2,2,3,4,2","3,1,2,4","true","","",""
"null","","html-keyboard-response","344","166298","0.0-344.0","3X87C8JFV7XZ3T6MOFHHE4MA0DDSQU","AOWW3URQNRJ6U","3RSBJ6YZECCLSSQQCGKCTHC9OPAFOK","","<img src=""img/set1/S3.jpg"" width=""540"" height = ""360"" style=""border:16px solid orange"">","null","","","","","","","","","",""
"null","","html-keyboard-response","345","166501","0.0-345.0","3X87C8JFV7XZ3T6MOFHHE4MA0DDSQU","AOWW3URQNRJ6U","3RSBJ6YZECCLSSQQCGKCTHC9OPAFOK","","","null","","","","","","","","","",""
"556","","image-keyboard-response","346","167058","0.0-346.0","3X87C8JFV7XZ3T6MOFHHE4MA0DDSQU","AOWW3URQNRJ6U","3RSBJ6YZECCLSSQQCGKCTHC9OPAFOK","","img/set1/S2.jpg","68","2","random","68","random,structured_incentive,structured_normal,structured_load","1,2,2,3,4,2","3,1,2,4","true","","",""
"null","","html-keyboard-response","347","167416","0.0-347.0","3X87C8JFV7XZ3T6MOFHHE4MA0DDSQU","AOWW3URQNRJ6U","3RSBJ6YZECCLSSQQCGKCTHC9OPAFOK","","<img src=""img/set1/S2.jpg"" width=""540"" height = ""360"" style=""border:16px solid orange"">","null","","","","","","","","","",""
"null","","html-keyboard-response","348","167618","0.0-348.0","3X87C8JFV7XZ3T6MOFHHE4MA0DDSQU","AOWW3URQNRJ6U","3RSBJ6YZECCLSSQQCGKCTHC9OPAFOK","","","null","","","","","","","","","",""
"329","","image-keyboard-response","349","167948","0.0-349.0","3X87C8JFV7XZ3T6MOFHHE4MA0DDSQU","AOWW3URQNRJ6U","3RSBJ6YZECCLSSQQCGKCTHC9OPAFOK","","img/set1/S2.jpg","68","2","random","68","random,structured_incentive,structured_normal,structured_load","1,2,2,3,4,2","3,1,2,4","true","","",""
"null","","html-keyboard-response","350","168300","0.0-350.0","3X87C8JFV7XZ3T6MOFHHE4MA0DDSQU","AOWW3URQNRJ6U","3RSBJ6YZECCLSSQQCGKCTHC9OPAFOK","","<img src=""img/set1/S2.jpg"" width=""540"" height = ""360"" style=""border:16px solid orange"">","null","","","","","","","","","",""
"null","","html-keyboard-response","351","168502","0.0-351.0","3X87C8JFV7XZ3T6MOFHHE4MA0DDSQU","AOWW3URQNRJ6U","3RSBJ6YZECCLSSQQCGKCTHC9OPAFOK","","","null","","","","","","","","","",""
"479.09999999403954","","image-keyboard-response","352","168983","0.0-352.0","3X87C8JFV7XZ3T6MOFHHE4MA0DDSQU","AOWW3URQNRJ6U","3RSBJ6YZECCLSSQQCGKCTHC9OPAFOK","","img/set1/S4.jpg","74","4","random","74","random,structured_incentive,structured_normal,structured_load","1,2,2,3,4,2","3,1,2,4","true","","",""
"null","","html-keyboard-response","353","169337","0.0-353.0","3X87C8JFV7XZ3T6MOFHHE4MA0DDSQU","AOWW3URQNRJ6U","3RSBJ6YZECCLSSQQCGKCTHC9OPAFOK","","<img src=""img/set1/S4.jpg"" width=""540"" height = ""360"" style=""border:16px solid orange"">","null","","","","","","","","","",""
"null","","html-keyboard-response","354","169539","0.0-354.0","3X87C8JFV7XZ3T6MOFHHE4MA0DDSQU","AOWW3URQNRJ6U","3RSBJ6YZECCLSSQQCGKCTHC9OPAFOK","","","null","","","","","","","","","",""
"501.90000000596046","","image-keyboard-response","355","170042","0.0-355.0","3X87C8JFV7XZ3T6MOFHHE4MA0DDSQU","AOWW3URQNRJ6U","3RSBJ6YZECCLSSQQCGKCTHC9OPAFOK","","img/set1/S2.jpg","68","2","random","68","random,structured_incentive,structured_normal,structured_load","1,2,2,3,4,2","3,1,2,4","true","","",""
"null","","html-keyboard-response","356","170394","0.0-356.0","3X87C8JFV7XZ3T6MOFHHE4MA0DDSQU","AOWW3URQNRJ6U","3RSBJ6YZECCLSSQQCGKCTHC9OPAFOK","","<img src=""img/set1/S2.jpg"" width=""540"" height = ""360"" style=""border:16px solid orange"">","null","","","","","","","","","",""
"null","","html-keyboard-response","357","170595","0.0-357.0","3X87C8JFV7XZ3T6MOFHHE4MA0DDSQU","AOWW3URQNRJ6U","3RSBJ6YZECCLSSQQCGKCTHC9OPAFOK","","","null","","","","","","","","","",""
"418.09999999403954","","image-keyboard-response","358","171014","0.0-358.0","3X87C8JFV7XZ3T6MOFHHE4MA0DDSQU","AOWW3URQNRJ6U","3RSBJ6YZECCLSSQQCGKCTHC9OPAFOK","","img/set1/S3.jpg","72","3","random","72","random,structured_incentive,structured_normal,structured_load","1,2,2,3,4,2","3,1,2,4","true","","",""
"null","","html-keyboard-response","359","171367","0.0-359.0","3X87C8JFV7XZ3T6MOFHHE4MA0DDSQU","AOWW3URQNRJ6U","3RSBJ6YZECCLSSQQCGKCTHC9OPAFOK","","<img src=""img/set1/S3.jpg"" width=""540"" height = ""360"" style=""border:16px solid orange"">","null","","","","","","","","","",""
"null","","html-keyboard-response","360","171569","0.0-360.0","3X87C8JFV7XZ3T6MOFHHE4MA0DDSQU","AOWW3URQNRJ6U","3RSBJ6YZECCLSSQQCGKCTHC9OPAFOK","","","null","","","","","","","","","",""
"457.90000000596046","","image-keyboard-response","361","172028","0.0-361.0","3X87C8JFV7XZ3T6MOFHHE4MA0DDSQU","AOWW3URQNRJ6U","3RSBJ6YZECCLSSQQCGKCTHC9OPAFOK","","img/set1/S3.jpg","72","3","random","72","random,structured_incentive,structured_normal,structured_load","1,2,2,3,4,2","3,1,2,4","true","","",""
"null","","html-keyboard-response","362","172380","0.0-362.0","3X87C8JFV7XZ3T6MOFHHE4MA0DDSQU","AOWW3URQNRJ6U","3RSBJ6YZECCLSSQQCGKCTHC9OPAFOK","","<img src=""img/set1/S3.jpg"" width=""540"" height = ""360"" style=""border:16px solid orange"">","null","","","","","","","","","",""
"null","","html-keyboard-response","363","172582","0.0-363.0","3X87C8JFV7XZ3T6MOFHHE4MA0DDSQU","AOWW3URQNRJ6U","3RSBJ6YZECCLSSQQCGKCTHC9OPAFOK","","","null","","","","","","","","","",""
"374.09999999403954","","image-keyboard-response","364","172957","0.0-364.0","3X87C8JFV7XZ3T6MOFHHE4MA0DDSQU","AOWW3URQNRJ6U","3RSBJ6YZECCLSSQQCGKCTHC9OPAFOK","","img/set1/S3.jpg","72","3","random","72","random,structured_incentive,structured_normal,structured_load","1,2,2,3,4,2","3,1,2,4","true","","",""
"null","","html-keyboard-response","365","173309","0.0-365.0","3X87C8JFV7XZ3T6MOFHHE4MA0DDSQU","AOWW3URQNRJ6U","3RSBJ6YZECCLSSQQCGKCTHC9OPAFOK","","<img src=""img/set1/S3.jpg"" width=""540"" height = ""360"" style=""border:16px solid orange"">","null","","","","","","","","","",""
"null","","html-keyboard-response","366","173511","0.0-366.0","3X87C8JFV7XZ3T6MOFHHE4MA0DDSQU","AOWW3URQNRJ6U","3RSBJ6YZECCLSSQQCGKCTHC9OPAFOK","","","null","","","","","","","","","",""
"328","","image-keyboard-response","367","173840","0.0-367.0","3X87C8JFV7XZ3T6MOFHHE4MA0DDSQU","AOWW3URQNRJ6U","3RSBJ6YZECCLSSQQCGKCTHC9OPAFOK","","img/set1/S3.jpg","72","3","random","72","random,structured_incentive,structured_normal,structured_load","1,2,2,3,4,2","3,1,2,4","true","","",""
"null","","html-keyboard-response","368","174192","0.0-368.0","3X87C8JFV7XZ3T6MOFHHE4MA0DDSQU","AOWW3URQNRJ6U","3RSBJ6YZECCLSSQQCGKCTHC9OPAFOK","","<img src=""img/set1/S3.jpg"" width=""540"" height = ""360"" style=""border:16px solid orange"">","null","","","","","","","","","",""
"null","","html-keyboard-response","369","174395","0.0-369.0","3X87C8JFV7XZ3T6MOFHHE4MA0DDSQU","AOWW3URQNRJ6U","3RSBJ6YZECCLSSQQCGKCTHC9OPAFOK","","","null","","","","","","","","","",""
"334","","image-keyboard-response","370","174730","0.0-370.0","3X87C8JFV7XZ3T6MOFHHE4MA0DDSQU","AOWW3URQNRJ6U","3RSBJ6YZECCLSSQQCGKCTHC9OPAFOK","","img/set1/S3.jpg","72","3","random","72","random,structured_incentive,structured_normal,structured_load","1,2,2,3,4,2","3,1,2,4","true","","",""
"null","","html-keyboard-response","371","175083","0.0-371.0","3X87C8JFV7XZ3T6MOFHHE4MA0DDSQU","AOWW3URQNRJ6U","3RSBJ6YZECCLSSQQCGKCTHC9OPAFOK","","<img src=""img/set1/S3.jpg"" width=""540"" height = ""360"" style=""border:16px solid orange"">","null","","","","","","","","","",""
"null","","html-keyboard-response","372","175284","0.0-372.0","3X87C8JFV7XZ3T6MOFHHE4MA0DDSQU","AOWW3URQNRJ6U","3RSBJ6YZECCLSSQQCGKCTHC9OPAFOK","","","null","","","","","","","","","",""
"377.80000001192093","","image-keyboard-response","373","175663","0.0-373.0","3X87C8JFV7XZ3T6MOFHHE4MA0DDSQU","AOWW3URQNRJ6U","3RSBJ6YZECCLSSQQCGKCTHC9OPAFOK","","img/set1/S1.jpg","83","1","random","83","random,structured_incentive,structured_normal,structured_load","1,2,2,3,4,2","3,1,2,4","true","","",""
"null","","html-keyboard-response","374","176016","0.0-374.0","3X87C8JFV7XZ3T6MOFHHE4MA0DDSQU","AOWW3URQNRJ6U","3RSBJ6YZECCLSSQQCGKCTHC9OPAFOK","","<img src=""img/set1/S1.jpg"" width=""540"" height = ""360"" style=""border:16px solid orange"">","null","","","","","","","","","",""
"null","","html-keyboard-response","375","176218","0.0-375.0","3X87C8JFV7XZ3T6MOFHHE4MA0DDSQU","AOWW3URQNRJ6U","3RSBJ6YZECCLSSQQCGKCTHC9OPAFOK","","","null","","","","","","","","","",""
"571.8000000119209","","image-keyboard-response","376","176790","0.0-376.0","3X87C8JFV7XZ3T6MOFHHE4MA0DDSQU","AOWW3URQNRJ6U","3RSBJ6YZECCLSSQQCGKCTHC9OPAFOK","","img/set1/S4.jpg","74","4","random","74","random,structured_incentive,structured_normal,structured_load","1,2,2,3,4,2","3,1,2,4","true","","",""
"null","","html-keyboard-response","377","177143","0.0-377.0","3X87C8JFV7XZ3T6MOFHHE4MA0DDSQU","AOWW3URQNRJ6U","3RSBJ6YZECCLSSQQCGKCTHC9OPAFOK","","<img src=""img/set1/S4.jpg"" width=""540"" height = ""360"" style=""border:16px solid orange"">","null","","","","","","","","","",""
"null","","html-keyboard-response","378","177344","0.0-378.0","3X87C8JFV7XZ3T6MOFHHE4MA0DDSQU","AOWW3URQNRJ6U","3RSBJ6YZECCLSSQQCGKCTHC9OPAFOK","","","null","","","","","","","","","",""
"494.59999999403954","","image-keyboard-response","379","177840","0.0-379.0","3X87C8JFV7XZ3T6MOFHHE4MA0DDSQU","AOWW3URQNRJ6U","3RSBJ6YZECCLSSQQCGKCTHC9OPAFOK","","img/set1/S1.jpg","83","1","random","83","random,structured_incentive,structured_normal,structured_load","1,2,2,3,4,2","3,1,2,4","true","","",""
"null","","html-keyboard-response","380","178193","0.0-380.0","3X87C8JFV7XZ3T6MOFHHE4MA0DDSQU","AOWW3URQNRJ6U","3RSBJ6YZECCLSSQQCGKCTHC9OPAFOK","","<img src=""img/set1/S1.jpg"" width=""540"" height = ""360"" style=""border:16px solid orange"">","null","","","","","","","","","",""
"null","","html-keyboard-response","381","178395","0.0-381.0","3X87C8JFV7XZ3T6MOFHHE4MA0DDSQU","AOWW3URQNRJ6U","3RSBJ6YZECCLSSQQCGKCTHC9OPAFOK","","","null","","","","","","","","","",""
"331.2999999821186","","image-keyboard-response","382","178727","0.0-382.0","3X87C8JFV7XZ3T6MOFHHE4MA0DDSQU","AOWW3URQNRJ6U","3RSBJ6YZECCLSSQQCGKCTHC9OPAFOK","","img/set1/S1.jpg","83","1","random","83","random,structured_incentive,structured_normal,structured_load","1,2,2,3,4,2","3,1,2,4","true","","",""
"null","","html-keyboard-response","383","179080","0.0-383.0","3X87C8JFV7XZ3T6MOFHHE4MA0DDSQU","AOWW3URQNRJ6U","3RSBJ6YZECCLSSQQCGKCTHC9OPAFOK","","<img src=""img/set1/S1.jpg"" width=""540"" height = ""360"" style=""border:16px solid orange"">","null","","","","","","","","","",""
"null","","html-keyboard-response","384","179283","0.0-384.0","3X87C8JFV7XZ3T6MOFHHE4MA0DDSQU","AOWW3URQNRJ6U","3RSBJ6YZECCLSSQQCGKCTHC9OPAFOK","","","null","","","","","","","","","",""
"516.6999999880791","","image-keyboard-response","385","179801","0.0-385.0","3X87C8JFV7XZ3T6MOFHHE4MA0DDSQU","AOWW3URQNRJ6U","3RSBJ6YZECCLSSQQCGKCTHC9OPAFOK","","img/set1/S2.jpg","68","2","random","68","random,structured_incentive,structured_normal,structured_load","1,2,2,3,4,2","3,1,2,4","true","","",""
"null","","html-keyboard-response","386","180154","0.0-386.0","3X87C8JFV7XZ3T6MOFHHE4MA0DDSQU","AOWW3URQNRJ6U","3RSBJ6YZECCLSSQQCGKCTHC9OPAFOK","","<img src=""img/set1/S2.jpg"" width=""540"" height = ""360"" style=""border:16px solid orange"">","null","","","","","","","","","",""
"null","","html-keyboard-response","387","180355","0.0-387.0","3X87C8JFV7XZ3T6MOFHHE4MA0DDSQU","AOWW3URQNRJ6U","3RSBJ6YZECCLSSQQCGKCTHC9OPAFOK","","","null","","","","","","","","","",""
