"rt","url","trial_type","trial_index","time_elapsed","internal_node_id","view_history","stimulus","key_press","state","test_part","correct_response","order_block","order_chunk","correct","responses","bonus"
"686496.2000002861","consent.html","external-html","0","686568","0.0-0.0","","","","","","","","","","",""
"46203.40000009537","","instructions","1","732772","0.0-1.0","[{""page_index"":0,""viewing_time"":1837.9000000953674},{""page_index"":1,""viewing_time"":4280.5},{""page_index"":2,""viewing_time"":10081.699999809265},{""page_index"":3,""viewing_time"":7920.300000190735},{""page_index"":4,""viewing_time"":2152.2999997138977},{""page_index"":5,""viewing_time"":11649.400000095367},{""page_index"":6,""viewing_time"":8280.700000286102}]","","","","","","","","","",""
"13008.800000190735","","instructions","2","745782","0.0-2.0","[{""page_index"":0,""viewing_time"":13008.5}]","","","","","","","","","",""
"5767.599999904633","","instructions","3","751550","0.0-3.0","[{""page_index"":0,""viewing_time"":5767.39999961853}]","","","","","","","","","",""
"477.59999990463257","","image-keyboard-response","4","752029","0.0-4.0","","img/set1/S2.jpg","83","2","random","68","random,structured_incentive,structured_load,structured_normal","2,1,3,4,2,3","false","",""
"null","","html-keyboard-response","5","752380","0.0-5.0","","<img src=""img/set1/S2.jpg"" width=""540"" height = ""360"">","null","","","","","","","",""
"null","","html-keyboard-response","6","752582","0.0-6.0","","","null","","","","","","","",""
"662.1999998092651","","image-keyboard-response","7","753245","0.0-7.0","","img/set1/S4.jpg","68","4","random","74","random,structured_incentive,structured_load,structured_normal","2,1,3,4,2,3","false","",""
"null","","html-keyboard-response","8","753597","0.0-8.0","","<img src=""img/set1/S4.jpg"" width=""540"" height = ""360"">","null","","","","","","","",""
"null","","html-keyboard-response","9","753797","0.0-9.0","","","null","","","","","","","",""
"902.9000000953674","","image-keyboard-response","10","754701","0.0-10.0","","img/set1/S3.jpg","83","3","random","72","random,structured_incentive,structured_load,structured_normal","2,1,3,4,2,3","false","",""
"null","","html-keyboard-response","11","755052","0.0-11.0","","<img src=""img/set1/S3.jpg"" width=""540"" height = ""360"">","null","","","","","","","",""
"null","","html-keyboard-response","12","755253","0.0-12.0","","","null","","","","","","","",""
"1023","","image-keyboard-response","13","756277","0.0-13.0","","img/set1/S1.jpg","83","1","random","83","random,structured_incentive,structured_load,structured_normal","2,1,3,4,2,3","true","",""
"null","","html-keyboard-response","14","756629","0.0-14.0","","<img src=""img/set1/S1.jpg"" width=""540"" height = ""360"" style=""border:16px solid orange"">","null","","","","","","","",""
"null","","html-keyboard-response","15","756830","0.0-15.0","","","null","","","","","","","",""
"902.2999997138977","","image-keyboard-response","16","757733","0.0-16.0","","img/set1/S2.jpg","68","2","random","68","random,structured_incentive,structured_load,structured_normal","2,1,3,4,2,3","true","",""
"null","","html-keyboard-response","17","758084","0.0-17.0","","<img src=""img/set1/S2.jpg"" width=""540"" height = ""360"" style=""border:16px solid orange"">","null","","","","","","","",""
"null","","html-keyboard-response","18","758285","0.0-18.0","","","null","","","","","","","",""
"1143.1000003814697","","image-keyboard-response","19","759429","0.0-19.0","","img/set1/S1.jpg","72","1","random","83","random,structured_incentive,structured_load,structured_normal","2,1,3,4,2,3","false","",""
"null","","html-keyboard-response","20","759781","0.0-20.0","","<img src=""img/set1/S1.jpg"" width=""540"" height = ""360"">","null","","","","","","","",""
"null","","html-keyboard-response","21","759982","0.0-21.0","","","null","","","","","","","",""
"1022.3000001907349","","image-keyboard-response","22","761005","0.0-22.0","","img/set1/S4.jpg","74","4","random","74","random,structured_incentive,structured_load,structured_normal","2,1,3,4,2,3","true","",""
"null","","html-keyboard-response","23","761357","0.0-23.0","","<img src=""img/set1/S4.jpg"" width=""540"" height = ""360"" style=""border:16px solid orange"">","null","","","","","","","",""
"null","","html-keyboard-response","24","761558","0.0-24.0","","","null","","","","","","","",""
"1310.5999999046326","","image-keyboard-response","25","762870","0.0-25.0","","img/set1/S2.jpg","68","2","random","68","random,structured_incentive,structured_load,structured_normal","2,1,3,4,2,3","true","",""
"null","","html-keyboard-response","26","763221","0.0-26.0","","<img src=""img/set1/S2.jpg"" width=""540"" height = ""360"" style=""border:16px solid orange"">","null","","","","","","","",""
"null","","html-keyboard-response","27","763422","0.0-27.0","","","null","","","","","","","",""
"1279","","image-keyboard-response","28","764702","0.0-28.0","","img/set1/S4.jpg","83","4","random","74","random,structured_incentive,structured_load,structured_normal","2,1,3,4,2,3","false","",""
"null","","html-keyboard-response","29","765054","0.0-29.0","","<img src=""img/set1/S4.jpg"" width=""540"" height = ""360"">","null","","","","","","","",""
"null","","html-keyboard-response","30","765255","0.0-30.0","","","null","","","","","","","",""
"854.3999996185303","","image-keyboard-response","31","766110","0.0-31.0","","img/set1/S2.jpg","68","2","random","68","random,structured_incentive,structured_load,structured_normal","2,1,3,4,2,3","true","",""
"null","","html-keyboard-response","32","766462","0.0-32.0","","<img src=""img/set1/S2.jpg"" width=""540"" height = ""360"" style=""border:16px solid orange"">","null","","","","","","","",""
"null","","html-keyboard-response","33","766663","0.0-33.0","","","null","","","","","","","",""
"1422.6999998092651","","image-keyboard-response","34","768087","0.0-34.0","","img/set1/S1.jpg","74","1","random","83","random,structured_incentive,structured_load,structured_normal","2,1,3,4,2,3","false","",""
"null","","html-keyboard-response","35","768439","0.0-35.0","","<img src=""img/set1/S1.jpg"" width=""540"" height = ""360"">","null","","","","","","","",""
"null","","html-keyboard-response","36","768639","0.0-36.0","","","null","","","","","","","",""
"1014.5","","image-keyboard-response","37","769655","0.0-37.0","","img/set1/S3.jpg","74","3","random","72","random,structured_incentive,structured_load,structured_normal","2,1,3,4,2,3","false","",""
"null","","html-keyboard-response","38","770006","0.0-38.0","","<img src=""img/set1/S3.jpg"" width=""540"" height = ""360"">","null","","","","","","","",""
"null","","html-keyboard-response","39","770207","0.0-39.0","","","null","","","","","","","",""
"1143","","image-keyboard-response","40","771351","0.0-40.0","","img/set1/S3.jpg","72","3","random","72","random,structured_incentive,structured_load,structured_normal","2,1,3,4,2,3","true","",""
"null","","html-keyboard-response","41","771702","0.0-41.0","","<img src=""img/set1/S3.jpg"" width=""540"" height = ""360"" style=""border:16px solid orange"">","null","","","","","","","",""
"null","","html-keyboard-response","42","771903","0.0-42.0","","","null","","","","","","","",""
"926.9000000953674","","image-keyboard-response","43","772831","0.0-43.0","","img/set1/S3.jpg","72","3","random","72","random,structured_incentive,structured_load,structured_normal","2,1,3,4,2,3","true","",""
"null","","html-keyboard-response","44","773182","0.0-44.0","","<img src=""img/set1/S3.jpg"" width=""540"" height = ""360"" style=""border:16px solid orange"">","null","","","","","","","",""
"null","","html-keyboard-response","45","773384","0.0-45.0","","","null","","","","","","","",""
"750.5999999046326","","image-keyboard-response","46","774135","0.0-46.0","","img/set1/S3.jpg","72","3","random","72","random,structured_incentive,structured_load,structured_normal","2,1,3,4,2,3","true","",""
"null","","html-keyboard-response","47","774487","0.0-47.0","","<img src=""img/set1/S3.jpg"" width=""540"" height = ""360"" style=""border:16px solid orange"">","null","","","","","","","",""
"null","","html-keyboard-response","48","774688","0.0-48.0","","","null","","","","","","","",""
"1422.9000000953674","","image-keyboard-response","49","776111","0.0-49.0","","img/set1/S1.jpg","68","1","random","83","random,structured_incentive,structured_load,structured_normal","2,1,3,4,2,3","false","",""
"null","","html-keyboard-response","50","776463","0.0-50.0","","<img src=""img/set1/S1.jpg"" width=""540"" height = ""360"">","null","","","","","","","",""
"null","","html-keyboard-response","51","776665","0.0-51.0","","","null","","","","","","","",""
"1238.2000002861023","","image-keyboard-response","52","777903","0.0-52.0","","img/set1/S1.jpg","74","1","random","83","random,structured_incentive,structured_load,structured_normal","2,1,3,4,2,3","false","",""
"null","","html-keyboard-response","53","778255","0.0-53.0","","<img src=""img/set1/S1.jpg"" width=""540"" height = ""360"">","null","","","","","","","",""
"null","","html-keyboard-response","54","778456","0.0-54.0","","","null","","","","","","","",""
"1543.4000000953674","","image-keyboard-response","55","780000","0.0-55.0","","img/set1/S2.jpg","68","2","random","68","random,structured_incentive,structured_load,structured_normal","2,1,3,4,2,3","true","",""
"null","","html-keyboard-response","56","780352","0.0-56.0","","<img src=""img/set1/S2.jpg"" width=""540"" height = ""360"" style=""border:16px solid orange"">","null","","","","","","","",""
"null","","html-keyboard-response","57","780553","0.0-57.0","","","null","","","","","","","",""
"958.6999998092651","","image-keyboard-response","58","781512","0.0-58.0","","img/set1/S4.jpg","83","4","random","74","random,structured_incentive,structured_load,structured_normal","2,1,3,4,2,3","false","",""
"null","","html-keyboard-response","59","781864","0.0-59.0","","<img src=""img/set1/S4.jpg"" width=""540"" height = ""360"">","null","","","","","","","",""
"null","","html-keyboard-response","60","782065","0.0-60.0","","","null","","","","","","","",""
"1334.4000000953674","","image-keyboard-response","61","783400","0.0-61.0","","img/set1/S3.jpg","74","3","random","72","random,structured_incentive,structured_load,structured_normal","2,1,3,4,2,3","false","",""
"null","","html-keyboard-response","62","783752","0.0-62.0","","<img src=""img/set1/S3.jpg"" width=""540"" height = ""360"">","null","","","","","","","",""
"null","","html-keyboard-response","63","783953","0.0-63.0","","","null","","","","","","","",""
"1070.8000001907349","","image-keyboard-response","64","785024","0.0-64.0","","img/set1/S3.jpg","68","3","random","72","random,structured_incentive,structured_load,structured_normal","2,1,3,4,2,3","false","",""
"null","","html-keyboard-response","65","785376","0.0-65.0","","<img src=""img/set1/S3.jpg"" width=""540"" height = ""360"">","null","","","","","","","",""
"null","","html-keyboard-response","66","785577","0.0-66.0","","","null","","","","","","","",""
"526.5999999046326","","image-keyboard-response","67","786105","0.0-67.0","","img/set1/S3.jpg","72","3","random","72","random,structured_incentive,structured_load,structured_normal","2,1,3,4,2,3","true","",""
"null","","html-keyboard-response","68","786456","0.0-68.0","","<img src=""img/set1/S3.jpg"" width=""540"" height = ""360"" style=""border:16px solid orange"">","null","","","","","","","",""
"null","","html-keyboard-response","69","786657","0.0-69.0","","","null","","","","","","","",""
"717.8999996185303","","image-keyboard-response","70","787377","0.0-70.0","","img/set1/S3.jpg","72","3","random","72","random,structured_incentive,structured_load,structured_normal","2,1,3,4,2,3","true","",""
"null","","html-keyboard-response","71","787728","0.0-71.0","","<img src=""img/set1/S3.jpg"" width=""540"" height = ""360"" style=""border:16px solid orange"">","null","","","","","","","",""
"null","","html-keyboard-response","72","787930","0.0-72.0","","","null","","","","","","","",""
"574.5999999046326","","image-keyboard-response","73","788505","0.0-73.0","","img/set1/S3.jpg","72","3","random","72","random,structured_incentive,structured_load,structured_normal","2,1,3,4,2,3","true","",""
"null","","html-keyboard-response","74","788856","0.0-74.0","","<img src=""img/set1/S3.jpg"" width=""540"" height = ""360"" style=""border:16px solid orange"">","null","","","","","","","",""
"null","","html-keyboard-response","75","789057","0.0-75.0","","","null","","","","","","","",""
"1359","","image-keyboard-response","76","790417","0.0-76.0","","img/set1/S1.jpg","72","1","random","83","random,structured_incentive,structured_load,structured_normal","2,1,3,4,2,3","false","",""
"null","","html-keyboard-response","77","790769","0.0-77.0","","<img src=""img/set1/S1.jpg"" width=""540"" height = ""360"">","null","","","","","","","",""
"null","","html-keyboard-response","78","790970","0.0-78.0","","","null","","","","","","","",""
"478.69999980926514","","image-keyboard-response","79","791449","0.0-79.0","","img/set1/S1.jpg","74","1","random","83","random,structured_incentive,structured_load,structured_normal","2,1,3,4,2,3","false","",""
"null","","html-keyboard-response","80","791800","0.0-80.0","","<img src=""img/set1/S1.jpg"" width=""540"" height = ""360"">","null","","","","","","","",""
"null","","html-keyboard-response","81","792002","0.0-81.0","","","null","","","","","","","",""
"1086.9000000953674","","image-keyboard-response","82","793089","0.0-82.0","","img/set1/S3.jpg","72","3","random","72","random,structured_incentive,structured_load,structured_normal","2,1,3,4,2,3","true","",""
"null","","html-keyboard-response","83","793441","0.0-83.0","","<img src=""img/set1/S3.jpg"" width=""540"" height = ""360"" style=""border:16px solid orange"">","null","","","","","","","",""
"null","","html-keyboard-response","84","793642","0.0-84.0","","","null","","","","","","","",""
"1422.5999999046326","","image-keyboard-response","85","795066","0.0-85.0","","img/set1/S4.jpg","68","4","random","74","random,structured_incentive,structured_load,structured_normal","2,1,3,4,2,3","false","",""
"null","","html-keyboard-response","86","795417","0.0-86.0","","<img src=""img/set1/S4.jpg"" width=""540"" height = ""360"">","null","","","","","","","",""
"null","","html-keyboard-response","87","795619","0.0-87.0","","","null","","","","","","","",""
"942.2999997138977","","image-keyboard-response","88","796562","0.0-88.0","","img/set1/S1.jpg","83","1","random","83","random,structured_incentive,structured_load,structured_normal","2,1,3,4,2,3","true","",""
"null","","html-keyboard-response","89","796913","0.0-89.0","","<img src=""img/set1/S1.jpg"" width=""540"" height = ""360"" style=""border:16px solid orange"">","null","","","","","","","",""
"null","","html-keyboard-response","90","797114","0.0-90.0","","","null","","","","","","","",""
"551","","image-keyboard-response","91","797666","0.0-91.0","","img/set1/S1.jpg","83","1","random","83","random,structured_incentive,structured_load,structured_normal","2,1,3,4,2,3","true","",""
"null","","html-keyboard-response","92","798017","0.0-92.0","","<img src=""img/set1/S1.jpg"" width=""540"" height = ""360"" style=""border:16px solid orange"">","null","","","","","","","",""
"null","","html-keyboard-response","93","798218","0.0-93.0","","","null","","","","","","","",""
"1590.7000002861023","","image-keyboard-response","94","799810","0.0-94.0","","img/set1/S4.jpg","72","4","random","74","random,structured_incentive,structured_load,structured_normal","2,1,3,4,2,3","false","",""
"null","","html-keyboard-response","95","800162","0.0-95.0","","<img src=""img/set1/S4.jpg"" width=""540"" height = ""360"">","null","","","","","","","",""
"null","","html-keyboard-response","96","800363","0.0-96.0","","","null","","","","","","","",""
"1046.9000000953674","","image-keyboard-response","97","801410","0.0-97.0","","img/set1/S3.jpg","72","3","random","72","random,structured_incentive,structured_load,structured_normal","2,1,3,4,2,3","true","",""
"null","","html-keyboard-response","98","801762","0.0-98.0","","<img src=""img/set1/S3.jpg"" width=""540"" height = ""360"" style=""border:16px solid orange"">","null","","","","","","","",""
"null","","html-keyboard-response","99","801963","0.0-99.0","","","null","","","","","","","",""
"550.4000000953674","","image-keyboard-response","100","802515","0.0-100.0","","img/set1/S4.jpg","74","4","random","74","random,structured_incentive,structured_load,structured_normal","2,1,3,4,2,3","true","",""
"null","","html-keyboard-response","101","802866","0.0-101.0","","<img src=""img/set1/S4.jpg"" width=""540"" height = ""360"" style=""border:16px solid orange"">","null","","","","","","","",""
"null","","html-keyboard-response","102","803067","0.0-102.0","","","null","","","","","","","",""
"1174.5","","image-keyboard-response","103","804243","0.0-103.0","","img/set1/S2.jpg","68","2","random","68","random,structured_incentive,structured_load,structured_normal","2,1,3,4,2,3","true","",""
"null","","html-keyboard-response","104","804594","0.0-104.0","","<img src=""img/set1/S2.jpg"" width=""540"" height = ""360"" style=""border:16px solid orange"">","null","","","","","","","",""
"null","","html-keyboard-response","105","804795","0.0-105.0","","","null","","","","","","","",""
"814.4000000953674","","image-keyboard-response","106","805611","0.0-106.0","","img/set1/S4.jpg","74","4","random","74","random,structured_incentive,structured_load,structured_normal","2,1,3,4,2,3","true","",""
"null","","html-keyboard-response","107","805963","0.0-107.0","","<img src=""img/set1/S4.jpg"" width=""540"" height = ""360"" style=""border:16px solid orange"">","null","","","","","","","",""
"null","","html-keyboard-response","108","806164","0.0-108.0","","","null","","","","","","","",""
"709.7999997138977","","image-keyboard-response","109","806875","0.0-109.0","","img/set1/S2.jpg","68","2","random","68","random,structured_incentive,structured_load,structured_normal","2,1,3,4,2,3","true","",""
"null","","html-keyboard-response","110","807226","0.0-110.0","","<img src=""img/set1/S2.jpg"" width=""540"" height = ""360"" style=""border:16px solid orange"">","null","","","","","","","",""
"null","","html-keyboard-response","111","807427","0.0-111.0","","","null","","","","","","","",""
"639.3000001907349","","image-keyboard-response","112","808067","0.0-112.0","","img/set1/S4.jpg","74","4","random","74","random,structured_incentive,structured_load,structured_normal","2,1,3,4,2,3","true","",""
"null","","html-keyboard-response","113","808419","0.0-113.0","","<img src=""img/set1/S4.jpg"" width=""540"" height = ""360"" style=""border:16px solid orange"">","null","","","","","","","",""
"null","","html-keyboard-response","114","808620","0.0-114.0","","","null","","","","","","","",""
"494.30000019073486","","image-keyboard-response","115","809115","0.0-115.0","","img/set1/S4.jpg","74","4","random","74","random,structured_incentive,structured_load,structured_normal","2,1,3,4,2,3","true","",""
"null","","html-keyboard-response","116","809467","0.0-116.0","","<img src=""img/set1/S4.jpg"" width=""540"" height = ""360"" style=""border:16px solid orange"">","null","","","","","","","",""
"null","","html-keyboard-response","117","809668","0.0-117.0","","","null","","","","","","","",""
"454.90000009536743","","image-keyboard-response","118","810123","0.0-118.0","","img/set1/S4.jpg","74","4","random","74","random,structured_incentive,structured_load,structured_normal","2,1,3,4,2,3","true","",""
"null","","html-keyboard-response","119","810475","0.0-119.0","","<img src=""img/set1/S4.jpg"" width=""540"" height = ""360"" style=""border:16px solid orange"">","null","","","","","","","",""
"null","","html-keyboard-response","120","810676","0.0-120.0","","","null","","","","","","","",""
"823.2000002861023","","image-keyboard-response","121","811500","0.0-121.0","","img/set1/S2.jpg","68","2","random","68","random,structured_incentive,structured_load,structured_normal","2,1,3,4,2,3","true","",""
"null","","html-keyboard-response","122","811852","0.0-122.0","","<img src=""img/set1/S2.jpg"" width=""540"" height = ""360"" style=""border:16px solid orange"">","null","","","","","","","",""
"null","","html-keyboard-response","123","812052","0.0-123.0","","","null","","","","","","","",""
"462.5","","image-keyboard-response","124","812516","0.0-124.0","","img/set1/S1.jpg","72","1","random","83","random,structured_incentive,structured_load,structured_normal","2,1,3,4,2,3","false","",""
"null","","html-keyboard-response","125","812867","0.0-125.0","","<img src=""img/set1/S1.jpg"" width=""540"" height = ""360"">","null","","","","","","","",""
"null","","html-keyboard-response","126","813068","0.0-126.0","","","null","","","","","","","",""
"1206.8000001907349","","image-keyboard-response","127","814276","0.0-127.0","","img/set1/S4.jpg","74","4","random","74","random,structured_incentive,structured_load,structured_normal","2,1,3,4,2,3","true","",""
"null","","html-keyboard-response","128","814627","0.0-128.0","","<img src=""img/set1/S4.jpg"" width=""540"" height = ""360"" style=""border:16px solid orange"">","null","","","","","","","",""
"null","","html-keyboard-response","129","814828","0.0-129.0","","","null","","","","","","","",""
"1118.7000002861023","","image-keyboard-response","130","815948","0.0-130.0","","img/set1/S3.jpg","72","3","random","72","random,structured_incentive,structured_load,structured_normal","2,1,3,4,2,3","true","",""
"null","","html-keyboard-response","131","816299","0.0-131.0","","<img src=""img/set1/S3.jpg"" width=""540"" height = ""360"" style=""border:16px solid orange"">","null","","","","","","","",""
"null","","html-keyboard-response","132","816501","0.0-132.0","","","null","","","","","","","",""
"582.5999999046326","","image-keyboard-response","133","817084","0.0-133.0","","img/set1/S1.jpg","83","1","random","83","random,structured_incentive,structured_load,structured_normal","2,1,3,4,2,3","true","",""
"null","","html-keyboard-response","134","817436","0.0-134.0","","<img src=""img/set1/S1.jpg"" width=""540"" height = ""360"" style=""border:16px solid orange"">","null","","","","","","","",""
"null","","html-keyboard-response","135","817637","0.0-135.0","","","null","","","","","","","",""
"1022.9000000953674","","image-keyboard-response","136","818660","0.0-136.0","","img/set1/S2.jpg","68","2","random","68","random,structured_incentive,structured_load,structured_normal","2,1,3,4,2,3","true","",""
"null","","html-keyboard-response","137","819011","0.0-137.0","","<img src=""img/set1/S2.jpg"" width=""540"" height = ""360"" style=""border:16px solid orange"">","null","","","","","","","",""
"null","","html-keyboard-response","138","819213","0.0-138.0","","","null","","","","","","","",""
"607","","image-keyboard-response","139","819820","0.0-139.0","","img/set1/S2.jpg","68","2","random","68","random,structured_incentive,structured_load,structured_normal","2,1,3,4,2,3","true","",""
"null","","html-keyboard-response","140","820172","0.0-140.0","","<img src=""img/set1/S2.jpg"" width=""540"" height = ""360"" style=""border:16px solid orange"">","null","","","","","","","",""
"null","","html-keyboard-response","141","820373","0.0-141.0","","","null","","","","","","","",""
"438.5","","image-keyboard-response","142","820813","0.0-142.0","","img/set1/S2.jpg","68","2","random","68","random,structured_incentive,structured_load,structured_normal","2,1,3,4,2,3","true","",""
"null","","html-keyboard-response","143","821164","0.0-143.0","","<img src=""img/set1/S2.jpg"" width=""540"" height = ""360"" style=""border:16px solid orange"">","null","","","","","","","",""
"null","","html-keyboard-response","144","821365","0.0-144.0","","","null","","","","","","","",""
"710.6999998092651","","image-keyboard-response","145","822077","0.0-145.0","","img/set1/S4.jpg","74","4","random","74","random,structured_incentive,structured_load,structured_normal","2,1,3,4,2,3","true","",""
"null","","html-keyboard-response","146","822428","0.0-146.0","","<img src=""img/set1/S4.jpg"" width=""540"" height = ""360"" style=""border:16px solid orange"">","null","","","","","","","",""
"null","","html-keyboard-response","147","822629","0.0-147.0","","","null","","","","","","","",""
"1438.7999997138977","","image-keyboard-response","148","824068","0.0-148.0","","img/set1/S1.jpg","83","1","random","83","random,structured_incentive,structured_load,structured_normal","2,1,3,4,2,3","true","",""
"null","","html-keyboard-response","149","824419","0.0-149.0","","<img src=""img/set1/S1.jpg"" width=""540"" height = ""360"" style=""border:16px solid orange"">","null","","","","","","","",""
"null","","html-keyboard-response","150","824621","0.0-150.0","","","null","","","","","","","",""
"1343.5999999046326","","image-keyboard-response","151","825965","0.0-151.0","","img/set1/S2.jpg","72","2","random","68","random,structured_incentive,structured_load,structured_normal","2,1,3,4,2,3","false","",""
"null","","html-keyboard-response","152","826317","0.0-152.0","","<img src=""img/set1/S2.jpg"" width=""540"" height = ""360"">","null","","","","","","","",""
"null","","html-keyboard-response","153","826519","0.0-153.0","","","null","","","","","","","",""
"773.7000002861023","","image-keyboard-response","154","827293","0.0-154.0","","img/set1/S3.jpg","72","3","random","72","random,structured_incentive,structured_load,structured_normal","2,1,3,4,2,3","true","",""
"null","","html-keyboard-response","155","827646","0.0-155.0","","<img src=""img/set1/S3.jpg"" width=""540"" height = ""360"" style=""border:16px solid orange"">","null","","","","","","","",""
"null","","html-keyboard-response","156","827847","0.0-156.0","","","null","","","","","","","",""
"557.3000001907349","","image-keyboard-response","157","828405","0.0-157.0","","img/set1/S3.jpg","72","3","random","72","random,structured_incentive,structured_load,structured_normal","2,1,3,4,2,3","true","",""
"null","","html-keyboard-response","158","828757","0.0-158.0","","<img src=""img/set1/S3.jpg"" width=""540"" height = ""360"" style=""border:16px solid orange"">","null","","","","","","","",""
"null","","html-keyboard-response","159","828958","0.0-159.0","","","null","","","","","","","",""
"550.3000001907349","","image-keyboard-response","160","829509","0.0-160.0","","img/set1/S1.jpg","68","1","random","83","random,structured_incentive,structured_load,structured_normal","2,1,3,4,2,3","false","",""
"null","","html-keyboard-response","161","829861","0.0-161.0","","<img src=""img/set1/S1.jpg"" width=""540"" height = ""360"">","null","","","","","","","",""
"null","","html-keyboard-response","162","830062","0.0-162.0","","","null","","","","","","","",""
"958.5","","image-keyboard-response","163","831021","0.0-163.0","","img/set1/S4.jpg","74","4","random","74","random,structured_incentive,structured_load,structured_normal","2,1,3,4,2,3","true","",""
"null","","html-keyboard-response","164","831372","0.0-164.0","","<img src=""img/set1/S4.jpg"" width=""540"" height = ""360"" style=""border:16px solid orange"">","null","","","","","","","",""
"null","","html-keyboard-response","165","831573","0.0-165.0","","","null","","","","","","","",""
"663.5","","image-keyboard-response","166","832238","0.0-166.0","","img/set1/S1.jpg","83","1","random","83","random,structured_incentive,structured_load,structured_normal","2,1,3,4,2,3","true","",""
"null","","html-keyboard-response","167","832590","0.0-167.0","","<img src=""img/set1/S1.jpg"" width=""540"" height = ""360"" style=""border:16px solid orange"">","null","","","","","","","",""
"null","","html-keyboard-response","168","832791","0.0-168.0","","","null","","","","","","","",""
"789.8000001907349","","image-keyboard-response","169","833582","0.0-169.0","","img/set1/S2.jpg","68","2","random","68","random,structured_incentive,structured_load,structured_normal","2,1,3,4,2,3","true","",""
"null","","html-keyboard-response","170","833933","0.0-170.0","","<img src=""img/set1/S2.jpg"" width=""540"" height = ""360"" style=""border:16px solid orange"">","null","","","","","","","",""
"null","","html-keyboard-response","171","834134","0.0-171.0","","","null","","","","","","","",""
"846.8000001907349","","image-keyboard-response","172","834982","0.0-172.0","","img/set1/S4.jpg","74","4","random","74","random,structured_incentive,structured_load,structured_normal","2,1,3,4,2,3","true","",""
"null","","html-keyboard-response","173","835334","0.0-173.0","","<img src=""img/set1/S4.jpg"" width=""540"" height = ""360"" style=""border:16px solid orange"">","null","","","","","","","",""
"null","","html-keyboard-response","174","835535","0.0-174.0","","","null","","","","","","","",""
"910.6999998092651","","image-keyboard-response","175","836446","0.0-175.0","","img/set1/S4.jpg","74","4","random","74","random,structured_incentive,structured_load,structured_normal","2,1,3,4,2,3","true","",""
"null","","html-keyboard-response","176","836797","0.0-176.0","","<img src=""img/set1/S4.jpg"" width=""540"" height = ""360"" style=""border:16px solid orange"">","null","","","","","","","",""
"null","","html-keyboard-response","177","836999","0.0-177.0","","","null","","","","","","","",""
"1327","","image-keyboard-response","178","838327","0.0-178.0","","img/set1/S2.jpg","68","2","random","68","random,structured_incentive,structured_load,structured_normal","2,1,3,4,2,3","true","",""
"null","","html-keyboard-response","179","838679","0.0-179.0","","<img src=""img/set1/S2.jpg"" width=""540"" height = ""360"" style=""border:16px solid orange"">","null","","","","","","","",""
"null","","html-keyboard-response","180","838880","0.0-180.0","","","null","","","","","","","",""
"1117.6000003814697","","image-keyboard-response","181","839999","0.0-181.0","","img/set1/S3.jpg","72","3","random","72","random,structured_incentive,structured_load,structured_normal","2,1,3,4,2,3","true","",""
"null","","html-keyboard-response","182","840351","0.0-182.0","","<img src=""img/set1/S3.jpg"" width=""540"" height = ""360"" style=""border:16px solid orange"">","null","","","","","","","",""
"null","","html-keyboard-response","183","840552","0.0-183.0","","","null","","","","","","","",""
"773.5999999046326","","image-keyboard-response","184","841327","0.0-184.0","","img/set1/S1.jpg","83","1","random","83","random,structured_incentive,structured_load,structured_normal","2,1,3,4,2,3","true","",""
"null","","html-keyboard-response","185","841678","0.0-185.0","","<img src=""img/set1/S1.jpg"" width=""540"" height = ""360"" style=""border:16px solid orange"">","null","","","","","","","",""
"null","","html-keyboard-response","186","841879","0.0-186.0","","","null","","","","","","","",""
"1199.0999999046326","","image-keyboard-response","187","843079","0.0-187.0","","img/set1/S4.jpg","74","4","random","74","random,structured_incentive,structured_load,structured_normal","2,1,3,4,2,3","true","",""
"null","","html-keyboard-response","188","843430","0.0-188.0","","<img src=""img/set1/S4.jpg"" width=""540"" height = ""360"" style=""border:16px solid orange"">","null","","","","","","","",""
"null","","html-keyboard-response","189","843631","0.0-189.0","","","null","","","","","","","",""
"1711.1999998092651","","image-keyboard-response","190","845343","0.0-190.0","","img/set1/S1.jpg","68","1","random","83","random,structured_incentive,structured_load,structured_normal","2,1,3,4,2,3","false","",""
"null","","html-keyboard-response","191","845695","0.0-191.0","","<img src=""img/set1/S1.jpg"" width=""540"" height = ""360"">","null","","","","","","","",""
"null","","html-keyboard-response","192","845896","0.0-192.0","","","null","","","","","","","",""
"782.3000001907349","","image-keyboard-response","193","846679","0.0-193.0","","img/set1/S2.jpg","68","2","random","68","random,structured_incentive,structured_load,structured_normal","2,1,3,4,2,3","true","",""
"null","","html-keyboard-response","194","847031","0.0-194.0","","<img src=""img/set1/S2.jpg"" width=""540"" height = ""360"" style=""border:16px solid orange"">","null","","","","","","","",""
"null","","html-keyboard-response","195","847232","0.0-195.0","","","null","","","","","","","",""
"487","","image-keyboard-response","196","847720","0.0-196.0","","img/set1/S2.jpg","68","2","random","68","random,structured_incentive,structured_load,structured_normal","2,1,3,4,2,3","true","",""
"null","","html-keyboard-response","197","848072","0.0-197.0","","<img src=""img/set1/S2.jpg"" width=""540"" height = ""360"" style=""border:16px solid orange"">","null","","","","","","","",""
"null","","html-keyboard-response","198","848273","0.0-198.0","","","null","","","","","","","",""
"565.8000001907349","","image-keyboard-response","199","848839","0.0-199.0","","img/set1/S1.jpg","83","1","random","83","random,structured_incentive,structured_load,structured_normal","2,1,3,4,2,3","true","",""
"null","","html-keyboard-response","200","849191","0.0-200.0","","<img src=""img/set1/S1.jpg"" width=""540"" height = ""360"" style=""border:16px solid orange"">","null","","","","","","","",""
"null","","html-keyboard-response","201","849392","0.0-201.0","","","null","","","","","","","",""
"647","","image-keyboard-response","202","850040","0.0-202.0","","img/set1/S2.jpg","68","2","random","68","random,structured_incentive,structured_load,structured_normal","2,1,3,4,2,3","true","",""
"null","","html-keyboard-response","203","850391","0.0-203.0","","<img src=""img/set1/S2.jpg"" width=""540"" height = ""360"" style=""border:16px solid orange"">","null","","","","","","","",""
"null","","html-keyboard-response","204","850593","0.0-204.0","","","null","","","","","","","",""
"574.3000001907349","","image-keyboard-response","205","851168","0.0-205.0","","img/set1/S4.jpg","74","4","random","74","random,structured_incentive,structured_load,structured_normal","2,1,3,4,2,3","true","",""
"null","","html-keyboard-response","206","851519","0.0-206.0","","<img src=""img/set1/S4.jpg"" width=""540"" height = ""360"" style=""border:16px solid orange"">","null","","","","","","","",""
"null","","html-keyboard-response","207","851720","0.0-207.0","","","null","","","","","","","",""
"1223.0999999046326","","image-keyboard-response","208","852944","0.0-208.0","","img/set1/S2.jpg","68","2","random","68","random,structured_incentive,structured_load,structured_normal","2,1,3,4,2,3","true","",""
"null","","html-keyboard-response","209","853295","0.0-209.0","","<img src=""img/set1/S2.jpg"" width=""540"" height = ""360"" style=""border:16px solid orange"">","null","","","","","","","",""
"null","","html-keyboard-response","210","853496","0.0-210.0","","","null","","","","","","","",""
"583.3000001907349","","image-keyboard-response","211","854080","0.0-211.0","","img/set1/S4.jpg","74","4","random","74","random,structured_incentive,structured_load,structured_normal","2,1,3,4,2,3","true","",""
"null","","html-keyboard-response","212","854432","0.0-212.0","","<img src=""img/set1/S4.jpg"" width=""540"" height = ""360"" style=""border:16px solid orange"">","null","","","","","","","",""
"null","","html-keyboard-response","213","854633","0.0-213.0","","","null","","","","","","","",""
"638.4000000953674","","image-keyboard-response","214","855272","0.0-214.0","","img/set1/S2.jpg","68","2","random","68","random,structured_incentive,structured_load,structured_normal","2,1,3,4,2,3","true","",""
"null","","html-keyboard-response","215","855624","0.0-215.0","","<img src=""img/set1/S2.jpg"" width=""540"" height = ""360"" style=""border:16px solid orange"">","null","","","","","","","",""
"null","","html-keyboard-response","216","855825","0.0-216.0","","","null","","","","","","","",""
"430.2000002861023","","image-keyboard-response","217","856256","0.0-217.0","","img/set1/S2.jpg","68","2","random","68","random,structured_incentive,structured_load,structured_normal","2,1,3,4,2,3","true","",""
"null","","html-keyboard-response","218","856608","0.0-218.0","","<img src=""img/set1/S2.jpg"" width=""540"" height = ""360"" style=""border:16px solid orange"">","null","","","","","","","",""
"null","","html-keyboard-response","219","856809","0.0-219.0","","","null","","","","","","","",""
"454.5","","image-keyboard-response","220","857264","0.0-220.0","","img/set1/S2.jpg","68","2","random","68","random,structured_incentive,structured_load,structured_normal","2,1,3,4,2,3","true","",""
"null","","html-keyboard-response","221","857616","0.0-221.0","","<img src=""img/set1/S2.jpg"" width=""540"" height = ""360"" style=""border:16px solid orange"">","null","","","","","","","",""
"null","","html-keyboard-response","222","857817","0.0-222.0","","","null","","","","","","","",""
"414.59999990463257","","image-keyboard-response","223","858232","0.0-223.0","","img/set1/S2.jpg","68","2","random","68","random,structured_incentive,structured_load,structured_normal","2,1,3,4,2,3","true","",""
"null","","html-keyboard-response","224","858584","0.0-224.0","","<img src=""img/set1/S2.jpg"" width=""540"" height = ""360"" style=""border:16px solid orange"">","null","","","","","","","",""
"null","","html-keyboard-response","225","858785","0.0-225.0","","","null","","","","","","","",""
"830.7000002861023","","image-keyboard-response","226","859617","0.0-226.0","","img/set1/S4.jpg","74","4","random","74","random,structured_incentive,structured_load,structured_normal","2,1,3,4,2,3","true","",""
"null","","html-keyboard-response","227","859969","0.0-227.0","","<img src=""img/set1/S4.jpg"" width=""540"" height = ""360"" style=""border:16px solid orange"">","null","","","","","","","",""
"null","","html-keyboard-response","228","860170","0.0-228.0","","","null","","","","","","","",""
"709.6999998092651","","image-keyboard-response","229","860881","0.0-229.0","","img/set1/S1.jpg","83","1","random","83","random,structured_incentive,structured_load,structured_normal","2,1,3,4,2,3","true","",""
"null","","html-keyboard-response","230","861233","0.0-230.0","","<img src=""img/set1/S1.jpg"" width=""540"" height = ""360"" style=""border:16px solid orange"">","null","","","","","","","",""
"null","","html-keyboard-response","231","861434","0.0-231.0","","","null","","","","","","","",""
"413.90000009536743","","image-keyboard-response","232","861849","0.0-232.0","","img/set1/S1.jpg","83","1","random","83","random,structured_incentive,structured_load,structured_normal","2,1,3,4,2,3","true","",""
"null","","html-keyboard-response","233","862200","0.0-233.0","","<img src=""img/set1/S1.jpg"" width=""540"" height = ""360"" style=""border:16px solid orange"">","null","","","","","","","",""
"null","","html-keyboard-response","234","862401","0.0-234.0","","","null","","","","","","","",""
"1111.1000003814697","","image-keyboard-response","235","863513","0.0-235.0","","img/set1/S4.jpg","74","4","random","74","random,structured_incentive,structured_load,structured_normal","2,1,3,4,2,3","true","",""
"null","","html-keyboard-response","236","863865","0.0-236.0","","<img src=""img/set1/S4.jpg"" width=""540"" height = ""360"" style=""border:16px solid orange"">","null","","","","","","","",""
"null","","html-keyboard-response","237","864066","0.0-237.0","","","null","","","","","","","",""
"430.90000009536743","","image-keyboard-response","238","864497","0.0-238.0","","img/set1/S3.jpg","72","3","random","72","random,structured_incentive,structured_load,structured_normal","2,1,3,4,2,3","true","",""
"null","","html-keyboard-response","239","864849","0.0-239.0","","<img src=""img/set1/S3.jpg"" width=""540"" height = ""360"" style=""border:16px solid orange"">","null","","","","","","","",""
"null","","html-keyboard-response","240","865050","0.0-240.0","","","null","","","","","","","",""
"806.3000001907349","","image-keyboard-response","241","865857","0.0-241.0","","img/set1/S1.jpg","83","1","random","83","random,structured_incentive,structured_load,structured_normal","2,1,3,4,2,3","true","",""
"null","","html-keyboard-response","242","866208","0.0-242.0","","<img src=""img/set1/S1.jpg"" width=""540"" height = ""360"" style=""border:16px solid orange"">","null","","","","","","","",""
"null","","html-keyboard-response","243","866409","0.0-243.0","","","null","","","","","","","",""
"671.5","","image-keyboard-response","244","867082","0.0-244.0","","img/set1/S3.jpg","72","3","random","72","random,structured_incentive,structured_load,structured_normal","2,1,3,4,2,3","true","",""
"null","","html-keyboard-response","245","867433","0.0-245.0","","<img src=""img/set1/S3.jpg"" width=""540"" height = ""360"" style=""border:16px solid orange"">","null","","","","","","","",""
"null","","html-keyboard-response","246","867634","0.0-246.0","","","null","","","","","","","",""
"750.9000000953674","","image-keyboard-response","247","868386","0.0-247.0","","img/set1/S4.jpg","74","4","random","74","random,structured_incentive,structured_load,structured_normal","2,1,3,4,2,3","true","",""
"null","","html-keyboard-response","248","868737","0.0-248.0","","<img src=""img/set1/S4.jpg"" width=""540"" height = ""360"" style=""border:16px solid orange"">","null","","","","","","","",""
"null","","html-keyboard-response","249","868938","0.0-249.0","","","null","","","","","","","",""
"1342.5999999046326","","image-keyboard-response","250","870282","0.0-250.0","","img/set1/S2.jpg","68","2","random","68","random,structured_incentive,structured_load,structured_normal","2,1,3,4,2,3","true","",""
"null","","html-keyboard-response","251","870633","0.0-251.0","","<img src=""img/set1/S2.jpg"" width=""540"" height = ""360"" style=""border:16px solid orange"">","null","","","","","","","",""
"null","","html-keyboard-response","252","870834","0.0-252.0","","","null","","","","","","","",""
"1007.0999999046326","","image-keyboard-response","253","871842","0.0-253.0","","img/set1/S4.jpg","74","4","random","74","random,structured_incentive,structured_load,structured_normal","2,1,3,4,2,3","true","",""
"null","","html-keyboard-response","254","872193","0.0-254.0","","<img src=""img/set1/S4.jpg"" width=""540"" height = ""360"" style=""border:16px solid orange"">","null","","","","","","","",""
"null","","html-keyboard-response","255","872394","0.0-255.0","","","null","","","","","","","",""
"583.2000002861023","","image-keyboard-response","256","872978","0.0-256.0","","img/set1/S2.jpg","68","2","random","68","random,structured_incentive,structured_load,structured_normal","2,1,3,4,2,3","true","",""
"null","","html-keyboard-response","257","873330","0.0-257.0","","<img src=""img/set1/S2.jpg"" width=""540"" height = ""360"" style=""border:16px solid orange"">","null","","","","","","","",""
"null","","html-keyboard-response","258","873531","0.0-258.0","","","null","","","","","","","",""
"422.59999990463257","","image-keyboard-response","259","873955","0.0-259.0","","img/set1/S2.jpg","68","2","random","68","random,structured_incentive,structured_load,structured_normal","2,1,3,4,2,3","true","",""
"null","","html-keyboard-response","260","874306","0.0-260.0","","<img src=""img/set1/S2.jpg"" width=""540"" height = ""360"" style=""border:16px solid orange"">","null","","","","","","","",""
"null","","html-keyboard-response","261","874507","0.0-261.0","","","null","","","","","","","",""
"406.6000003814697","","image-keyboard-response","262","874915","0.0-262.0","","img/set1/S2.jpg","68","2","random","68","random,structured_incentive,structured_load,structured_normal","2,1,3,4,2,3","true","",""
"null","","html-keyboard-response","263","875267","0.0-263.0","","<img src=""img/set1/S2.jpg"" width=""540"" height = ""360"" style=""border:16px solid orange"">","null","","","","","","","",""
"null","","html-keyboard-response","264","875468","0.0-264.0","","","null","","","","","","","",""
"598","","image-keyboard-response","265","876067","0.0-265.0","","img/set1/S4.jpg","74","4","random","74","random,structured_incentive,structured_load,structured_normal","2,1,3,4,2,3","true","",""
"null","","html-keyboard-response","266","876418","0.0-266.0","","<img src=""img/set1/S4.jpg"" width=""540"" height = ""360"" style=""border:16px solid orange"">","null","","","","","","","",""
"null","","html-keyboard-response","267","876619","0.0-267.0","","","null","","","","","","","",""
"623.1999998092651","","image-keyboard-response","268","877243","0.0-268.0","","img/set1/S3.jpg","72","3","random","72","random,structured_incentive,structured_load,structured_normal","2,1,3,4,2,3","true","",""
"null","","html-keyboard-response","269","877595","0.0-269.0","","<img src=""img/set1/S3.jpg"" width=""540"" height = ""360"" style=""border:16px solid orange"">","null","","","","","","","",""
"null","","html-keyboard-response","270","877796","0.0-270.0","","","null","","","","","","","",""
"534.5","","image-keyboard-response","271","878331","0.0-271.0","","img/set1/S1.jpg","83","1","random","83","random,structured_incentive,structured_load,structured_normal","2,1,3,4,2,3","true","",""
"null","","html-keyboard-response","272","878683","0.0-272.0","","<img src=""img/set1/S1.jpg"" width=""540"" height = ""360"" style=""border:16px solid orange"">","null","","","","","","","",""
"null","","html-keyboard-response","273","878884","0.0-273.0","","","null","","","","","","","",""
"773.9000000953674","","image-keyboard-response","274","879659","0.0-274.0","","img/set1/S3.jpg","72","3","random","72","random,structured_incentive,structured_load,structured_normal","2,1,3,4,2,3","true","",""
"null","","html-keyboard-response","275","880010","0.0-275.0","","<img src=""img/set1/S3.jpg"" width=""540"" height = ""360"" style=""border:16px solid orange"">","null","","","","","","","",""
"null","","html-keyboard-response","276","880211","0.0-276.0","","","null","","","","","","","",""
"463.09999990463257","","image-keyboard-response","277","880675","0.0-277.0","","img/set1/S3.jpg","72","3","random","72","random,structured_incentive,structured_load,structured_normal","2,1,3,4,2,3","true","",""
"null","","html-keyboard-response","278","881026","0.0-278.0","","<img src=""img/set1/S3.jpg"" width=""540"" height = ""360"" style=""border:16px solid orange"">","null","","","","","","","",""
"null","","html-keyboard-response","279","881227","0.0-279.0","","","null","","","","","","","",""
"423.40000009536743","","image-keyboard-response","280","881651","0.0-280.0","","img/set1/S3.jpg","72","3","random","72","random,structured_incentive,structured_load,structured_normal","2,1,3,4,2,3","true","",""
"null","","html-keyboard-response","281","882003","0.0-281.0","","<img src=""img/set1/S3.jpg"" width=""540"" height = ""360"" style=""border:16px solid orange"">","null","","","","","","","",""
"null","","html-keyboard-response","282","882204","0.0-282.0","","","null","","","","","","","",""
"598.3000001907349","","image-keyboard-response","283","882803","0.0-283.0","","img/set1/S4.jpg","74","4","random","74","random,structured_incentive,structured_load,structured_normal","2,1,3,4,2,3","true","",""
"null","","html-keyboard-response","284","883156","0.0-284.0","","<img src=""img/set1/S4.jpg"" width=""540"" height = ""360"" style=""border:16px solid orange"">","null","","","","","","","",""
"null","","html-keyboard-response","285","883357","0.0-285.0","","","null","","","","","","","",""
"662","","image-keyboard-response","286","884019","0.0-286.0","","img/set1/S1.jpg","83","1","random","83","random,structured_incentive,structured_load,structured_normal","2,1,3,4,2,3","true","",""
"null","","html-keyboard-response","287","884371","0.0-287.0","","<img src=""img/set1/S1.jpg"" width=""540"" height = ""360"" style=""border:16px solid orange"">","null","","","","","","","",""
"null","","html-keyboard-response","288","884572","0.0-288.0","","","null","","","","","","","",""
"431","","image-keyboard-response","289","885004","0.0-289.0","","img/set1/S2.jpg","68","2","random","68","random,structured_incentive,structured_load,structured_normal","2,1,3,4,2,3","true","",""
"null","","html-keyboard-response","290","885355","0.0-290.0","","<img src=""img/set1/S2.jpg"" width=""540"" height = ""360"" style=""border:16px solid orange"">","null","","","","","","","",""
"null","","html-keyboard-response","291","885556","0.0-291.0","","","null","","","","","","","",""
"542.8000001907349","","image-keyboard-response","292","886100","0.0-292.0","","img/set1/S3.jpg","72","3","random","72","random,structured_incentive,structured_load,structured_normal","2,1,3,4,2,3","true","",""
"null","","html-keyboard-response","293","886452","0.0-293.0","","<img src=""img/set1/S3.jpg"" width=""540"" height = ""360"" style=""border:16px solid orange"">","null","","","","","","","",""
"null","","html-keyboard-response","294","886653","0.0-294.0","","","null","","","","","","","",""
"621.9000000953674","","image-keyboard-response","295","887276","0.0-295.0","","img/set1/S3.jpg","72","3","random","72","random,structured_incentive,structured_load,structured_normal","2,1,3,4,2,3","true","",""
"null","","html-keyboard-response","296","887628","0.0-296.0","","<img src=""img/set1/S3.jpg"" width=""540"" height = ""360"" style=""border:16px solid orange"">","null","","","","","","","",""
"null","","html-keyboard-response","297","887829","0.0-297.0","","","null","","","","","","","",""
"486.2999997138977","","image-keyboard-response","298","888316","0.0-298.0","","img/set1/S4.jpg","74","4","random","74","random,structured_incentive,structured_load,structured_normal","2,1,3,4,2,3","true","",""
"null","","html-keyboard-response","299","888668","0.0-299.0","","<img src=""img/set1/S4.jpg"" width=""540"" height = ""360"" style=""border:16px solid orange"">","null","","","","","","","",""
"null","","html-keyboard-response","300","888869","0.0-300.0","","","null","","","","","","","",""
"630.7000002861023","","image-keyboard-response","301","889500","0.0-301.0","","img/set1/S2.jpg","68","2","random","68","random,structured_incentive,structured_load,structured_normal","2,1,3,4,2,3","true","",""
"null","","html-keyboard-response","302","889852","0.0-302.0","","<img src=""img/set1/S2.jpg"" width=""540"" height = ""360"" style=""border:16px solid orange"">","null","","","","","","","",""
"null","","html-keyboard-response","303","890053","0.0-303.0","","","null","","","","","","","",""
"518.5999999046326","","image-keyboard-response","304","890573","0.0-304.0","","img/set1/S3.jpg","72","3","random","72","random,structured_incentive,structured_load,structured_normal","2,1,3,4,2,3","true","",""
"null","","html-keyboard-response","305","890924","0.0-305.0","","<img src=""img/set1/S3.jpg"" width=""540"" height = ""360"" style=""border:16px solid orange"">","null","","","","","","","",""
"null","","html-keyboard-response","306","891125","0.0-306.0","","","null","","","","","","","",""
"558.8000001907349","","image-keyboard-response","307","891685","0.0-307.0","","img/set1/S4.jpg","74","4","random","74","random,structured_incentive,structured_load,structured_normal","2,1,3,4,2,3","true","",""
"null","","html-keyboard-response","308","892036","0.0-308.0","","<img src=""img/set1/S4.jpg"" width=""540"" height = ""360"" style=""border:16px solid orange"">","null","","","","","","","",""
"null","","html-keyboard-response","309","892238","0.0-309.0","","","null","","","","","","","",""
"470.09999990463257","","image-keyboard-response","310","892709","0.0-310.0","","img/set1/S4.jpg","74","4","random","74","random,structured_incentive,structured_load,structured_normal","2,1,3,4,2,3","true","",""
"null","","html-keyboard-response","311","893060","0.0-311.0","","<img src=""img/set1/S4.jpg"" width=""540"" height = ""360"" style=""border:16px solid orange"">","null","","","","","","","",""
"null","","html-keyboard-response","312","893262","0.0-312.0","","","null","","","","","","","",""
"782.6000003814697","","image-keyboard-response","313","894045","0.0-313.0","","img/set1/S1.jpg","83","1","random","83","random,structured_incentive,structured_load,structured_normal","2,1,3,4,2,3","true","",""
"null","","html-keyboard-response","314","894396","0.0-314.0","","<img src=""img/set1/S1.jpg"" width=""540"" height = ""360"" style=""border:16px solid orange"">","null","","","","","","","",""
"null","","html-keyboard-response","315","894598","0.0-315.0","","","null","","","","","","","",""
"630.6999998092651","","image-keyboard-response","316","895229","0.0-316.0","","img/set1/S3.jpg","72","3","random","72","random,structured_incentive,structured_load,structured_normal","2,1,3,4,2,3","true","",""
"null","","html-keyboard-response","317","895581","0.0-317.0","","<img src=""img/set1/S3.jpg"" width=""540"" height = ""360"" style=""border:16px solid orange"">","null","","","","","","","",""
"null","","html-keyboard-response","318","895782","0.0-318.0","","","null","","","","","","","",""
"661.9000000953674","","image-keyboard-response","319","896445","0.0-319.0","","img/set1/S1.jpg","83","1","random","83","random,structured_incentive,structured_load,structured_normal","2,1,3,4,2,3","true","",""
"null","","html-keyboard-response","320","896796","0.0-320.0","","<img src=""img/set1/S1.jpg"" width=""540"" height = ""360"" style=""border:16px solid orange"">","null","","","","","","","",""
"null","","html-keyboard-response","321","896997","0.0-321.0","","","null","","","","","","","",""
"751.5","","image-keyboard-response","322","897749","0.0-322.0","","img/set1/S3.jpg","72","3","random","72","random,structured_incentive,structured_load,structured_normal","2,1,3,4,2,3","true","",""
"null","","html-keyboard-response","323","898100","0.0-323.0","","<img src=""img/set1/S3.jpg"" width=""540"" height = ""360"" style=""border:16px solid orange"">","null","","","","","","","",""
"null","","html-keyboard-response","324","898301","0.0-324.0","","","null","","","","","","","",""
"655.5999999046326","","image-keyboard-response","325","898957","0.0-325.0","","img/set1/S1.jpg","83","1","random","83","random,structured_incentive,structured_load,structured_normal","2,1,3,4,2,3","true","",""
"null","","html-keyboard-response","326","899309","0.0-326.0","","<img src=""img/set1/S1.jpg"" width=""540"" height = ""360"" style=""border:16px solid orange"">","null","","","","","","","",""
"null","","html-keyboard-response","327","899510","0.0-327.0","","","null","","","","","","","",""
"454.30000019073486","","image-keyboard-response","328","899966","0.0-328.0","","img/set1/S1.jpg","83","1","random","83","random,structured_incentive,structured_load,structured_normal","2,1,3,4,2,3","true","",""
"null","","html-keyboard-response","329","900317","0.0-329.0","","<img src=""img/set1/S1.jpg"" width=""540"" height = ""360"" style=""border:16px solid orange"">","null","","","","","","","",""
"null","","html-keyboard-response","330","900518","0.0-330.0","","","null","","","","","","","",""
"502.2999997138977","","image-keyboard-response","331","901022","0.0-331.0","","img/set1/S4.jpg","74","4","random","74","random,structured_incentive,structured_load,structured_normal","2,1,3,4,2,3","true","",""
"null","","html-keyboard-response","332","901373","0.0-332.0","","<img src=""img/set1/S4.jpg"" width=""540"" height = ""360"" style=""border:16px solid orange"">","null","","","","","","","",""
"null","","html-keyboard-response","333","901574","0.0-333.0","","","null","","","","","","","",""
"614.8000001907349","","image-keyboard-response","334","902190","0.0-334.0","","img/set1/S2.jpg","68","2","random","68","random,structured_incentive,structured_load,structured_normal","2,1,3,4,2,3","true","",""
"null","","html-keyboard-response","335","902542","0.0-335.0","","<img src=""img/set1/S2.jpg"" width=""540"" height = ""360"" style=""border:16px solid orange"">","null","","","","","","","",""
"null","","html-keyboard-response","336","902743","0.0-336.0","","","null","","","","","","","",""
"590","","image-keyboard-response","337","903334","0.0-337.0","","img/set1/S3.jpg","72","3","random","72","random,structured_incentive,structured_load,structured_normal","2,1,3,4,2,3","true","",""
"null","","html-keyboard-response","338","903686","0.0-338.0","","<img src=""img/set1/S3.jpg"" width=""540"" height = ""360"" style=""border:16px solid orange"">","null","","","","","","","",""
"null","","html-keyboard-response","339","903887","0.0-339.0","","","null","","","","","","","",""
"566","","image-keyboard-response","340","904454","0.0-340.0","","img/set1/S4.jpg","74","4","random","74","random,structured_incentive,structured_load,structured_normal","2,1,3,4,2,3","true","",""
"null","","html-keyboard-response","341","904806","0.0-341.0","","<img src=""img/set1/S4.jpg"" width=""540"" height = ""360"" style=""border:16px solid orange"">","null","","","","","","","",""
"null","","html-keyboard-response","342","905007","0.0-342.0","","","null","","","","","","","",""
"726.2000002861023","","image-keyboard-response","343","905734","0.0-343.0","","img/set1/S1.jpg","83","1","random","83","random,structured_incentive,structured_load,structured_normal","2,1,3,4,2,3","true","",""
"null","","html-keyboard-response","344","906086","0.0-344.0","","<img src=""img/set1/S1.jpg"" width=""540"" height = ""360"" style=""border:16px solid orange"">","null","","","","","","","",""
"null","","html-keyboard-response","345","906287","0.0-345.0","","","null","","","","","","","",""
"590.7999997138977","","image-keyboard-response","346","906879","0.0-346.0","","img/set1/S2.jpg","68","2","random","68","random,structured_incentive,structured_load,structured_normal","2,1,3,4,2,3","true","",""
"null","","html-keyboard-response","347","907230","0.0-347.0","","<img src=""img/set1/S2.jpg"" width=""540"" height = ""360"" style=""border:16px solid orange"">","null","","","","","","","",""
"null","","html-keyboard-response","348","907432","0.0-348.0","","","null","","","","","","","",""
"878.2000002861023","","image-keyboard-response","349","908311","0.0-349.0","","img/set1/S3.jpg","72","3","random","72","random,structured_incentive,structured_load,structured_normal","2,1,3,4,2,3","true","",""
"null","","html-keyboard-response","350","908662","0.0-350.0","","<img src=""img/set1/S3.jpg"" width=""540"" height = ""360"" style=""border:16px solid orange"">","null","","","","","","","",""
"null","","html-keyboard-response","351","908864","0.0-351.0","","","null","","","","","","","",""
"630.3000001907349","","image-keyboard-response","352","909495","0.0-352.0","","img/set1/S1.jpg","83","1","random","83","random,structured_incentive,structured_load,structured_normal","2,1,3,4,2,3","true","",""
"null","","html-keyboard-response","353","909846","0.0-353.0","","<img src=""img/set1/S1.jpg"" width=""540"" height = ""360"" style=""border:16px solid orange"">","null","","","","","","","",""
"null","","html-keyboard-response","354","910048","0.0-354.0","","","null","","","","","","","",""
"614.4000000953674","","image-keyboard-response","355","910663","0.0-355.0","","img/set1/S1.jpg","83","1","random","83","random,structured_incentive,structured_load,structured_normal","2,1,3,4,2,3","true","",""
"null","","html-keyboard-response","356","911014","0.0-356.0","","<img src=""img/set1/S1.jpg"" width=""540"" height = ""360"" style=""border:16px solid orange"">","null","","","","","","","",""
"null","","html-keyboard-response","357","911215","0.0-357.0","","","null","","","","","","","",""
"1150.7000002861023","","image-keyboard-response","358","912367","0.0-358.0","","img/set1/S3.jpg","72","3","random","72","random,structured_incentive,structured_load,structured_normal","2,1,3,4,2,3","true","",""
"null","","html-keyboard-response","359","912720","0.0-359.0","","<img src=""img/set1/S3.jpg"" width=""540"" height = ""360"" style=""border:16px solid orange"">","null","","","","","","","",""
"null","","html-keyboard-response","360","912921","0.0-360.0","","","null","","","","","","","",""
"557.5999999046326","","image-keyboard-response","361","913479","0.0-361.0","","img/set1/S1.jpg","83","1","random","83","random,structured_incentive,structured_load,structured_normal","2,1,3,4,2,3","true","",""
"null","","html-keyboard-response","362","913831","0.0-362.0","","<img src=""img/set1/S1.jpg"" width=""540"" height = ""360"" style=""border:16px solid orange"">","null","","","","","","","",""
"null","","html-keyboard-response","363","914032","0.0-363.0","","","null","","","","","","","",""
"7975.799999713898","","html-keyboard-response","364","922008","0.0-364.0","","<p class=""center-content"">You have completed a block! </p><p class=""center-content"">Press any key on the keyboard to continue, </p><p class=""center-content"">or wait for the automatic progression to the next block after one minute.</p>","32","","","","","","","",""
"9841.699999809265","","instructions","365","931851","0.0-365.0","[{""page_index"":0,""viewing_time"":9841.39999961853}]","","","","","","","","","",""
"14001.199999809265","","instructions","366","945852","0.0-366.0","[{""page_index"":0,""viewing_time"":8056.400000095367},{""page_index"":1,""viewing_time"":5944.5}]","","","","","","","","","",""
"854.1000003814697","","image-keyboard-response","367","946707","0.0-367.0","","img/set2/S3.jpg","83","3","structured_incentive","72","random,structured_incentive,structured_load,structured_normal","2,1,3,4,2,3","false","",""
"null","","html-keyboard-response","368","947059","0.0-368.0","","<img src=""img/set2/S3.jpg"" width=""540"" height = ""360"">","null","","","","","","","",""
"null","","html-keyboard-response","369","947261","0.0-369.0","","","null","","","","","","","",""
"949.9000000953674","","image-keyboard-response","370","948212","0.0-370.0","","img/set2/S3.jpg","68","3","structured_incentive","72","random,structured_incentive,structured_load,structured_normal","2,1,3,4,2,3","false","",""
"null","","html-keyboard-response","371","948563","0.0-371.0","","<img src=""img/set2/S3.jpg"" width=""540"" height = ""360"">","null","","","","","","","",""
"null","","html-keyboard-response","372","948764","0.0-372.0","","","null","","","","","","","",""
"942.8000001907349","","image-keyboard-response","373","949708","0.0-373.0","","img/set2/S4.jpg","83","4","structured_incentive","74","random,structured_incentive,structured_load,structured_normal","2,1,3,4,2,3","false","",""
"null","","html-keyboard-response","374","950060","0.0-374.0","","<img src=""img/set2/S4.jpg"" width=""540"" height = ""360"">","null","","","","","","","",""
"null","","html-keyboard-response","375","950261","0.0-375.0","","","null","","","","","","","",""
"733.6999998092651","","image-keyboard-response","376","950996","0.0-376.0","","img/set2/S4.jpg","68","4","structured_incentive","74","random,structured_incentive,structured_load,structured_normal","2,1,3,4,2,3","false","",""
"null","","html-keyboard-response","377","951347","0.0-377.0","","<img src=""img/set2/S4.jpg"" width=""540"" height = ""360"">","null","","","","","","","",""
"null","","html-keyboard-response","378","951549","0.0-378.0","","","null","","","","","","","",""
"934.5","","image-keyboard-response","379","952484","0.0-379.0","","img/set2/S3.jpg","72","3","structured_incentive","72","random,structured_incentive,structured_load,structured_normal","2,1,3,4,2,3","true","",""
"null","","html-keyboard-response","380","952835","0.0-380.0","","<img src=""img/set2/S3.jpg"" width=""540"" height = ""360"" style=""border:16px solid orange"">","null","","","","","","","",""
"null","","html-keyboard-response","381","953037","0.0-381.0","","","null","","","","","","","",""
"974.5999999046326","","image-keyboard-response","382","954012","0.0-382.0","","img/set2/S2.jpg","83","2","structured_incentive","68","random,structured_incentive,structured_load,structured_normal","2,1,3,4,2,3","false","",""
"null","","html-keyboard-response","383","954363","0.0-383.0","","<img src=""img/set2/S2.jpg"" width=""540"" height = ""360"">","null","","","","","","","",""
"null","","html-keyboard-response","384","954564","0.0-384.0","","","null","","","","","","","",""
"879.0999999046326","","image-keyboard-response","385","955444","0.0-385.0","","img/set2/S1.jpg","83","1","structured_incentive","83","random,structured_incentive,structured_load,structured_normal","2,1,3,4,2,3","true","",""
"null","","html-keyboard-response","386","955796","0.0-386.0","","<img src=""img/set2/S1.jpg"" width=""540"" height = ""360"" style=""border:16px solid Violet"">","null","","","","","","","",""
"null","","html-keyboard-response","387","955997","0.0-387.0","","","null","","","","","","","",""
"1070.8000001907349","","image-keyboard-response","388","957068","0.0-388.0","","img/set2/S2.jpg","68","2","structured_incentive","68","random,structured_incentive,structured_load,structured_normal","2,1,3,4,2,3","true","",""
"null","","html-keyboard-response","389","957420","0.0-389.0","","<img src=""img/set2/S2.jpg"" width=""540"" height = ""360"" style=""border:16px solid orange"">","null","","","","","","","",""
"null","","html-keyboard-response","390","957621","0.0-390.0","","","null","","","","","","","",""
"998.5","","image-keyboard-response","391","958621","0.0-391.0","","img/set2/S1.jpg","83","1","structured_incentive","83","random,structured_incentive,structured_load,structured_normal","2,1,3,4,2,3","true","",""
"null","","html-keyboard-response","392","958973","0.0-392.0","","<img src=""img/set2/S1.jpg"" width=""540"" height = ""360"" style=""border:16px solid Violet"">","null","","","","","","","",""
"null","","html-keyboard-response","393","959173","0.0-393.0","","","null","","","","","","","",""
"990.2000002861023","","image-keyboard-response","394","960165","0.0-394.0","","img/set2/S4.jpg","74","4","structured_incentive","74","random,structured_incentive,structured_load,structured_normal","2,1,3,4,2,3","true","",""
"null","","html-keyboard-response","395","960517","0.0-395.0","","<img src=""img/set2/S4.jpg"" width=""540"" height = ""360"" style=""border:16px solid orange"">","null","","","","","","","",""
"null","","html-keyboard-response","396","960718","0.0-396.0","","","null","","","","","","","",""
"1253.5","","image-keyboard-response","397","961973","0.0-397.0","","img/set2/S2.jpg","83","2","structured_incentive","68","random,structured_incentive,structured_load,structured_normal","2,1,3,4,2,3","false","",""
"null","","html-keyboard-response","398","962324","0.0-398.0","","<img src=""img/set2/S2.jpg"" width=""540"" height = ""360"">","null","","","","","","","",""
"null","","html-keyboard-response","399","962525","0.0-399.0","","","null","","","","","","","",""
"862.8999996185303","","image-keyboard-response","400","963389","0.0-400.0","","img/set2/S1.jpg","83","1","structured_incentive","83","random,structured_incentive,structured_load,structured_normal","2,1,3,4,2,3","true","",""
"null","","html-keyboard-response","401","963742","0.0-401.0","","<img src=""img/set2/S1.jpg"" width=""540"" height = ""360"" style=""border:16px solid Violet"">","null","","","","","","","",""
"null","","html-keyboard-response","402","963943","0.0-402.0","","","null","","","","","","","",""
"1070","","image-keyboard-response","403","965013","0.0-403.0","","img/set2/S3.jpg","72","3","structured_incentive","72","random,structured_incentive,structured_load,structured_normal","2,1,3,4,2,3","true","",""
"null","","html-keyboard-response","404","965365","0.0-404.0","","<img src=""img/set2/S3.jpg"" width=""540"" height = ""360"" style=""border:16px solid orange"">","null","","","","","","","",""
"null","","html-keyboard-response","405","965566","0.0-405.0","","","null","","","","","","","",""
"1614.7999997138977","","image-keyboard-response","406","967182","0.0-406.0","","img/set2/S4.jpg","68","4","structured_incentive","74","random,structured_incentive,structured_load,structured_normal","2,1,3,4,2,3","false","",""
"null","","html-keyboard-response","407","967533","0.0-407.0","","<img src=""img/set2/S4.jpg"" width=""540"" height = ""360"">","null","","","","","","","",""
"null","","html-keyboard-response","408","967734","0.0-408.0","","","null","","","","","","","",""
"1550.4000000953674","","image-keyboard-response","409","969286","0.0-409.0","","img/set2/S4.jpg","74","4","structured_incentive","74","random,structured_incentive,structured_load,structured_normal","2,1,3,4,2,3","true","",""
"null","","html-keyboard-response","410","969637","0.0-410.0","","<img src=""img/set2/S4.jpg"" width=""540"" height = ""360"" style=""border:16px solid orange"">","null","","","","","","","",""
"null","","html-keyboard-response","411","969838","0.0-411.0","","","null","","","","","","","",""
"2478.699999809265","","image-keyboard-response","412","972318","0.0-412.0","","img/set2/S3.jpg","74","3","structured_incentive","72","random,structured_incentive,structured_load,structured_normal","2,1,3,4,2,3","false","",""
"null","","html-keyboard-response","413","972669","0.0-413.0","","<img src=""img/set2/S3.jpg"" width=""540"" height = ""360"">","null","","","","","","","",""
"null","","html-keyboard-response","414","972870","0.0-414.0","","","null","","","","","","","",""
"1367.0999999046326","","image-keyboard-response","415","974238","0.0-415.0","","img/set2/S2.jpg","72","2","structured_incentive","68","random,structured_incentive,structured_load,structured_normal","2,1,3,4,2,3","false","",""
"null","","html-keyboard-response","416","974590","0.0-416.0","","<img src=""img/set2/S2.jpg"" width=""540"" height = ""360"">","null","","","","","","","",""
"null","","html-keyboard-response","417","974791","0.0-417.0","","","null","","","","","","","",""
"726.3999996185303","","image-keyboard-response","418","975519","0.0-418.0","","img/set2/S1.jpg","83","1","structured_incentive","83","random,structured_incentive,structured_load,structured_normal","2,1,3,4,2,3","true","",""
"null","","html-keyboard-response","419","975870","0.0-419.0","","<img src=""img/set2/S1.jpg"" width=""540"" height = ""360"" style=""border:16px solid Violet"">","null","","","","","","","",""
"null","","html-keyboard-response","420","976071","0.0-420.0","","","null","","","","","","","",""
"750.7999997138977","","image-keyboard-response","421","976823","0.0-421.0","","img/set2/S4.jpg","68","4","structured_incentive","74","random,structured_incentive,structured_load,structured_normal","2,1,3,4,2,3","false","",""
"null","","html-keyboard-response","422","977174","0.0-422.0","","<img src=""img/set2/S4.jpg"" width=""540"" height = ""360"">","null","","","","","","","",""
"null","","html-keyboard-response","423","977375","0.0-423.0","","","null","","","","","","","",""
"1263.1999998092651","","image-keyboard-response","424","978639","0.0-424.0","","img/set2/S3.jpg","68","3","structured_incentive","72","random,structured_incentive,structured_load,structured_normal","2,1,3,4,2,3","false","",""
"null","","html-keyboard-response","425","978991","0.0-425.0","","<img src=""img/set2/S3.jpg"" width=""540"" height = ""360"">","null","","","","","","","",""
"null","","html-keyboard-response","426","979192","0.0-426.0","","","null","","","","","","","",""
"1621.9000000953674","","image-keyboard-response","427","980815","0.0-427.0","","img/set2/S4.jpg","72","4","structured_incentive","74","random,structured_incentive,structured_load,structured_normal","2,1,3,4,2,3","false","",""
"null","","html-keyboard-response","428","981167","0.0-428.0","","<img src=""img/set2/S4.jpg"" width=""540"" height = ""360"">","null","","","","","","","",""
"null","","html-keyboard-response","429","981368","0.0-429.0","","","null","","","","","","","",""
"862.9000000953674","","image-keyboard-response","430","982231","0.0-430.0","","img/set2/S3.jpg","72","3","structured_incentive","72","random,structured_incentive,structured_load,structured_normal","2,1,3,4,2,3","true","",""
"null","","html-keyboard-response","431","982583","0.0-431.0","","<img src=""img/set2/S3.jpg"" width=""540"" height = ""360"" style=""border:16px solid orange"">","null","","","","","","","",""
"null","","html-keyboard-response","432","982784","0.0-432.0","","","null","","","","","","","",""
"1350.2999997138977","","image-keyboard-response","433","984135","0.0-433.0","","img/set2/S4.jpg","74","4","structured_incentive","74","random,structured_incentive,structured_load,structured_normal","2,1,3,4,2,3","true","",""
"null","","html-keyboard-response","434","984487","0.0-434.0","","<img src=""img/set2/S4.jpg"" width=""540"" height = ""360"" style=""border:16px solid orange"">","null","","","","","","","",""
"null","","html-keyboard-response","435","984688","0.0-435.0","","","null","","","","","","","",""
"871","","image-keyboard-response","436","985559","0.0-436.0","","img/set2/S3.jpg","72","3","structured_incentive","72","random,structured_incentive,structured_load,structured_normal","2,1,3,4,2,3","true","",""
"null","","html-keyboard-response","437","985911","0.0-437.0","","<img src=""img/set2/S3.jpg"" width=""540"" height = ""360"" style=""border:16px solid orange"">","null","","","","","","","",""
"null","","html-keyboard-response","438","986112","0.0-438.0","","","null","","","","","","","",""
"886.8000001907349","","image-keyboard-response","439","987000","0.0-439.0","","img/set2/S2.jpg","68","2","structured_incentive","68","random,structured_incentive,structured_load,structured_normal","2,1,3,4,2,3","true","",""
"null","","html-keyboard-response","440","987352","0.0-440.0","","<img src=""img/set2/S2.jpg"" width=""540"" height = ""360"" style=""border:16px solid orange"">","null","","","","","","","",""
"null","","html-keyboard-response","441","987553","0.0-441.0","","","null","","","","","","","",""
"582.2000002861023","","image-keyboard-response","442","988136","0.0-442.0","","img/set2/S1.jpg","83","1","structured_incentive","83","random,structured_incentive,structured_load,structured_normal","2,1,3,4,2,3","true","",""
"null","","html-keyboard-response","443","988487","0.0-443.0","","<img src=""img/set2/S1.jpg"" width=""540"" height = ""360"" style=""border:16px solid Violet"">","null","","","","","","","",""
"null","","html-keyboard-response","444","988689","0.0-444.0","","","null","","","","","","","",""
"670.8000001907349","","image-keyboard-response","445","989360","0.0-445.0","","img/set2/S2.jpg","68","2","structured_incentive","68","random,structured_incentive,structured_load,structured_normal","2,1,3,4,2,3","true","",""
"null","","html-keyboard-response","446","989712","0.0-446.0","","<img src=""img/set2/S2.jpg"" width=""540"" height = ""360"" style=""border:16px solid orange"">","null","","","","","","","",""
"null","","html-keyboard-response","447","989913","0.0-447.0","","","null","","","","","","","",""
"702.3000001907349","","image-keyboard-response","448","990616","0.0-448.0","","img/set2/S1.jpg","83","1","structured_incentive","83","random,structured_incentive,structured_load,structured_normal","2,1,3,4,2,3","true","",""
"null","","html-keyboard-response","449","990967","0.0-449.0","","<img src=""img/set2/S1.jpg"" width=""540"" height = ""360"" style=""border:16px solid Violet"">","null","","","","","","","",""
"null","","html-keyboard-response","450","991168","0.0-450.0","","","null","","","","","","","",""
"1815.5","","image-keyboard-response","451","992984","0.0-451.0","","img/set2/S3.jpg","72","3","structured_incentive","72","random,structured_incentive,structured_load,structured_normal","2,1,3,4,2,3","true","",""
"null","","html-keyboard-response","452","993336","0.0-452.0","","<img src=""img/set2/S3.jpg"" width=""540"" height = ""360"" style=""border:16px solid orange"">","null","","","","","","","",""
"null","","html-keyboard-response","453","993537","0.0-453.0","","","null","","","","","","","",""
"774.4000000953674","","image-keyboard-response","454","994313","0.0-454.0","","img/set2/S2.jpg","68","2","structured_incentive","68","random,structured_incentive,structured_load,structured_normal","2,1,3,4,2,3","true","",""
"null","","html-keyboard-response","455","994664","0.0-455.0","","<img src=""img/set2/S2.jpg"" width=""540"" height = ""360"" style=""border:16px solid orange"">","null","","","","","","","",""
"null","","html-keyboard-response","456","994865","0.0-456.0","","","null","","","","","","","",""
"678.9000000953674","","image-keyboard-response","457","995545","0.0-457.0","","img/set2/S1.jpg","83","1","structured_incentive","83","random,structured_incentive,structured_load,structured_normal","2,1,3,4,2,3","true","",""
"null","","html-keyboard-response","458","995896","0.0-458.0","","<img src=""img/set2/S1.jpg"" width=""540"" height = ""360"" style=""border:16px solid Violet"">","null","","","","","","","",""
"null","","html-keyboard-response","459","996097","0.0-459.0","","","null","","","","","","","",""
"1807","","image-keyboard-response","460","997905","0.0-460.0","","img/set2/S3.jpg","72","3","structured_incentive","72","random,structured_incentive,structured_load,structured_normal","2,1,3,4,2,3","true","",""
"null","","html-keyboard-response","461","998256","0.0-461.0","","<img src=""img/set2/S3.jpg"" width=""540"" height = ""360"" style=""border:16px solid orange"">","null","","","","","","","",""
"null","","html-keyboard-response","462","998458","0.0-462.0","","","null","","","","","","","",""
"622.5","","image-keyboard-response","463","999081","0.0-463.0","","img/set2/S4.jpg","74","4","structured_incentive","74","random,structured_incentive,structured_load,structured_normal","2,1,3,4,2,3","true","",""
"null","","html-keyboard-response","464","999432","0.0-464.0","","<img src=""img/set2/S4.jpg"" width=""540"" height = ""360"" style=""border:16px solid orange"">","null","","","","","","","",""
"null","","html-keyboard-response","465","999633","0.0-465.0","","","null","","","","","","","",""
"703.4000000953674","","image-keyboard-response","466","1000337","0.0-466.0","","img/set2/S3.jpg","72","3","structured_incentive","72","random,structured_incentive,structured_load,structured_normal","2,1,3,4,2,3","true","",""
"null","","html-keyboard-response","467","1000689","0.0-467.0","","<img src=""img/set2/S3.jpg"" width=""540"" height = ""360"" style=""border:16px solid orange"">","null","","","","","","","",""
"null","","html-keyboard-response","468","1000891","0.0-468.0","","","null","","","","","","","",""
"534","","image-keyboard-response","469","1001425","0.0-469.0","","img/set2/S4.jpg","74","4","structured_incentive","74","random,structured_incentive,structured_load,structured_normal","2,1,3,4,2,3","true","",""
"null","","html-keyboard-response","470","1001776","0.0-470.0","","<img src=""img/set2/S4.jpg"" width=""540"" height = ""360"" style=""border:16px solid orange"">","null","","","","","","","",""
"null","","html-keyboard-response","471","1001978","0.0-471.0","","","null","","","","","","","",""
"559.0999999046326","","image-keyboard-response","472","1002537","0.0-472.0","","img/set2/S4.jpg","74","4","structured_incentive","74","random,structured_incentive,structured_load,structured_normal","2,1,3,4,2,3","true","",""
"null","","html-keyboard-response","473","1002889","0.0-473.0","","<img src=""img/set2/S4.jpg"" width=""540"" height = ""360"" style=""border:16px solid orange"">","null","","","","","","","",""
"null","","html-keyboard-response","474","1003090","0.0-474.0","","","null","","","","","","","",""
"526.9000000953674","","image-keyboard-response","475","1003618","0.0-475.0","","img/set2/S3.jpg","72","3","structured_incentive","72","random,structured_incentive,structured_load,structured_normal","2,1,3,4,2,3","true","",""
"null","","html-keyboard-response","476","1003969","0.0-476.0","","<img src=""img/set2/S3.jpg"" width=""540"" height = ""360"" style=""border:16px solid orange"">","null","","","","","","","",""
"null","","html-keyboard-response","477","1004170","0.0-477.0","","","null","","","","","","","",""
"639.0999999046326","","image-keyboard-response","478","1004810","0.0-478.0","","img/set2/S2.jpg","68","2","structured_incentive","68","random,structured_incentive,structured_load,structured_normal","2,1,3,4,2,3","true","",""
"null","","html-keyboard-response","479","1005161","0.0-479.0","","<img src=""img/set2/S2.jpg"" width=""540"" height = ""360"" style=""border:16px solid orange"">","null","","","","","","","",""
"null","","html-keyboard-response","480","1005362","0.0-480.0","","","null","","","","","","","",""
"535","","image-keyboard-response","481","1005898","0.0-481.0","","img/set2/S1.jpg","83","1","structured_incentive","83","random,structured_incentive,structured_load,structured_normal","2,1,3,4,2,3","true","",""
"null","","html-keyboard-response","482","1006249","0.0-482.0","","<img src=""img/set2/S1.jpg"" width=""540"" height = ""360"" style=""border:16px solid Violet"">","null","","","","","","","",""
"null","","html-keyboard-response","483","1006450","0.0-483.0","","","null","","","","","","","",""
"902.8000001907349","","image-keyboard-response","484","1007354","0.0-484.0","","img/set2/S3.jpg","72","3","structured_incentive","72","random,structured_incentive,structured_load,structured_normal","2,1,3,4,2,3","true","",""
"null","","html-keyboard-response","485","1007705","0.0-485.0","","<img src=""img/set2/S3.jpg"" width=""540"" height = ""360"" style=""border:16px solid orange"">","null","","","","","","","",""
"null","","html-keyboard-response","486","1007906","0.0-486.0","","","null","","","","","","","",""
"455","","image-keyboard-response","487","1008362","0.0-487.0","","img/set2/S3.jpg","72","3","structured_incentive","72","random,structured_incentive,structured_load,structured_normal","2,1,3,4,2,3","true","",""
"null","","html-keyboard-response","488","1008714","0.0-488.0","","<img src=""img/set2/S3.jpg"" width=""540"" height = ""360"" style=""border:16px solid orange"">","null","","","","","","","",""
"null","","html-keyboard-response","489","1008915","0.0-489.0","","","null","","","","","","","",""
"654.5999999046326","","image-keyboard-response","490","1009570","0.0-490.0","","img/set2/S4.jpg","74","4","structured_incentive","74","random,structured_incentive,structured_load,structured_normal","2,1,3,4,2,3","true","",""
"null","","html-keyboard-response","491","1009922","0.0-491.0","","<img src=""img/set2/S4.jpg"" width=""540"" height = ""360"" style=""border:16px solid orange"">","null","","","","","","","",""
"null","","html-keyboard-response","492","1010123","0.0-492.0","","","null","","","","","","","",""
"630.5999999046326","","image-keyboard-response","493","1010755","0.0-493.0","","img/set2/S2.jpg","68","2","structured_incentive","68","random,structured_incentive,structured_load,structured_normal","2,1,3,4,2,3","true","",""
"null","","html-keyboard-response","494","1011107","0.0-494.0","","<img src=""img/set2/S2.jpg"" width=""540"" height = ""360"" style=""border:16px solid orange"">","null","","","","","","","",""
"null","","html-keyboard-response","495","1011308","0.0-495.0","","","null","","","","","","","",""
"941.8000001907349","","image-keyboard-response","496","1012251","0.0-496.0","","img/set2/S1.jpg","83","1","structured_incentive","83","random,structured_incentive,structured_load,structured_normal","2,1,3,4,2,3","true","",""
"null","","html-keyboard-response","497","1012602","0.0-497.0","","<img src=""img/set2/S1.jpg"" width=""540"" height = ""360"" style=""border:16px solid Violet"">","null","","","","","","","",""
"null","","html-keyboard-response","498","1012803","0.0-498.0","","","null","","","","","","","",""
"967","","image-keyboard-response","499","1013771","0.0-499.0","","img/set2/S2.jpg","68","2","structured_incentive","68","random,structured_incentive,structured_load,structured_normal","2,1,3,4,2,3","true","",""
"null","","html-keyboard-response","500","1014122","0.0-500.0","","<img src=""img/set2/S2.jpg"" width=""540"" height = ""360"" style=""border:16px solid orange"">","null","","","","","","","",""
"null","","html-keyboard-response","501","1014324","0.0-501.0","","","null","","","","","","","",""
"606.5","","image-keyboard-response","502","1014931","0.0-502.0","","img/set2/S1.jpg","83","1","structured_incentive","83","random,structured_incentive,structured_load,structured_normal","2,1,3,4,2,3","true","",""
"null","","html-keyboard-response","503","1015283","0.0-503.0","","<img src=""img/set2/S1.jpg"" width=""540"" height = ""360"" style=""border:16px solid Violet"">","null","","","","","","","",""
"null","","html-keyboard-response","504","1015484","0.0-504.0","","","null","","","","","","","",""
"742.0999999046326","","image-keyboard-response","505","1016227","0.0-505.0","","img/set2/S4.jpg","74","4","structured_incentive","74","random,structured_incentive,structured_load,structured_normal","2,1,3,4,2,3","true","",""
"null","","html-keyboard-response","506","1016578","0.0-506.0","","<img src=""img/set2/S4.jpg"" width=""540"" height = ""360"" style=""border:16px solid orange"">","null","","","","","","","",""
"null","","html-keyboard-response","507","1016779","0.0-507.0","","","null","","","","","","","",""
"503.7000002861023","","image-keyboard-response","508","1017283","0.0-508.0","","img/set2/S4.jpg","74","4","structured_incentive","74","random,structured_incentive,structured_load,structured_normal","2,1,3,4,2,3","true","",""
"null","","html-keyboard-response","509","1017635","0.0-509.0","","<img src=""img/set2/S4.jpg"" width=""540"" height = ""360"" style=""border:16px solid orange"">","null","","","","","","","",""
"null","","html-keyboard-response","510","1017837","0.0-510.0","","","null","","","","","","","",""
"397.7999997138977","","image-keyboard-response","511","1018235","0.0-511.0","","img/set2/S4.jpg","74","4","structured_incentive","74","random,structured_incentive,structured_load,structured_normal","2,1,3,4,2,3","true","",""
"null","","html-keyboard-response","512","1018587","0.0-512.0","","<img src=""img/set2/S4.jpg"" width=""540"" height = ""360"" style=""border:16px solid orange"">","null","","","","","","","",""
"null","","html-keyboard-response","513","1018788","0.0-513.0","","","null","","","","","","","",""
"854.1999998092651","","image-keyboard-response","514","1019643","0.0-514.0","","img/set2/S2.jpg","68","2","structured_incentive","68","random,structured_incentive,structured_load,structured_normal","2,1,3,4,2,3","true","",""
"null","","html-keyboard-response","515","1019994","0.0-515.0","","<img src=""img/set2/S2.jpg"" width=""540"" height = ""360"" style=""border:16px solid orange"">","null","","","","","","","",""
"null","","html-keyboard-response","516","1020195","0.0-516.0","","","null","","","","","","","",""
"591.8000001907349","","image-keyboard-response","517","1020788","0.0-517.0","","img/set2/S1.jpg","83","1","structured_incentive","83","random,structured_incentive,structured_load,structured_normal","2,1,3,4,2,3","true","",""
"null","","html-keyboard-response","518","1021139","0.0-518.0","","<img src=""img/set2/S1.jpg"" width=""540"" height = ""360"" style=""border:16px solid Violet"">","null","","","","","","","",""
"null","","html-keyboard-response","519","1021340","0.0-519.0","","","null","","","","","","","",""
"974.6999998092651","","image-keyboard-response","520","1022316","0.0-520.0","","img/set2/S2.jpg","68","2","structured_incentive","68","random,structured_incentive,structured_load,structured_normal","2,1,3,4,2,3","true","",""
"null","","html-keyboard-response","521","1022668","0.0-521.0","","<img src=""img/set2/S2.jpg"" width=""540"" height = ""360"" style=""border:16px solid orange"">","null","","","","","","","",""
"null","","html-keyboard-response","522","1022869","0.0-522.0","","","null","","","","","","","",""
"518.2999997138977","","image-keyboard-response","523","1023388","0.0-523.0","","img/set2/S1.jpg","83","1","structured_incentive","83","random,structured_incentive,structured_load,structured_normal","2,1,3,4,2,3","true","",""
"null","","html-keyboard-response","524","1023739","0.0-524.0","","<img src=""img/set2/S1.jpg"" width=""540"" height = ""360"" style=""border:16px solid Violet"">","null","","","","","","","",""
"null","","html-keyboard-response","525","1023941","0.0-525.0","","","null","","","","","","","",""
"966.7000002861023","","image-keyboard-response","526","1024908","0.0-526.0","","img/set2/S3.jpg","72","3","structured_incentive","72","random,structured_incentive,structured_load,structured_normal","2,1,3,4,2,3","true","",""
"null","","html-keyboard-response","527","1025260","0.0-527.0","","<img src=""img/set2/S3.jpg"" width=""540"" height = ""360"" style=""border:16px solid orange"">","null","","","","","","","",""
"null","","html-keyboard-response","528","1025461","0.0-528.0","","","null","","","","","","","",""
"1006.9000000953674","","image-keyboard-response","529","1026469","0.0-529.0","","img/set2/S2.jpg","68","2","structured_incentive","68","random,structured_incentive,structured_load,structured_normal","2,1,3,4,2,3","true","",""
"null","","html-keyboard-response","530","1026820","0.0-530.0","","<img src=""img/set2/S2.jpg"" width=""540"" height = ""360"" style=""border:16px solid orange"">","null","","","","","","","",""
"null","","html-keyboard-response","531","1027021","0.0-531.0","","","null","","","","","","","",""
"638","","image-keyboard-response","532","1027660","0.0-532.0","","img/set2/S1.jpg","83","1","structured_incentive","83","random,structured_incentive,structured_load,structured_normal","2,1,3,4,2,3","true","",""
"null","","html-keyboard-response","533","1028012","0.0-533.0","","<img src=""img/set2/S1.jpg"" width=""540"" height = ""360"" style=""border:16px solid Violet"">","null","","","","","","","",""
"null","","html-keyboard-response","534","1028213","0.0-534.0","","","null","","","","","","","",""
"694.7000002861023","","image-keyboard-response","535","1028908","0.0-535.0","","img/set2/S3.jpg","72","3","structured_incentive","72","random,structured_incentive,structured_load,structured_normal","2,1,3,4,2,3","true","",""
"null","","html-keyboard-response","536","1029260","0.0-536.0","","<img src=""img/set2/S3.jpg"" width=""540"" height = ""360"" style=""border:16px solid orange"">","null","","","","","","","",""
"null","","html-keyboard-response","537","1029461","0.0-537.0","","","null","","","","","","","",""
"614.7000002861023","","image-keyboard-response","538","1030077","0.0-538.0","","img/set2/S3.jpg","72","3","structured_incentive","72","random,structured_incentive,structured_load,structured_normal","2,1,3,4,2,3","true","",""
"null","","html-keyboard-response","539","1030428","0.0-539.0","","<img src=""img/set2/S3.jpg"" width=""540"" height = ""360"" style=""border:16px solid orange"">","null","","","","","","","",""
"null","","html-keyboard-response","540","1030629","0.0-540.0","","","null","","","","","","","",""
"519.3999996185303","","image-keyboard-response","541","1031149","0.0-541.0","","img/set2/S3.jpg","72","3","structured_incentive","72","random,structured_incentive,structured_load,structured_normal","2,1,3,4,2,3","true","",""
"null","","html-keyboard-response","542","1031501","0.0-542.0","","<img src=""img/set2/S3.jpg"" width=""540"" height = ""360"" style=""border:16px solid orange"">","null","","","","","","","",""
"null","","html-keyboard-response","543","1031702","0.0-543.0","","","null","","","","","","","",""
"686.3999996185303","","image-keyboard-response","544","1032389","0.0-544.0","","img/set2/S2.jpg","68","2","structured_incentive","68","random,structured_incentive,structured_load,structured_normal","2,1,3,4,2,3","true","",""
"null","","html-keyboard-response","545","1032740","0.0-545.0","","<img src=""img/set2/S2.jpg"" width=""540"" height = ""360"" style=""border:16px solid orange"">","null","","","","","","","",""
"null","","html-keyboard-response","546","1032941","0.0-546.0","","","null","","","","","","","",""
"551","","image-keyboard-response","547","1033493","0.0-547.0","","img/set2/S1.jpg","83","1","structured_incentive","83","random,structured_incentive,structured_load,structured_normal","2,1,3,4,2,3","true","",""
"null","","html-keyboard-response","548","1033845","0.0-548.0","","<img src=""img/set2/S1.jpg"" width=""540"" height = ""360"" style=""border:16px solid Violet"">","null","","","","","","","",""
"null","","html-keyboard-response","549","1034046","0.0-549.0","","","null","","","","","","","",""
"654","","image-keyboard-response","550","1034701","0.0-550.0","","img/set2/S4.jpg","74","4","structured_incentive","74","random,structured_incentive,structured_load,structured_normal","2,1,3,4,2,3","true","",""
"null","","html-keyboard-response","551","1035053","0.0-551.0","","<img src=""img/set2/S4.jpg"" width=""540"" height = ""360"" style=""border:16px solid orange"">","null","","","","","","","",""
"null","","html-keyboard-response","552","1035254","0.0-552.0","","","null","","","","","","","",""
"406.30000019073486","","image-keyboard-response","553","1035661","0.0-553.0","","img/set2/S4.jpg","74","4","structured_incentive","74","random,structured_incentive,structured_load,structured_normal","2,1,3,4,2,3","true","",""
"null","","html-keyboard-response","554","1036013","0.0-554.0","","<img src=""img/set2/S4.jpg"" width=""540"" height = ""360"" style=""border:16px solid orange"">","null","","","","","","","",""
"null","","html-keyboard-response","555","1036214","0.0-555.0","","","null","","","","","","","",""
"1550.3999996185303","","image-keyboard-response","556","1037765","0.0-556.0","","img/set2/S3.jpg","72","3","structured_incentive","72","random,structured_incentive,structured_load,structured_normal","2,1,3,4,2,3","true","",""
"null","","html-keyboard-response","557","1038117","0.0-557.0","","<img src=""img/set2/S3.jpg"" width=""540"" height = ""360"" style=""border:16px solid orange"">","null","","","","","","","",""
"null","","html-keyboard-response","558","1038318","0.0-558.0","","","null","","","","","","","",""
"430.40000009536743","","image-keyboard-response","559","1038749","0.0-559.0","","img/set2/S3.jpg","72","3","structured_incentive","72","random,structured_incentive,structured_load,structured_normal","2,1,3,4,2,3","true","",""
"null","","html-keyboard-response","560","1039101","0.0-560.0","","<img src=""img/set2/S3.jpg"" width=""540"" height = ""360"" style=""border:16px solid orange"">","null","","","","","","","",""
"null","","html-keyboard-response","561","1039302","0.0-561.0","","","null","","","","","","","",""
"822.5999999046326","","image-keyboard-response","562","1040126","0.0-562.0","","img/set2/S2.jpg","68","2","structured_incentive","68","random,structured_incentive,structured_load,structured_normal","2,1,3,4,2,3","true","",""
"null","","html-keyboard-response","563","1040477","0.0-563.0","","<img src=""img/set2/S2.jpg"" width=""540"" height = ""360"" style=""border:16px solid orange"">","null","","","","","","","",""
"null","","html-keyboard-response","564","1040679","0.0-564.0","","","null","","","","","","","",""
"462","","image-keyboard-response","565","1041142","0.0-565.0","","img/set2/S1.jpg","83","1","structured_incentive","83","random,structured_incentive,structured_load,structured_normal","2,1,3,4,2,3","true","",""
"null","","html-keyboard-response","566","1041493","0.0-566.0","","<img src=""img/set2/S1.jpg"" width=""540"" height = ""360"" style=""border:16px solid Violet"">","null","","","","","","","",""
"null","","html-keyboard-response","567","1041694","0.0-567.0","","","null","","","","","","","",""
"623.4000000953674","","image-keyboard-response","568","1042318","0.0-568.0","","img/set2/S4.jpg","74","4","structured_incentive","74","random,structured_incentive,structured_load,structured_normal","2,1,3,4,2,3","true","",""
"null","","html-keyboard-response","569","1042670","0.0-569.0","","<img src=""img/set2/S4.jpg"" width=""540"" height = ""360"" style=""border:16px solid orange"">","null","","","","","","","",""
"null","","html-keyboard-response","570","1042871","0.0-570.0","","","null","","","","","","","",""
"398","","image-keyboard-response","571","1043270","0.0-571.0","","img/set2/S4.jpg","74","4","structured_incentive","74","random,structured_incentive,structured_load,structured_normal","2,1,3,4,2,3","true","",""
"null","","html-keyboard-response","572","1043622","0.0-572.0","","<img src=""img/set2/S4.jpg"" width=""540"" height = ""360"" style=""border:16px solid orange"">","null","","","","","","","",""
"null","","html-keyboard-response","573","1043822","0.0-573.0","","","null","","","","","","","",""
"383.09999990463257","","image-keyboard-response","574","1044206","0.0-574.0","","img/set2/S4.jpg","74","4","structured_incentive","74","random,structured_incentive,structured_load,structured_normal","2,1,3,4,2,3","true","",""
"null","","html-keyboard-response","575","1044558","0.0-575.0","","<img src=""img/set2/S4.jpg"" width=""540"" height = ""360"" style=""border:16px solid orange"">","null","","","","","","","",""
"null","","html-keyboard-response","576","1044759","0.0-576.0","","","null","","","","","","","",""
"1110.4000000953674","","image-keyboard-response","577","1045870","0.0-577.0","","img/set2/S2.jpg","68","2","structured_incentive","68","random,structured_incentive,structured_load,structured_normal","2,1,3,4,2,3","true","",""
"null","","html-keyboard-response","578","1046222","0.0-578.0","","<img src=""img/set2/S2.jpg"" width=""540"" height = ""360"" style=""border:16px solid orange"">","null","","","","","","","",""
"null","","html-keyboard-response","579","1046423","0.0-579.0","","","null","","","","","","","",""
"630.2999997138977","","image-keyboard-response","580","1047054","0.0-580.0","","img/set2/S1.jpg","83","1","structured_incentive","83","random,structured_incentive,structured_load,structured_normal","2,1,3,4,2,3","true","",""
"null","","html-keyboard-response","581","1047406","0.0-581.0","","<img src=""img/set2/S1.jpg"" width=""540"" height = ""360"" style=""border:16px solid Violet"">","null","","","","","","","",""
"null","","html-keyboard-response","582","1047607","0.0-582.0","","","null","","","","","","","",""
"670.6999998092651","","image-keyboard-response","583","1048279","0.0-583.0","","img/set2/S4.jpg","74","4","structured_incentive","74","random,structured_incentive,structured_load,structured_normal","2,1,3,4,2,3","true","",""
"null","","html-keyboard-response","584","1048630","0.0-584.0","","<img src=""img/set2/S4.jpg"" width=""540"" height = ""360"" style=""border:16px solid orange"">","null","","","","","","","",""
"null","","html-keyboard-response","585","1048831","0.0-585.0","","","null","","","","","","","",""
"518.9000000953674","","image-keyboard-response","586","1049351","0.0-586.0","","img/set2/S4.jpg","74","4","structured_incentive","74","random,structured_incentive,structured_load,structured_normal","2,1,3,4,2,3","true","",""
"null","","html-keyboard-response","587","1049703","0.0-587.0","","<img src=""img/set2/S4.jpg"" width=""540"" height = ""360"" style=""border:16px solid orange"">","null","","","","","","","",""
"null","","html-keyboard-response","588","1049904","0.0-588.0","","","null","","","","","","","",""
"638.5","","image-keyboard-response","589","1050543","0.0-589.0","","img/set2/S2.jpg","68","2","structured_incentive","68","random,structured_incentive,structured_load,structured_normal","2,1,3,4,2,3","true","",""
"null","","html-keyboard-response","590","1050895","0.0-590.0","","<img src=""img/set2/S2.jpg"" width=""540"" height = ""360"" style=""border:16px solid orange"">","null","","","","","","","",""
