"rt","url","trial_type","trial_index","time_elapsed","internal_node_id","view_history","stimulus","key_press","state","test_part","correct_response","order_block","order_chunk","correct","responses","bonus"
"9804.40000000596","consent.html","external-html","0","9909","0.0-0.0","","","","","","","","","","",""
"51086.09999999404","","instructions","1","60997","0.0-1.0","[{""page_index"":0,""viewing_time"":6057.199999988079},{""page_index"":1,""viewing_time"":9764.09999999404},{""page_index"":2,""viewing_time"":7910.100000023842},{""page_index"":3,""viewing_time"":12921.799999982119},{""page_index"":4,""viewing_time"":5031.800000011921},{""page_index"":5,""viewing_time"":4792.199999988079},{""page_index"":6,""viewing_time"":4608.300000011921}]","","","","","","","","","",""
"7151.0999999940395","","instructions","2","68149","0.0-2.0","[{""page_index"":0,""viewing_time"":7150.799999982119}]","","","","","","","","","",""
"4350.4000000059605","","instructions","3","72500","0.0-3.0","[{""page_index"":0,""viewing_time"":4350.200000017881}]","","","","","","","","","",""
"2182.800000011921","","image-keyboard-response","4","74684","0.0-4.0","","img/set1/S1.jpg","83","1","random","83","random,structured_load,structured_normal,structured_incentive","2,1,2,3,3,4","true","",""
"null","","html-keyboard-response","5","75036","0.0-5.0","","<img src=""img/set1/S1.jpg"" width=""540"" height = ""360"" style=""border:16px solid orange"">","null","","","","","","","",""
"null","","html-keyboard-response","6","75239","0.0-6.0","","","null","","","","","","","",""
"1943.800000011921","","image-keyboard-response","7","77183","0.0-7.0","","img/set1/S1.jpg","68","1","random","83","random,structured_load,structured_normal,structured_incentive","2,1,2,3,3,4","false","",""
"null","","html-keyboard-response","8","77535","0.0-8.0","","<img src=""img/set1/S1.jpg"" width=""540"" height = ""360"">","null","","","","","","","",""
"null","","html-keyboard-response","9","77737","0.0-9.0","","","null","","","","","","","",""
"678.0999999940395","","image-keyboard-response","10","78416","0.0-10.0","","img/set1/S1.jpg","72","1","random","83","random,structured_load,structured_normal,structured_incentive","2,1,2,3,3,4","false","",""
"null","","html-keyboard-response","11","78767","0.0-11.0","","<img src=""img/set1/S1.jpg"" width=""540"" height = ""360"">","null","","","","","","","",""
"null","","html-keyboard-response","12","78969","0.0-12.0","","","null","","","","","","","",""
"556.8000000119209","","image-keyboard-response","13","79526","0.0-13.0","","img/set1/S2.jpg","68","2","random","68","random,structured_load,structured_normal,structured_incentive","2,1,2,3,3,4","true","",""
"null","","html-keyboard-response","14","79877","0.0-14.0","","<img src=""img/set1/S2.jpg"" width=""540"" height = ""360"" style=""border:16px solid orange"">","null","","","","","","","",""
"null","","html-keyboard-response","15","80079","0.0-15.0","","","null","","","","","","","",""
"996.9000000059605","","image-keyboard-response","16","81076","0.0-16.0","","img/set1/S1.jpg","83","1","random","83","random,structured_load,structured_normal,structured_incentive","2,1,2,3,3,4","true","",""
"null","","html-keyboard-response","17","81428","0.0-17.0","","<img src=""img/set1/S1.jpg"" width=""540"" height = ""360"" style=""border:16px solid orange"">","null","","","","","","","",""
"null","","html-keyboard-response","18","81628","0.0-18.0","","","null","","","","","","","",""
"1323.0999999940395","","image-keyboard-response","19","82952","0.0-19.0","","img/set1/S2.jpg","83","2","random","68","random,structured_load,structured_normal,structured_incentive","2,1,2,3,3,4","false","",""
"null","","html-keyboard-response","20","83303","0.0-20.0","","<img src=""img/set1/S2.jpg"" width=""540"" height = ""360"">","null","","","","","","","",""
"null","","html-keyboard-response","21","83504","0.0-21.0","","","null","","","","","","","",""
"776.4000000059605","","image-keyboard-response","22","84282","0.0-22.0","","img/set1/S4.jpg","74","4","random","74","random,structured_load,structured_normal,structured_incentive","2,1,2,3,3,4","true","",""
"null","","html-keyboard-response","23","84634","0.0-23.0","","<img src=""img/set1/S4.jpg"" width=""540"" height = ""360"" style=""border:16px solid orange"">","null","","","","","","","",""
"null","","html-keyboard-response","24","84835","0.0-24.0","","","null","","","","","","","",""
"679.2000000178814","","image-keyboard-response","25","85515","0.0-25.0","","img/set1/S4.jpg","74","4","random","74","random,structured_load,structured_normal,structured_incentive","2,1,2,3,3,4","true","",""
"null","","html-keyboard-response","26","85867","0.0-26.0","","<img src=""img/set1/S4.jpg"" width=""540"" height = ""360"" style=""border:16px solid orange"">","null","","","","","","","",""
"null","","html-keyboard-response","27","86068","0.0-27.0","","","null","","","","","","","",""
"884.8000000119209","","image-keyboard-response","28","86955","0.0-28.0","","img/set1/S3.jpg","72","3","random","72","random,structured_load,structured_normal,structured_incentive","2,1,2,3,3,4","true","",""
"null","","html-keyboard-response","29","87307","0.0-29.0","","<img src=""img/set1/S3.jpg"" width=""540"" height = ""360"" style=""border:16px solid orange"">","null","","","","","","","",""
"null","","html-keyboard-response","30","87508","0.0-30.0","","","null","","","","","","","",""
"1988.5","","image-keyboard-response","31","89497","0.0-31.0","","img/set1/S2.jpg","68","2","random","68","random,structured_load,structured_normal,structured_incentive","2,1,2,3,3,4","true","",""
"null","","html-keyboard-response","32","89848","0.0-32.0","","<img src=""img/set1/S2.jpg"" width=""540"" height = ""360"" style=""border:16px solid orange"">","null","","","","","","","",""
"null","","html-keyboard-response","33","90050","0.0-33.0","","","null","","","","","","","",""
"659","","image-keyboard-response","34","90709","0.0-34.0","","img/set1/S2.jpg","68","2","random","68","random,structured_load,structured_normal,structured_incentive","2,1,2,3,3,4","true","",""
"null","","html-keyboard-response","35","91061","0.0-35.0","","<img src=""img/set1/S2.jpg"" width=""540"" height = ""360"" style=""border:16px solid orange"">","null","","","","","","","",""
"null","","html-keyboard-response","36","91262","0.0-36.0","","","null","","","","","","","",""
"1111.699999988079","","image-keyboard-response","37","92375","0.0-37.0","","img/set1/S1.jpg","68","1","random","83","random,structured_load,structured_normal,structured_incentive","2,1,2,3,3,4","false","",""
"null","","html-keyboard-response","38","92727","0.0-38.0","","<img src=""img/set1/S1.jpg"" width=""540"" height = ""360"">","null","","","","","","","",""
"null","","html-keyboard-response","39","92928","0.0-39.0","","","null","","","","","","","",""
"626","","image-keyboard-response","40","93555","0.0-40.0","","img/set1/S2.jpg","74","2","random","68","random,structured_load,structured_normal,structured_incentive","2,1,2,3,3,4","false","",""
"null","","html-keyboard-response","41","93908","0.0-41.0","","<img src=""img/set1/S2.jpg"" width=""540"" height = ""360"">","null","","","","","","","",""
"null","","html-keyboard-response","42","94110","0.0-42.0","","","null","","","","","","","",""
"603","","image-keyboard-response","43","94714","0.0-43.0","","img/set1/S2.jpg","83","2","random","68","random,structured_load,structured_normal,structured_incentive","2,1,2,3,3,4","false","",""
"null","","html-keyboard-response","44","95066","0.0-44.0","","<img src=""img/set1/S2.jpg"" width=""540"" height = ""360"">","null","","","","","","","",""
"null","","html-keyboard-response","45","95266","0.0-45.0","","","null","","","","","","","",""
"730.5","","image-keyboard-response","46","95997","0.0-46.0","","img/set1/S2.jpg","72","2","random","68","random,structured_load,structured_normal,structured_incentive","2,1,2,3,3,4","false","",""
"null","","html-keyboard-response","47","96349","0.0-47.0","","<img src=""img/set1/S2.jpg"" width=""540"" height = ""360"">","null","","","","","","","",""
"null","","html-keyboard-response","48","96550","0.0-48.0","","","null","","","","","","","",""
"653.0999999940395","","image-keyboard-response","49","97204","0.0-49.0","","img/set1/S1.jpg","74","1","random","83","random,structured_load,structured_normal,structured_incentive","2,1,2,3,3,4","false","",""
"null","","html-keyboard-response","50","97555","0.0-50.0","","<img src=""img/set1/S1.jpg"" width=""540"" height = ""360"">","null","","","","","","","",""
"null","","html-keyboard-response","51","97756","0.0-51.0","","","null","","","","","","","",""
"553.5","","image-keyboard-response","52","98310","0.0-52.0","","img/set1/S4.jpg","74","4","random","74","random,structured_load,structured_normal,structured_incentive","2,1,2,3,3,4","true","",""
"null","","html-keyboard-response","53","98661","0.0-53.0","","<img src=""img/set1/S4.jpg"" width=""540"" height = ""360"" style=""border:16px solid orange"">","null","","","","","","","",""
"null","","html-keyboard-response","54","98862","0.0-54.0","","","null","","","","","","","",""
"463.2000000178814","","image-keyboard-response","55","99325","0.0-55.0","","img/set1/S4.jpg","74","4","random","74","random,structured_load,structured_normal,structured_incentive","2,1,2,3,3,4","true","",""
"null","","html-keyboard-response","56","99677","0.0-56.0","","<img src=""img/set1/S4.jpg"" width=""540"" height = ""360"" style=""border:16px solid orange"">","null","","","","","","","",""
"null","","html-keyboard-response","57","99877","0.0-57.0","","","null","","","","","","","",""
"395.39999997615814","","image-keyboard-response","58","100273","0.0-58.0","","img/set1/S4.jpg","74","4","random","74","random,structured_load,structured_normal,structured_incentive","2,1,2,3,3,4","true","",""
"null","","html-keyboard-response","59","100625","0.0-59.0","","<img src=""img/set1/S4.jpg"" width=""540"" height = ""360"" style=""border:16px solid orange"">","null","","","","","","","",""
"null","","html-keyboard-response","60","100827","0.0-60.0","","","null","","","","","","","",""
"647.7000000178814","","image-keyboard-response","61","101475","0.0-61.0","","img/set1/S1.jpg","83","1","random","83","random,structured_load,structured_normal,structured_incentive","2,1,2,3,3,4","true","",""
"null","","html-keyboard-response","62","101827","0.0-62.0","","<img src=""img/set1/S1.jpg"" width=""540"" height = ""360"" style=""border:16px solid orange"">","null","","","","","","","",""
"null","","html-keyboard-response","63","102029","0.0-63.0","","","null","","","","","","","",""
"1457.800000011921","","image-keyboard-response","64","103488","0.0-64.0","","img/set1/S2.jpg","68","2","random","68","random,structured_load,structured_normal,structured_incentive","2,1,2,3,3,4","true","",""
"null","","html-keyboard-response","65","103840","0.0-65.0","","<img src=""img/set1/S2.jpg"" width=""540"" height = ""360"" style=""border:16px solid orange"">","null","","","","","","","",""
"null","","html-keyboard-response","66","104041","0.0-66.0","","","null","","","","","","","",""
"728.5999999940395","","image-keyboard-response","67","104770","0.0-67.0","","img/set1/S3.jpg","72","3","random","72","random,structured_load,structured_normal,structured_incentive","2,1,2,3,3,4","true","",""
"null","","html-keyboard-response","68","105121","0.0-68.0","","<img src=""img/set1/S3.jpg"" width=""540"" height = ""360"" style=""border:16px solid orange"">","null","","","","","","","",""
"null","","html-keyboard-response","69","105323","0.0-69.0","","","null","","","","","","","",""
"486.5","","image-keyboard-response","70","105810","0.0-70.0","","img/set1/S3.jpg","72","3","random","72","random,structured_load,structured_normal,structured_incentive","2,1,2,3,3,4","true","",""
"null","","html-keyboard-response","71","106162","0.0-71.0","","<img src=""img/set1/S3.jpg"" width=""540"" height = ""360"" style=""border:16px solid orange"">","null","","","","","","","",""
"null","","html-keyboard-response","72","106363","0.0-72.0","","","null","","","","","","","",""
"936.5","","image-keyboard-response","73","107301","0.0-73.0","","img/set1/S2.jpg","68","2","random","68","random,structured_load,structured_normal,structured_incentive","2,1,2,3,3,4","true","",""
"null","","html-keyboard-response","74","107652","0.0-74.0","","<img src=""img/set1/S2.jpg"" width=""540"" height = ""360"" style=""border:16px solid orange"">","null","","","","","","","",""
"null","","html-keyboard-response","75","107852","0.0-75.0","","","null","","","","","","","",""
"828.5","","image-keyboard-response","76","108682","0.0-76.0","","img/set1/S3.jpg","72","3","random","72","random,structured_load,structured_normal,structured_incentive","2,1,2,3,3,4","true","",""
"null","","html-keyboard-response","77","109033","0.0-77.0","","<img src=""img/set1/S3.jpg"" width=""540"" height = ""360"" style=""border:16px solid orange"">","null","","","","","","","",""
"null","","html-keyboard-response","78","109234","0.0-78.0","","","null","","","","","","","",""
"560.8000000119209","","image-keyboard-response","79","109796","0.0-79.0","","img/set1/S4.jpg","74","4","random","74","random,structured_load,structured_normal,structured_incentive","2,1,2,3,3,4","true","",""
"null","","html-keyboard-response","80","110147","0.0-80.0","","<img src=""img/set1/S4.jpg"" width=""540"" height = ""360"" style=""border:16px solid orange"">","null","","","","","","","",""
"null","","html-keyboard-response","81","110348","0.0-81.0","","","null","","","","","","","",""
"763.8999999761581","","image-keyboard-response","82","111112","0.0-82.0","","img/set1/S3.jpg","72","3","random","72","random,structured_load,structured_normal,structured_incentive","2,1,2,3,3,4","true","",""
"null","","html-keyboard-response","83","111464","0.0-83.0","","<img src=""img/set1/S3.jpg"" width=""540"" height = ""360"" style=""border:16px solid orange"">","null","","","","","","","",""
"null","","html-keyboard-response","84","111665","0.0-84.0","","","null","","","","","","","",""
"677.4000000059605","","image-keyboard-response","85","112343","0.0-85.0","","img/set1/S1.jpg","83","1","random","83","random,structured_load,structured_normal,structured_incentive","2,1,2,3,3,4","true","",""
"null","","html-keyboard-response","86","112695","0.0-86.0","","<img src=""img/set1/S1.jpg"" width=""540"" height = ""360"" style=""border:16px solid orange"">","null","","","","","","","",""
"null","","html-keyboard-response","87","112897","0.0-87.0","","","null","","","","","","","",""
"493.89999997615814","","image-keyboard-response","88","113393","0.0-88.0","","img/set1/S1.jpg","83","1","random","83","random,structured_load,structured_normal,structured_incentive","2,1,2,3,3,4","true","",""
"null","","html-keyboard-response","89","113743","0.0-89.0","","<img src=""img/set1/S1.jpg"" width=""540"" height = ""360"" style=""border:16px solid orange"">","null","","","","","","","",""
"null","","html-keyboard-response","90","113946","0.0-90.0","","","null","","","","","","","",""
"632","","image-keyboard-response","91","114579","0.0-91.0","","img/set1/S4.jpg","74","4","random","74","random,structured_load,structured_normal,structured_incentive","2,1,2,3,3,4","true","",""
"null","","html-keyboard-response","92","114930","0.0-92.0","","<img src=""img/set1/S4.jpg"" width=""540"" height = ""360"" style=""border:16px solid orange"">","null","","","","","","","",""
"null","","html-keyboard-response","93","115132","0.0-93.0","","","null","","","","","","","",""
"585.6999999880791","","image-keyboard-response","94","115718","0.0-94.0","","img/set1/S3.jpg","72","3","random","72","random,structured_load,structured_normal,structured_incentive","2,1,2,3,3,4","true","",""
"null","","html-keyboard-response","95","116069","0.0-95.0","","<img src=""img/set1/S3.jpg"" width=""540"" height = ""360"" style=""border:16px solid orange"">","null","","","","","","","",""
"null","","html-keyboard-response","96","116282","0.0-96.0","","","null","","","","","","","",""
"720.3000000119209","","image-keyboard-response","97","117003","0.0-97.0","","img/set1/S1.jpg","83","1","random","83","random,structured_load,structured_normal,structured_incentive","2,1,2,3,3,4","true","",""
"null","","html-keyboard-response","98","117355","0.0-98.0","","<img src=""img/set1/S1.jpg"" width=""540"" height = ""360"" style=""border:16px solid orange"">","null","","","","","","","",""
"null","","html-keyboard-response","99","117556","0.0-99.0","","","null","","","","","","","",""
"510.19999998807907","","image-keyboard-response","100","118067","0.0-100.0","","img/set1/S1.jpg","83","1","random","83","random,structured_load,structured_normal,structured_incentive","2,1,2,3,3,4","true","",""
"null","","html-keyboard-response","101","118418","0.0-101.0","","<img src=""img/set1/S1.jpg"" width=""540"" height = ""360"" style=""border:16px solid orange"">","null","","","","","","","",""
"null","","html-keyboard-response","102","118620","0.0-102.0","","","null","","","","","","","",""
"965.2999999821186","","image-keyboard-response","103","119586","0.0-103.0","","img/set1/S3.jpg","72","3","random","72","random,structured_load,structured_normal,structured_incentive","2,1,2,3,3,4","true","",""
"null","","html-keyboard-response","104","119938","0.0-104.0","","<img src=""img/set1/S3.jpg"" width=""540"" height = ""360"" style=""border:16px solid orange"">","null","","","","","","","",""
"null","","html-keyboard-response","105","120140","0.0-105.0","","","null","","","","","","","",""
"827.1999999880791","","image-keyboard-response","106","120968","0.0-106.0","","img/set1/S1.jpg","83","1","random","83","random,structured_load,structured_normal,structured_incentive","2,1,2,3,3,4","true","",""
"null","","html-keyboard-response","107","121319","0.0-107.0","","<img src=""img/set1/S1.jpg"" width=""540"" height = ""360"" style=""border:16px solid orange"">","null","","","","","","","",""
"null","","html-keyboard-response","108","121524","0.0-108.0","","","null","","","","","","","",""
"851.2000000178814","","image-keyboard-response","109","122376","0.0-109.0","","img/set1/S3.jpg","72","3","random","72","random,structured_load,structured_normal,structured_incentive","2,1,2,3,3,4","true","",""
"null","","html-keyboard-response","110","122728","0.0-110.0","","<img src=""img/set1/S3.jpg"" width=""540"" height = ""360"" style=""border:16px solid orange"">","null","","","","","","","",""
"null","","html-keyboard-response","111","122929","0.0-111.0","","","null","","","","","","","",""
"590.7999999821186","","image-keyboard-response","112","123521","0.0-112.0","","img/set1/S4.jpg","74","4","random","74","random,structured_load,structured_normal,structured_incentive","2,1,2,3,3,4","true","",""
"null","","html-keyboard-response","113","123873","0.0-113.0","","<img src=""img/set1/S4.jpg"" width=""540"" height = ""360"" style=""border:16px solid orange"">","null","","","","","","","",""
"null","","html-keyboard-response","114","124074","0.0-114.0","","","null","","","","","","","",""
"880.1999999880791","","image-keyboard-response","115","124955","0.0-115.0","","img/set1/S1.jpg","83","1","random","83","random,structured_load,structured_normal,structured_incentive","2,1,2,3,3,4","true","",""
"null","","html-keyboard-response","116","125307","0.0-116.0","","<img src=""img/set1/S1.jpg"" width=""540"" height = ""360"" style=""border:16px solid orange"">","null","","","","","","","",""
"null","","html-keyboard-response","117","125509","0.0-117.0","","","null","","","","","","","",""
"438","","image-keyboard-response","118","125947","0.0-118.0","","img/set1/S1.jpg","83","1","random","83","random,structured_load,structured_normal,structured_incentive","2,1,2,3,3,4","true","",""
"null","","html-keyboard-response","119","126299","0.0-119.0","","<img src=""img/set1/S1.jpg"" width=""540"" height = ""360"" style=""border:16px solid orange"">","null","","","","","","","",""
"null","","html-keyboard-response","120","126500","0.0-120.0","","","null","","","","","","","",""
"591.1999999880791","","image-keyboard-response","121","127091","0.0-121.0","","img/set1/S3.jpg","72","3","random","72","random,structured_load,structured_normal,structured_incentive","2,1,2,3,3,4","true","",""
"null","","html-keyboard-response","122","127443","0.0-122.0","","<img src=""img/set1/S3.jpg"" width=""540"" height = ""360"" style=""border:16px solid orange"">","null","","","","","","","",""
"null","","html-keyboard-response","123","127644","0.0-123.0","","","null","","","","","","","",""
"584.2999999821186","","image-keyboard-response","124","128230","0.0-124.0","","img/set1/S1.jpg","83","1","random","83","random,structured_load,structured_normal,structured_incentive","2,1,2,3,3,4","true","",""
"null","","html-keyboard-response","125","128581","0.0-125.0","","<img src=""img/set1/S1.jpg"" width=""540"" height = ""360"" style=""border:16px solid orange"">","null","","","","","","","",""
"null","","html-keyboard-response","126","128782","0.0-126.0","","","null","","","","","","","",""
"585.7000000178814","","image-keyboard-response","127","129369","0.0-127.0","","img/set1/S3.jpg","72","3","random","72","random,structured_load,structured_normal,structured_incentive","2,1,2,3,3,4","true","",""
"null","","html-keyboard-response","128","129720","0.0-128.0","","<img src=""img/set1/S3.jpg"" width=""540"" height = ""360"" style=""border:16px solid orange"">","null","","","","","","","",""
"null","","html-keyboard-response","129","129921","0.0-129.0","","","null","","","","","","","",""
"712.3000000119209","","image-keyboard-response","130","130634","0.0-130.0","","img/set1/S2.jpg","68","2","random","68","random,structured_load,structured_normal,structured_incentive","2,1,2,3,3,4","true","",""
"null","","html-keyboard-response","131","130986","0.0-131.0","","<img src=""img/set1/S2.jpg"" width=""540"" height = ""360"" style=""border:16px solid orange"">","null","","","","","","","",""
"null","","html-keyboard-response","132","131188","0.0-132.0","","","null","","","","","","","",""
"572.7000000178814","","image-keyboard-response","133","131762","0.0-133.0","","img/set1/S1.jpg","83","1","random","83","random,structured_load,structured_normal,structured_incentive","2,1,2,3,3,4","true","",""
"null","","html-keyboard-response","134","132113","0.0-134.0","","<img src=""img/set1/S1.jpg"" width=""540"" height = ""360"" style=""border:16px solid orange"">","null","","","","","","","",""
"null","","html-keyboard-response","135","132314","0.0-135.0","","","null","","","","","","","",""
"637.1999999880791","","image-keyboard-response","136","132952","0.0-136.0","","img/set1/S3.jpg","72","3","random","72","random,structured_load,structured_normal,structured_incentive","2,1,2,3,3,4","true","",""
"null","","html-keyboard-response","137","133303","0.0-137.0","","<img src=""img/set1/S3.jpg"" width=""540"" height = ""360"" style=""border:16px solid orange"">","null","","","","","","","",""
"null","","html-keyboard-response","138","133505","0.0-138.0","","","null","","","","","","","",""
"417.40000000596046","","image-keyboard-response","139","133923","0.0-139.0","","img/set1/S3.jpg","72","3","random","72","random,structured_load,structured_normal,structured_incentive","2,1,2,3,3,4","true","",""
"null","","html-keyboard-response","140","134274","0.0-140.0","","<img src=""img/set1/S3.jpg"" width=""540"" height = ""360"" style=""border:16px solid orange"">","null","","","","","","","",""
"null","","html-keyboard-response","141","134476","0.0-141.0","","","null","","","","","","","",""
"885.1000000238419","","image-keyboard-response","142","135361","0.0-142.0","","img/set1/S1.jpg","83","1","random","83","random,structured_load,structured_normal,structured_incentive","2,1,2,3,3,4","true","",""
"null","","html-keyboard-response","143","135713","0.0-143.0","","<img src=""img/set1/S1.jpg"" width=""540"" height = ""360"" style=""border:16px solid orange"">","null","","","","","","","",""
"null","","html-keyboard-response","144","135914","0.0-144.0","","","null","","","","","","","",""
"645.1999999880791","","image-keyboard-response","145","136560","0.0-145.0","","img/set1/S2.jpg","68","2","random","68","random,structured_load,structured_normal,structured_incentive","2,1,2,3,3,4","true","",""
"null","","html-keyboard-response","146","136911","0.0-146.0","","<img src=""img/set1/S2.jpg"" width=""540"" height = ""360"" style=""border:16px solid orange"">","null","","","","","","","",""
"null","","html-keyboard-response","147","137113","0.0-147.0","","","null","","","","","","","",""
"528","","image-keyboard-response","148","137642","0.0-148.0","","img/set1/S1.jpg","83","1","random","83","random,structured_load,structured_normal,structured_incentive","2,1,2,3,3,4","true","",""
"null","","html-keyboard-response","149","137993","0.0-149.0","","<img src=""img/set1/S1.jpg"" width=""540"" height = ""360"" style=""border:16px solid orange"">","null","","","","","","","",""
"null","","html-keyboard-response","150","138195","0.0-150.0","","","null","","","","","","","",""
"446.69999998807907","","image-keyboard-response","151","138642","0.0-151.0","","img/set1/S1.jpg","68","1","random","83","random,structured_load,structured_normal,structured_incentive","2,1,2,3,3,4","false","",""
"null","","html-keyboard-response","152","138993","0.0-152.0","","<img src=""img/set1/S1.jpg"" width=""540"" height = ""360"">","null","","","","","","","",""
"null","","html-keyboard-response","153","139195","0.0-153.0","","","null","","","","","","","",""
"437.89999997615814","","image-keyboard-response","154","139634","0.0-154.0","","img/set1/S1.jpg","83","1","random","83","random,structured_load,structured_normal,structured_incentive","2,1,2,3,3,4","true","",""
"null","","html-keyboard-response","155","139986","0.0-155.0","","<img src=""img/set1/S1.jpg"" width=""540"" height = ""360"" style=""border:16px solid orange"">","null","","","","","","","",""
"null","","html-keyboard-response","156","140188","0.0-156.0","","","null","","","","","","","",""
"630.5","","image-keyboard-response","157","140820","0.0-157.0","","img/set1/S2.jpg","72","2","random","68","random,structured_load,structured_normal,structured_incentive","2,1,2,3,3,4","false","",""
"null","","html-keyboard-response","158","141171","0.0-158.0","","<img src=""img/set1/S2.jpg"" width=""540"" height = ""360"">","null","","","","","","","",""
"null","","html-keyboard-response","159","141373","0.0-159.0","","","null","","","","","","","",""
"529.1999999880791","","image-keyboard-response","160","141903","0.0-160.0","","img/set1/S4.jpg","74","4","random","74","random,structured_load,structured_normal,structured_incentive","2,1,2,3,3,4","true","",""
"null","","html-keyboard-response","161","142254","0.0-161.0","","<img src=""img/set1/S4.jpg"" width=""540"" height = ""360"" style=""border:16px solid orange"">","null","","","","","","","",""
"null","","html-keyboard-response","162","142455","0.0-162.0","","","null","","","","","","","",""
"699.8000000119209","","image-keyboard-response","163","143156","0.0-163.0","","img/set1/S2.jpg","68","2","random","68","random,structured_load,structured_normal,structured_incentive","2,1,2,3,3,4","true","",""
"null","","html-keyboard-response","164","143508","0.0-164.0","","<img src=""img/set1/S2.jpg"" width=""540"" height = ""360"" style=""border:16px solid orange"">","null","","","","","","","",""
"null","","html-keyboard-response","165","143710","0.0-165.0","","","null","","","","","","","",""
"647.2000000178814","","image-keyboard-response","166","144359","0.0-166.0","","img/set1/S1.jpg","83","1","random","83","random,structured_load,structured_normal,structured_incentive","2,1,2,3,3,4","true","",""
"null","","html-keyboard-response","167","144710","0.0-167.0","","<img src=""img/set1/S1.jpg"" width=""540"" height = ""360"" style=""border:16px solid orange"">","null","","","","","","","",""
"null","","html-keyboard-response","168","144912","0.0-168.0","","","null","","","","","","","",""
"555.1999999880791","","image-keyboard-response","169","145467","0.0-169.0","","img/set1/S3.jpg","72","3","random","72","random,structured_load,structured_normal,structured_incentive","2,1,2,3,3,4","true","",""
"null","","html-keyboard-response","170","145819","0.0-170.0","","<img src=""img/set1/S3.jpg"" width=""540"" height = ""360"" style=""border:16px solid orange"">","null","","","","","","","",""
"null","","html-keyboard-response","171","146021","0.0-171.0","","","null","","","","","","","",""
"518.3000000119209","","image-keyboard-response","172","146540","0.0-172.0","","img/set1/S1.jpg","83","1","random","83","random,structured_load,structured_normal,structured_incentive","2,1,2,3,3,4","true","",""
"null","","html-keyboard-response","173","146892","0.0-173.0","","<img src=""img/set1/S1.jpg"" width=""540"" height = ""360"" style=""border:16px solid orange"">","null","","","","","","","",""
"null","","html-keyboard-response","174","147094","0.0-174.0","","","null","","","","","","","",""
"403.90000000596046","","image-keyboard-response","175","147499","0.0-175.0","","img/set1/S1.jpg","83","1","random","83","random,structured_load,structured_normal,structured_incentive","2,1,2,3,3,4","true","",""
"null","","html-keyboard-response","176","147850","0.0-176.0","","<img src=""img/set1/S1.jpg"" width=""540"" height = ""360"" style=""border:16px solid orange"">","null","","","","","","","",""
"null","","html-keyboard-response","177","148053","0.0-177.0","","","null","","","","","","","",""
"363.2999999821186","","image-keyboard-response","178","148417","0.0-178.0","","img/set1/S1.jpg","83","1","random","83","random,structured_load,structured_normal,structured_incentive","2,1,2,3,3,4","true","",""
"null","","html-keyboard-response","179","148768","0.0-179.0","","<img src=""img/set1/S1.jpg"" width=""540"" height = ""360"" style=""border:16px solid orange"">","null","","","","","","","",""
"null","","html-keyboard-response","180","148970","0.0-180.0","","","null","","","","","","","",""
"1105.300000011921","","image-keyboard-response","181","150076","0.0-181.0","","img/set1/S2.jpg","68","2","random","68","random,structured_load,structured_normal,structured_incentive","2,1,2,3,3,4","true","",""
"null","","html-keyboard-response","182","150427","0.0-182.0","","<img src=""img/set1/S2.jpg"" width=""540"" height = ""360"" style=""border:16px solid orange"">","null","","","","","","","",""
"null","","html-keyboard-response","183","150629","0.0-183.0","","","null","","","","","","","",""
"529.5","","image-keyboard-response","184","151159","0.0-184.0","","img/set1/S4.jpg","74","4","random","74","random,structured_load,structured_normal,structured_incentive","2,1,2,3,3,4","true","",""
"null","","html-keyboard-response","185","151511","0.0-185.0","","<img src=""img/set1/S4.jpg"" width=""540"" height = ""360"" style=""border:16px solid orange"">","null","","","","","","","",""
"null","","html-keyboard-response","186","151712","0.0-186.0","","","null","","","","","","","",""
"582.1999999880791","","image-keyboard-response","187","152295","0.0-187.0","","img/set1/S1.jpg","83","1","random","83","random,structured_load,structured_normal,structured_incentive","2,1,2,3,3,4","true","",""
"null","","html-keyboard-response","188","152647","0.0-188.0","","<img src=""img/set1/S1.jpg"" width=""540"" height = ""360"" style=""border:16px solid orange"">","null","","","","","","","",""
"null","","html-keyboard-response","189","152850","0.0-189.0","","","null","","","","","","","",""
"609.5999999940395","","image-keyboard-response","190","153460","0.0-190.0","","img/set1/S4.jpg","74","4","random","74","random,structured_load,structured_normal,structured_incentive","2,1,2,3,3,4","true","",""
"null","","html-keyboard-response","191","153813","0.0-191.0","","<img src=""img/set1/S4.jpg"" width=""540"" height = ""360"" style=""border:16px solid orange"">","null","","","","","","","",""
"null","","html-keyboard-response","192","154014","0.0-192.0","","","null","","","","","","","",""
"888.0999999940395","","image-keyboard-response","193","154902","0.0-193.0","","img/set1/S2.jpg","68","2","random","68","random,structured_load,structured_normal,structured_incentive","2,1,2,3,3,4","true","",""
"null","","html-keyboard-response","194","155254","0.0-194.0","","<img src=""img/set1/S2.jpg"" width=""540"" height = ""360"" style=""border:16px solid orange"">","null","","","","","","","",""
"null","","html-keyboard-response","195","155456","0.0-195.0","","","null","","","","","","","",""
"638.6999999880791","","image-keyboard-response","196","156095","0.0-196.0","","img/set1/S3.jpg","72","3","random","72","random,structured_load,structured_normal,structured_incentive","2,1,2,3,3,4","true","",""
"null","","html-keyboard-response","197","156446","0.0-197.0","","<img src=""img/set1/S3.jpg"" width=""540"" height = ""360"" style=""border:16px solid orange"">","null","","","","","","","",""
"null","","html-keyboard-response","198","156648","0.0-198.0","","","null","","","","","","","",""
"423.40000000596046","","image-keyboard-response","199","157072","0.0-199.0","","img/set1/S3.jpg","72","3","random","72","random,structured_load,structured_normal,structured_incentive","2,1,2,3,3,4","true","",""
"null","","html-keyboard-response","200","157424","0.0-200.0","","<img src=""img/set1/S3.jpg"" width=""540"" height = ""360"" style=""border:16px solid orange"">","null","","","","","","","",""
"null","","html-keyboard-response","201","157625","0.0-201.0","","","null","","","","","","","",""
"575.8000000119209","","image-keyboard-response","202","158201","0.0-202.0","","img/set1/S2.jpg","68","2","random","68","random,structured_load,structured_normal,structured_incentive","2,1,2,3,3,4","true","",""
"null","","html-keyboard-response","203","158552","0.0-203.0","","<img src=""img/set1/S2.jpg"" width=""540"" height = ""360"" style=""border:16px solid orange"">","null","","","","","","","",""
"null","","html-keyboard-response","204","158754","0.0-204.0","","","null","","","","","","","",""
"585.3000000119209","","image-keyboard-response","205","159340","0.0-205.0","","img/set1/S4.jpg","74","4","random","74","random,structured_load,structured_normal,structured_incentive","2,1,2,3,3,4","true","",""
"null","","html-keyboard-response","206","159691","0.0-206.0","","<img src=""img/set1/S4.jpg"" width=""540"" height = ""360"" style=""border:16px solid orange"">","null","","","","","","","",""
"null","","html-keyboard-response","207","159893","0.0-207.0","","","null","","","","","","","",""
"361.2000000178814","","image-keyboard-response","208","160255","0.0-208.0","","img/set1/S4.jpg","74","4","random","74","random,structured_load,structured_normal,structured_incentive","2,1,2,3,3,4","true","",""
"null","","html-keyboard-response","209","160607","0.0-209.0","","<img src=""img/set1/S4.jpg"" width=""540"" height = ""360"" style=""border:16px solid orange"">","null","","","","","","","",""
"null","","html-keyboard-response","210","160808","0.0-210.0","","","null","","","","","","","",""
"1265.5","","image-keyboard-response","211","162074","0.0-211.0","","img/set1/S3.jpg","68","3","random","72","random,structured_load,structured_normal,structured_incentive","2,1,2,3,3,4","false","",""
"null","","html-keyboard-response","212","162425","0.0-212.0","","<img src=""img/set1/S3.jpg"" width=""540"" height = ""360"">","null","","","","","","","",""
"null","","html-keyboard-response","213","162625","0.0-213.0","","","null","","","","","","","",""
"556.5999999940395","","image-keyboard-response","214","163183","0.0-214.0","","img/set1/S3.jpg","72","3","random","72","random,structured_load,structured_normal,structured_incentive","2,1,2,3,3,4","true","",""
"null","","html-keyboard-response","215","163534","0.0-215.0","","<img src=""img/set1/S3.jpg"" width=""540"" height = ""360"" style=""border:16px solid orange"">","null","","","","","","","",""
"null","","html-keyboard-response","216","163735","0.0-216.0","","","null","","","","","","","",""
"595.2000000178814","","image-keyboard-response","217","164331","0.0-217.0","","img/set1/S2.jpg","68","2","random","68","random,structured_load,structured_normal,structured_incentive","2,1,2,3,3,4","true","",""
"null","","html-keyboard-response","218","164682","0.0-218.0","","<img src=""img/set1/S2.jpg"" width=""540"" height = ""360"" style=""border:16px solid orange"">","null","","","","","","","",""
"null","","html-keyboard-response","219","164884","0.0-219.0","","","null","","","","","","","",""
"569","","image-keyboard-response","220","165453","0.0-220.0","","img/set1/S4.jpg","74","4","random","74","random,structured_load,structured_normal,structured_incentive","2,1,2,3,3,4","true","",""
"null","","html-keyboard-response","221","165805","0.0-221.0","","<img src=""img/set1/S4.jpg"" width=""540"" height = ""360"" style=""border:16px solid orange"">","null","","","","","","","",""
"null","","html-keyboard-response","222","166006","0.0-222.0","","","null","","","","","","","",""
"360.7999999821186","","image-keyboard-response","223","166368","0.0-223.0","","img/set1/S4.jpg","74","4","random","74","random,structured_load,structured_normal,structured_incentive","2,1,2,3,3,4","true","",""
"null","","html-keyboard-response","224","166719","0.0-224.0","","<img src=""img/set1/S4.jpg"" width=""540"" height = ""360"" style=""border:16px solid orange"">","null","","","","","","","",""
"null","","html-keyboard-response","225","166921","0.0-225.0","","","null","","","","","","","",""
"365.09999999403954","","image-keyboard-response","226","167287","0.0-226.0","","img/set1/S4.jpg","74","4","random","74","random,structured_load,structured_normal,structured_incentive","2,1,2,3,3,4","true","",""
"null","","html-keyboard-response","227","167639","0.0-227.0","","<img src=""img/set1/S4.jpg"" width=""540"" height = ""360"" style=""border:16px solid orange"">","null","","","","","","","",""
"null","","html-keyboard-response","228","167840","0.0-228.0","","","null","","","","","","","",""
"362","","image-keyboard-response","229","168203","0.0-229.0","","img/set1/S4.jpg","74","4","random","74","random,structured_load,structured_normal,structured_incentive","2,1,2,3,3,4","true","",""
"null","","html-keyboard-response","230","168555","0.0-230.0","","<img src=""img/set1/S4.jpg"" width=""540"" height = ""360"" style=""border:16px solid orange"">","null","","","","","","","",""
"null","","html-keyboard-response","231","168756","0.0-231.0","","","null","","","","","","","",""
"372.30000001192093","","image-keyboard-response","232","169129","0.0-232.0","","img/set1/S4.jpg","74","4","random","74","random,structured_load,structured_normal,structured_incentive","2,1,2,3,3,4","true","",""
"null","","html-keyboard-response","233","169483","0.0-233.0","","<img src=""img/set1/S4.jpg"" width=""540"" height = ""360"" style=""border:16px solid orange"">","null","","","","","","","",""
"null","","html-keyboard-response","234","169684","0.0-234.0","","","null","","","","","","","",""
"511.09999999403954","","image-keyboard-response","235","170196","0.0-235.0","","img/set1/S2.jpg","68","2","random","68","random,structured_load,structured_normal,structured_incentive","2,1,2,3,3,4","true","",""
"null","","html-keyboard-response","236","170547","0.0-236.0","","<img src=""img/set1/S2.jpg"" width=""540"" height = ""360"" style=""border:16px solid orange"">","null","","","","","","","",""
"null","","html-keyboard-response","237","170749","0.0-237.0","","","null","","","","","","","",""
"308","","image-keyboard-response","238","171057","0.0-238.0","","img/set1/S2.jpg","68","2","random","68","random,structured_load,structured_normal,structured_incentive","2,1,2,3,3,4","true","",""
"null","","html-keyboard-response","239","171409","0.0-239.0","","<img src=""img/set1/S2.jpg"" width=""540"" height = ""360"" style=""border:16px solid orange"">","null","","","","","","","",""
"null","","html-keyboard-response","240","171610","0.0-240.0","","","null","","","","","","","",""
"336.09999999403954","","image-keyboard-response","241","171947","0.0-241.0","","img/set1/S4.jpg","68","4","random","74","random,structured_load,structured_normal,structured_incentive","2,1,2,3,3,4","false","",""
"null","","html-keyboard-response","242","172298","0.0-242.0","","<img src=""img/set1/S4.jpg"" width=""540"" height = ""360"">","null","","","","","","","",""
"null","","html-keyboard-response","243","172500","0.0-243.0","","","null","","","","","","","",""
"512.6999999880791","","image-keyboard-response","244","173013","0.0-244.0","","img/set1/S2.jpg","68","2","random","68","random,structured_load,structured_normal,structured_incentive","2,1,2,3,3,4","true","",""
"null","","html-keyboard-response","245","173364","0.0-245.0","","<img src=""img/set1/S2.jpg"" width=""540"" height = ""360"" style=""border:16px solid orange"">","null","","","","","","","",""
"null","","html-keyboard-response","246","173566","0.0-246.0","","","null","","","","","","","",""
"580.6999999880791","","image-keyboard-response","247","174147","0.0-247.0","","img/set1/S1.jpg","83","1","random","83","random,structured_load,structured_normal,structured_incentive","2,1,2,3,3,4","true","",""
"null","","html-keyboard-response","248","174499","0.0-248.0","","<img src=""img/set1/S1.jpg"" width=""540"" height = ""360"" style=""border:16px solid orange"">","null","","","","","","","",""
"null","","html-keyboard-response","249","174701","0.0-249.0","","","null","","","","","","","",""
"634.4000000059605","","image-keyboard-response","250","175336","0.0-250.0","","img/set1/S2.jpg","68","2","random","68","random,structured_load,structured_normal,structured_incentive","2,1,2,3,3,4","true","",""
"null","","html-keyboard-response","251","175687","0.0-251.0","","<img src=""img/set1/S2.jpg"" width=""540"" height = ""360"" style=""border:16px solid orange"">","null","","","","","","","",""
"null","","html-keyboard-response","252","175889","0.0-252.0","","","null","","","","","","","",""
"411","","image-keyboard-response","253","176300","0.0-253.0","","img/set1/S2.jpg","68","2","random","68","random,structured_load,structured_normal,structured_incentive","2,1,2,3,3,4","true","",""
"null","","html-keyboard-response","254","176652","0.0-254.0","","<img src=""img/set1/S2.jpg"" width=""540"" height = ""360"" style=""border:16px solid orange"">","null","","","","","","","",""
"null","","html-keyboard-response","255","176853","0.0-255.0","","","null","","","","","","","",""
"611.1999999880791","","image-keyboard-response","256","177466","0.0-256.0","","img/set1/S1.jpg","83","1","random","83","random,structured_load,structured_normal,structured_incentive","2,1,2,3,3,4","true","",""
"null","","html-keyboard-response","257","177818","0.0-257.0","","<img src=""img/set1/S1.jpg"" width=""540"" height = ""360"" style=""border:16px solid orange"">","null","","","","","","","",""
"null","","html-keyboard-response","258","178019","0.0-258.0","","","null","","","","","","","",""
"452.5","","image-keyboard-response","259","178472","0.0-259.0","","img/set1/S4.jpg","74","4","random","74","random,structured_load,structured_normal,structured_incentive","2,1,2,3,3,4","true","",""
"null","","html-keyboard-response","260","178823","0.0-260.0","","<img src=""img/set1/S4.jpg"" width=""540"" height = ""360"" style=""border:16px solid orange"">","null","","","","","","","",""
"null","","html-keyboard-response","261","179025","0.0-261.0","","","null","","","","","","","",""
"524.1999999880791","","image-keyboard-response","262","179550","0.0-262.0","","img/set1/S2.jpg","68","2","random","68","random,structured_load,structured_normal,structured_incentive","2,1,2,3,3,4","true","",""
"null","","html-keyboard-response","263","179902","0.0-263.0","","<img src=""img/set1/S2.jpg"" width=""540"" height = ""360"" style=""border:16px solid orange"">","null","","","","","","","",""
"null","","html-keyboard-response","264","180103","0.0-264.0","","","null","","","","","","","",""
"699.6999999880791","","image-keyboard-response","265","180804","0.0-265.0","","img/set1/S3.jpg","72","3","random","72","random,structured_load,structured_normal,structured_incentive","2,1,2,3,3,4","true","",""
"null","","html-keyboard-response","266","181157","0.0-266.0","","<img src=""img/set1/S3.jpg"" width=""540"" height = ""360"" style=""border:16px solid orange"">","null","","","","","","","",""
"null","","html-keyboard-response","267","181359","0.0-267.0","","","null","","","","","","","",""
"484.30000001192093","","image-keyboard-response","268","181844","0.0-268.0","","img/set1/S2.jpg","68","2","random","68","random,structured_load,structured_normal,structured_incentive","2,1,2,3,3,4","true","",""
"null","","html-keyboard-response","269","182196","0.0-269.0","","<img src=""img/set1/S2.jpg"" width=""540"" height = ""360"" style=""border:16px solid orange"">","null","","","","","","","",""
"null","","html-keyboard-response","270","182398","0.0-270.0","","","null","","","","","","","",""
"549.2000000178814","","image-keyboard-response","271","182948","0.0-271.0","","img/set1/S4.jpg","74","4","random","74","random,structured_load,structured_normal,structured_incentive","2,1,2,3,3,4","true","",""
"null","","html-keyboard-response","272","183300","0.0-272.0","","<img src=""img/set1/S4.jpg"" width=""540"" height = ""360"" style=""border:16px solid orange"">","null","","","","","","","",""
"null","","html-keyboard-response","273","183501","0.0-273.0","","","null","","","","","","","",""
"653.9000000059605","","image-keyboard-response","274","184155","0.0-274.0","","img/set1/S3.jpg","72","3","random","72","random,structured_load,structured_normal,structured_incentive","2,1,2,3,3,4","true","",""
"null","","html-keyboard-response","275","184506","0.0-275.0","","<img src=""img/set1/S3.jpg"" width=""540"" height = ""360"" style=""border:16px solid orange"">","null","","","","","","","",""
"null","","html-keyboard-response","276","184708","0.0-276.0","","","null","","","","","","","",""
"501.2000000178814","","image-keyboard-response","277","185209","0.0-277.0","","img/set1/S4.jpg","74","4","random","74","random,structured_load,structured_normal,structured_incentive","2,1,2,3,3,4","true","",""
"null","","html-keyboard-response","278","185562","0.0-278.0","","<img src=""img/set1/S4.jpg"" width=""540"" height = ""360"" style=""border:16px solid orange"">","null","","","","","","","",""
"null","","html-keyboard-response","279","185764","0.0-279.0","","","null","","","","","","","",""
"479.59999999403954","","image-keyboard-response","280","186244","0.0-280.0","","img/set1/S3.jpg","74","3","random","72","random,structured_load,structured_normal,structured_incentive","2,1,2,3,3,4","false","",""
"null","","html-keyboard-response","281","186595","0.0-281.0","","<img src=""img/set1/S3.jpg"" width=""540"" height = ""360"">","null","","","","","","","",""
"null","","html-keyboard-response","282","186797","0.0-282.0","","","null","","","","","","","",""
"604.2000000178814","","image-keyboard-response","283","187402","0.0-283.0","","img/set1/S1.jpg","83","1","random","83","random,structured_load,structured_normal,structured_incentive","2,1,2,3,3,4","true","",""
"null","","html-keyboard-response","284","187753","0.0-284.0","","<img src=""img/set1/S1.jpg"" width=""540"" height = ""360"" style=""border:16px solid orange"">","null","","","","","","","",""
"null","","html-keyboard-response","285","187954","0.0-285.0","","","null","","","","","","","",""
"521.5","","image-keyboard-response","286","188476","0.0-286.0","","img/set1/S3.jpg","72","3","random","72","random,structured_load,structured_normal,structured_incentive","2,1,2,3,3,4","true","",""
"null","","html-keyboard-response","287","188829","0.0-287.0","","<img src=""img/set1/S3.jpg"" width=""540"" height = ""360"" style=""border:16px solid orange"">","null","","","","","","","",""
"null","","html-keyboard-response","288","189030","0.0-288.0","","","null","","","","","","","",""
"924","","image-keyboard-response","289","189955","0.0-289.0","","img/set1/S2.jpg","68","2","random","68","random,structured_load,structured_normal,structured_incentive","2,1,2,3,3,4","true","",""
"null","","html-keyboard-response","290","190306","0.0-290.0","","<img src=""img/set1/S2.jpg"" width=""540"" height = ""360"" style=""border:16px solid orange"">","null","","","","","","","",""
"null","","html-keyboard-response","291","190507","0.0-291.0","","","null","","","","","","","",""
"547.5","","image-keyboard-response","292","191055","0.0-292.0","","img/set1/S4.jpg","74","4","random","74","random,structured_load,structured_normal,structured_incentive","2,1,2,3,3,4","true","",""
"null","","html-keyboard-response","293","191407","0.0-293.0","","<img src=""img/set1/S4.jpg"" width=""540"" height = ""360"" style=""border:16px solid orange"">","null","","","","","","","",""
"null","","html-keyboard-response","294","191619","0.0-294.0","","","null","","","","","","","",""
"621.6999999880791","","image-keyboard-response","295","192242","0.0-295.0","","img/set1/S3.jpg","72","3","random","72","random,structured_load,structured_normal,structured_incentive","2,1,2,3,3,4","true","",""
"null","","html-keyboard-response","296","192594","0.0-296.0","","<img src=""img/set1/S3.jpg"" width=""540"" height = ""360"" style=""border:16px solid orange"">","null","","","","","","","",""
"null","","html-keyboard-response","297","192796","0.0-297.0","","","null","","","","","","","",""
"592","","image-keyboard-response","298","193389","0.0-298.0","","img/set1/S4.jpg","74","4","random","74","random,structured_load,structured_normal,structured_incentive","2,1,2,3,3,4","true","",""
"null","","html-keyboard-response","299","193741","0.0-299.0","","<img src=""img/set1/S4.jpg"" width=""540"" height = ""360"" style=""border:16px solid orange"">","null","","","","","","","",""
"null","","html-keyboard-response","300","193942","0.0-300.0","","","null","","","","","","","",""
"506.5","","image-keyboard-response","301","194449","0.0-301.0","","img/set1/S4.jpg","74","4","random","74","random,structured_load,structured_normal,structured_incentive","2,1,2,3,3,4","true","",""
"null","","html-keyboard-response","302","194800","0.0-302.0","","<img src=""img/set1/S4.jpg"" width=""540"" height = ""360"" style=""border:16px solid orange"">","null","","","","","","","",""
"null","","html-keyboard-response","303","195002","0.0-303.0","","","null","","","","","","","",""
"630.6999999880791","","image-keyboard-response","304","195634","0.0-304.0","","img/set1/S3.jpg","72","3","random","72","random,structured_load,structured_normal,structured_incentive","2,1,2,3,3,4","true","",""
"null","","html-keyboard-response","305","195985","0.0-305.0","","<img src=""img/set1/S3.jpg"" width=""540"" height = ""360"" style=""border:16px solid orange"">","null","","","","","","","",""
"null","","html-keyboard-response","306","196186","0.0-306.0","","","null","","","","","","","",""
"589.4000000059605","","image-keyboard-response","307","196775","0.0-307.0","","img/set1/S2.jpg","68","2","random","68","random,structured_load,structured_normal,structured_incentive","2,1,2,3,3,4","true","",""
"null","","html-keyboard-response","308","197127","0.0-308.0","","<img src=""img/set1/S2.jpg"" width=""540"" height = ""360"" style=""border:16px solid orange"">","null","","","","","","","",""
"null","","html-keyboard-response","309","197329","0.0-309.0","","","null","","","","","","","",""
"512.3000000119209","","image-keyboard-response","310","197842","0.0-310.0","","img/set1/S4.jpg","74","4","random","74","random,structured_load,structured_normal,structured_incentive","2,1,2,3,3,4","true","",""
"null","","html-keyboard-response","311","198193","0.0-311.0","","<img src=""img/set1/S4.jpg"" width=""540"" height = ""360"" style=""border:16px solid orange"">","null","","","","","","","",""
"null","","html-keyboard-response","312","198395","0.0-312.0","","","null","","","","","","","",""
"535.4000000059605","","image-keyboard-response","313","198932","0.0-313.0","","img/set1/S3.jpg","72","3","random","72","random,structured_load,structured_normal,structured_incentive","2,1,2,3,3,4","true","",""
"null","","html-keyboard-response","314","199283","0.0-314.0","","<img src=""img/set1/S3.jpg"" width=""540"" height = ""360"" style=""border:16px solid orange"">","null","","","","","","","",""
"null","","html-keyboard-response","315","199485","0.0-315.0","","","null","","","","","","","",""
"382.80000001192093","","image-keyboard-response","316","199869","0.0-316.0","","img/set1/S3.jpg","72","3","random","72","random,structured_load,structured_normal,structured_incentive","2,1,2,3,3,4","true","",""
"null","","html-keyboard-response","317","200222","0.0-317.0","","<img src=""img/set1/S3.jpg"" width=""540"" height = ""360"" style=""border:16px solid orange"">","null","","","","","","","",""
"null","","html-keyboard-response","318","200423","0.0-318.0","","","null","","","","","","","",""
"368.09999999403954","","image-keyboard-response","319","200792","0.0-319.0","","img/set1/S3.jpg","72","3","random","72","random,structured_load,structured_normal,structured_incentive","2,1,2,3,3,4","true","",""
"null","","html-keyboard-response","320","201143","0.0-320.0","","<img src=""img/set1/S3.jpg"" width=""540"" height = ""360"" style=""border:16px solid orange"">","null","","","","","","","",""
"null","","html-keyboard-response","321","201344","0.0-321.0","","","null","","","","","","","",""
"538.0999999940395","","image-keyboard-response","322","201883","0.0-322.0","","img/set1/S2.jpg","68","2","random","68","random,structured_load,structured_normal,structured_incentive","2,1,2,3,3,4","true","",""
"null","","html-keyboard-response","323","202235","0.0-323.0","","<img src=""img/set1/S2.jpg"" width=""540"" height = ""360"" style=""border:16px solid orange"">","null","","","","","","","",""
"null","","html-keyboard-response","324","202436","0.0-324.0","","","null","","","","","","","",""
"394.40000000596046","","image-keyboard-response","325","202831","0.0-325.0","","img/set1/S2.jpg","68","2","random","68","random,structured_load,structured_normal,structured_incentive","2,1,2,3,3,4","true","",""
"null","","html-keyboard-response","326","203183","0.0-326.0","","<img src=""img/set1/S2.jpg"" width=""540"" height = ""360"" style=""border:16px solid orange"">","null","","","","","","","",""
"null","","html-keyboard-response","327","203384","0.0-327.0","","","null","","","","","","","",""
"617.3000000119209","","image-keyboard-response","328","204002","0.0-328.0","","img/set1/S1.jpg","83","1","random","83","random,structured_load,structured_normal,structured_incentive","2,1,2,3,3,4","true","",""
"null","","html-keyboard-response","329","204353","0.0-329.0","","<img src=""img/set1/S1.jpg"" width=""540"" height = ""360"" style=""border:16px solid orange"">","null","","","","","","","",""
"null","","html-keyboard-response","330","204554","0.0-330.0","","","null","","","","","","","",""
"820.5","","image-keyboard-response","331","205376","0.0-331.0","","img/set1/S3.jpg","68","3","random","72","random,structured_load,structured_normal,structured_incentive","2,1,2,3,3,4","false","",""
"null","","html-keyboard-response","332","205727","0.0-332.0","","<img src=""img/set1/S3.jpg"" width=""540"" height = ""360"">","null","","","","","","","",""
"null","","html-keyboard-response","333","205929","0.0-333.0","","","null","","","","","","","",""
"390.2000000178814","","image-keyboard-response","334","206320","0.0-334.0","","img/set1/S3.jpg","72","3","random","72","random,structured_load,structured_normal,structured_incentive","2,1,2,3,3,4","true","",""
"null","","html-keyboard-response","335","206671","0.0-335.0","","<img src=""img/set1/S3.jpg"" width=""540"" height = ""360"" style=""border:16px solid orange"">","null","","","","","","","",""
"null","","html-keyboard-response","336","206881","0.0-336.0","","","null","","","","","","","",""
"480.80000001192093","","image-keyboard-response","337","207363","0.0-337.0","","img/set1/S4.jpg","74","4","random","74","random,structured_load,structured_normal,structured_incentive","2,1,2,3,3,4","true","",""
"null","","html-keyboard-response","338","207714","0.0-338.0","","<img src=""img/set1/S4.jpg"" width=""540"" height = ""360"" style=""border:16px solid orange"">","null","","","","","","","",""
"null","","html-keyboard-response","339","207916","0.0-339.0","","","null","","","","","","","",""
"345.80000001192093","","image-keyboard-response","340","208263","0.0-340.0","","img/set1/S3.jpg","74","3","random","72","random,structured_load,structured_normal,structured_incentive","2,1,2,3,3,4","false","",""
"null","","html-keyboard-response","341","208615","0.0-341.0","","<img src=""img/set1/S3.jpg"" width=""540"" height = ""360"">","null","","","","","","","",""
"null","","html-keyboard-response","342","208817","0.0-342.0","","","null","","","","","","","",""
"998.9000000059605","","image-keyboard-response","343","209817","0.0-343.0","","img/set1/S2.jpg","68","2","random","68","random,structured_load,structured_normal,structured_incentive","2,1,2,3,3,4","true","",""
"null","","html-keyboard-response","344","210170","0.0-344.0","","<img src=""img/set1/S2.jpg"" width=""540"" height = ""360"" style=""border:16px solid orange"">","null","","","","","","","",""
"null","","html-keyboard-response","345","210372","0.0-345.0","","","null","","","","","","","",""
"621.8000000119209","","image-keyboard-response","346","210995","0.0-346.0","","img/set1/S4.jpg","74","4","random","74","random,structured_load,structured_normal,structured_incentive","2,1,2,3,3,4","true","",""
"null","","html-keyboard-response","347","211346","0.0-347.0","","<img src=""img/set1/S4.jpg"" width=""540"" height = ""360"" style=""border:16px solid orange"">","null","","","","","","","",""
"null","","html-keyboard-response","348","211549","0.0-348.0","","","null","","","","","","","",""
"795.7999999821186","","image-keyboard-response","349","212345","0.0-349.0","","img/set1/S2.jpg","68","2","random","68","random,structured_load,structured_normal,structured_incentive","2,1,2,3,3,4","true","",""
"null","","html-keyboard-response","350","212705","0.0-350.0","","<img src=""img/set1/S2.jpg"" width=""540"" height = ""360"" style=""border:16px solid orange"">","null","","","","","","","",""
"null","","html-keyboard-response","351","212907","0.0-351.0","","","null","","","","","","","",""
"578.7000000178814","","image-keyboard-response","352","213486","0.0-352.0","","img/set1/S1.jpg","83","1","random","83","random,structured_load,structured_normal,structured_incentive","2,1,2,3,3,4","true","",""
"null","","html-keyboard-response","353","213838","0.0-353.0","","<img src=""img/set1/S1.jpg"" width=""540"" height = ""360"" style=""border:16px solid orange"">","null","","","","","","","",""
"null","","html-keyboard-response","354","214039","0.0-354.0","","","null","","","","","","","",""
"577.9000000059605","","image-keyboard-response","355","214618","0.0-355.0","","img/set1/S3.jpg","68","3","random","72","random,structured_load,structured_normal,structured_incentive","2,1,2,3,3,4","false","",""
"null","","html-keyboard-response","356","214969","0.0-356.0","","<img src=""img/set1/S3.jpg"" width=""540"" height = ""360"">","null","","","","","","","",""
"null","","html-keyboard-response","357","215170","0.0-357.0","","","null","","","","","","","",""
"1073.5999999940395","","image-keyboard-response","358","216245","0.0-358.0","","img/set1/S4.jpg","74","4","random","74","random,structured_load,structured_normal,structured_incentive","2,1,2,3,3,4","true","",""
"null","","html-keyboard-response","359","216596","0.0-359.0","","<img src=""img/set1/S4.jpg"" width=""540"" height = ""360"" style=""border:16px solid orange"">","null","","","","","","","",""
"null","","html-keyboard-response","360","216797","0.0-360.0","","","null","","","","","","","",""
"597.6999999880791","","image-keyboard-response","361","217396","0.0-361.0","","img/set1/S4.jpg","74","4","random","74","random,structured_load,structured_normal,structured_incentive","2,1,2,3,3,4","true","",""
"null","","html-keyboard-response","362","217747","0.0-362.0","","<img src=""img/set1/S4.jpg"" width=""540"" height = ""360"" style=""border:16px solid orange"">","null","","","","","","","",""
"null","","html-keyboard-response","363","217947","0.0-363.0","","","null","","","","","","","",""
"2598.300000011921","","html-keyboard-response","364","220546","0.0-364.0","","<p class=""center-content"">You have completed a block! </p><p class=""center-content"">Press any key on the keyboard to continue, </p><p class=""center-content"">or wait for the automatic progression to the next block after one minute.</p>","32","","","","","","","",""
"8061","","instructions","365","228608","0.0-365.0","[{""page_index"":0,""viewing_time"":8060.800000011921}]","","","","","","","","","",""
"19081.59999999404","","instructions","366","247690","0.0-366.0","[{""page_index"":0,""viewing_time"":17351.40000000596},{""page_index"":1,""viewing_time"":1730}]","","","","","","","","","",""
"952.8000000119209","","image-keyboard-response","367","248643","0.0-367.0","","img/set2/S2.jpg","83","2","structured_load","68","random,structured_load,structured_normal,structured_incentive","2,1,2,3,3,4","false","",""
"null","","html-keyboard-response","368","248995","0.0-368.0","","<img src=""img/set2/S2.jpg"" width=""540"" height = ""360"">","null","","","","","","","",""
"null","","html-keyboard-response","369","249196","0.0-369.0","","","null","","","","","","","",""
"639.9000000059605","","image-keyboard-response","370","249836","0.0-370.0","","img/set2/S1.jpg","68","1","structured_load","83","random,structured_load,structured_normal,structured_incentive","2,1,2,3,3,4","false","",""
"null","","html-keyboard-response","371","250187","0.0-371.0","","<img src=""img/set2/S1.jpg"" width=""540"" height = ""360"">","null","","","","","","","",""
"null","","html-keyboard-response","372","250388","0.0-372.0","","","null","","","","","","","",""
"1399.5999999940395","","image-keyboard-response","373","251788","0.0-373.0","","img/set2/S4.jpg","68","4","structured_load","74","random,structured_load,structured_normal,structured_incentive","2,1,2,3,3,4","false","",""
"null","","html-keyboard-response","374","252140","0.0-374.0","","<img src=""img/set2/S4.jpg"" width=""540"" height = ""360"">","null","","","","","","","",""
"null","","html-keyboard-response","375","252341","0.0-375.0","","","null","","","","","","","",""
"373.7999999821186","","image-keyboard-response","376","252715","0.0-376.0","","img/set2/S4.jpg","74","4","structured_load","74","random,structured_load,structured_normal,structured_incentive","2,1,2,3,3,4","true","",""
"null","","html-keyboard-response","377","253067","0.0-377.0","","<img src=""img/set2/S4.jpg"" width=""540"" height = ""360"" style=""border:16px solid orange"">","null","","","","","","","",""
"null","","html-keyboard-response","378","253268","0.0-378.0","","","null","","","","","","","",""
"757.9000000059605","","image-keyboard-response","379","254027","0.0-379.0","","img/set2/S2.jpg","68","2","structured_load","68","random,structured_load,structured_normal,structured_incentive","2,1,2,3,3,4","true","",""
"null","","html-keyboard-response","380","254380","0.0-380.0","","<img src=""img/set2/S2.jpg"" width=""540"" height = ""360"" style=""border:16px solid orange"">","null","","","","","","","",""
"null","","html-keyboard-response","381","254581","0.0-381.0","","","null","","","","","","","",""
"2093.5","","image-keyboard-response","382","256675","0.0-382.0","","img/set2/S1.jpg","74","1","structured_load","83","random,structured_load,structured_normal,structured_incentive","2,1,2,3,3,4","false","",""
"null","","html-keyboard-response","383","257027","0.0-383.0","","<img src=""img/set2/S1.jpg"" width=""540"" height = ""360"">","null","","","","","","","",""
"null","","html-keyboard-response","384","257228","0.0-384.0","","","null","","","","","","","",""
"2187.7000000178814","","image-keyboard-response","385","259416","0.0-385.0","","img/set2/S2.jpg","72","2","structured_load","68","random,structured_load,structured_normal,structured_incentive","2,1,2,3,3,4","false","",""
"null","","html-keyboard-response","386","259767","0.0-386.0","","<img src=""img/set2/S2.jpg"" width=""540"" height = ""360"">","null","","","","","","","",""
"null","","html-keyboard-response","387","259969","0.0-387.0","","","null","","","","","","","",""
"834.0999999940395","","image-keyboard-response","388","260803","0.0-388.0","","img/set2/S1.jpg","68","1","structured_load","83","random,structured_load,structured_normal,structured_incentive","2,1,2,3,3,4","false","",""
"null","","html-keyboard-response","389","261156","0.0-389.0","","<img src=""img/set2/S1.jpg"" width=""540"" height = ""360"">","null","","","","","","","",""
"null","","html-keyboard-response","390","261357","0.0-390.0","","","null","","","","","","","",""
"312.39999997615814","","image-keyboard-response","391","261670","0.0-391.0","","img/set2/S4.jpg","83","4","structured_load","74","random,structured_load,structured_normal,structured_incentive","2,1,2,3,3,4","false","",""
"null","","html-keyboard-response","392","262021","0.0-392.0","","<img src=""img/set2/S4.jpg"" width=""540"" height = ""360"">","null","","","","","","","",""
"null","","html-keyboard-response","393","262223","0.0-393.0","","","null","","","","","","","",""
"131","","image-keyboard-response","394","262355","0.0-394.0","","img/set2/S2.jpg","74","2","structured_load","68","random,structured_load,structured_normal,structured_incentive","2,1,2,3,3,4","false","",""
"null","","html-keyboard-response","395","262706","0.0-395.0","","<img src=""img/set2/S2.jpg"" width=""540"" height = ""360"">","null","","","","","","","",""
"null","","html-keyboard-response","396","262908","0.0-396.0","","","null","","","","","","","",""
"241.7999999821186","","image-keyboard-response","397","263151","0.0-397.0","","img/set2/S1.jpg","72","1","structured_load","83","random,structured_load,structured_normal,structured_incentive","2,1,2,3,3,4","false","",""
"null","","html-keyboard-response","398","263503","0.0-398.0","","<img src=""img/set2/S1.jpg"" width=""540"" height = ""360"">","null","","","","","","","",""
"null","","html-keyboard-response","399","263704","0.0-399.0","","","null","","","","","","","",""
"561.5999999940395","","image-keyboard-response","400","264266","0.0-400.0","","img/set2/S3.jpg","68","3","structured_load","72","random,structured_load,structured_normal,structured_incentive","2,1,2,3,3,4","false","",""
"null","","html-keyboard-response","401","264618","0.0-401.0","","<img src=""img/set2/S3.jpg"" width=""540"" height = ""360"">","null","","","","","","","",""
"null","","html-keyboard-response","402","264819","0.0-402.0","","","null","","","","","","","",""
"211.69999998807907","","image-keyboard-response","403","265031","0.0-403.0","","img/set2/S3.jpg","83","3","structured_load","72","random,structured_load,structured_normal,structured_incentive","2,1,2,3,3,4","false","",""
"null","","html-keyboard-response","404","265383","0.0-404.0","","<img src=""img/set2/S3.jpg"" width=""540"" height = ""360"">","null","","","","","","","",""
"null","","html-keyboard-response","405","265585","0.0-405.0","","","null","","","","","","","",""
"203.5","","image-keyboard-response","406","265789","0.0-406.0","","img/set2/S3.jpg","72","3","structured_load","72","random,structured_load,structured_normal,structured_incentive","2,1,2,3,3,4","true","",""
"null","","html-keyboard-response","407","266140","0.0-407.0","","<img src=""img/set2/S3.jpg"" width=""540"" height = ""360"" style=""border:16px solid orange"">","null","","","","","","","",""
"null","","html-keyboard-response","408","266343","0.0-408.0","","","null","","","","","","","",""
"946.6999999880791","","image-keyboard-response","409","267290","0.0-409.0","","img/set2/S4.jpg","74","4","structured_load","74","random,structured_load,structured_normal,structured_incentive","2,1,2,3,3,4","true","",""
"null","","html-keyboard-response","410","267641","0.0-410.0","","<img src=""img/set2/S4.jpg"" width=""540"" height = ""360"" style=""border:16px solid orange"">","null","","","","","","","",""
"null","","html-keyboard-response","411","267842","0.0-411.0","","","null","","","","","","","",""
"602.2000000178814","","image-keyboard-response","412","268445","0.0-412.0","","img/set2/S4.jpg","74","4","structured_load","74","random,structured_load,structured_normal,structured_incentive","2,1,2,3,3,4","true","",""
"null","","html-keyboard-response","413","268797","0.0-413.0","","<img src=""img/set2/S4.jpg"" width=""540"" height = ""360"" style=""border:16px solid orange"">","null","","","","","","","",""
"null","","html-keyboard-response","414","268998","0.0-414.0","","","null","","","","","","","",""
"968.5999999940395","","image-keyboard-response","415","269967","0.0-415.0","","img/set2/S2.jpg","68","2","structured_load","68","random,structured_load,structured_normal,structured_incentive","2,1,2,3,3,4","true","",""
"null","","html-keyboard-response","416","270318","0.0-416.0","","<img src=""img/set2/S2.jpg"" width=""540"" height = ""360"" style=""border:16px solid orange"">","null","","","","","","","",""
"null","","html-keyboard-response","417","270520","0.0-417.0","","","null","","","","","","","",""
"733.0999999940395","","image-keyboard-response","418","271255","0.0-418.0","","img/set2/S1.jpg","72","1","structured_load","83","random,structured_load,structured_normal,structured_incentive","2,1,2,3,3,4","false","",""
"null","","html-keyboard-response","419","271606","0.0-419.0","","<img src=""img/set2/S1.jpg"" width=""540"" height = ""360"">","null","","","","","","","",""
"null","","html-keyboard-response","420","271807","0.0-420.0","","","null","","","","","","","",""
"788.9000000059605","","image-keyboard-response","421","272597","0.0-421.0","","img/set2/S2.jpg","68","2","structured_load","68","random,structured_load,structured_normal,structured_incentive","2,1,2,3,3,4","true","",""
"null","","html-keyboard-response","422","272947","0.0-422.0","","<img src=""img/set2/S2.jpg"" width=""540"" height = ""360"" style=""border:16px solid orange"">","null","","","","","","","",""
"null","","html-keyboard-response","423","273149","0.0-423.0","","","null","","","","","","","",""
"910","","image-keyboard-response","424","274059","0.0-424.0","","img/set2/S1.jpg","83","1","structured_load","83","random,structured_load,structured_normal,structured_incentive","2,1,2,3,3,4","true","",""
"null","","html-keyboard-response","425","274410","0.0-425.0","","<img src=""img/set2/S1.jpg"" width=""540"" height = ""360"" style=""border:16px solid orange"">","null","","","","","","","",""
"null","","html-keyboard-response","426","274611","0.0-426.0","","","null","","","","","","","",""
"844.1999999880791","","image-keyboard-response","427","275456","0.0-427.0","","img/set2/S4.jpg","72","4","structured_load","74","random,structured_load,structured_normal,structured_incentive","2,1,2,3,3,4","false","",""
"null","","html-keyboard-response","428","275807","0.0-428.0","","<img src=""img/set2/S4.jpg"" width=""540"" height = ""360"">","null","","","","","","","",""
"null","","html-keyboard-response","429","276009","0.0-429.0","","","null","","","","","","","",""
"673.0999999940395","","image-keyboard-response","430","276683","0.0-430.0","","img/set2/S2.jpg","68","2","structured_load","68","random,structured_load,structured_normal,structured_incentive","2,1,2,3,3,4","true","",""
"null","","html-keyboard-response","431","277034","0.0-431.0","","<img src=""img/set2/S2.jpg"" width=""540"" height = ""360"" style=""border:16px solid orange"">","null","","","","","","","",""
"null","","html-keyboard-response","432","277235","0.0-432.0","","","null","","","","","","","",""
"1253.199999988079","","image-keyboard-response","433","278489","0.0-433.0","","img/set2/S1.jpg","74","1","structured_load","83","random,structured_load,structured_normal,structured_incentive","2,1,2,3,3,4","false","",""
"null","","html-keyboard-response","434","278841","0.0-434.0","","<img src=""img/set2/S1.jpg"" width=""540"" height = ""360"">","null","","","","","","","",""
"null","","html-keyboard-response","435","279047","0.0-435.0","","","null","","","","","","","",""
"943.3000000119209","","image-keyboard-response","436","279991","0.0-436.0","","img/set2/S4.jpg","72","4","structured_load","74","random,structured_load,structured_normal,structured_incentive","2,1,2,3,3,4","false","",""
"null","","html-keyboard-response","437","280342","0.0-437.0","","<img src=""img/set2/S4.jpg"" width=""540"" height = ""360"">","null","","","","","","","",""
"null","","html-keyboard-response","438","280543","0.0-438.0","","","null","","","","","","","",""
"847.5","","image-keyboard-response","439","281391","0.0-439.0","","img/set2/S3.jpg","74","3","structured_load","72","random,structured_load,structured_normal,structured_incentive","2,1,2,3,3,4","false","",""
"null","","html-keyboard-response","440","281742","0.0-440.0","","<img src=""img/set2/S3.jpg"" width=""540"" height = ""360"">","null","","","","","","","",""
"null","","html-keyboard-response","441","281943","0.0-441.0","","","null","","","","","","","",""
"567.9000000059605","","image-keyboard-response","442","282512","0.0-442.0","","img/set2/S2.jpg","68","2","structured_load","68","random,structured_load,structured_normal,structured_incentive","2,1,2,3,3,4","true","",""
"null","","html-keyboard-response","443","282863","0.0-443.0","","<img src=""img/set2/S2.jpg"" width=""540"" height = ""360"" style=""border:16px solid orange"">","null","","","","","","","",""
"null","","html-keyboard-response","444","283064","0.0-444.0","","","null","","","","","","","",""
"681.6000000238419","","image-keyboard-response","445","283746","0.0-445.0","","img/set2/S1.jpg","83","1","structured_load","83","random,structured_load,structured_normal,structured_incentive","2,1,2,3,3,4","true","",""
"null","","html-keyboard-response","446","284098","0.0-446.0","","<img src=""img/set2/S1.jpg"" width=""540"" height = ""360"" style=""border:16px solid orange"">","null","","","","","","","",""
"null","","html-keyboard-response","447","284299","0.0-447.0","","","null","","","","","","","",""
"818","","image-keyboard-response","448","285118","0.0-448.0","","img/set2/S2.jpg","68","2","structured_load","68","random,structured_load,structured_normal,structured_incentive","2,1,2,3,3,4","true","",""
"null","","html-keyboard-response","449","285470","0.0-449.0","","<img src=""img/set2/S2.jpg"" width=""540"" height = ""360"" style=""border:16px solid orange"">","null","","","","","","","",""
"null","","html-keyboard-response","450","285671","0.0-450.0","","","null","","","","","","","",""
"571.7999999821186","","image-keyboard-response","451","286243","0.0-451.0","","img/set2/S1.jpg","83","1","structured_load","83","random,structured_load,structured_normal,structured_incentive","2,1,2,3,3,4","true","",""
"null","","html-keyboard-response","452","286595","0.0-452.0","","<img src=""img/set2/S1.jpg"" width=""540"" height = ""360"" style=""border:16px solid orange"">","null","","","","","","","",""
"null","","html-keyboard-response","453","286797","0.0-453.0","","","null","","","","","","","",""
"675","","image-keyboard-response","454","287473","0.0-454.0","","img/set2/S3.jpg","72","3","structured_load","72","random,structured_load,structured_normal,structured_incentive","2,1,2,3,3,4","true","",""
"null","","html-keyboard-response","455","287824","0.0-455.0","","<img src=""img/set2/S3.jpg"" width=""540"" height = ""360"" style=""border:16px solid orange"">","null","","","","","","","",""
"null","","html-keyboard-response","456","288027","0.0-456.0","","","null","","","","","","","",""
"449","","image-keyboard-response","457","288476","0.0-457.0","","img/set2/S3.jpg","72","3","structured_load","72","random,structured_load,structured_normal,structured_incentive","2,1,2,3,3,4","true","",""
"null","","html-keyboard-response","458","288828","0.0-458.0","","<img src=""img/set2/S3.jpg"" width=""540"" height = ""360"" style=""border:16px solid orange"">","null","","","","","","","",""
"null","","html-keyboard-response","459","289029","0.0-459.0","","","null","","","","","","","",""
"739.5","","image-keyboard-response","460","289769","0.0-460.0","","img/set2/S2.jpg","68","2","structured_load","68","random,structured_load,structured_normal,structured_incentive","2,1,2,3,3,4","true","",""
"null","","html-keyboard-response","461","290121","0.0-461.0","","<img src=""img/set2/S2.jpg"" width=""540"" height = ""360"" style=""border:16px solid orange"">","null","","","","","","","",""
"null","","html-keyboard-response","462","290323","0.0-462.0","","","null","","","","","","","",""
"646.2999999821186","","image-keyboard-response","463","290970","0.0-463.0","","img/set2/S1.jpg","83","1","structured_load","83","random,structured_load,structured_normal,structured_incentive","2,1,2,3,3,4","true","",""
"null","","html-keyboard-response","464","291321","0.0-464.0","","<img src=""img/set2/S1.jpg"" width=""540"" height = ""360"" style=""border:16px solid orange"">","null","","","","","","","",""
"null","","html-keyboard-response","465","291522","0.0-465.0","","","null","","","","","","","",""
"1359.2000000178814","","image-keyboard-response","466","292882","0.0-466.0","","img/set2/S2.jpg","74","2","structured_load","68","random,structured_load,structured_normal,structured_incentive","2,1,2,3,3,4","false","",""
"null","","html-keyboard-response","467","293234","0.0-467.0","","<img src=""img/set2/S2.jpg"" width=""540"" height = ""360"">","null","","","","","","","",""
"null","","html-keyboard-response","468","293436","0.0-468.0","","","null","","","","","","","",""
"870.8000000119209","","image-keyboard-response","469","294307","0.0-469.0","","img/set2/S1.jpg","83","1","structured_load","83","random,structured_load,structured_normal,structured_incentive","2,1,2,3,3,4","true","",""
"null","","html-keyboard-response","470","294659","0.0-470.0","","<img src=""img/set2/S1.jpg"" width=""540"" height = ""360"" style=""border:16px solid orange"">","null","","","","","","","",""
"null","","html-keyboard-response","471","294861","0.0-471.0","","","null","","","","","","","",""
"500.5","","image-keyboard-response","472","295362","0.0-472.0","","img/set2/S2.jpg","68","2","structured_load","68","random,structured_load,structured_normal,structured_incentive","2,1,2,3,3,4","true","",""
"null","","html-keyboard-response","473","295713","0.0-473.0","","<img src=""img/set2/S2.jpg"" width=""540"" height = ""360"" style=""border:16px solid orange"">","null","","","","","","","",""
"null","","html-keyboard-response","474","295914","0.0-474.0","","","null","","","","","","","",""
"null","","image-keyboard-response","475","298416","0.0-475.0","","img/set2/S1.jpg","null","1","structured_load","83","random,structured_load,structured_normal,structured_incentive","2,1,2,3,3,4","false","",""
"null","","html-keyboard-response","476","298768","0.0-476.0","","<img src=""img/set2/S1.jpg"" width=""540"" height = ""360"">","null","","","","","","","",""
"null","","html-keyboard-response","477","298969","0.0-477.0","","","null","","","","","","","",""
"825.9000000059605","","image-keyboard-response","478","299796","0.0-478.0","","img/set2/S2.jpg","68","2","structured_load","68","random,structured_load,structured_normal,structured_incentive","2,1,2,3,3,4","true","",""
"null","","html-keyboard-response","479","300147","0.0-479.0","","<img src=""img/set2/S2.jpg"" width=""540"" height = ""360"" style=""border:16px solid orange"">","null","","","","","","","",""
"null","","html-keyboard-response","480","300349","0.0-480.0","","","null","","","","","","","",""
"588.7999999821186","","image-keyboard-response","481","300939","0.0-481.0","","img/set2/S1.jpg","83","1","structured_load","83","random,structured_load,structured_normal,structured_incentive","2,1,2,3,3,4","true","",""
"null","","html-keyboard-response","482","301290","0.0-482.0","","<img src=""img/set2/S1.jpg"" width=""540"" height = ""360"" style=""border:16px solid orange"">","null","","","","","","","",""
"null","","html-keyboard-response","483","301491","0.0-483.0","","","null","","","","","","","",""
"1757","","image-keyboard-response","484","303249","0.0-484.0","","img/set2/S3.jpg","74","3","structured_load","72","random,structured_load,structured_normal,structured_incentive","2,1,2,3,3,4","false","",""
"null","","html-keyboard-response","485","303600","0.0-485.0","","<img src=""img/set2/S3.jpg"" width=""540"" height = ""360"">","null","","","","","","","",""
"null","","html-keyboard-response","486","303809","0.0-486.0","","","null","","","","","","","",""
"576.5","","image-keyboard-response","487","304387","0.0-487.0","","img/set2/S4.jpg","74","4","structured_load","74","random,structured_load,structured_normal,structured_incentive","2,1,2,3,3,4","true","",""
"null","","html-keyboard-response","488","304738","0.0-488.0","","<img src=""img/set2/S4.jpg"" width=""540"" height = ""360"" style=""border:16px solid orange"">","null","","","","","","","",""
"null","","html-keyboard-response","489","304939","0.0-489.0","","","null","","","","","","","",""
"691.1999999880791","","image-keyboard-response","490","305631","0.0-490.0","","img/set2/S2.jpg","68","2","structured_load","68","random,structured_load,structured_normal,structured_incentive","2,1,2,3,3,4","true","",""
"null","","html-keyboard-response","491","305982","0.0-491.0","","<img src=""img/set2/S2.jpg"" width=""540"" height = ""360"" style=""border:16px solid orange"">","null","","","","","","","",""
"null","","html-keyboard-response","492","306183","0.0-492.0","","","null","","","","","","","",""
"null","","image-keyboard-response","493","308686","0.0-493.0","","img/set2/S1.jpg","null","1","structured_load","83","random,structured_load,structured_normal,structured_incentive","2,1,2,3,3,4","false","",""
"null","","html-keyboard-response","494","309037","0.0-494.0","","<img src=""img/set2/S1.jpg"" width=""540"" height = ""360"">","null","","","","","","","",""
"null","","html-keyboard-response","495","309238","0.0-495.0","","","null","","","","","","","",""
"2032.199999988079","","image-keyboard-response","496","311272","0.0-496.0","","img/set2/S4.jpg","74","4","structured_load","74","random,structured_load,structured_normal,structured_incentive","2,1,2,3,3,4","true","",""
"null","","html-keyboard-response","497","311623","0.0-497.0","","<img src=""img/set2/S4.jpg"" width=""540"" height = ""360"" style=""border:16px solid orange"">","null","","","","","","","",""
"null","","html-keyboard-response","498","311825","0.0-498.0","","","null","","","","","","","",""
"null","","image-keyboard-response","499","314327","0.0-499.0","","img/set2/S4.jpg","null","4","structured_load","74","random,structured_load,structured_normal,structured_incentive","2,1,2,3,3,4","false","",""
"null","","html-keyboard-response","500","314679","0.0-500.0","","<img src=""img/set2/S4.jpg"" width=""540"" height = ""360"">","null","","","","","","","",""
"null","","html-keyboard-response","501","314880","0.0-501.0","","","null","","","","","","","",""
"1335.0999999940395","","image-keyboard-response","502","316216","0.0-502.0","","img/set2/S3.jpg","74","3","structured_load","72","random,structured_load,structured_normal,structured_incentive","2,1,2,3,3,4","false","",""
"null","","html-keyboard-response","503","316567","0.0-503.0","","<img src=""img/set2/S3.jpg"" width=""540"" height = ""360"">","null","","","","","","","",""
"null","","html-keyboard-response","504","316768","0.0-504.0","","","null","","","","","","","",""
"836.9000000059605","","image-keyboard-response","505","317606","0.0-505.0","","img/set2/S2.jpg","68","2","structured_load","68","random,structured_load,structured_normal,structured_incentive","2,1,2,3,3,4","true","",""
"null","","html-keyboard-response","506","317957","0.0-506.0","","<img src=""img/set2/S2.jpg"" width=""540"" height = ""360"" style=""border:16px solid orange"">","null","","","","","","","",""
"null","","html-keyboard-response","507","318159","0.0-507.0","","","null","","","","","","","",""
"2246.300000011921","","image-keyboard-response","508","320405","0.0-508.0","","img/set2/S1.jpg","83","1","structured_load","83","random,structured_load,structured_normal,structured_incentive","2,1,2,3,3,4","true","",""
"null","","html-keyboard-response","509","320757","0.0-509.0","","<img src=""img/set2/S1.jpg"" width=""540"" height = ""360"" style=""border:16px solid orange"">","null","","","","","","","",""
"null","","html-keyboard-response","510","320959","0.0-510.0","","","null","","","","","","","",""
"1438","","image-keyboard-response","511","322397","0.0-511.0","","img/set2/S3.jpg","68","3","structured_load","72","random,structured_load,structured_normal,structured_incentive","2,1,2,3,3,4","false","",""
"null","","html-keyboard-response","512","322748","0.0-512.0","","<img src=""img/set2/S3.jpg"" width=""540"" height = ""360"">","null","","","","","","","",""
"null","","html-keyboard-response","513","322950","0.0-513.0","","","null","","","","","","","",""
"839.5999999940395","","image-keyboard-response","514","323791","0.0-514.0","","img/set2/S3.jpg","72","3","structured_load","72","random,structured_load,structured_normal,structured_incentive","2,1,2,3,3,4","true","",""
"null","","html-keyboard-response","515","324143","0.0-515.0","","<img src=""img/set2/S3.jpg"" width=""540"" height = ""360"" style=""border:16px solid orange"">","null","","","","","","","",""
"null","","html-keyboard-response","516","324343","0.0-516.0","","","null","","","","","","","",""
"1123.4000000059605","","image-keyboard-response","517","325467","0.0-517.0","","img/set2/S4.jpg","74","4","structured_load","74","random,structured_load,structured_normal,structured_incentive","2,1,2,3,3,4","true","",""
"null","","html-keyboard-response","518","325820","0.0-518.0","","<img src=""img/set2/S4.jpg"" width=""540"" height = ""360"" style=""border:16px solid orange"">","null","","","","","","","",""
"null","","html-keyboard-response","519","326022","0.0-519.0","","","null","","","","","","","",""
"641.2999999821186","","image-keyboard-response","520","326664","0.0-520.0","","img/set2/S3.jpg","72","3","structured_load","72","random,structured_load,structured_normal,structured_incentive","2,1,2,3,3,4","true","",""
"null","","html-keyboard-response","521","327016","0.0-521.0","","<img src=""img/set2/S3.jpg"" width=""540"" height = ""360"" style=""border:16px solid orange"">","null","","","","","","","",""
"null","","html-keyboard-response","522","327218","0.0-522.0","","","null","","","","","","","",""
"802","","image-keyboard-response","523","328022","0.0-523.0","","img/set2/S2.jpg","68","2","structured_load","68","random,structured_load,structured_normal,structured_incentive","2,1,2,3,3,4","true","",""
"null","","html-keyboard-response","524","328373","0.0-524.0","","<img src=""img/set2/S2.jpg"" width=""540"" height = ""360"" style=""border:16px solid orange"">","null","","","","","","","",""
"null","","html-keyboard-response","525","328574","0.0-525.0","","","null","","","","","","","",""
"902.7000000178814","","image-keyboard-response","526","329478","0.0-526.0","","img/set2/S1.jpg","83","1","structured_load","83","random,structured_load,structured_normal,structured_incentive","2,1,2,3,3,4","true","",""
"null","","html-keyboard-response","527","329831","0.0-527.0","","<img src=""img/set2/S1.jpg"" width=""540"" height = ""360"" style=""border:16px solid orange"">","null","","","","","","","",""
"null","","html-keyboard-response","528","330032","0.0-528.0","","","null","","","","","","","",""
"1202.0999999940395","","image-keyboard-response","529","331235","0.0-529.0","","img/set2/S2.jpg","68","2","structured_load","68","random,structured_load,structured_normal,structured_incentive","2,1,2,3,3,4","true","",""
"null","","html-keyboard-response","530","331586","0.0-530.0","","<img src=""img/set2/S2.jpg"" width=""540"" height = ""360"" style=""border:16px solid orange"">","null","","","","","","","",""
"null","","html-keyboard-response","531","331787","0.0-531.0","","","null","","","","","","","",""
"null","","image-keyboard-response","532","334288","0.0-532.0","","img/set2/S1.jpg","null","1","structured_load","83","random,structured_load,structured_normal,structured_incentive","2,1,2,3,3,4","false","",""
"null","","html-keyboard-response","533","334639","0.0-533.0","","<img src=""img/set2/S1.jpg"" width=""540"" height = ""360"">","null","","","","","","","",""
"null","","html-keyboard-response","534","334841","0.0-534.0","","","null","","","","","","","",""
"550.8999999761581","","image-keyboard-response","535","335393","0.0-535.0","","img/set2/S2.jpg","68","2","structured_load","68","random,structured_load,structured_normal,structured_incentive","2,1,2,3,3,4","true","",""
"null","","html-keyboard-response","536","335745","0.0-536.0","","<img src=""img/set2/S2.jpg"" width=""540"" height = ""360"" style=""border:16px solid orange"">","null","","","","","","","",""
"null","","html-keyboard-response","537","335946","0.0-537.0","","","null","","","","","","","",""
"1459.6000000238419","","image-keyboard-response","538","337406","0.0-538.0","","img/set2/S1.jpg","83","1","structured_load","83","random,structured_load,structured_normal,structured_incentive","2,1,2,3,3,4","true","",""
"null","","html-keyboard-response","539","337758","0.0-539.0","","<img src=""img/set2/S1.jpg"" width=""540"" height = ""360"" style=""border:16px solid orange"">","null","","","","","","","",""
"null","","html-keyboard-response","540","337959","0.0-540.0","","","null","","","","","","","",""
"718.1999999880791","","image-keyboard-response","541","338678","0.0-541.0","","img/set2/S2.jpg","68","2","structured_load","68","random,structured_load,structured_normal,structured_incentive","2,1,2,3,3,4","true","",""
"null","","html-keyboard-response","542","339029","0.0-542.0","","<img src=""img/set2/S2.jpg"" width=""540"" height = ""360"" style=""border:16px solid orange"">","null","","","","","","","",""
"null","","html-keyboard-response","543","339231","0.0-543.0","","","null","","","","","","","",""
"571.6999999880791","","image-keyboard-response","544","339803","0.0-544.0","","img/set2/S1.jpg","83","1","structured_load","83","random,structured_load,structured_normal,structured_incentive","2,1,2,3,3,4","true","",""
"null","","html-keyboard-response","545","340155","0.0-545.0","","<img src=""img/set2/S1.jpg"" width=""540"" height = ""360"" style=""border:16px solid orange"">","null","","","","","","","",""
"null","","html-keyboard-response","546","340356","0.0-546.0","","","null","","","","","","","",""
"1794","","image-keyboard-response","547","342151","0.0-547.0","","img/set2/S3.jpg","72","3","structured_load","72","random,structured_load,structured_normal,structured_incentive","2,1,2,3,3,4","true","",""
"null","","html-keyboard-response","548","342503","0.0-548.0","","<img src=""img/set2/S3.jpg"" width=""540"" height = ""360"" style=""border:16px solid orange"">","null","","","","","","","",""
"null","","html-keyboard-response","549","342705","0.0-549.0","","","null","","","","","","","",""
"663.6999999880791","","image-keyboard-response","550","343369","0.0-550.0","","img/set2/S2.jpg","68","2","structured_load","68","random,structured_load,structured_normal,structured_incentive","2,1,2,3,3,4","true","",""
"null","","html-keyboard-response","551","343721","0.0-551.0","","<img src=""img/set2/S2.jpg"" width=""540"" height = ""360"" style=""border:16px solid orange"">","null","","","","","","","",""
"null","","html-keyboard-response","552","343923","0.0-552.0","","","null","","","","","","","",""
"612.0999999940395","","image-keyboard-response","553","344536","0.0-553.0","","img/set2/S1.jpg","83","1","structured_load","83","random,structured_load,structured_normal,structured_incentive","2,1,2,3,3,4","true","",""
"null","","html-keyboard-response","554","344887","0.0-554.0","","<img src=""img/set2/S1.jpg"" width=""540"" height = ""360"" style=""border:16px solid orange"">","null","","","","","","","",""
"null","","html-keyboard-response","555","345089","0.0-555.0","","","null","","","","","","","",""
"674.4000000059605","","image-keyboard-response","556","345765","0.0-556.0","","img/set2/S4.jpg","74","4","structured_load","74","random,structured_load,structured_normal,structured_incentive","2,1,2,3,3,4","true","",""
"null","","html-keyboard-response","557","346117","0.0-557.0","","<img src=""img/set2/S4.jpg"" width=""540"" height = ""360"" style=""border:16px solid orange"">","null","","","","","","","",""
"null","","html-keyboard-response","558","346319","0.0-558.0","","","null","","","","","","","",""
"960.4000000059605","","image-keyboard-response","559","347281","0.0-559.0","","img/set2/S3.jpg","72","3","structured_load","72","random,structured_load,structured_normal,structured_incentive","2,1,2,3,3,4","true","",""
"null","","html-keyboard-response","560","347632","0.0-560.0","","<img src=""img/set2/S3.jpg"" width=""540"" height = ""360"" style=""border:16px solid orange"">","null","","","","","","","",""
"null","","html-keyboard-response","561","347834","0.0-561.0","","","null","","","","","","","",""
"575.2999999821186","","image-keyboard-response","562","348411","0.0-562.0","","img/set2/S3.jpg","72","3","structured_load","72","random,structured_load,structured_normal,structured_incentive","2,1,2,3,3,4","true","",""
"null","","html-keyboard-response","563","348762","0.0-563.0","","<img src=""img/set2/S3.jpg"" width=""540"" height = ""360"" style=""border:16px solid orange"">","null","","","","","","","",""
"null","","html-keyboard-response","564","348964","0.0-564.0","","","null","","","","","","","",""
"666","","image-keyboard-response","565","349631","0.0-565.0","","img/set2/S4.jpg","74","4","structured_load","74","random,structured_load,structured_normal,structured_incentive","2,1,2,3,3,4","true","",""
"null","","html-keyboard-response","566","349984","0.0-566.0","","<img src=""img/set2/S4.jpg"" width=""540"" height = ""360"" style=""border:16px solid orange"">","null","","","","","","","",""
"null","","html-keyboard-response","567","350185","0.0-567.0","","","null","","","","","","","",""
"443.30000001192093","","image-keyboard-response","568","350629","0.0-568.0","","img/set2/S4.jpg","74","4","structured_load","74","random,structured_load,structured_normal,structured_incentive","2,1,2,3,3,4","true","",""
"null","","html-keyboard-response","569","350981","0.0-569.0","","<img src=""img/set2/S4.jpg"" width=""540"" height = ""360"" style=""border:16px solid orange"">","null","","","","","","","",""
"null","","html-keyboard-response","570","351182","0.0-570.0","","","null","","","","","","","",""
"2084.699999988079","","image-keyboard-response","571","353267","0.0-571.0","","img/set2/S3.jpg","72","3","structured_load","72","random,structured_load,structured_normal,structured_incentive","2,1,2,3,3,4","true","",""
"null","","html-keyboard-response","572","353619","0.0-572.0","","<img src=""img/set2/S3.jpg"" width=""540"" height = ""360"" style=""border:16px solid orange"">","null","","","","","","","",""
"null","","html-keyboard-response","573","353820","0.0-573.0","","","null","","","","","","","",""
"1000","","image-keyboard-response","574","354821","0.0-574.0","","img/set2/S3.jpg","72","3","structured_load","72","random,structured_load,structured_normal,structured_incentive","2,1,2,3,3,4","true","",""
"null","","html-keyboard-response","575","355172","0.0-575.0","","<img src=""img/set2/S3.jpg"" width=""540"" height = ""360"" style=""border:16px solid orange"">","null","","","","","","","",""
"null","","html-keyboard-response","576","355374","0.0-576.0","","","null","","","","","","","",""
"407.40000000596046","","image-keyboard-response","577","355782","0.0-577.0","","img/set2/S3.jpg","72","3","structured_load","72","random,structured_load,structured_normal,structured_incentive","2,1,2,3,3,4","true","",""
"null","","html-keyboard-response","578","356135","0.0-578.0","","<img src=""img/set2/S3.jpg"" width=""540"" height = ""360"" style=""border:16px solid orange"">","null","","","","","","","",""
"null","","html-keyboard-response","579","356335","0.0-579.0","","","null","","","","","","","",""
"671","","image-keyboard-response","580","357007","0.0-580.0","","img/set2/S2.jpg","68","2","structured_load","68","random,structured_load,structured_normal,structured_incentive","2,1,2,3,3,4","true","",""
"null","","html-keyboard-response","581","357368","0.0-581.0","","<img src=""img/set2/S2.jpg"" width=""540"" height = ""360"" style=""border:16px solid orange"">","null","","","","","","","",""
"null","","html-keyboard-response","582","357571","0.0-582.0","","","null","","","","","","","",""
"643.9000000059605","","image-keyboard-response","583","358216","0.0-583.0","","img/set2/S1.jpg","83","1","structured_load","83","random,structured_load,structured_normal,structured_incentive","2,1,2,3,3,4","true","",""
"null","","html-keyboard-response","584","358576","0.0-584.0","","<img src=""img/set2/S1.jpg"" width=""540"" height = ""360"" style=""border:16px solid orange"">","null","","","","","","","",""
"null","","html-keyboard-response","585","358778","0.0-585.0","","","null","","","","","","","",""
"644","","image-keyboard-response","586","359423","0.0-586.0","","img/set2/S4.jpg","74","4","structured_load","74","random,structured_load,structured_normal,structured_incentive","2,1,2,3,3,4","true","",""
"null","","html-keyboard-response","587","359774","0.0-587.0","","<img src=""img/set2/S4.jpg"" width=""540"" height = ""360"" style=""border:16px solid orange"">","null","","","","","","","",""
"null","","html-keyboard-response","588","359975","0.0-588.0","","","null","","","","","","","",""
"494.59999999403954","","image-keyboard-response","589","360471","0.0-589.0","","img/set2/S3.jpg","72","3","structured_load","72","random,structured_load,structured_normal,structured_incentive","2,1,2,3,3,4","true","",""
"null","","html-keyboard-response","590","360822","0.0-590.0","","<img src=""img/set2/S3.jpg"" width=""540"" height = ""360"" style=""border:16px solid orange"">","null","","","","","","","",""
"null","","html-keyboard-response","591","361024","0.0-591.0","","","null","","","","","","","",""
"546.4000000059605","","image-keyboard-response","592","361571","0.0-592.0","","img/set2/S4.jpg","74","4","structured_load","74","random,structured_load,structured_normal,structured_incentive","2,1,2,3,3,4","true","",""
"null","","html-keyboard-response","593","361923","0.0-593.0","","<img src=""img/set2/S4.jpg"" width=""540"" height = ""360"" style=""border:16px solid orange"">","null","","","","","","","",""
"null","","html-keyboard-response","594","362125","0.0-594.0","","","null","","","","","","","",""
"467.90000000596046","","image-keyboard-response","595","362594","0.0-595.0","","img/set2/S3.jpg","72","3","structured_load","72","random,structured_load,structured_normal,structured_incentive","2,1,2,3,3,4","true","",""
