"rt","url","trial_type","trial_index","time_elapsed","internal_node_id","assignmentID","mturkID","hitID","view_history","stimulus","key_press","state","test_part","correct_response","order_block","order_chunk","order_freq","correct","responses","question_order","bonus"
"180458","consent.html","external-html","0","180636","0.0-0.0","3H7XDTSHKDD1XLTH5OM6HFLT035WGN","AT6OT5K5Z4V0J","3RSBJ6YZECCLSSQQCGKCTHC9OPAFOK","","","","","","","","","","","","",""
"145442","","instructions","1","326079","0.0-1.0","3H7XDTSHKDD1XLTH5OM6HFLT035WGN","AT6OT5K5Z4V0J","3RSBJ6YZECCLSSQQCGKCTHC9OPAFOK","[{""page_index"":0,""viewing_time"":6605},{""page_index"":1,""viewing_time"":15857},{""page_index"":2,""viewing_time"":22311},{""page_index"":3,""viewing_time"":36906},{""page_index"":4,""viewing_time"":8008},{""page_index"":5,""viewing_time"":34296},{""page_index"":6,""viewing_time"":21457}]","","","","","","","","","","","",""
"25128","","instructions","2","351209","0.0-2.0","3H7XDTSHKDD1XLTH5OM6HFLT035WGN","AT6OT5K5Z4V0J","3RSBJ6YZECCLSSQQCGKCTHC9OPAFOK","[{""page_index"":0,""viewing_time"":25128}]","","","","","","","","","","","",""
"57322","","instructions","3","408533","0.0-3.0","3H7XDTSHKDD1XLTH5OM6HFLT035WGN","AT6OT5K5Z4V0J","3RSBJ6YZECCLSSQQCGKCTHC9OPAFOK","[{""page_index"":0,""viewing_time"":42360},{""page_index"":1,""viewing_time"":14962}]","","","","","","","","","","","",""
"1099","","image-keyboard-response","4","409635","0.0-4.0","3H7XDTSHKDD1XLTH5OM6HFLT035WGN","AT6OT5K5Z4V0J","3RSBJ6YZECCLSSQQCGKCTHC9OPAFOK","","img/set1/S4.jpg","68","4","structured_load","74","structured_load,structured_normal,structured_incentive,random","2,3,4,2,1,2","2,3,4,1","false","","",""
"null","","html-keyboard-response","5","409990","0.0-5.0","3H7XDTSHKDD1XLTH5OM6HFLT035WGN","AT6OT5K5Z4V0J","3RSBJ6YZECCLSSQQCGKCTHC9OPAFOK","","<img src=""img/set1/S4.jpg"" width=""540"" height = ""360"">","null","","","","","","","","","",""
"null","","html-keyboard-response","6","410193","0.0-6.0","3H7XDTSHKDD1XLTH5OM6HFLT035WGN","AT6OT5K5Z4V0J","3RSBJ6YZECCLSSQQCGKCTHC9OPAFOK","","","null","","","","","","","","","",""
"831","","image-keyboard-response","7","411026","0.0-7.0","3H7XDTSHKDD1XLTH5OM6HFLT035WGN","AT6OT5K5Z4V0J","3RSBJ6YZECCLSSQQCGKCTHC9OPAFOK","","img/set1/S4.jpg","83","4","structured_load","74","structured_load,structured_normal,structured_incentive,random","2,3,4,2,1,2","2,3,4,1","false","","",""
"null","","html-keyboard-response","8","411378","0.0-8.0","3H7XDTSHKDD1XLTH5OM6HFLT035WGN","AT6OT5K5Z4V0J","3RSBJ6YZECCLSSQQCGKCTHC9OPAFOK","","<img src=""img/set1/S4.jpg"" width=""540"" height = ""360"">","null","","","","","","","","","",""
"null","","html-keyboard-response","9","411579","0.0-9.0","3H7XDTSHKDD1XLTH5OM6HFLT035WGN","AT6OT5K5Z4V0J","3RSBJ6YZECCLSSQQCGKCTHC9OPAFOK","","","null","","","","","","","","","",""
"1394","","image-keyboard-response","10","412975","0.0-10.0","3H7XDTSHKDD1XLTH5OM6HFLT035WGN","AT6OT5K5Z4V0J","3RSBJ6YZECCLSSQQCGKCTHC9OPAFOK","","img/set1/S4.jpg","72","4","structured_load","74","structured_load,structured_normal,structured_incentive,random","2,3,4,2,1,2","2,3,4,1","false","","",""
"null","","html-keyboard-response","11","413329","0.0-11.0","3H7XDTSHKDD1XLTH5OM6HFLT035WGN","AT6OT5K5Z4V0J","3RSBJ6YZECCLSSQQCGKCTHC9OPAFOK","","<img src=""img/set1/S4.jpg"" width=""540"" height = ""360"">","null","","","","","","","","","",""
"null","","html-keyboard-response","12","413531","0.0-12.0","3H7XDTSHKDD1XLTH5OM6HFLT035WGN","AT6OT5K5Z4V0J","3RSBJ6YZECCLSSQQCGKCTHC9OPAFOK","","","null","","","","","","","","","",""
"1791","","image-keyboard-response","13","415323","0.0-13.0","3H7XDTSHKDD1XLTH5OM6HFLT035WGN","AT6OT5K5Z4V0J","3RSBJ6YZECCLSSQQCGKCTHC9OPAFOK","","img/set1/S2.jpg","74","2","structured_load","68","structured_load,structured_normal,structured_incentive,random","2,3,4,2,1,2","2,3,4,1","false","","",""
"null","","html-keyboard-response","14","415675","0.0-14.0","3H7XDTSHKDD1XLTH5OM6HFLT035WGN","AT6OT5K5Z4V0J","3RSBJ6YZECCLSSQQCGKCTHC9OPAFOK","","<img src=""img/set1/S2.jpg"" width=""540"" height = ""360"">","null","","","","","","","","","",""
"null","","html-keyboard-response","15","415880","0.0-15.0","3H7XDTSHKDD1XLTH5OM6HFLT035WGN","AT6OT5K5Z4V0J","3RSBJ6YZECCLSSQQCGKCTHC9OPAFOK","","","null","","","","","","","","","",""
"1418","","image-keyboard-response","16","417301","0.0-16.0","3H7XDTSHKDD1XLTH5OM6HFLT035WGN","AT6OT5K5Z4V0J","3RSBJ6YZECCLSSQQCGKCTHC9OPAFOK","","img/set1/S3.jpg","72","3","structured_load","72","structured_load,structured_normal,structured_incentive,random","2,3,4,2,1,2","2,3,4,1","true","","",""
"null","","html-keyboard-response","17","417654","0.0-17.0","3H7XDTSHKDD1XLTH5OM6HFLT035WGN","AT6OT5K5Z4V0J","3RSBJ6YZECCLSSQQCGKCTHC9OPAFOK","","<img src=""img/set1/S3.jpg"" width=""540"" height = ""360"" style=""border:16px solid orange"">","null","","","","","","","","","",""
"null","","html-keyboard-response","18","417857","0.0-18.0","3H7XDTSHKDD1XLTH5OM6HFLT035WGN","AT6OT5K5Z4V0J","3RSBJ6YZECCLSSQQCGKCTHC9OPAFOK","","","null","","","","","","","","","",""
"1592","","image-keyboard-response","19","419451","0.0-19.0","3H7XDTSHKDD1XLTH5OM6HFLT035WGN","AT6OT5K5Z4V0J","3RSBJ6YZECCLSSQQCGKCTHC9OPAFOK","","img/set1/S1.jpg","68","1","structured_load","83","structured_load,structured_normal,structured_incentive,random","2,3,4,2,1,2","2,3,4,1","false","","",""
"null","","html-keyboard-response","20","419803","0.0-20.0","3H7XDTSHKDD1XLTH5OM6HFLT035WGN","AT6OT5K5Z4V0J","3RSBJ6YZECCLSSQQCGKCTHC9OPAFOK","","<img src=""img/set1/S1.jpg"" width=""540"" height = ""360"">","null","","","","","","","","","",""
"null","","html-keyboard-response","21","420004","0.0-21.0","3H7XDTSHKDD1XLTH5OM6HFLT035WGN","AT6OT5K5Z4V0J","3RSBJ6YZECCLSSQQCGKCTHC9OPAFOK","","","null","","","","","","","","","",""
"1214","","image-keyboard-response","22","421219","0.0-22.0","3H7XDTSHKDD1XLTH5OM6HFLT035WGN","AT6OT5K5Z4V0J","3RSBJ6YZECCLSSQQCGKCTHC9OPAFOK","","img/set1/S2.jpg","74","2","structured_load","68","structured_load,structured_normal,structured_incentive,random","2,3,4,2,1,2","2,3,4,1","false","","",""
"null","","html-keyboard-response","23","421571","0.0-23.0","3H7XDTSHKDD1XLTH5OM6HFLT035WGN","AT6OT5K5Z4V0J","3RSBJ6YZECCLSSQQCGKCTHC9OPAFOK","","<img src=""img/set1/S2.jpg"" width=""540"" height = ""360"">","null","","","","","","","","","",""
"null","","html-keyboard-response","24","421772","0.0-24.0","3H7XDTSHKDD1XLTH5OM6HFLT035WGN","AT6OT5K5Z4V0J","3RSBJ6YZECCLSSQQCGKCTHC9OPAFOK","","","null","","","","","","","","","",""
"1227","","image-keyboard-response","25","423001","0.0-25.0","3H7XDTSHKDD1XLTH5OM6HFLT035WGN","AT6OT5K5Z4V0J","3RSBJ6YZECCLSSQQCGKCTHC9OPAFOK","","img/set1/S3.jpg","72","3","structured_load","72","structured_load,structured_normal,structured_incentive,random","2,3,4,2,1,2","2,3,4,1","true","","",""
"null","","html-keyboard-response","26","423353","0.0-26.0","3H7XDTSHKDD1XLTH5OM6HFLT035WGN","AT6OT5K5Z4V0J","3RSBJ6YZECCLSSQQCGKCTHC9OPAFOK","","<img src=""img/set1/S3.jpg"" width=""540"" height = ""360"" style=""border:16px solid orange"">","null","","","","","","","","","",""
"null","","html-keyboard-response","27","423553","0.0-27.0","3H7XDTSHKDD1XLTH5OM6HFLT035WGN","AT6OT5K5Z4V0J","3RSBJ6YZECCLSSQQCGKCTHC9OPAFOK","","","null","","","","","","","","","",""
"1004","","image-keyboard-response","28","424559","0.0-28.0","3H7XDTSHKDD1XLTH5OM6HFLT035WGN","AT6OT5K5Z4V0J","3RSBJ6YZECCLSSQQCGKCTHC9OPAFOK","","img/set1/S4.jpg","83","4","structured_load","74","structured_load,structured_normal,structured_incentive,random","2,3,4,2,1,2","2,3,4,1","false","","",""
"null","","html-keyboard-response","29","424910","0.0-29.0","3H7XDTSHKDD1XLTH5OM6HFLT035WGN","AT6OT5K5Z4V0J","3RSBJ6YZECCLSSQQCGKCTHC9OPAFOK","","<img src=""img/set1/S4.jpg"" width=""540"" height = ""360"">","null","","","","","","","","","",""
"null","","html-keyboard-response","30","425112","0.0-30.0","3H7XDTSHKDD1XLTH5OM6HFLT035WGN","AT6OT5K5Z4V0J","3RSBJ6YZECCLSSQQCGKCTHC9OPAFOK","","","null","","","","","","","","","",""
"1507","","image-keyboard-response","31","426621","0.0-31.0","3H7XDTSHKDD1XLTH5OM6HFLT035WGN","AT6OT5K5Z4V0J","3RSBJ6YZECCLSSQQCGKCTHC9OPAFOK","","img/set1/S1.jpg","68","1","structured_load","83","structured_load,structured_normal,structured_incentive,random","2,3,4,2,1,2","2,3,4,1","false","","",""
"null","","html-keyboard-response","32","426974","0.0-32.0","3H7XDTSHKDD1XLTH5OM6HFLT035WGN","AT6OT5K5Z4V0J","3RSBJ6YZECCLSSQQCGKCTHC9OPAFOK","","<img src=""img/set1/S1.jpg"" width=""540"" height = ""360"">","null","","","","","","","","","",""
"null","","html-keyboard-response","33","427175","0.0-33.0","3H7XDTSHKDD1XLTH5OM6HFLT035WGN","AT6OT5K5Z4V0J","3RSBJ6YZECCLSSQQCGKCTHC9OPAFOK","","","null","","","","","","","","","",""
"1501","","image-keyboard-response","34","428677","0.0-34.0","3H7XDTSHKDD1XLTH5OM6HFLT035WGN","AT6OT5K5Z4V0J","3RSBJ6YZECCLSSQQCGKCTHC9OPAFOK","","img/set1/S2.jpg","74","2","structured_load","68","structured_load,structured_normal,structured_incentive,random","2,3,4,2,1,2","2,3,4,1","false","","",""
"null","","html-keyboard-response","35","429029","0.0-35.0","3H7XDTSHKDD1XLTH5OM6HFLT035WGN","AT6OT5K5Z4V0J","3RSBJ6YZECCLSSQQCGKCTHC9OPAFOK","","<img src=""img/set1/S2.jpg"" width=""540"" height = ""360"">","null","","","","","","","","","",""
"null","","html-keyboard-response","36","429230","0.0-36.0","3H7XDTSHKDD1XLTH5OM6HFLT035WGN","AT6OT5K5Z4V0J","3RSBJ6YZECCLSSQQCGKCTHC9OPAFOK","","","null","","","","","","","","","",""
"1492","","image-keyboard-response","37","430723","0.0-37.0","3H7XDTSHKDD1XLTH5OM6HFLT035WGN","AT6OT5K5Z4V0J","3RSBJ6YZECCLSSQQCGKCTHC9OPAFOK","","img/set1/S4.jpg","83","4","structured_load","74","structured_load,structured_normal,structured_incentive,random","2,3,4,2,1,2","2,3,4,1","false","","",""
"null","","html-keyboard-response","38","431074","0.0-38.0","3H7XDTSHKDD1XLTH5OM6HFLT035WGN","AT6OT5K5Z4V0J","3RSBJ6YZECCLSSQQCGKCTHC9OPAFOK","","<img src=""img/set1/S4.jpg"" width=""540"" height = ""360"">","null","","","","","","","","","",""
"null","","html-keyboard-response","39","431276","0.0-39.0","3H7XDTSHKDD1XLTH5OM6HFLT035WGN","AT6OT5K5Z4V0J","3RSBJ6YZECCLSSQQCGKCTHC9OPAFOK","","","null","","","","","","","","","",""
"1621","","image-keyboard-response","40","432899","0.0-40.0","3H7XDTSHKDD1XLTH5OM6HFLT035WGN","AT6OT5K5Z4V0J","3RSBJ6YZECCLSSQQCGKCTHC9OPAFOK","","img/set1/S4.jpg","74","4","structured_load","74","structured_load,structured_normal,structured_incentive,random","2,3,4,2,1,2","2,3,4,1","true","","",""
"null","","html-keyboard-response","41","433250","0.0-41.0","3H7XDTSHKDD1XLTH5OM6HFLT035WGN","AT6OT5K5Z4V0J","3RSBJ6YZECCLSSQQCGKCTHC9OPAFOK","","<img src=""img/set1/S4.jpg"" width=""540"" height = ""360"" style=""border:16px solid orange"">","null","","","","","","","","","",""
"null","","html-keyboard-response","42","433451","0.0-42.0","3H7XDTSHKDD1XLTH5OM6HFLT035WGN","AT6OT5K5Z4V0J","3RSBJ6YZECCLSSQQCGKCTHC9OPAFOK","","","null","","","","","","","","","",""
"1311","","image-keyboard-response","43","434763","0.0-43.0","3H7XDTSHKDD1XLTH5OM6HFLT035WGN","AT6OT5K5Z4V0J","3RSBJ6YZECCLSSQQCGKCTHC9OPAFOK","","img/set1/S1.jpg","68","1","structured_load","83","structured_load,structured_normal,structured_incentive,random","2,3,4,2,1,2","2,3,4,1","false","","",""
"null","","html-keyboard-response","44","435116","0.0-44.0","3H7XDTSHKDD1XLTH5OM6HFLT035WGN","AT6OT5K5Z4V0J","3RSBJ6YZECCLSSQQCGKCTHC9OPAFOK","","<img src=""img/set1/S1.jpg"" width=""540"" height = ""360"">","null","","","","","","","","","",""
"null","","html-keyboard-response","45","435318","0.0-45.0","3H7XDTSHKDD1XLTH5OM6HFLT035WGN","AT6OT5K5Z4V0J","3RSBJ6YZECCLSSQQCGKCTHC9OPAFOK","","","null","","","","","","","","","",""
"1340","","image-keyboard-response","46","436658","0.0-46.0","3H7XDTSHKDD1XLTH5OM6HFLT035WGN","AT6OT5K5Z4V0J","3RSBJ6YZECCLSSQQCGKCTHC9OPAFOK","","img/set1/S2.jpg","83","2","structured_load","68","structured_load,structured_normal,structured_incentive,random","2,3,4,2,1,2","2,3,4,1","false","","",""
"null","","html-keyboard-response","47","437010","0.0-47.0","3H7XDTSHKDD1XLTH5OM6HFLT035WGN","AT6OT5K5Z4V0J","3RSBJ6YZECCLSSQQCGKCTHC9OPAFOK","","<img src=""img/set1/S2.jpg"" width=""540"" height = ""360"">","null","","","","","","","","","",""
"null","","html-keyboard-response","48","437211","0.0-48.0","3H7XDTSHKDD1XLTH5OM6HFLT035WGN","AT6OT5K5Z4V0J","3RSBJ6YZECCLSSQQCGKCTHC9OPAFOK","","","null","","","","","","","","","",""
"975","","image-keyboard-response","49","438187","0.0-49.0","3H7XDTSHKDD1XLTH5OM6HFLT035WGN","AT6OT5K5Z4V0J","3RSBJ6YZECCLSSQQCGKCTHC9OPAFOK","","img/set1/S3.jpg","72","3","structured_load","72","structured_load,structured_normal,structured_incentive,random","2,3,4,2,1,2","2,3,4,1","true","","",""
"null","","html-keyboard-response","50","438539","0.0-50.0","3H7XDTSHKDD1XLTH5OM6HFLT035WGN","AT6OT5K5Z4V0J","3RSBJ6YZECCLSSQQCGKCTHC9OPAFOK","","<img src=""img/set1/S3.jpg"" width=""540"" height = ""360"" style=""border:16px solid orange"">","null","","","","","","","","","",""
"null","","html-keyboard-response","51","438739","0.0-51.0","3H7XDTSHKDD1XLTH5OM6HFLT035WGN","AT6OT5K5Z4V0J","3RSBJ6YZECCLSSQQCGKCTHC9OPAFOK","","","null","","","","","","","","","",""
"801","","image-keyboard-response","52","439543","0.0-52.0","3H7XDTSHKDD1XLTH5OM6HFLT035WGN","AT6OT5K5Z4V0J","3RSBJ6YZECCLSSQQCGKCTHC9OPAFOK","","img/set1/S2.jpg","74","2","structured_load","68","structured_load,structured_normal,structured_incentive,random","2,3,4,2,1,2","2,3,4,1","false","","",""
"null","","html-keyboard-response","53","439895","0.0-53.0","3H7XDTSHKDD1XLTH5OM6HFLT035WGN","AT6OT5K5Z4V0J","3RSBJ6YZECCLSSQQCGKCTHC9OPAFOK","","<img src=""img/set1/S2.jpg"" width=""540"" height = ""360"">","null","","","","","","","","","",""
"null","","html-keyboard-response","54","440097","0.0-54.0","3H7XDTSHKDD1XLTH5OM6HFLT035WGN","AT6OT5K5Z4V0J","3RSBJ6YZECCLSSQQCGKCTHC9OPAFOK","","","null","","","","","","","","","",""
"898","","image-keyboard-response","55","440997","0.0-55.0","3H7XDTSHKDD1XLTH5OM6HFLT035WGN","AT6OT5K5Z4V0J","3RSBJ6YZECCLSSQQCGKCTHC9OPAFOK","","img/set1/S4.jpg","74","4","structured_load","74","structured_load,structured_normal,structured_incentive,random","2,3,4,2,1,2","2,3,4,1","true","","",""
"null","","html-keyboard-response","56","441349","0.0-56.0","3H7XDTSHKDD1XLTH5OM6HFLT035WGN","AT6OT5K5Z4V0J","3RSBJ6YZECCLSSQQCGKCTHC9OPAFOK","","<img src=""img/set1/S4.jpg"" width=""540"" height = ""360"" style=""border:16px solid orange"">","null","","","","","","","","","",""
"null","","html-keyboard-response","57","441550","0.0-57.0","3H7XDTSHKDD1XLTH5OM6HFLT035WGN","AT6OT5K5Z4V0J","3RSBJ6YZECCLSSQQCGKCTHC9OPAFOK","","","null","","","","","","","","","",""
"1650","","image-keyboard-response","58","443201","0.0-58.0","3H7XDTSHKDD1XLTH5OM6HFLT035WGN","AT6OT5K5Z4V0J","3RSBJ6YZECCLSSQQCGKCTHC9OPAFOK","","img/set1/S2.jpg","72","2","structured_load","68","structured_load,structured_normal,structured_incentive,random","2,3,4,2,1,2","2,3,4,1","false","","",""
"null","","html-keyboard-response","59","443553","0.0-59.0","3H7XDTSHKDD1XLTH5OM6HFLT035WGN","AT6OT5K5Z4V0J","3RSBJ6YZECCLSSQQCGKCTHC9OPAFOK","","<img src=""img/set1/S2.jpg"" width=""540"" height = ""360"">","null","","","","","","","","","",""
"null","","html-keyboard-response","60","443754","0.0-60.0","3H7XDTSHKDD1XLTH5OM6HFLT035WGN","AT6OT5K5Z4V0J","3RSBJ6YZECCLSSQQCGKCTHC9OPAFOK","","","null","","","","","","","","","",""
"895","","image-keyboard-response","61","444651","0.0-61.0","3H7XDTSHKDD1XLTH5OM6HFLT035WGN","AT6OT5K5Z4V0J","3RSBJ6YZECCLSSQQCGKCTHC9OPAFOK","","img/set1/S3.jpg","72","3","structured_load","72","structured_load,structured_normal,structured_incentive,random","2,3,4,2,1,2","2,3,4,1","true","","",""
"null","","html-keyboard-response","62","445003","0.0-62.0","3H7XDTSHKDD1XLTH5OM6HFLT035WGN","AT6OT5K5Z4V0J","3RSBJ6YZECCLSSQQCGKCTHC9OPAFOK","","<img src=""img/set1/S3.jpg"" width=""540"" height = ""360"" style=""border:16px solid orange"">","null","","","","","","","","","",""
"null","","html-keyboard-response","63","445204","0.0-63.0","3H7XDTSHKDD1XLTH5OM6HFLT035WGN","AT6OT5K5Z4V0J","3RSBJ6YZECCLSSQQCGKCTHC9OPAFOK","","","null","","","","","","","","","",""
"1107","","image-keyboard-response","64","446313","0.0-64.0","3H7XDTSHKDD1XLTH5OM6HFLT035WGN","AT6OT5K5Z4V0J","3RSBJ6YZECCLSSQQCGKCTHC9OPAFOK","","img/set1/S4.jpg","74","4","structured_load","74","structured_load,structured_normal,structured_incentive,random","2,3,4,2,1,2","2,3,4,1","true","","",""
"null","","html-keyboard-response","65","446664","0.0-65.0","3H7XDTSHKDD1XLTH5OM6HFLT035WGN","AT6OT5K5Z4V0J","3RSBJ6YZECCLSSQQCGKCTHC9OPAFOK","","<img src=""img/set1/S4.jpg"" width=""540"" height = ""360"" style=""border:16px solid orange"">","null","","","","","","","","","",""
"null","","html-keyboard-response","66","446866","0.0-66.0","3H7XDTSHKDD1XLTH5OM6HFLT035WGN","AT6OT5K5Z4V0J","3RSBJ6YZECCLSSQQCGKCTHC9OPAFOK","","","null","","","","","","","","","",""
"1089","","image-keyboard-response","67","447957","0.0-67.0","3H7XDTSHKDD1XLTH5OM6HFLT035WGN","AT6OT5K5Z4V0J","3RSBJ6YZECCLSSQQCGKCTHC9OPAFOK","","img/set1/S1.jpg","68","1","structured_load","83","structured_load,structured_normal,structured_incentive,random","2,3,4,2,1,2","2,3,4,1","false","","",""
"null","","html-keyboard-response","68","448309","0.0-68.0","3H7XDTSHKDD1XLTH5OM6HFLT035WGN","AT6OT5K5Z4V0J","3RSBJ6YZECCLSSQQCGKCTHC9OPAFOK","","<img src=""img/set1/S1.jpg"" width=""540"" height = ""360"">","null","","","","","","","","","",""
"null","","html-keyboard-response","69","448509","0.0-69.0","3H7XDTSHKDD1XLTH5OM6HFLT035WGN","AT6OT5K5Z4V0J","3RSBJ6YZECCLSSQQCGKCTHC9OPAFOK","","","null","","","","","","","","","",""
"800","","image-keyboard-response","70","449313","0.0-70.0","3H7XDTSHKDD1XLTH5OM6HFLT035WGN","AT6OT5K5Z4V0J","3RSBJ6YZECCLSSQQCGKCTHC9OPAFOK","","img/set1/S1.jpg","83","1","structured_load","83","structured_load,structured_normal,structured_incentive,random","2,3,4,2,1,2","2,3,4,1","true","","",""
"null","","html-keyboard-response","71","449665","0.0-71.0","3H7XDTSHKDD1XLTH5OM6HFLT035WGN","AT6OT5K5Z4V0J","3RSBJ6YZECCLSSQQCGKCTHC9OPAFOK","","<img src=""img/set1/S1.jpg"" width=""540"" height = ""360"" style=""border:16px solid orange"">","null","","","","","","","","","",""
"null","","html-keyboard-response","72","449866","0.0-72.0","3H7XDTSHKDD1XLTH5OM6HFLT035WGN","AT6OT5K5Z4V0J","3RSBJ6YZECCLSSQQCGKCTHC9OPAFOK","","","null","","","","","","","","","",""
"673","","image-keyboard-response","73","450541","0.0-73.0","3H7XDTSHKDD1XLTH5OM6HFLT035WGN","AT6OT5K5Z4V0J","3RSBJ6YZECCLSSQQCGKCTHC9OPAFOK","","img/set1/S1.jpg","83","1","structured_load","83","structured_load,structured_normal,structured_incentive,random","2,3,4,2,1,2","2,3,4,1","true","","",""
"null","","html-keyboard-response","74","450893","0.0-74.0","3H7XDTSHKDD1XLTH5OM6HFLT035WGN","AT6OT5K5Z4V0J","3RSBJ6YZECCLSSQQCGKCTHC9OPAFOK","","<img src=""img/set1/S1.jpg"" width=""540"" height = ""360"" style=""border:16px solid orange"">","null","","","","","","","","","",""
"null","","html-keyboard-response","75","451129","0.0-75.0","3H7XDTSHKDD1XLTH5OM6HFLT035WGN","AT6OT5K5Z4V0J","3RSBJ6YZECCLSSQQCGKCTHC9OPAFOK","","","null","","","","","","","","","",""
"640","","image-keyboard-response","76","451770","0.0-76.0","3H7XDTSHKDD1XLTH5OM6HFLT035WGN","AT6OT5K5Z4V0J","3RSBJ6YZECCLSSQQCGKCTHC9OPAFOK","","img/set1/S1.jpg","83","1","structured_load","83","structured_load,structured_normal,structured_incentive,random","2,3,4,2,1,2","2,3,4,1","true","","",""
"null","","html-keyboard-response","77","452122","0.0-77.0","3H7XDTSHKDD1XLTH5OM6HFLT035WGN","AT6OT5K5Z4V0J","3RSBJ6YZECCLSSQQCGKCTHC9OPAFOK","","<img src=""img/set1/S1.jpg"" width=""540"" height = ""360"" style=""border:16px solid orange"">","null","","","","","","","","","",""
"null","","html-keyboard-response","78","452324","0.0-78.0","3H7XDTSHKDD1XLTH5OM6HFLT035WGN","AT6OT5K5Z4V0J","3RSBJ6YZECCLSSQQCGKCTHC9OPAFOK","","","null","","","","","","","","","",""
"512","","image-keyboard-response","79","452836","0.0-79.0","3H7XDTSHKDD1XLTH5OM6HFLT035WGN","AT6OT5K5Z4V0J","3RSBJ6YZECCLSSQQCGKCTHC9OPAFOK","","img/set1/S1.jpg","83","1","structured_load","83","structured_load,structured_normal,structured_incentive,random","2,3,4,2,1,2","2,3,4,1","true","","",""
"null","","html-keyboard-response","80","453187","0.0-80.0","3H7XDTSHKDD1XLTH5OM6HFLT035WGN","AT6OT5K5Z4V0J","3RSBJ6YZECCLSSQQCGKCTHC9OPAFOK","","<img src=""img/set1/S1.jpg"" width=""540"" height = ""360"" style=""border:16px solid orange"">","null","","","","","","","","","",""
"null","","html-keyboard-response","81","453390","0.0-81.0","3H7XDTSHKDD1XLTH5OM6HFLT035WGN","AT6OT5K5Z4V0J","3RSBJ6YZECCLSSQQCGKCTHC9OPAFOK","","","null","","","","","","","","","",""
"1648","","image-keyboard-response","82","455041","0.0-82.0","3H7XDTSHKDD1XLTH5OM6HFLT035WGN","AT6OT5K5Z4V0J","3RSBJ6YZECCLSSQQCGKCTHC9OPAFOK","","img/set1/S4.jpg","74","4","structured_load","74","structured_load,structured_normal,structured_incentive,random","2,3,4,2,1,2","2,3,4,1","true","","",""
"null","","html-keyboard-response","83","455393","0.0-83.0","3H7XDTSHKDD1XLTH5OM6HFLT035WGN","AT6OT5K5Z4V0J","3RSBJ6YZECCLSSQQCGKCTHC9OPAFOK","","<img src=""img/set1/S4.jpg"" width=""540"" height = ""360"" style=""border:16px solid orange"">","null","","","","","","","","","",""
"null","","html-keyboard-response","84","455594","0.0-84.0","3H7XDTSHKDD1XLTH5OM6HFLT035WGN","AT6OT5K5Z4V0J","3RSBJ6YZECCLSSQQCGKCTHC9OPAFOK","","","null","","","","","","","","","",""
"1875","","image-keyboard-response","85","457471","0.0-85.0","3H7XDTSHKDD1XLTH5OM6HFLT035WGN","AT6OT5K5Z4V0J","3RSBJ6YZECCLSSQQCGKCTHC9OPAFOK","","img/set1/S1.jpg","83","1","structured_load","83","structured_load,structured_normal,structured_incentive,random","2,3,4,2,1,2","2,3,4,1","true","","",""
"null","","html-keyboard-response","86","457840","0.0-86.0","3H7XDTSHKDD1XLTH5OM6HFLT035WGN","AT6OT5K5Z4V0J","3RSBJ6YZECCLSSQQCGKCTHC9OPAFOK","","<img src=""img/set1/S1.jpg"" width=""540"" height = ""360"" style=""border:16px solid orange"">","null","","","","","","","","","",""
"null","","html-keyboard-response","87","458042","0.0-87.0","3H7XDTSHKDD1XLTH5OM6HFLT035WGN","AT6OT5K5Z4V0J","3RSBJ6YZECCLSSQQCGKCTHC9OPAFOK","","","null","","","","","","","","","",""
"1610","","image-keyboard-response","88","459653","0.0-88.0","3H7XDTSHKDD1XLTH5OM6HFLT035WGN","AT6OT5K5Z4V0J","3RSBJ6YZECCLSSQQCGKCTHC9OPAFOK","","img/set1/S2.jpg","68","2","structured_load","68","structured_load,structured_normal,structured_incentive,random","2,3,4,2,1,2","2,3,4,1","true","","",""
"null","","html-keyboard-response","89","460004","0.0-89.0","3H7XDTSHKDD1XLTH5OM6HFLT035WGN","AT6OT5K5Z4V0J","3RSBJ6YZECCLSSQQCGKCTHC9OPAFOK","","<img src=""img/set1/S2.jpg"" width=""540"" height = ""360"" style=""border:16px solid orange"">","null","","","","","","","","","",""
"null","","html-keyboard-response","90","460205","0.0-90.0","3H7XDTSHKDD1XLTH5OM6HFLT035WGN","AT6OT5K5Z4V0J","3RSBJ6YZECCLSSQQCGKCTHC9OPAFOK","","","null","","","","","","","","","",""
"1452","","image-keyboard-response","91","461659","0.0-91.0","3H7XDTSHKDD1XLTH5OM6HFLT035WGN","AT6OT5K5Z4V0J","3RSBJ6YZECCLSSQQCGKCTHC9OPAFOK","","img/set1/S3.jpg","72","3","structured_load","72","structured_load,structured_normal,structured_incentive,random","2,3,4,2,1,2","2,3,4,1","true","","",""
"null","","html-keyboard-response","92","462011","0.0-92.0","3H7XDTSHKDD1XLTH5OM6HFLT035WGN","AT6OT5K5Z4V0J","3RSBJ6YZECCLSSQQCGKCTHC9OPAFOK","","<img src=""img/set1/S3.jpg"" width=""540"" height = ""360"" style=""border:16px solid orange"">","null","","","","","","","","","",""
"null","","html-keyboard-response","93","462212","0.0-93.0","3H7XDTSHKDD1XLTH5OM6HFLT035WGN","AT6OT5K5Z4V0J","3RSBJ6YZECCLSSQQCGKCTHC9OPAFOK","","","null","","","","","","","","","",""
"607","","image-keyboard-response","94","462821","0.0-94.0","3H7XDTSHKDD1XLTH5OM6HFLT035WGN","AT6OT5K5Z4V0J","3RSBJ6YZECCLSSQQCGKCTHC9OPAFOK","","img/set1/S3.jpg","72","3","structured_load","72","structured_load,structured_normal,structured_incentive,random","2,3,4,2,1,2","2,3,4,1","true","","",""
"null","","html-keyboard-response","95","463173","0.0-95.0","3H7XDTSHKDD1XLTH5OM6HFLT035WGN","AT6OT5K5Z4V0J","3RSBJ6YZECCLSSQQCGKCTHC9OPAFOK","","<img src=""img/set1/S3.jpg"" width=""540"" height = ""360"" style=""border:16px solid orange"">","null","","","","","","","","","",""
"null","","html-keyboard-response","96","463375","0.0-96.0","3H7XDTSHKDD1XLTH5OM6HFLT035WGN","AT6OT5K5Z4V0J","3RSBJ6YZECCLSSQQCGKCTHC9OPAFOK","","","null","","","","","","","","","",""
"675","","image-keyboard-response","97","464051","0.0-97.0","3H7XDTSHKDD1XLTH5OM6HFLT035WGN","AT6OT5K5Z4V0J","3RSBJ6YZECCLSSQQCGKCTHC9OPAFOK","","img/set1/S4.jpg","74","4","structured_load","74","structured_load,structured_normal,structured_incentive,random","2,3,4,2,1,2","2,3,4,1","true","","",""
"null","","html-keyboard-response","98","464402","0.0-98.0","3H7XDTSHKDD1XLTH5OM6HFLT035WGN","AT6OT5K5Z4V0J","3RSBJ6YZECCLSSQQCGKCTHC9OPAFOK","","<img src=""img/set1/S4.jpg"" width=""540"" height = ""360"" style=""border:16px solid orange"">","null","","","","","","","","","",""
"null","","html-keyboard-response","99","464604","0.0-99.0","3H7XDTSHKDD1XLTH5OM6HFLT035WGN","AT6OT5K5Z4V0J","3RSBJ6YZECCLSSQQCGKCTHC9OPAFOK","","","null","","","","","","","","","",""
"1025","","image-keyboard-response","100","465631","0.0-100.0","3H7XDTSHKDD1XLTH5OM6HFLT035WGN","AT6OT5K5Z4V0J","3RSBJ6YZECCLSSQQCGKCTHC9OPAFOK","","img/set1/S2.jpg","83","2","structured_load","68","structured_load,structured_normal,structured_incentive,random","2,3,4,2,1,2","2,3,4,1","false","","",""
"null","","html-keyboard-response","101","465982","0.0-101.0","3H7XDTSHKDD1XLTH5OM6HFLT035WGN","AT6OT5K5Z4V0J","3RSBJ6YZECCLSSQQCGKCTHC9OPAFOK","","<img src=""img/set1/S2.jpg"" width=""540"" height = ""360"">","null","","","","","","","","","",""
"null","","html-keyboard-response","102","466184","0.0-102.0","3H7XDTSHKDD1XLTH5OM6HFLT035WGN","AT6OT5K5Z4V0J","3RSBJ6YZECCLSSQQCGKCTHC9OPAFOK","","","null","","","","","","","","","",""
"1219","","image-keyboard-response","103","467404","0.0-103.0","3H7XDTSHKDD1XLTH5OM6HFLT035WGN","AT6OT5K5Z4V0J","3RSBJ6YZECCLSSQQCGKCTHC9OPAFOK","","img/set1/S3.jpg","72","3","structured_load","72","structured_load,structured_normal,structured_incentive,random","2,3,4,2,1,2","2,3,4,1","true","","",""
"null","","html-keyboard-response","104","467760","0.0-104.0","3H7XDTSHKDD1XLTH5OM6HFLT035WGN","AT6OT5K5Z4V0J","3RSBJ6YZECCLSSQQCGKCTHC9OPAFOK","","<img src=""img/set1/S3.jpg"" width=""540"" height = ""360"" style=""border:16px solid orange"">","null","","","","","","","","","",""
"null","","html-keyboard-response","105","467961","0.0-105.0","3H7XDTSHKDD1XLTH5OM6HFLT035WGN","AT6OT5K5Z4V0J","3RSBJ6YZECCLSSQQCGKCTHC9OPAFOK","","","null","","","","","","","","","",""
"642","","image-keyboard-response","106","468605","0.0-106.0","3H7XDTSHKDD1XLTH5OM6HFLT035WGN","AT6OT5K5Z4V0J","3RSBJ6YZECCLSSQQCGKCTHC9OPAFOK","","img/set1/S4.jpg","74","4","structured_load","74","structured_load,structured_normal,structured_incentive,random","2,3,4,2,1,2","2,3,4,1","true","","",""
"null","","html-keyboard-response","107","468956","0.0-107.0","3H7XDTSHKDD1XLTH5OM6HFLT035WGN","AT6OT5K5Z4V0J","3RSBJ6YZECCLSSQQCGKCTHC9OPAFOK","","<img src=""img/set1/S4.jpg"" width=""540"" height = ""360"" style=""border:16px solid orange"">","null","","","","","","","","","",""
"null","","html-keyboard-response","108","469158","0.0-108.0","3H7XDTSHKDD1XLTH5OM6HFLT035WGN","AT6OT5K5Z4V0J","3RSBJ6YZECCLSSQQCGKCTHC9OPAFOK","","","null","","","","","","","","","",""
"579","","image-keyboard-response","109","469739","0.0-109.0","3H7XDTSHKDD1XLTH5OM6HFLT035WGN","AT6OT5K5Z4V0J","3RSBJ6YZECCLSSQQCGKCTHC9OPAFOK","","img/set1/S4.jpg","74","4","structured_load","74","structured_load,structured_normal,structured_incentive,random","2,3,4,2,1,2","2,3,4,1","true","","",""
"null","","html-keyboard-response","110","470091","0.0-110.0","3H7XDTSHKDD1XLTH5OM6HFLT035WGN","AT6OT5K5Z4V0J","3RSBJ6YZECCLSSQQCGKCTHC9OPAFOK","","<img src=""img/set1/S4.jpg"" width=""540"" height = ""360"" style=""border:16px solid orange"">","null","","","","","","","","","",""
"null","","html-keyboard-response","111","470293","0.0-111.0","3H7XDTSHKDD1XLTH5OM6HFLT035WGN","AT6OT5K5Z4V0J","3RSBJ6YZECCLSSQQCGKCTHC9OPAFOK","","","null","","","","","","","","","",""
"769","","image-keyboard-response","112","471063","0.0-112.0","3H7XDTSHKDD1XLTH5OM6HFLT035WGN","AT6OT5K5Z4V0J","3RSBJ6YZECCLSSQQCGKCTHC9OPAFOK","","img/set1/S1.jpg","68","1","structured_load","83","structured_load,structured_normal,structured_incentive,random","2,3,4,2,1,2","2,3,4,1","false","","",""
"null","","html-keyboard-response","113","471414","0.0-113.0","3H7XDTSHKDD1XLTH5OM6HFLT035WGN","AT6OT5K5Z4V0J","3RSBJ6YZECCLSSQQCGKCTHC9OPAFOK","","<img src=""img/set1/S1.jpg"" width=""540"" height = ""360"">","null","","","","","","","","","",""
"null","","html-keyboard-response","114","471615","0.0-114.0","3H7XDTSHKDD1XLTH5OM6HFLT035WGN","AT6OT5K5Z4V0J","3RSBJ6YZECCLSSQQCGKCTHC9OPAFOK","","","null","","","","","","","","","",""
"616","","image-keyboard-response","115","472233","0.0-115.0","3H7XDTSHKDD1XLTH5OM6HFLT035WGN","AT6OT5K5Z4V0J","3RSBJ6YZECCLSSQQCGKCTHC9OPAFOK","","img/set1/S1.jpg","83","1","structured_load","83","structured_load,structured_normal,structured_incentive,random","2,3,4,2,1,2","2,3,4,1","true","","",""
"null","","html-keyboard-response","116","472586","0.0-116.0","3H7XDTSHKDD1XLTH5OM6HFLT035WGN","AT6OT5K5Z4V0J","3RSBJ6YZECCLSSQQCGKCTHC9OPAFOK","","<img src=""img/set1/S1.jpg"" width=""540"" height = ""360"" style=""border:16px solid orange"">","null","","","","","","","","","",""
"null","","html-keyboard-response","117","472786","0.0-117.0","3H7XDTSHKDD1XLTH5OM6HFLT035WGN","AT6OT5K5Z4V0J","3RSBJ6YZECCLSSQQCGKCTHC9OPAFOK","","","null","","","","","","","","","",""
"885","","image-keyboard-response","118","473673","0.0-118.0","3H7XDTSHKDD1XLTH5OM6HFLT035WGN","AT6OT5K5Z4V0J","3RSBJ6YZECCLSSQQCGKCTHC9OPAFOK","","img/set1/S4.jpg","68","4","structured_load","74","structured_load,structured_normal,structured_incentive,random","2,3,4,2,1,2","2,3,4,1","false","","",""
"null","","html-keyboard-response","119","474026","0.0-119.0","3H7XDTSHKDD1XLTH5OM6HFLT035WGN","AT6OT5K5Z4V0J","3RSBJ6YZECCLSSQQCGKCTHC9OPAFOK","","<img src=""img/set1/S4.jpg"" width=""540"" height = ""360"">","null","","","","","","","","","",""
"null","","html-keyboard-response","120","474228","0.0-120.0","3H7XDTSHKDD1XLTH5OM6HFLT035WGN","AT6OT5K5Z4V0J","3RSBJ6YZECCLSSQQCGKCTHC9OPAFOK","","","null","","","","","","","","","",""
"1179","","image-keyboard-response","121","475408","0.0-121.0","3H7XDTSHKDD1XLTH5OM6HFLT035WGN","AT6OT5K5Z4V0J","3RSBJ6YZECCLSSQQCGKCTHC9OPAFOK","","img/set1/S1.jpg","68","1","structured_load","83","structured_load,structured_normal,structured_incentive,random","2,3,4,2,1,2","2,3,4,1","false","","",""
"null","","html-keyboard-response","122","475761","0.0-122.0","3H7XDTSHKDD1XLTH5OM6HFLT035WGN","AT6OT5K5Z4V0J","3RSBJ6YZECCLSSQQCGKCTHC9OPAFOK","","<img src=""img/set1/S1.jpg"" width=""540"" height = ""360"">","null","","","","","","","","","",""
"null","","html-keyboard-response","123","475962","0.0-123.0","3H7XDTSHKDD1XLTH5OM6HFLT035WGN","AT6OT5K5Z4V0J","3RSBJ6YZECCLSSQQCGKCTHC9OPAFOK","","","null","","","","","","","","","",""
"1625","","image-keyboard-response","124","477589","0.0-124.0","3H7XDTSHKDD1XLTH5OM6HFLT035WGN","AT6OT5K5Z4V0J","3RSBJ6YZECCLSSQQCGKCTHC9OPAFOK","","img/set1/S3.jpg","72","3","structured_load","72","structured_load,structured_normal,structured_incentive,random","2,3,4,2,1,2","2,3,4,1","true","","",""
"null","","html-keyboard-response","125","477942","0.0-125.0","3H7XDTSHKDD1XLTH5OM6HFLT035WGN","AT6OT5K5Z4V0J","3RSBJ6YZECCLSSQQCGKCTHC9OPAFOK","","<img src=""img/set1/S3.jpg"" width=""540"" height = ""360"" style=""border:16px solid orange"">","null","","","","","","","","","",""
"null","","html-keyboard-response","126","478143","0.0-126.0","3H7XDTSHKDD1XLTH5OM6HFLT035WGN","AT6OT5K5Z4V0J","3RSBJ6YZECCLSSQQCGKCTHC9OPAFOK","","","null","","","","","","","","","",""
"461","","image-keyboard-response","127","478605","0.0-127.0","3H7XDTSHKDD1XLTH5OM6HFLT035WGN","AT6OT5K5Z4V0J","3RSBJ6YZECCLSSQQCGKCTHC9OPAFOK","","img/set1/S4.jpg","74","4","structured_load","74","structured_load,structured_normal,structured_incentive,random","2,3,4,2,1,2","2,3,4,1","true","","",""
"null","","html-keyboard-response","128","478958","0.0-128.0","3H7XDTSHKDD1XLTH5OM6HFLT035WGN","AT6OT5K5Z4V0J","3RSBJ6YZECCLSSQQCGKCTHC9OPAFOK","","<img src=""img/set1/S4.jpg"" width=""540"" height = ""360"" style=""border:16px solid orange"">","null","","","","","","","","","",""
"null","","html-keyboard-response","129","479159","0.0-129.0","3H7XDTSHKDD1XLTH5OM6HFLT035WGN","AT6OT5K5Z4V0J","3RSBJ6YZECCLSSQQCGKCTHC9OPAFOK","","","null","","","","","","","","","",""
"967","","image-keyboard-response","130","480127","0.0-130.0","3H7XDTSHKDD1XLTH5OM6HFLT035WGN","AT6OT5K5Z4V0J","3RSBJ6YZECCLSSQQCGKCTHC9OPAFOK","","img/set1/S1.jpg","83","1","structured_load","83","structured_load,structured_normal,structured_incentive,random","2,3,4,2,1,2","2,3,4,1","true","","",""
"null","","html-keyboard-response","131","480479","0.0-131.0","3H7XDTSHKDD1XLTH5OM6HFLT035WGN","AT6OT5K5Z4V0J","3RSBJ6YZECCLSSQQCGKCTHC9OPAFOK","","<img src=""img/set1/S1.jpg"" width=""540"" height = ""360"" style=""border:16px solid orange"">","null","","","","","","","","","",""
"null","","html-keyboard-response","132","480679","0.0-132.0","3H7XDTSHKDD1XLTH5OM6HFLT035WGN","AT6OT5K5Z4V0J","3RSBJ6YZECCLSSQQCGKCTHC9OPAFOK","","","null","","","","","","","","","",""
"777","","image-keyboard-response","133","481458","0.0-133.0","3H7XDTSHKDD1XLTH5OM6HFLT035WGN","AT6OT5K5Z4V0J","3RSBJ6YZECCLSSQQCGKCTHC9OPAFOK","","img/set1/S4.jpg","68","4","structured_load","74","structured_load,structured_normal,structured_incentive,random","2,3,4,2,1,2","2,3,4,1","false","","",""
"null","","html-keyboard-response","134","481811","0.0-134.0","3H7XDTSHKDD1XLTH5OM6HFLT035WGN","AT6OT5K5Z4V0J","3RSBJ6YZECCLSSQQCGKCTHC9OPAFOK","","<img src=""img/set1/S4.jpg"" width=""540"" height = ""360"">","null","","","","","","","","","",""
"null","","html-keyboard-response","135","482012","0.0-135.0","3H7XDTSHKDD1XLTH5OM6HFLT035WGN","AT6OT5K5Z4V0J","3RSBJ6YZECCLSSQQCGKCTHC9OPAFOK","","","null","","","","","","","","","",""
"1041","","image-keyboard-response","136","483055","0.0-136.0","3H7XDTSHKDD1XLTH5OM6HFLT035WGN","AT6OT5K5Z4V0J","3RSBJ6YZECCLSSQQCGKCTHC9OPAFOK","","img/set1/S1.jpg","83","1","structured_load","83","structured_load,structured_normal,structured_incentive,random","2,3,4,2,1,2","2,3,4,1","true","","",""
"null","","html-keyboard-response","137","483407","0.0-137.0","3H7XDTSHKDD1XLTH5OM6HFLT035WGN","AT6OT5K5Z4V0J","3RSBJ6YZECCLSSQQCGKCTHC9OPAFOK","","<img src=""img/set1/S1.jpg"" width=""540"" height = ""360"" style=""border:16px solid orange"">","null","","","","","","","","","",""
"null","","html-keyboard-response","138","483607","0.0-138.0","3H7XDTSHKDD1XLTH5OM6HFLT035WGN","AT6OT5K5Z4V0J","3RSBJ6YZECCLSSQQCGKCTHC9OPAFOK","","","null","","","","","","","","","",""
"1033","","image-keyboard-response","139","484642","0.0-139.0","3H7XDTSHKDD1XLTH5OM6HFLT035WGN","AT6OT5K5Z4V0J","3RSBJ6YZECCLSSQQCGKCTHC9OPAFOK","","img/set1/S2.jpg","68","2","structured_load","68","structured_load,structured_normal,structured_incentive,random","2,3,4,2,1,2","2,3,4,1","true","","",""
"null","","html-keyboard-response","140","484994","0.0-140.0","3H7XDTSHKDD1XLTH5OM6HFLT035WGN","AT6OT5K5Z4V0J","3RSBJ6YZECCLSSQQCGKCTHC9OPAFOK","","<img src=""img/set1/S2.jpg"" width=""540"" height = ""360"" style=""border:16px solid orange"">","null","","","","","","","","","",""
"null","","html-keyboard-response","141","485196","0.0-141.0","3H7XDTSHKDD1XLTH5OM6HFLT035WGN","AT6OT5K5Z4V0J","3RSBJ6YZECCLSSQQCGKCTHC9OPAFOK","","","null","","","","","","","","","",""
"1019","","image-keyboard-response","142","486217","0.0-142.0","3H7XDTSHKDD1XLTH5OM6HFLT035WGN","AT6OT5K5Z4V0J","3RSBJ6YZECCLSSQQCGKCTHC9OPAFOK","","img/set1/S3.jpg","72","3","structured_load","72","structured_load,structured_normal,structured_incentive,random","2,3,4,2,1,2","2,3,4,1","true","","",""
"null","","html-keyboard-response","143","486568","0.0-143.0","3H7XDTSHKDD1XLTH5OM6HFLT035WGN","AT6OT5K5Z4V0J","3RSBJ6YZECCLSSQQCGKCTHC9OPAFOK","","<img src=""img/set1/S3.jpg"" width=""540"" height = ""360"" style=""border:16px solid orange"">","null","","","","","","","","","",""
"null","","html-keyboard-response","144","486770","0.0-144.0","3H7XDTSHKDD1XLTH5OM6HFLT035WGN","AT6OT5K5Z4V0J","3RSBJ6YZECCLSSQQCGKCTHC9OPAFOK","","","null","","","","","","","","","",""
"1312","","image-keyboard-response","145","488082","0.0-145.0","3H7XDTSHKDD1XLTH5OM6HFLT035WGN","AT6OT5K5Z4V0J","3RSBJ6YZECCLSSQQCGKCTHC9OPAFOK","","img/set1/S2.jpg","68","2","structured_load","68","structured_load,structured_normal,structured_incentive,random","2,3,4,2,1,2","2,3,4,1","true","","",""
"null","","html-keyboard-response","146","488434","0.0-146.0","3H7XDTSHKDD1XLTH5OM6HFLT035WGN","AT6OT5K5Z4V0J","3RSBJ6YZECCLSSQQCGKCTHC9OPAFOK","","<img src=""img/set1/S2.jpg"" width=""540"" height = ""360"" style=""border:16px solid orange"">","null","","","","","","","","","",""
"null","","html-keyboard-response","147","488641","0.0-147.0","3H7XDTSHKDD1XLTH5OM6HFLT035WGN","AT6OT5K5Z4V0J","3RSBJ6YZECCLSSQQCGKCTHC9OPAFOK","","","null","","","","","","","","","",""
"1134","","image-keyboard-response","148","489777","0.0-148.0","3H7XDTSHKDD1XLTH5OM6HFLT035WGN","AT6OT5K5Z4V0J","3RSBJ6YZECCLSSQQCGKCTHC9OPAFOK","","img/set1/S3.jpg","72","3","structured_load","72","structured_load,structured_normal,structured_incentive,random","2,3,4,2,1,2","2,3,4,1","true","","",""
"null","","html-keyboard-response","149","490129","0.0-149.0","3H7XDTSHKDD1XLTH5OM6HFLT035WGN","AT6OT5K5Z4V0J","3RSBJ6YZECCLSSQQCGKCTHC9OPAFOK","","<img src=""img/set1/S3.jpg"" width=""540"" height = ""360"" style=""border:16px solid orange"">","null","","","","","","","","","",""
"null","","html-keyboard-response","150","490330","0.0-150.0","3H7XDTSHKDD1XLTH5OM6HFLT035WGN","AT6OT5K5Z4V0J","3RSBJ6YZECCLSSQQCGKCTHC9OPAFOK","","","null","","","","","","","","","",""
"725","","image-keyboard-response","151","491057","0.0-151.0","3H7XDTSHKDD1XLTH5OM6HFLT035WGN","AT6OT5K5Z4V0J","3RSBJ6YZECCLSSQQCGKCTHC9OPAFOK","","img/set1/S1.jpg","68","1","structured_load","83","structured_load,structured_normal,structured_incentive,random","2,3,4,2,1,2","2,3,4,1","false","","",""
"null","","html-keyboard-response","152","491408","0.0-152.0","3H7XDTSHKDD1XLTH5OM6HFLT035WGN","AT6OT5K5Z4V0J","3RSBJ6YZECCLSSQQCGKCTHC9OPAFOK","","<img src=""img/set1/S1.jpg"" width=""540"" height = ""360"">","null","","","","","","","","","",""
"null","","html-keyboard-response","153","491610","0.0-153.0","3H7XDTSHKDD1XLTH5OM6HFLT035WGN","AT6OT5K5Z4V0J","3RSBJ6YZECCLSSQQCGKCTHC9OPAFOK","","","null","","","","","","","","","",""
"35","","image-keyboard-response","154","491647","0.0-154.0","3H7XDTSHKDD1XLTH5OM6HFLT035WGN","AT6OT5K5Z4V0J","3RSBJ6YZECCLSSQQCGKCTHC9OPAFOK","","img/set1/S4.jpg","83","4","structured_load","74","structured_load,structured_normal,structured_incentive,random","2,3,4,2,1,2","2,3,4,1","false","","",""
"null","","html-keyboard-response","155","492000","0.0-155.0","3H7XDTSHKDD1XLTH5OM6HFLT035WGN","AT6OT5K5Z4V0J","3RSBJ6YZECCLSSQQCGKCTHC9OPAFOK","","<img src=""img/set1/S4.jpg"" width=""540"" height = ""360"">","null","","","","","","","","","",""
"null","","html-keyboard-response","156","492201","0.0-156.0","3H7XDTSHKDD1XLTH5OM6HFLT035WGN","AT6OT5K5Z4V0J","3RSBJ6YZECCLSSQQCGKCTHC9OPAFOK","","","null","","","","","","","","","",""
"1425","","image-keyboard-response","157","493627","0.0-157.0","3H7XDTSHKDD1XLTH5OM6HFLT035WGN","AT6OT5K5Z4V0J","3RSBJ6YZECCLSSQQCGKCTHC9OPAFOK","","img/set1/S2.jpg","83","2","structured_load","68","structured_load,structured_normal,structured_incentive,random","2,3,4,2,1,2","2,3,4,1","false","","",""
"null","","html-keyboard-response","158","493979","0.0-158.0","3H7XDTSHKDD1XLTH5OM6HFLT035WGN","AT6OT5K5Z4V0J","3RSBJ6YZECCLSSQQCGKCTHC9OPAFOK","","<img src=""img/set1/S2.jpg"" width=""540"" height = ""360"">","null","","","","","","","","","",""
"null","","html-keyboard-response","159","494181","0.0-159.0","3H7XDTSHKDD1XLTH5OM6HFLT035WGN","AT6OT5K5Z4V0J","3RSBJ6YZECCLSSQQCGKCTHC9OPAFOK","","","null","","","","","","","","","",""
"1219","","image-keyboard-response","160","495401","0.0-160.0","3H7XDTSHKDD1XLTH5OM6HFLT035WGN","AT6OT5K5Z4V0J","3RSBJ6YZECCLSSQQCGKCTHC9OPAFOK","","img/set1/S3.jpg","72","3","structured_load","72","structured_load,structured_normal,structured_incentive,random","2,3,4,2,1,2","2,3,4,1","true","","",""
"null","","html-keyboard-response","161","495753","0.0-161.0","3H7XDTSHKDD1XLTH5OM6HFLT035WGN","AT6OT5K5Z4V0J","3RSBJ6YZECCLSSQQCGKCTHC9OPAFOK","","<img src=""img/set1/S3.jpg"" width=""540"" height = ""360"" style=""border:16px solid orange"">","null","","","","","","","","","",""
"null","","html-keyboard-response","162","495956","0.0-162.0","3H7XDTSHKDD1XLTH5OM6HFLT035WGN","AT6OT5K5Z4V0J","3RSBJ6YZECCLSSQQCGKCTHC9OPAFOK","","","null","","","","","","","","","",""
"1314","","image-keyboard-response","163","497271","0.0-163.0","3H7XDTSHKDD1XLTH5OM6HFLT035WGN","AT6OT5K5Z4V0J","3RSBJ6YZECCLSSQQCGKCTHC9OPAFOK","","img/set1/S1.jpg","68","1","structured_load","83","structured_load,structured_normal,structured_incentive,random","2,3,4,2,1,2","2,3,4,1","false","","",""
"null","","html-keyboard-response","164","497624","0.0-164.0","3H7XDTSHKDD1XLTH5OM6HFLT035WGN","AT6OT5K5Z4V0J","3RSBJ6YZECCLSSQQCGKCTHC9OPAFOK","","<img src=""img/set1/S1.jpg"" width=""540"" height = ""360"">","null","","","","","","","","","",""
"null","","html-keyboard-response","165","497825","0.0-165.0","3H7XDTSHKDD1XLTH5OM6HFLT035WGN","AT6OT5K5Z4V0J","3RSBJ6YZECCLSSQQCGKCTHC9OPAFOK","","","null","","","","","","","","","",""
"1383","","image-keyboard-response","166","499209","0.0-166.0","3H7XDTSHKDD1XLTH5OM6HFLT035WGN","AT6OT5K5Z4V0J","3RSBJ6YZECCLSSQQCGKCTHC9OPAFOK","","img/set1/S2.jpg","68","2","structured_load","68","structured_load,structured_normal,structured_incentive,random","2,3,4,2,1,2","2,3,4,1","true","","",""
"null","","html-keyboard-response","167","499560","0.0-167.0","3H7XDTSHKDD1XLTH5OM6HFLT035WGN","AT6OT5K5Z4V0J","3RSBJ6YZECCLSSQQCGKCTHC9OPAFOK","","<img src=""img/set1/S2.jpg"" width=""540"" height = ""360"" style=""border:16px solid orange"">","null","","","","","","","","","",""
"null","","html-keyboard-response","168","499762","0.0-168.0","3H7XDTSHKDD1XLTH5OM6HFLT035WGN","AT6OT5K5Z4V0J","3RSBJ6YZECCLSSQQCGKCTHC9OPAFOK","","","null","","","","","","","","","",""
"943","","image-keyboard-response","169","500706","0.0-169.0","3H7XDTSHKDD1XLTH5OM6HFLT035WGN","AT6OT5K5Z4V0J","3RSBJ6YZECCLSSQQCGKCTHC9OPAFOK","","img/set1/S3.jpg","72","3","structured_load","72","structured_load,structured_normal,structured_incentive,random","2,3,4,2,1,2","2,3,4,1","true","","",""
"null","","html-keyboard-response","170","501058","0.0-170.0","3H7XDTSHKDD1XLTH5OM6HFLT035WGN","AT6OT5K5Z4V0J","3RSBJ6YZECCLSSQQCGKCTHC9OPAFOK","","<img src=""img/set1/S3.jpg"" width=""540"" height = ""360"" style=""border:16px solid orange"">","null","","","","","","","","","",""
"null","","html-keyboard-response","171","501265","0.0-171.0","3H7XDTSHKDD1XLTH5OM6HFLT035WGN","AT6OT5K5Z4V0J","3RSBJ6YZECCLSSQQCGKCTHC9OPAFOK","","","null","","","","","","","","","",""
"390","","image-keyboard-response","172","501657","0.0-172.0","3H7XDTSHKDD1XLTH5OM6HFLT035WGN","AT6OT5K5Z4V0J","3RSBJ6YZECCLSSQQCGKCTHC9OPAFOK","","img/set1/S4.jpg","74","4","structured_load","74","structured_load,structured_normal,structured_incentive,random","2,3,4,2,1,2","2,3,4,1","true","","",""
"null","","html-keyboard-response","173","502009","0.0-173.0","3H7XDTSHKDD1XLTH5OM6HFLT035WGN","AT6OT5K5Z4V0J","3RSBJ6YZECCLSSQQCGKCTHC9OPAFOK","","<img src=""img/set1/S4.jpg"" width=""540"" height = ""360"" style=""border:16px solid orange"">","null","","","","","","","","","",""
"null","","html-keyboard-response","174","502210","0.0-174.0","3H7XDTSHKDD1XLTH5OM6HFLT035WGN","AT6OT5K5Z4V0J","3RSBJ6YZECCLSSQQCGKCTHC9OPAFOK","","","null","","","","","","","","","",""
"1100","","image-keyboard-response","175","503311","0.0-175.0","3H7XDTSHKDD1XLTH5OM6HFLT035WGN","AT6OT5K5Z4V0J","3RSBJ6YZECCLSSQQCGKCTHC9OPAFOK","","img/set1/S1.jpg","68","1","structured_load","83","structured_load,structured_normal,structured_incentive,random","2,3,4,2,1,2","2,3,4,1","false","","",""
"null","","html-keyboard-response","176","503663","0.0-176.0","3H7XDTSHKDD1XLTH5OM6HFLT035WGN","AT6OT5K5Z4V0J","3RSBJ6YZECCLSSQQCGKCTHC9OPAFOK","","<img src=""img/set1/S1.jpg"" width=""540"" height = ""360"">","null","","","","","","","","","",""
"null","","html-keyboard-response","177","503863","0.0-177.0","3H7XDTSHKDD1XLTH5OM6HFLT035WGN","AT6OT5K5Z4V0J","3RSBJ6YZECCLSSQQCGKCTHC9OPAFOK","","","null","","","","","","","","","",""
"1382","","image-keyboard-response","178","505247","0.0-178.0","3H7XDTSHKDD1XLTH5OM6HFLT035WGN","AT6OT5K5Z4V0J","3RSBJ6YZECCLSSQQCGKCTHC9OPAFOK","","img/set1/S2.jpg","68","2","structured_load","68","structured_load,structured_normal,structured_incentive,random","2,3,4,2,1,2","2,3,4,1","true","","",""
"null","","html-keyboard-response","179","505598","0.0-179.0","3H7XDTSHKDD1XLTH5OM6HFLT035WGN","AT6OT5K5Z4V0J","3RSBJ6YZECCLSSQQCGKCTHC9OPAFOK","","<img src=""img/set1/S2.jpg"" width=""540"" height = ""360"" style=""border:16px solid orange"">","null","","","","","","","","","",""
"null","","html-keyboard-response","180","505800","0.0-180.0","3H7XDTSHKDD1XLTH5OM6HFLT035WGN","AT6OT5K5Z4V0J","3RSBJ6YZECCLSSQQCGKCTHC9OPAFOK","","","null","","","","","","","","","",""
"939","","image-keyboard-response","181","506740","0.0-181.0","3H7XDTSHKDD1XLTH5OM6HFLT035WGN","AT6OT5K5Z4V0J","3RSBJ6YZECCLSSQQCGKCTHC9OPAFOK","","img/set1/S3.jpg","72","3","structured_load","72","structured_load,structured_normal,structured_incentive,random","2,3,4,2,1,2","2,3,4,1","true","","",""
"null","","html-keyboard-response","182","507092","0.0-182.0","3H7XDTSHKDD1XLTH5OM6HFLT035WGN","AT6OT5K5Z4V0J","3RSBJ6YZECCLSSQQCGKCTHC9OPAFOK","","<img src=""img/set1/S3.jpg"" width=""540"" height = ""360"" style=""border:16px solid orange"">","null","","","","","","","","","",""
"null","","html-keyboard-response","183","507292","0.0-183.0","3H7XDTSHKDD1XLTH5OM6HFLT035WGN","AT6OT5K5Z4V0J","3RSBJ6YZECCLSSQQCGKCTHC9OPAFOK","","","null","","","","","","","","","",""
"981","","image-keyboard-response","184","508275","0.0-184.0","3H7XDTSHKDD1XLTH5OM6HFLT035WGN","AT6OT5K5Z4V0J","3RSBJ6YZECCLSSQQCGKCTHC9OPAFOK","","img/set1/S1.jpg","83","1","structured_load","83","structured_load,structured_normal,structured_incentive,random","2,3,4,2,1,2","2,3,4,1","true","","",""
"null","","html-keyboard-response","185","508627","0.0-185.0","3H7XDTSHKDD1XLTH5OM6HFLT035WGN","AT6OT5K5Z4V0J","3RSBJ6YZECCLSSQQCGKCTHC9OPAFOK","","<img src=""img/set1/S1.jpg"" width=""540"" height = ""360"" style=""border:16px solid orange"">","null","","","","","","","","","",""
"null","","html-keyboard-response","186","508828","0.0-186.0","3H7XDTSHKDD1XLTH5OM6HFLT035WGN","AT6OT5K5Z4V0J","3RSBJ6YZECCLSSQQCGKCTHC9OPAFOK","","","null","","","","","","","","","",""
"1863","","image-keyboard-response","187","510693","0.0-187.0","3H7XDTSHKDD1XLTH5OM6HFLT035WGN","AT6OT5K5Z4V0J","3RSBJ6YZECCLSSQQCGKCTHC9OPAFOK","","img/set1/S2.jpg","68","2","structured_load","68","structured_load,structured_normal,structured_incentive,random","2,3,4,2,1,2","2,3,4,1","true","","",""
"null","","html-keyboard-response","188","511046","0.0-188.0","3H7XDTSHKDD1XLTH5OM6HFLT035WGN","AT6OT5K5Z4V0J","3RSBJ6YZECCLSSQQCGKCTHC9OPAFOK","","<img src=""img/set1/S2.jpg"" width=""540"" height = ""360"" style=""border:16px solid orange"">","null","","","","","","","","","",""
"null","","html-keyboard-response","189","511246","0.0-189.0","3H7XDTSHKDD1XLTH5OM6HFLT035WGN","AT6OT5K5Z4V0J","3RSBJ6YZECCLSSQQCGKCTHC9OPAFOK","","","null","","","","","","","","","",""
"945","","image-keyboard-response","190","512193","0.0-190.0","3H7XDTSHKDD1XLTH5OM6HFLT035WGN","AT6OT5K5Z4V0J","3RSBJ6YZECCLSSQQCGKCTHC9OPAFOK","","img/set1/S3.jpg","72","3","structured_load","72","structured_load,structured_normal,structured_incentive,random","2,3,4,2,1,2","2,3,4,1","true","","",""
"null","","html-keyboard-response","191","512547","0.0-191.0","3H7XDTSHKDD1XLTH5OM6HFLT035WGN","AT6OT5K5Z4V0J","3RSBJ6YZECCLSSQQCGKCTHC9OPAFOK","","<img src=""img/set1/S3.jpg"" width=""540"" height = ""360"" style=""border:16px solid orange"">","null","","","","","","","","","",""
"null","","html-keyboard-response","192","512749","0.0-192.0","3H7XDTSHKDD1XLTH5OM6HFLT035WGN","AT6OT5K5Z4V0J","3RSBJ6YZECCLSSQQCGKCTHC9OPAFOK","","","null","","","","","","","","","",""
"980","","image-keyboard-response","193","513731","0.0-193.0","3H7XDTSHKDD1XLTH5OM6HFLT035WGN","AT6OT5K5Z4V0J","3RSBJ6YZECCLSSQQCGKCTHC9OPAFOK","","img/set1/S2.jpg","83","2","structured_load","68","structured_load,structured_normal,structured_incentive,random","2,3,4,2,1,2","2,3,4,1","false","","",""
"null","","html-keyboard-response","194","514083","0.0-194.0","3H7XDTSHKDD1XLTH5OM6HFLT035WGN","AT6OT5K5Z4V0J","3RSBJ6YZECCLSSQQCGKCTHC9OPAFOK","","<img src=""img/set1/S2.jpg"" width=""540"" height = ""360"">","null","","","","","","","","","",""
"null","","html-keyboard-response","195","514285","0.0-195.0","3H7XDTSHKDD1XLTH5OM6HFLT035WGN","AT6OT5K5Z4V0J","3RSBJ6YZECCLSSQQCGKCTHC9OPAFOK","","","null","","","","","","","","","",""
"930","","image-keyboard-response","196","515217","0.0-196.0","3H7XDTSHKDD1XLTH5OM6HFLT035WGN","AT6OT5K5Z4V0J","3RSBJ6YZECCLSSQQCGKCTHC9OPAFOK","","img/set1/S3.jpg","72","3","structured_load","72","structured_load,structured_normal,structured_incentive,random","2,3,4,2,1,2","2,3,4,1","true","","",""
"null","","html-keyboard-response","197","515569","0.0-197.0","3H7XDTSHKDD1XLTH5OM6HFLT035WGN","AT6OT5K5Z4V0J","3RSBJ6YZECCLSSQQCGKCTHC9OPAFOK","","<img src=""img/set1/S3.jpg"" width=""540"" height = ""360"" style=""border:16px solid orange"">","null","","","","","","","","","",""
"null","","html-keyboard-response","198","515782","0.0-198.0","3H7XDTSHKDD1XLTH5OM6HFLT035WGN","AT6OT5K5Z4V0J","3RSBJ6YZECCLSSQQCGKCTHC9OPAFOK","","","null","","","","","","","","","",""
"1777","","image-keyboard-response","199","517561","0.0-199.0","3H7XDTSHKDD1XLTH5OM6HFLT035WGN","AT6OT5K5Z4V0J","3RSBJ6YZECCLSSQQCGKCTHC9OPAFOK","","img/set1/S1.jpg","68","1","structured_load","83","structured_load,structured_normal,structured_incentive,random","2,3,4,2,1,2","2,3,4,1","false","","",""
"null","","html-keyboard-response","200","517913","0.0-200.0","3H7XDTSHKDD1XLTH5OM6HFLT035WGN","AT6OT5K5Z4V0J","3RSBJ6YZECCLSSQQCGKCTHC9OPAFOK","","<img src=""img/set1/S1.jpg"" width=""540"" height = ""360"">","null","","","","","","","","","",""
"null","","html-keyboard-response","201","518116","0.0-201.0","3H7XDTSHKDD1XLTH5OM6HFLT035WGN","AT6OT5K5Z4V0J","3RSBJ6YZECCLSSQQCGKCTHC9OPAFOK","","","null","","","","","","","","","",""
"1925","","image-keyboard-response","202","520042","0.0-202.0","3H7XDTSHKDD1XLTH5OM6HFLT035WGN","AT6OT5K5Z4V0J","3RSBJ6YZECCLSSQQCGKCTHC9OPAFOK","","img/set1/S2.jpg","83","2","structured_load","68","structured_load,structured_normal,structured_incentive,random","2,3,4,2,1,2","2,3,4,1","false","","",""
"null","","html-keyboard-response","203","520394","0.0-203.0","3H7XDTSHKDD1XLTH5OM6HFLT035WGN","AT6OT5K5Z4V0J","3RSBJ6YZECCLSSQQCGKCTHC9OPAFOK","","<img src=""img/set1/S2.jpg"" width=""540"" height = ""360"">","null","","","","","","","","","",""
"null","","html-keyboard-response","204","520596","0.0-204.0","3H7XDTSHKDD1XLTH5OM6HFLT035WGN","AT6OT5K5Z4V0J","3RSBJ6YZECCLSSQQCGKCTHC9OPAFOK","","","null","","","","","","","","","",""
"873","","image-keyboard-response","205","521471","0.0-205.0","3H7XDTSHKDD1XLTH5OM6HFLT035WGN","AT6OT5K5Z4V0J","3RSBJ6YZECCLSSQQCGKCTHC9OPAFOK","","img/set1/S3.jpg","72","3","structured_load","72","structured_load,structured_normal,structured_incentive,random","2,3,4,2,1,2","2,3,4,1","true","","",""
"null","","html-keyboard-response","206","521823","0.0-206.0","3H7XDTSHKDD1XLTH5OM6HFLT035WGN","AT6OT5K5Z4V0J","3RSBJ6YZECCLSSQQCGKCTHC9OPAFOK","","<img src=""img/set1/S3.jpg"" width=""540"" height = ""360"" style=""border:16px solid orange"">","null","","","","","","","","","",""
"null","","html-keyboard-response","207","522024","0.0-207.0","3H7XDTSHKDD1XLTH5OM6HFLT035WGN","AT6OT5K5Z4V0J","3RSBJ6YZECCLSSQQCGKCTHC9OPAFOK","","","null","","","","","","","","","",""
"833","","image-keyboard-response","208","522859","0.0-208.0","3H7XDTSHKDD1XLTH5OM6HFLT035WGN","AT6OT5K5Z4V0J","3RSBJ6YZECCLSSQQCGKCTHC9OPAFOK","","img/set1/S1.jpg","68","1","structured_load","83","structured_load,structured_normal,structured_incentive,random","2,3,4,2,1,2","2,3,4,1","false","","",""
"null","","html-keyboard-response","209","523210","0.0-209.0","3H7XDTSHKDD1XLTH5OM6HFLT035WGN","AT6OT5K5Z4V0J","3RSBJ6YZECCLSSQQCGKCTHC9OPAFOK","","<img src=""img/set1/S1.jpg"" width=""540"" height = ""360"">","null","","","","","","","","","",""
"null","","html-keyboard-response","210","523419","0.0-210.0","3H7XDTSHKDD1XLTH5OM6HFLT035WGN","AT6OT5K5Z4V0J","3RSBJ6YZECCLSSQQCGKCTHC9OPAFOK","","","null","","","","","","","","","",""
"null","","image-keyboard-response","211","525921","0.0-211.0","3H7XDTSHKDD1XLTH5OM6HFLT035WGN","AT6OT5K5Z4V0J","3RSBJ6YZECCLSSQQCGKCTHC9OPAFOK","","img/set1/S2.jpg","null","2","structured_load","68","structured_load,structured_normal,structured_incentive,random","2,3,4,2,1,2","2,3,4,1","false","","",""
"null","","html-keyboard-response","212","526274","0.0-212.0","3H7XDTSHKDD1XLTH5OM6HFLT035WGN","AT6OT5K5Z4V0J","3RSBJ6YZECCLSSQQCGKCTHC9OPAFOK","","<img src=""img/set1/S2.jpg"" width=""540"" height = ""360"">","null","","","","","","","","","",""
"null","","html-keyboard-response","213","526474","0.0-213.0","3H7XDTSHKDD1XLTH5OM6HFLT035WGN","AT6OT5K5Z4V0J","3RSBJ6YZECCLSSQQCGKCTHC9OPAFOK","","","null","","","","","","","","","",""
"643","","image-keyboard-response","214","527119","0.0-214.0","3H7XDTSHKDD1XLTH5OM6HFLT035WGN","AT6OT5K5Z4V0J","3RSBJ6YZECCLSSQQCGKCTHC9OPAFOK","","img/set1/S4.jpg","72","4","structured_load","74","structured_load,structured_normal,structured_incentive,random","2,3,4,2,1,2","2,3,4,1","false","","",""
"null","","html-keyboard-response","215","527470","0.0-215.0","3H7XDTSHKDD1XLTH5OM6HFLT035WGN","AT6OT5K5Z4V0J","3RSBJ6YZECCLSSQQCGKCTHC9OPAFOK","","<img src=""img/set1/S4.jpg"" width=""540"" height = ""360"">","null","","","","","","","","","",""
"null","","html-keyboard-response","216","527672","0.0-216.0","3H7XDTSHKDD1XLTH5OM6HFLT035WGN","AT6OT5K5Z4V0J","3RSBJ6YZECCLSSQQCGKCTHC9OPAFOK","","","null","","","","","","","","","",""
"581","","image-keyboard-response","217","528255","0.0-217.0","3H7XDTSHKDD1XLTH5OM6HFLT035WGN","AT6OT5K5Z4V0J","3RSBJ6YZECCLSSQQCGKCTHC9OPAFOK","","img/set1/S4.jpg","74","4","structured_load","74","structured_load,structured_normal,structured_incentive,random","2,3,4,2,1,2","2,3,4,1","true","","",""
"null","","html-keyboard-response","218","528607","0.0-218.0","3H7XDTSHKDD1XLTH5OM6HFLT035WGN","AT6OT5K5Z4V0J","3RSBJ6YZECCLSSQQCGKCTHC9OPAFOK","","<img src=""img/set1/S4.jpg"" width=""540"" height = ""360"" style=""border:16px solid orange"">","null","","","","","","","","","",""
"null","","html-keyboard-response","219","528809","0.0-219.0","3H7XDTSHKDD1XLTH5OM6HFLT035WGN","AT6OT5K5Z4V0J","3RSBJ6YZECCLSSQQCGKCTHC9OPAFOK","","","null","","","","","","","","","",""
"1172","","image-keyboard-response","220","529983","0.0-220.0","3H7XDTSHKDD1XLTH5OM6HFLT035WGN","AT6OT5K5Z4V0J","3RSBJ6YZECCLSSQQCGKCTHC9OPAFOK","","img/set1/S2.jpg","68","2","structured_load","68","structured_load,structured_normal,structured_incentive,random","2,3,4,2,1,2","2,3,4,1","true","","",""
"null","","html-keyboard-response","221","530335","0.0-221.0","3H7XDTSHKDD1XLTH5OM6HFLT035WGN","AT6OT5K5Z4V0J","3RSBJ6YZECCLSSQQCGKCTHC9OPAFOK","","<img src=""img/set1/S2.jpg"" width=""540"" height = ""360"" style=""border:16px solid orange"">","null","","","","","","","","","",""
"null","","html-keyboard-response","222","530536","0.0-222.0","3H7XDTSHKDD1XLTH5OM6HFLT035WGN","AT6OT5K5Z4V0J","3RSBJ6YZECCLSSQQCGKCTHC9OPAFOK","","","null","","","","","","","","","",""
"841","","image-keyboard-response","223","531379","0.0-223.0","3H7XDTSHKDD1XLTH5OM6HFLT035WGN","AT6OT5K5Z4V0J","3RSBJ6YZECCLSSQQCGKCTHC9OPAFOK","","img/set1/S3.jpg","72","3","structured_load","72","structured_load,structured_normal,structured_incentive,random","2,3,4,2,1,2","2,3,4,1","true","","",""
"null","","html-keyboard-response","224","531730","0.0-224.0","3H7XDTSHKDD1XLTH5OM6HFLT035WGN","AT6OT5K5Z4V0J","3RSBJ6YZECCLSSQQCGKCTHC9OPAFOK","","<img src=""img/set1/S3.jpg"" width=""540"" height = ""360"" style=""border:16px solid orange"">","null","","","","","","","","","",""
"null","","html-keyboard-response","225","531932","0.0-225.0","3H7XDTSHKDD1XLTH5OM6HFLT035WGN","AT6OT5K5Z4V0J","3RSBJ6YZECCLSSQQCGKCTHC9OPAFOK","","","null","","","","","","","","","",""
"1377","","image-keyboard-response","226","533310","0.0-226.0","3H7XDTSHKDD1XLTH5OM6HFLT035WGN","AT6OT5K5Z4V0J","3RSBJ6YZECCLSSQQCGKCTHC9OPAFOK","","img/set1/S1.jpg","83","1","structured_load","83","structured_load,structured_normal,structured_incentive,random","2,3,4,2,1,2","2,3,4,1","true","","",""
"null","","html-keyboard-response","227","533662","0.0-227.0","3H7XDTSHKDD1XLTH5OM6HFLT035WGN","AT6OT5K5Z4V0J","3RSBJ6YZECCLSSQQCGKCTHC9OPAFOK","","<img src=""img/set1/S1.jpg"" width=""540"" height = ""360"" style=""border:16px solid orange"">","null","","","","","","","","","",""
"null","","html-keyboard-response","228","533864","0.0-228.0","3H7XDTSHKDD1XLTH5OM6HFLT035WGN","AT6OT5K5Z4V0J","3RSBJ6YZECCLSSQQCGKCTHC9OPAFOK","","","null","","","","","","","","","",""
"942","","image-keyboard-response","229","534807","0.0-229.0","3H7XDTSHKDD1XLTH5OM6HFLT035WGN","AT6OT5K5Z4V0J","3RSBJ6YZECCLSSQQCGKCTHC9OPAFOK","","img/set1/S4.jpg","72","4","structured_load","74","structured_load,structured_normal,structured_incentive,random","2,3,4,2,1,2","2,3,4,1","false","","",""
"null","","html-keyboard-response","230","535160","0.0-230.0","3H7XDTSHKDD1XLTH5OM6HFLT035WGN","AT6OT5K5Z4V0J","3RSBJ6YZECCLSSQQCGKCTHC9OPAFOK","","<img src=""img/set1/S4.jpg"" width=""540"" height = ""360"">","null","","","","","","","","","",""
"null","","html-keyboard-response","231","535360","0.0-231.0","3H7XDTSHKDD1XLTH5OM6HFLT035WGN","AT6OT5K5Z4V0J","3RSBJ6YZECCLSSQQCGKCTHC9OPAFOK","","","null","","","","","","","","","",""
"993","","image-keyboard-response","232","536355","0.0-232.0","3H7XDTSHKDD1XLTH5OM6HFLT035WGN","AT6OT5K5Z4V0J","3RSBJ6YZECCLSSQQCGKCTHC9OPAFOK","","img/set1/S1.jpg","83","1","structured_load","83","structured_load,structured_normal,structured_incentive,random","2,3,4,2,1,2","2,3,4,1","true","","",""
"null","","html-keyboard-response","233","536706","0.0-233.0","3H7XDTSHKDD1XLTH5OM6HFLT035WGN","AT6OT5K5Z4V0J","3RSBJ6YZECCLSSQQCGKCTHC9OPAFOK","","<img src=""img/set1/S1.jpg"" width=""540"" height = ""360"" style=""border:16px solid orange"">","null","","","","","","","","","",""
"null","","html-keyboard-response","234","536909","0.0-234.0","3H7XDTSHKDD1XLTH5OM6HFLT035WGN","AT6OT5K5Z4V0J","3RSBJ6YZECCLSSQQCGKCTHC9OPAFOK","","","null","","","","","","","","","",""
"439","","image-keyboard-response","235","537350","0.0-235.0","3H7XDTSHKDD1XLTH5OM6HFLT035WGN","AT6OT5K5Z4V0J","3RSBJ6YZECCLSSQQCGKCTHC9OPAFOK","","img/set1/S4.jpg","74","4","structured_load","74","structured_load,structured_normal,structured_incentive,random","2,3,4,2,1,2","2,3,4,1","true","","",""
"null","","html-keyboard-response","236","537703","0.0-236.0","3H7XDTSHKDD1XLTH5OM6HFLT035WGN","AT6OT5K5Z4V0J","3RSBJ6YZECCLSSQQCGKCTHC9OPAFOK","","<img src=""img/set1/S4.jpg"" width=""540"" height = ""360"" style=""border:16px solid orange"">","null","","","","","","","","","",""
"null","","html-keyboard-response","237","537903","0.0-237.0","3H7XDTSHKDD1XLTH5OM6HFLT035WGN","AT6OT5K5Z4V0J","3RSBJ6YZECCLSSQQCGKCTHC9OPAFOK","","","null","","","","","","","","","",""
"869","","image-keyboard-response","238","538773","0.0-238.0","3H7XDTSHKDD1XLTH5OM6HFLT035WGN","AT6OT5K5Z4V0J","3RSBJ6YZECCLSSQQCGKCTHC9OPAFOK","","img/set1/S1.jpg","83","1","structured_load","83","structured_load,structured_normal,structured_incentive,random","2,3,4,2,1,2","2,3,4,1","true","","",""
"null","","html-keyboard-response","239","539125","0.0-239.0","3H7XDTSHKDD1XLTH5OM6HFLT035WGN","AT6OT5K5Z4V0J","3RSBJ6YZECCLSSQQCGKCTHC9OPAFOK","","<img src=""img/set1/S1.jpg"" width=""540"" height = ""360"" style=""border:16px solid orange"">","null","","","","","","","","","",""
"null","","html-keyboard-response","240","539326","0.0-240.0","3H7XDTSHKDD1XLTH5OM6HFLT035WGN","AT6OT5K5Z4V0J","3RSBJ6YZECCLSSQQCGKCTHC9OPAFOK","","","null","","","","","","","","","",""
"1113","","image-keyboard-response","241","540441","0.0-241.0","3H7XDTSHKDD1XLTH5OM6HFLT035WGN","AT6OT5K5Z4V0J","3RSBJ6YZECCLSSQQCGKCTHC9OPAFOK","","img/set1/S2.jpg","68","2","structured_load","68","structured_load,structured_normal,structured_incentive,random","2,3,4,2,1,2","2,3,4,1","true","","",""
"null","","html-keyboard-response","242","540794","0.0-242.0","3H7XDTSHKDD1XLTH5OM6HFLT035WGN","AT6OT5K5Z4V0J","3RSBJ6YZECCLSSQQCGKCTHC9OPAFOK","","<img src=""img/set1/S2.jpg"" width=""540"" height = ""360"" style=""border:16px solid orange"">","null","","","","","","","","","",""
"null","","html-keyboard-response","243","540996","0.0-243.0","3H7XDTSHKDD1XLTH5OM6HFLT035WGN","AT6OT5K5Z4V0J","3RSBJ6YZECCLSSQQCGKCTHC9OPAFOK","","","null","","","","","","","","","",""
"852","","image-keyboard-response","244","541851","0.0-244.0","3H7XDTSHKDD1XLTH5OM6HFLT035WGN","AT6OT5K5Z4V0J","3RSBJ6YZECCLSSQQCGKCTHC9OPAFOK","","img/set1/S3.jpg","72","3","structured_load","72","structured_load,structured_normal,structured_incentive,random","2,3,4,2,1,2","2,3,4,1","true","","",""
"null","","html-keyboard-response","245","542203","0.0-245.0","3H7XDTSHKDD1XLTH5OM6HFLT035WGN","AT6OT5K5Z4V0J","3RSBJ6YZECCLSSQQCGKCTHC9OPAFOK","","<img src=""img/set1/S3.jpg"" width=""540"" height = ""360"" style=""border:16px solid orange"">","null","","","","","","","","","",""
"null","","html-keyboard-response","246","542405","0.0-246.0","3H7XDTSHKDD1XLTH5OM6HFLT035WGN","AT6OT5K5Z4V0J","3RSBJ6YZECCLSSQQCGKCTHC9OPAFOK","","","null","","","","","","","","","",""
"1140","","image-keyboard-response","247","543547","0.0-247.0","3H7XDTSHKDD1XLTH5OM6HFLT035WGN","AT6OT5K5Z4V0J","3RSBJ6YZECCLSSQQCGKCTHC9OPAFOK","","img/set1/S1.jpg","83","1","structured_load","83","structured_load,structured_normal,structured_incentive,random","2,3,4,2,1,2","2,3,4,1","true","","",""
"null","","html-keyboard-response","248","543899","0.0-248.0","3H7XDTSHKDD1XLTH5OM6HFLT035WGN","AT6OT5K5Z4V0J","3RSBJ6YZECCLSSQQCGKCTHC9OPAFOK","","<img src=""img/set1/S1.jpg"" width=""540"" height = ""360"" style=""border:16px solid orange"">","null","","","","","","","","","",""
"null","","html-keyboard-response","249","544100","0.0-249.0","3H7XDTSHKDD1XLTH5OM6HFLT035WGN","AT6OT5K5Z4V0J","3RSBJ6YZECCLSSQQCGKCTHC9OPAFOK","","","null","","","","","","","","","",""
"711","","image-keyboard-response","250","544813","0.0-250.0","3H7XDTSHKDD1XLTH5OM6HFLT035WGN","AT6OT5K5Z4V0J","3RSBJ6YZECCLSSQQCGKCTHC9OPAFOK","","img/set1/S1.jpg","83","1","structured_load","83","structured_load,structured_normal,structured_incentive,random","2,3,4,2,1,2","2,3,4,1","true","","",""
"null","","html-keyboard-response","251","545165","0.0-251.0","3H7XDTSHKDD1XLTH5OM6HFLT035WGN","AT6OT5K5Z4V0J","3RSBJ6YZECCLSSQQCGKCTHC9OPAFOK","","<img src=""img/set1/S1.jpg"" width=""540"" height = ""360"" style=""border:16px solid orange"">","null","","","","","","","","","",""
"null","","html-keyboard-response","252","545366","0.0-252.0","3H7XDTSHKDD1XLTH5OM6HFLT035WGN","AT6OT5K5Z4V0J","3RSBJ6YZECCLSSQQCGKCTHC9OPAFOK","","","null","","","","","","","","","",""
"638","","image-keyboard-response","253","546006","0.0-253.0","3H7XDTSHKDD1XLTH5OM6HFLT035WGN","AT6OT5K5Z4V0J","3RSBJ6YZECCLSSQQCGKCTHC9OPAFOK","","img/set1/S1.jpg","68","1","structured_load","83","structured_load,structured_normal,structured_incentive,random","2,3,4,2,1,2","2,3,4,1","false","","",""
"null","","html-keyboard-response","254","546358","0.0-254.0","3H7XDTSHKDD1XLTH5OM6HFLT035WGN","AT6OT5K5Z4V0J","3RSBJ6YZECCLSSQQCGKCTHC9OPAFOK","","<img src=""img/set1/S1.jpg"" width=""540"" height = ""360"">","null","","","","","","","","","",""
"null","","html-keyboard-response","255","546560","0.0-255.0","3H7XDTSHKDD1XLTH5OM6HFLT035WGN","AT6OT5K5Z4V0J","3RSBJ6YZECCLSSQQCGKCTHC9OPAFOK","","","null","","","","","","","","","",""
"544","","image-keyboard-response","256","547106","0.0-256.0","3H7XDTSHKDD1XLTH5OM6HFLT035WGN","AT6OT5K5Z4V0J","3RSBJ6YZECCLSSQQCGKCTHC9OPAFOK","","img/set1/S1.jpg","83","1","structured_load","83","structured_load,structured_normal,structured_incentive,random","2,3,4,2,1,2","2,3,4,1","true","","",""
"null","","html-keyboard-response","257","547458","0.0-257.0","3H7XDTSHKDD1XLTH5OM6HFLT035WGN","AT6OT5K5Z4V0J","3RSBJ6YZECCLSSQQCGKCTHC9OPAFOK","","<img src=""img/set1/S1.jpg"" width=""540"" height = ""360"" style=""border:16px solid orange"">","null","","","","","","","","","",""
"null","","html-keyboard-response","258","547660","0.0-258.0","3H7XDTSHKDD1XLTH5OM6HFLT035WGN","AT6OT5K5Z4V0J","3RSBJ6YZECCLSSQQCGKCTHC9OPAFOK","","","null","","","","","","","","","",""
"813","","image-keyboard-response","259","548475","0.0-259.0","3H7XDTSHKDD1XLTH5OM6HFLT035WGN","AT6OT5K5Z4V0J","3RSBJ6YZECCLSSQQCGKCTHC9OPAFOK","","img/set1/S4.jpg","74","4","structured_load","74","structured_load,structured_normal,structured_incentive,random","2,3,4,2,1,2","2,3,4,1","true","","",""
"null","","html-keyboard-response","260","548828","0.0-260.0","3H7XDTSHKDD1XLTH5OM6HFLT035WGN","AT6OT5K5Z4V0J","3RSBJ6YZECCLSSQQCGKCTHC9OPAFOK","","<img src=""img/set1/S4.jpg"" width=""540"" height = ""360"" style=""border:16px solid orange"">","null","","","","","","","","","",""
"null","","html-keyboard-response","261","549029","0.0-261.0","3H7XDTSHKDD1XLTH5OM6HFLT035WGN","AT6OT5K5Z4V0J","3RSBJ6YZECCLSSQQCGKCTHC9OPAFOK","","","null","","","","","","","","","",""
"2480","","image-keyboard-response","262","551511","0.0-262.0","3H7XDTSHKDD1XLTH5OM6HFLT035WGN","AT6OT5K5Z4V0J","3RSBJ6YZECCLSSQQCGKCTHC9OPAFOK","","img/set1/S2.jpg","68","2","structured_load","68","structured_load,structured_normal,structured_incentive,random","2,3,4,2,1,2","2,3,4,1","true","","",""
"null","","html-keyboard-response","263","551862","0.0-263.0","3H7XDTSHKDD1XLTH5OM6HFLT035WGN","AT6OT5K5Z4V0J","3RSBJ6YZECCLSSQQCGKCTHC9OPAFOK","","<img src=""img/set1/S2.jpg"" width=""540"" height = ""360"" style=""border:16px solid orange"">","null","","","","","","","","","",""
"null","","html-keyboard-response","264","552064","0.0-264.0","3H7XDTSHKDD1XLTH5OM6HFLT035WGN","AT6OT5K5Z4V0J","3RSBJ6YZECCLSSQQCGKCTHC9OPAFOK","","","null","","","","","","","","","",""
"629","","image-keyboard-response","265","552695","0.0-265.0","3H7XDTSHKDD1XLTH5OM6HFLT035WGN","AT6OT5K5Z4V0J","3RSBJ6YZECCLSSQQCGKCTHC9OPAFOK","","img/set1/S3.jpg","72","3","structured_load","72","structured_load,structured_normal,structured_incentive,random","2,3,4,2,1,2","2,3,4,1","true","","",""
"null","","html-keyboard-response","266","553048","0.0-266.0","3H7XDTSHKDD1XLTH5OM6HFLT035WGN","AT6OT5K5Z4V0J","3RSBJ6YZECCLSSQQCGKCTHC9OPAFOK","","<img src=""img/set1/S3.jpg"" width=""540"" height = ""360"" style=""border:16px solid orange"">","null","","","","","","","","","",""
"null","","html-keyboard-response","267","553249","0.0-267.0","3H7XDTSHKDD1XLTH5OM6HFLT035WGN","AT6OT5K5Z4V0J","3RSBJ6YZECCLSSQQCGKCTHC9OPAFOK","","","null","","","","","","","","","",""
"795","","image-keyboard-response","268","554045","0.0-268.0","3H7XDTSHKDD1XLTH5OM6HFLT035WGN","AT6OT5K5Z4V0J","3RSBJ6YZECCLSSQQCGKCTHC9OPAFOK","","img/set1/S1.jpg","83","1","structured_load","83","structured_load,structured_normal,structured_incentive,random","2,3,4,2,1,2","2,3,4,1","true","","",""
"null","","html-keyboard-response","269","554396","0.0-269.0","3H7XDTSHKDD1XLTH5OM6HFLT035WGN","AT6OT5K5Z4V0J","3RSBJ6YZECCLSSQQCGKCTHC9OPAFOK","","<img src=""img/set1/S1.jpg"" width=""540"" height = ""360"" style=""border:16px solid orange"">","null","","","","","","","","","",""
"null","","html-keyboard-response","270","554597","0.0-270.0","3H7XDTSHKDD1XLTH5OM6HFLT035WGN","AT6OT5K5Z4V0J","3RSBJ6YZECCLSSQQCGKCTHC9OPAFOK","","","null","","","","","","","","","",""
"1072","","image-keyboard-response","271","555671","0.0-271.0","3H7XDTSHKDD1XLTH5OM6HFLT035WGN","AT6OT5K5Z4V0J","3RSBJ6YZECCLSSQQCGKCTHC9OPAFOK","","img/set1/S2.jpg","83","2","structured_load","68","structured_load,structured_normal,structured_incentive,random","2,3,4,2,1,2","2,3,4,1","false","","",""
"null","","html-keyboard-response","272","556023","0.0-272.0","3H7XDTSHKDD1XLTH5OM6HFLT035WGN","AT6OT5K5Z4V0J","3RSBJ6YZECCLSSQQCGKCTHC9OPAFOK","","<img src=""img/set1/S2.jpg"" width=""540"" height = ""360"">","null","","","","","","","","","",""
"null","","html-keyboard-response","273","556225","0.0-273.0","3H7XDTSHKDD1XLTH5OM6HFLT035WGN","AT6OT5K5Z4V0J","3RSBJ6YZECCLSSQQCGKCTHC9OPAFOK","","","null","","","","","","","","","",""
"738","","image-keyboard-response","274","556964","0.0-274.0","3H7XDTSHKDD1XLTH5OM6HFLT035WGN","AT6OT5K5Z4V0J","3RSBJ6YZECCLSSQQCGKCTHC9OPAFOK","","img/set1/S3.jpg","72","3","structured_load","72","structured_load,structured_normal,structured_incentive,random","2,3,4,2,1,2","2,3,4,1","true","","",""
"null","","html-keyboard-response","275","557317","0.0-275.0","3H7XDTSHKDD1XLTH5OM6HFLT035WGN","AT6OT5K5Z4V0J","3RSBJ6YZECCLSSQQCGKCTHC9OPAFOK","","<img src=""img/set1/S3.jpg"" width=""540"" height = ""360"" style=""border:16px solid orange"">","null","","","","","","","","","",""
"null","","html-keyboard-response","276","557518","0.0-276.0","3H7XDTSHKDD1XLTH5OM6HFLT035WGN","AT6OT5K5Z4V0J","3RSBJ6YZECCLSSQQCGKCTHC9OPAFOK","","","null","","","","","","","","","",""
"1015","","image-keyboard-response","277","558535","0.0-277.0","3H7XDTSHKDD1XLTH5OM6HFLT035WGN","AT6OT5K5Z4V0J","3RSBJ6YZECCLSSQQCGKCTHC9OPAFOK","","img/set1/S2.jpg","68","2","structured_load","68","structured_load,structured_normal,structured_incentive,random","2,3,4,2,1,2","2,3,4,1","true","","",""
"null","","html-keyboard-response","278","558886","0.0-278.0","3H7XDTSHKDD1XLTH5OM6HFLT035WGN","AT6OT5K5Z4V0J","3RSBJ6YZECCLSSQQCGKCTHC9OPAFOK","","<img src=""img/set1/S2.jpg"" width=""540"" height = ""360"" style=""border:16px solid orange"">","null","","","","","","","","","",""
"null","","html-keyboard-response","279","559126","0.0-279.0","3H7XDTSHKDD1XLTH5OM6HFLT035WGN","AT6OT5K5Z4V0J","3RSBJ6YZECCLSSQQCGKCTHC9OPAFOK","","","null","","","","","","","","","",""
"667","","image-keyboard-response","280","559795","0.0-280.0","3H7XDTSHKDD1XLTH5OM6HFLT035WGN","AT6OT5K5Z4V0J","3RSBJ6YZECCLSSQQCGKCTHC9OPAFOK","","img/set1/S3.jpg","72","3","structured_load","72","structured_load,structured_normal,structured_incentive,random","2,3,4,2,1,2","2,3,4,1","true","","",""
"null","","html-keyboard-response","281","560147","0.0-281.0","3H7XDTSHKDD1XLTH5OM6HFLT035WGN","AT6OT5K5Z4V0J","3RSBJ6YZECCLSSQQCGKCTHC9OPAFOK","","<img src=""img/set1/S3.jpg"" width=""540"" height = ""360"" style=""border:16px solid orange"">","null","","","","","","","","","",""
"null","","html-keyboard-response","282","560349","0.0-282.0","3H7XDTSHKDD1XLTH5OM6HFLT035WGN","AT6OT5K5Z4V0J","3RSBJ6YZECCLSSQQCGKCTHC9OPAFOK","","","null","","","","","","","","","",""
"802","","image-keyboard-response","283","561153","0.0-283.0","3H7XDTSHKDD1XLTH5OM6HFLT035WGN","AT6OT5K5Z4V0J","3RSBJ6YZECCLSSQQCGKCTHC9OPAFOK","","img/set1/S2.jpg","68","2","structured_load","68","structured_load,structured_normal,structured_incentive,random","2,3,4,2,1,2","2,3,4,1","true","","",""
"null","","html-keyboard-response","284","561504","0.0-284.0","3H7XDTSHKDD1XLTH5OM6HFLT035WGN","AT6OT5K5Z4V0J","3RSBJ6YZECCLSSQQCGKCTHC9OPAFOK","","<img src=""img/set1/S2.jpg"" width=""540"" height = ""360"" style=""border:16px solid orange"">","null","","","","","","","","","",""
"null","","html-keyboard-response","285","561706","0.0-285.0","3H7XDTSHKDD1XLTH5OM6HFLT035WGN","AT6OT5K5Z4V0J","3RSBJ6YZECCLSSQQCGKCTHC9OPAFOK","","","null","","","","","","","","","",""
"635","","image-keyboard-response","286","562343","0.0-286.0","3H7XDTSHKDD1XLTH5OM6HFLT035WGN","AT6OT5K5Z4V0J","3RSBJ6YZECCLSSQQCGKCTHC9OPAFOK","","img/set1/S3.jpg","72","3","structured_load","72","structured_load,structured_normal,structured_incentive,random","2,3,4,2,1,2","2,3,4,1","true","","",""
"null","","html-keyboard-response","287","562695","0.0-287.0","3H7XDTSHKDD1XLTH5OM6HFLT035WGN","AT6OT5K5Z4V0J","3RSBJ6YZECCLSSQQCGKCTHC9OPAFOK","","<img src=""img/set1/S3.jpg"" width=""540"" height = ""360"" style=""border:16px solid orange"">","null","","","","","","","","","",""
"null","","html-keyboard-response","288","562896","0.0-288.0","3H7XDTSHKDD1XLTH5OM6HFLT035WGN","AT6OT5K5Z4V0J","3RSBJ6YZECCLSSQQCGKCTHC9OPAFOK","","","null","","","","","","","","","",""
"585","","image-keyboard-response","289","563483","0.0-289.0","3H7XDTSHKDD1XLTH5OM6HFLT035WGN","AT6OT5K5Z4V0J","3RSBJ6YZECCLSSQQCGKCTHC9OPAFOK","","img/set1/S2.jpg","68","2","structured_load","68","structured_load,structured_normal,structured_incentive,random","2,3,4,2,1,2","2,3,4,1","true","","",""
"null","","html-keyboard-response","290","563835","0.0-290.0","3H7XDTSHKDD1XLTH5OM6HFLT035WGN","AT6OT5K5Z4V0J","3RSBJ6YZECCLSSQQCGKCTHC9OPAFOK","","<img src=""img/set1/S2.jpg"" width=""540"" height = ""360"" style=""border:16px solid orange"">","null","","","","","","","","","",""
"null","","html-keyboard-response","291","564037","0.0-291.0","3H7XDTSHKDD1XLTH5OM6HFLT035WGN","AT6OT5K5Z4V0J","3RSBJ6YZECCLSSQQCGKCTHC9OPAFOK","","","null","","","","","","","","","",""
"688","","image-keyboard-response","292","564727","0.0-292.0","3H7XDTSHKDD1XLTH5OM6HFLT035WGN","AT6OT5K5Z4V0J","3RSBJ6YZECCLSSQQCGKCTHC9OPAFOK","","img/set1/S3.jpg","72","3","structured_load","72","structured_load,structured_normal,structured_incentive,random","2,3,4,2,1,2","2,3,4,1","true","","",""
"null","","html-keyboard-response","293","565079","0.0-293.0","3H7XDTSHKDD1XLTH5OM6HFLT035WGN","AT6OT5K5Z4V0J","3RSBJ6YZECCLSSQQCGKCTHC9OPAFOK","","<img src=""img/set1/S3.jpg"" width=""540"" height = ""360"" style=""border:16px solid orange"">","null","","","","","","","","","",""
"null","","html-keyboard-response","294","565280","0.0-294.0","3H7XDTSHKDD1XLTH5OM6HFLT035WGN","AT6OT5K5Z4V0J","3RSBJ6YZECCLSSQQCGKCTHC9OPAFOK","","","null","","","","","","","","","",""
"761","","image-keyboard-response","295","566043","0.0-295.0","3H7XDTSHKDD1XLTH5OM6HFLT035WGN","AT6OT5K5Z4V0J","3RSBJ6YZECCLSSQQCGKCTHC9OPAFOK","","img/set1/S4.jpg","74","4","structured_load","74","structured_load,structured_normal,structured_incentive,random","2,3,4,2,1,2","2,3,4,1","true","","",""
"null","","html-keyboard-response","296","566394","0.0-296.0","3H7XDTSHKDD1XLTH5OM6HFLT035WGN","AT6OT5K5Z4V0J","3RSBJ6YZECCLSSQQCGKCTHC9OPAFOK","","<img src=""img/set1/S4.jpg"" width=""540"" height = ""360"" style=""border:16px solid orange"">","null","","","","","","","","","",""
"null","","html-keyboard-response","297","566596","0.0-297.0","3H7XDTSHKDD1XLTH5OM6HFLT035WGN","AT6OT5K5Z4V0J","3RSBJ6YZECCLSSQQCGKCTHC9OPAFOK","","","null","","","","","","","","","",""
"1330","","image-keyboard-response","298","567932","0.0-298.0","3H7XDTSHKDD1XLTH5OM6HFLT035WGN","AT6OT5K5Z4V0J","3RSBJ6YZECCLSSQQCGKCTHC9OPAFOK","","img/set1/S2.jpg","83","2","structured_load","68","structured_load,structured_normal,structured_incentive,random","2,3,4,2,1,2","2,3,4,1","false","","",""
"null","","html-keyboard-response","299","568285","0.0-299.0","3H7XDTSHKDD1XLTH5OM6HFLT035WGN","AT6OT5K5Z4V0J","3RSBJ6YZECCLSSQQCGKCTHC9OPAFOK","","<img src=""img/set1/S2.jpg"" width=""540"" height = ""360"">","null","","","","","","","","","",""
"null","","html-keyboard-response","300","568486","0.0-300.0","3H7XDTSHKDD1XLTH5OM6HFLT035WGN","AT6OT5K5Z4V0J","3RSBJ6YZECCLSSQQCGKCTHC9OPAFOK","","","null","","","","","","","","","",""
"726","","image-keyboard-response","301","569215","0.0-301.0","3H7XDTSHKDD1XLTH5OM6HFLT035WGN","AT6OT5K5Z4V0J","3RSBJ6YZECCLSSQQCGKCTHC9OPAFOK","","img/set1/S3.jpg","72","3","structured_load","72","structured_load,structured_normal,structured_incentive,random","2,3,4,2,1,2","2,3,4,1","true","","",""
"null","","html-keyboard-response","302","569568","0.0-302.0","3H7XDTSHKDD1XLTH5OM6HFLT035WGN","AT6OT5K5Z4V0J","3RSBJ6YZECCLSSQQCGKCTHC9OPAFOK","","<img src=""img/set1/S3.jpg"" width=""540"" height = ""360"" style=""border:16px solid orange"">","null","","","","","","","","","",""
"null","","html-keyboard-response","303","569773","0.0-303.0","3H7XDTSHKDD1XLTH5OM6HFLT035WGN","AT6OT5K5Z4V0J","3RSBJ6YZECCLSSQQCGKCTHC9OPAFOK","","","null","","","","","","","","","",""
"708","","image-keyboard-response","304","570483","0.0-304.0","3H7XDTSHKDD1XLTH5OM6HFLT035WGN","AT6OT5K5Z4V0J","3RSBJ6YZECCLSSQQCGKCTHC9OPAFOK","","img/set1/S4.jpg","74","4","structured_load","74","structured_load,structured_normal,structured_incentive,random","2,3,4,2,1,2","2,3,4,1","true","","",""
"null","","html-keyboard-response","305","570834","0.0-305.0","3H7XDTSHKDD1XLTH5OM6HFLT035WGN","AT6OT5K5Z4V0J","3RSBJ6YZECCLSSQQCGKCTHC9OPAFOK","","<img src=""img/set1/S4.jpg"" width=""540"" height = ""360"" style=""border:16px solid orange"">","null","","","","","","","","","",""
"null","","html-keyboard-response","306","571036","0.0-306.0","3H7XDTSHKDD1XLTH5OM6HFLT035WGN","AT6OT5K5Z4V0J","3RSBJ6YZECCLSSQQCGKCTHC9OPAFOK","","","null","","","","","","","","","",""
"639","","image-keyboard-response","307","571677","0.0-307.0","3H7XDTSHKDD1XLTH5OM6HFLT035WGN","AT6OT5K5Z4V0J","3RSBJ6YZECCLSSQQCGKCTHC9OPAFOK","","img/set1/S2.jpg","68","2","structured_load","68","structured_load,structured_normal,structured_incentive,random","2,3,4,2,1,2","2,3,4,1","true","","",""
"null","","html-keyboard-response","308","572028","0.0-308.0","3H7XDTSHKDD1XLTH5OM6HFLT035WGN","AT6OT5K5Z4V0J","3RSBJ6YZECCLSSQQCGKCTHC9OPAFOK","","<img src=""img/set1/S2.jpg"" width=""540"" height = ""360"" style=""border:16px solid orange"">","null","","","","","","","","","",""
"null","","html-keyboard-response","309","572230","0.0-309.0","3H7XDTSHKDD1XLTH5OM6HFLT035WGN","AT6OT5K5Z4V0J","3RSBJ6YZECCLSSQQCGKCTHC9OPAFOK","","","null","","","","","","","","","",""
"830","","image-keyboard-response","310","573061","0.0-310.0","3H7XDTSHKDD1XLTH5OM6HFLT035WGN","AT6OT5K5Z4V0J","3RSBJ6YZECCLSSQQCGKCTHC9OPAFOK","","img/set1/S4.jpg","74","4","structured_load","74","structured_load,structured_normal,structured_incentive,random","2,3,4,2,1,2","2,3,4,1","true","","",""
"null","","html-keyboard-response","311","573413","0.0-311.0","3H7XDTSHKDD1XLTH5OM6HFLT035WGN","AT6OT5K5Z4V0J","3RSBJ6YZECCLSSQQCGKCTHC9OPAFOK","","<img src=""img/set1/S4.jpg"" width=""540"" height = ""360"" style=""border:16px solid orange"">","null","","","","","","","","","",""
"null","","html-keyboard-response","312","573615","0.0-312.0","3H7XDTSHKDD1XLTH5OM6HFLT035WGN","AT6OT5K5Z4V0J","3RSBJ6YZECCLSSQQCGKCTHC9OPAFOK","","","null","","","","","","","","","",""
"907","","image-keyboard-response","313","574524","0.0-313.0","3H7XDTSHKDD1XLTH5OM6HFLT035WGN","AT6OT5K5Z4V0J","3RSBJ6YZECCLSSQQCGKCTHC9OPAFOK","","img/set1/S1.jpg","83","1","structured_load","83","structured_load,structured_normal,structured_incentive,random","2,3,4,2,1,2","2,3,4,1","true","","",""
"null","","html-keyboard-response","314","574875","0.0-314.0","3H7XDTSHKDD1XLTH5OM6HFLT035WGN","AT6OT5K5Z4V0J","3RSBJ6YZECCLSSQQCGKCTHC9OPAFOK","","<img src=""img/set1/S1.jpg"" width=""540"" height = ""360"" style=""border:16px solid orange"">","null","","","","","","","","","",""
"null","","html-keyboard-response","315","575077","0.0-315.0","3H7XDTSHKDD1XLTH5OM6HFLT035WGN","AT6OT5K5Z4V0J","3RSBJ6YZECCLSSQQCGKCTHC9OPAFOK","","","null","","","","","","","","","",""
"815","","image-keyboard-response","316","575893","0.0-316.0","3H7XDTSHKDD1XLTH5OM6HFLT035WGN","AT6OT5K5Z4V0J","3RSBJ6YZECCLSSQQCGKCTHC9OPAFOK","","img/set1/S1.jpg","83","1","structured_load","83","structured_load,structured_normal,structured_incentive,random","2,3,4,2,1,2","2,3,4,1","true","","",""
"null","","html-keyboard-response","317","576245","0.0-317.0","3H7XDTSHKDD1XLTH5OM6HFLT035WGN","AT6OT5K5Z4V0J","3RSBJ6YZECCLSSQQCGKCTHC9OPAFOK","","<img src=""img/set1/S1.jpg"" width=""540"" height = ""360"" style=""border:16px solid orange"">","null","","","","","","","","","",""
"null","","html-keyboard-response","318","576447","0.0-318.0","3H7XDTSHKDD1XLTH5OM6HFLT035WGN","AT6OT5K5Z4V0J","3RSBJ6YZECCLSSQQCGKCTHC9OPAFOK","","","null","","","","","","","","","",""
"999","","image-keyboard-response","319","577448","0.0-319.0","3H7XDTSHKDD1XLTH5OM6HFLT035WGN","AT6OT5K5Z4V0J","3RSBJ6YZECCLSSQQCGKCTHC9OPAFOK","","img/set1/S4.jpg","74","4","structured_load","74","structured_load,structured_normal,structured_incentive,random","2,3,4,2,1,2","2,3,4,1","true","","",""
"null","","html-keyboard-response","320","577799","0.0-320.0","3H7XDTSHKDD1XLTH5OM6HFLT035WGN","AT6OT5K5Z4V0J","3RSBJ6YZECCLSSQQCGKCTHC9OPAFOK","","<img src=""img/set1/S4.jpg"" width=""540"" height = ""360"" style=""border:16px solid orange"">","null","","","","","","","","","",""
"null","","html-keyboard-response","321","578000","0.0-321.0","3H7XDTSHKDD1XLTH5OM6HFLT035WGN","AT6OT5K5Z4V0J","3RSBJ6YZECCLSSQQCGKCTHC9OPAFOK","","","null","","","","","","","","","",""
"705","","image-keyboard-response","322","578707","0.0-322.0","3H7XDTSHKDD1XLTH5OM6HFLT035WGN","AT6OT5K5Z4V0J","3RSBJ6YZECCLSSQQCGKCTHC9OPAFOK","","img/set1/S3.jpg","72","3","structured_load","72","structured_load,structured_normal,structured_incentive,random","2,3,4,2,1,2","2,3,4,1","true","","",""
"null","","html-keyboard-response","323","579059","0.0-323.0","3H7XDTSHKDD1XLTH5OM6HFLT035WGN","AT6OT5K5Z4V0J","3RSBJ6YZECCLSSQQCGKCTHC9OPAFOK","","<img src=""img/set1/S3.jpg"" width=""540"" height = ""360"" style=""border:16px solid orange"">","null","","","","","","","","","",""
"null","","html-keyboard-response","324","579260","0.0-324.0","3H7XDTSHKDD1XLTH5OM6HFLT035WGN","AT6OT5K5Z4V0J","3RSBJ6YZECCLSSQQCGKCTHC9OPAFOK","","","null","","","","","","","","","",""
"789","","image-keyboard-response","325","580050","0.0-325.0","3H7XDTSHKDD1XLTH5OM6HFLT035WGN","AT6OT5K5Z4V0J","3RSBJ6YZECCLSSQQCGKCTHC9OPAFOK","","img/set1/S4.jpg","74","4","structured_load","74","structured_load,structured_normal,structured_incentive,random","2,3,4,2,1,2","2,3,4,1","true","","",""
"null","","html-keyboard-response","326","580401","0.0-326.0","3H7XDTSHKDD1XLTH5OM6HFLT035WGN","AT6OT5K5Z4V0J","3RSBJ6YZECCLSSQQCGKCTHC9OPAFOK","","<img src=""img/set1/S4.jpg"" width=""540"" height = ""360"" style=""border:16px solid orange"">","null","","","","","","","","","",""
"null","","html-keyboard-response","327","580602","0.0-327.0","3H7XDTSHKDD1XLTH5OM6HFLT035WGN","AT6OT5K5Z4V0J","3RSBJ6YZECCLSSQQCGKCTHC9OPAFOK","","","null","","","","","","","","","",""
"489","","image-keyboard-response","328","581093","0.0-328.0","3H7XDTSHKDD1XLTH5OM6HFLT035WGN","AT6OT5K5Z4V0J","3RSBJ6YZECCLSSQQCGKCTHC9OPAFOK","","img/set1/S4.jpg","74","4","structured_load","74","structured_load,structured_normal,structured_incentive,random","2,3,4,2,1,2","2,3,4,1","true","","",""
"null","","html-keyboard-response","329","581459","0.0-329.0","3H7XDTSHKDD1XLTH5OM6HFLT035WGN","AT6OT5K5Z4V0J","3RSBJ6YZECCLSSQQCGKCTHC9OPAFOK","","<img src=""img/set1/S4.jpg"" width=""540"" height = ""360"" style=""border:16px solid orange"">","null","","","","","","","","","",""
"null","","html-keyboard-response","330","581659","0.0-330.0","3H7XDTSHKDD1XLTH5OM6HFLT035WGN","AT6OT5K5Z4V0J","3RSBJ6YZECCLSSQQCGKCTHC9OPAFOK","","","null","","","","","","","","","",""
"1558","","image-keyboard-response","331","583219","0.0-331.0","3H7XDTSHKDD1XLTH5OM6HFLT035WGN","AT6OT5K5Z4V0J","3RSBJ6YZECCLSSQQCGKCTHC9OPAFOK","","img/set1/S1.jpg","83","1","structured_load","83","structured_load,structured_normal,structured_incentive,random","2,3,4,2,1,2","2,3,4,1","true","","",""
"null","","html-keyboard-response","332","583571","0.0-332.0","3H7XDTSHKDD1XLTH5OM6HFLT035WGN","AT6OT5K5Z4V0J","3RSBJ6YZECCLSSQQCGKCTHC9OPAFOK","","<img src=""img/set1/S1.jpg"" width=""540"" height = ""360"" style=""border:16px solid orange"">","null","","","","","","","","","",""
"null","","html-keyboard-response","333","583772","0.0-333.0","3H7XDTSHKDD1XLTH5OM6HFLT035WGN","AT6OT5K5Z4V0J","3RSBJ6YZECCLSSQQCGKCTHC9OPAFOK","","","null","","","","","","","","","",""
"707","","image-keyboard-response","334","584481","0.0-334.0","3H7XDTSHKDD1XLTH5OM6HFLT035WGN","AT6OT5K5Z4V0J","3RSBJ6YZECCLSSQQCGKCTHC9OPAFOK","","img/set1/S2.jpg","68","2","structured_load","68","structured_load,structured_normal,structured_incentive,random","2,3,4,2,1,2","2,3,4,1","true","","",""
"null","","html-keyboard-response","335","584833","0.0-335.0","3H7XDTSHKDD1XLTH5OM6HFLT035WGN","AT6OT5K5Z4V0J","3RSBJ6YZECCLSSQQCGKCTHC9OPAFOK","","<img src=""img/set1/S2.jpg"" width=""540"" height = ""360"" style=""border:16px solid orange"">","null","","","","","","","","","",""
"null","","html-keyboard-response","336","585034","0.0-336.0","3H7XDTSHKDD1XLTH5OM6HFLT035WGN","AT6OT5K5Z4V0J","3RSBJ6YZECCLSSQQCGKCTHC9OPAFOK","","","null","","","","","","","","","",""
"741","","image-keyboard-response","337","585777","0.0-337.0","3H7XDTSHKDD1XLTH5OM6HFLT035WGN","AT6OT5K5Z4V0J","3RSBJ6YZECCLSSQQCGKCTHC9OPAFOK","","img/set1/S3.jpg","72","3","structured_load","72","structured_load,structured_normal,structured_incentive,random","2,3,4,2,1,2","2,3,4,1","true","","",""
"null","","html-keyboard-response","338","586130","0.0-338.0","3H7XDTSHKDD1XLTH5OM6HFLT035WGN","AT6OT5K5Z4V0J","3RSBJ6YZECCLSSQQCGKCTHC9OPAFOK","","<img src=""img/set1/S3.jpg"" width=""540"" height = ""360"" style=""border:16px solid orange"">","null","","","","","","","","","",""
"null","","html-keyboard-response","339","586330","0.0-339.0","3H7XDTSHKDD1XLTH5OM6HFLT035WGN","AT6OT5K5Z4V0J","3RSBJ6YZECCLSSQQCGKCTHC9OPAFOK","","","null","","","","","","","","","",""
"1489","","image-keyboard-response","340","587821","0.0-340.0","3H7XDTSHKDD1XLTH5OM6HFLT035WGN","AT6OT5K5Z4V0J","3RSBJ6YZECCLSSQQCGKCTHC9OPAFOK","","img/set1/S2.jpg","68","2","structured_load","68","structured_load,structured_normal,structured_incentive,random","2,3,4,2,1,2","2,3,4,1","true","","",""
"null","","html-keyboard-response","341","588172","0.0-341.0","3H7XDTSHKDD1XLTH5OM6HFLT035WGN","AT6OT5K5Z4V0J","3RSBJ6YZECCLSSQQCGKCTHC9OPAFOK","","<img src=""img/set1/S2.jpg"" width=""540"" height = ""360"" style=""border:16px solid orange"">","null","","","","","","","","","",""
"null","","html-keyboard-response","342","588374","0.0-342.0","3H7XDTSHKDD1XLTH5OM6HFLT035WGN","AT6OT5K5Z4V0J","3RSBJ6YZECCLSSQQCGKCTHC9OPAFOK","","","null","","","","","","","","","",""
"719","","image-keyboard-response","343","589095","0.0-343.0","3H7XDTSHKDD1XLTH5OM6HFLT035WGN","AT6OT5K5Z4V0J","3RSBJ6YZECCLSSQQCGKCTHC9OPAFOK","","img/set1/S4.jpg","74","4","structured_load","74","structured_load,structured_normal,structured_incentive,random","2,3,4,2,1,2","2,3,4,1","true","","",""
"null","","html-keyboard-response","344","589448","0.0-344.0","3H7XDTSHKDD1XLTH5OM6HFLT035WGN","AT6OT5K5Z4V0J","3RSBJ6YZECCLSSQQCGKCTHC9OPAFOK","","<img src=""img/set1/S4.jpg"" width=""540"" height = ""360"" style=""border:16px solid orange"">","null","","","","","","","","","",""
"null","","html-keyboard-response","345","589651","0.0-345.0","3H7XDTSHKDD1XLTH5OM6HFLT035WGN","AT6OT5K5Z4V0J","3RSBJ6YZECCLSSQQCGKCTHC9OPAFOK","","","null","","","","","","","","","",""
"956","","image-keyboard-response","346","590608","0.0-346.0","3H7XDTSHKDD1XLTH5OM6HFLT035WGN","AT6OT5K5Z4V0J","3RSBJ6YZECCLSSQQCGKCTHC9OPAFOK","","img/set1/S3.jpg","72","3","structured_load","72","structured_load,structured_normal,structured_incentive,random","2,3,4,2,1,2","2,3,4,1","true","","",""
"null","","html-keyboard-response","347","590960","0.0-347.0","3H7XDTSHKDD1XLTH5OM6HFLT035WGN","AT6OT5K5Z4V0J","3RSBJ6YZECCLSSQQCGKCTHC9OPAFOK","","<img src=""img/set1/S3.jpg"" width=""540"" height = ""360"" style=""border:16px solid orange"">","null","","","","","","","","","",""
"null","","html-keyboard-response","348","591161","0.0-348.0","3H7XDTSHKDD1XLTH5OM6HFLT035WGN","AT6OT5K5Z4V0J","3RSBJ6YZECCLSSQQCGKCTHC9OPAFOK","","","null","","","","","","","","","",""
"1040","","image-keyboard-response","349","592203","0.0-349.0","3H7XDTSHKDD1XLTH5OM6HFLT035WGN","AT6OT5K5Z4V0J","3RSBJ6YZECCLSSQQCGKCTHC9OPAFOK","","img/set1/S2.jpg","83","2","structured_load","68","structured_load,structured_normal,structured_incentive,random","2,3,4,2,1,2","2,3,4,1","false","","",""
"null","","html-keyboard-response","350","592555","0.0-350.0","3H7XDTSHKDD1XLTH5OM6HFLT035WGN","AT6OT5K5Z4V0J","3RSBJ6YZECCLSSQQCGKCTHC9OPAFOK","","<img src=""img/set1/S2.jpg"" width=""540"" height = ""360"">","null","","","","","","","","","",""
"null","","html-keyboard-response","351","592757","0.0-351.0","3H7XDTSHKDD1XLTH5OM6HFLT035WGN","AT6OT5K5Z4V0J","3RSBJ6YZECCLSSQQCGKCTHC9OPAFOK","","","null","","","","","","","","","",""
"815","","image-keyboard-response","352","593574","0.0-352.0","3H7XDTSHKDD1XLTH5OM6HFLT035WGN","AT6OT5K5Z4V0J","3RSBJ6YZECCLSSQQCGKCTHC9OPAFOK","","img/set1/S3.jpg","72","3","structured_load","72","structured_load,structured_normal,structured_incentive,random","2,3,4,2,1,2","2,3,4,1","true","","",""
"null","","html-keyboard-response","353","593927","0.0-353.0","3H7XDTSHKDD1XLTH5OM6HFLT035WGN","AT6OT5K5Z4V0J","3RSBJ6YZECCLSSQQCGKCTHC9OPAFOK","","<img src=""img/set1/S3.jpg"" width=""540"" height = ""360"" style=""border:16px solid orange"">","null","","","","","","","","","",""
"null","","html-keyboard-response","354","594128","0.0-354.0","3H7XDTSHKDD1XLTH5OM6HFLT035WGN","AT6OT5K5Z4V0J","3RSBJ6YZECCLSSQQCGKCTHC9OPAFOK","","","null","","","","","","","","","",""
"798","","image-keyboard-response","355","594927","0.0-355.0","3H7XDTSHKDD1XLTH5OM6HFLT035WGN","AT6OT5K5Z4V0J","3RSBJ6YZECCLSSQQCGKCTHC9OPAFOK","","img/set1/S3.jpg","72","3","structured_load","72","structured_load,structured_normal,structured_incentive,random","2,3,4,2,1,2","2,3,4,1","true","","",""
"null","","html-keyboard-response","356","595280","0.0-356.0","3H7XDTSHKDD1XLTH5OM6HFLT035WGN","AT6OT5K5Z4V0J","3RSBJ6YZECCLSSQQCGKCTHC9OPAFOK","","<img src=""img/set1/S3.jpg"" width=""540"" height = ""360"" style=""border:16px solid orange"">","null","","","","","","","","","",""
"null","","html-keyboard-response","357","595483","0.0-357.0","3H7XDTSHKDD1XLTH5OM6HFLT035WGN","AT6OT5K5Z4V0J","3RSBJ6YZECCLSSQQCGKCTHC9OPAFOK","","","null","","","","","","","","","",""
"1264","","image-keyboard-response","358","596749","0.0-358.0","3H7XDTSHKDD1XLTH5OM6HFLT035WGN","AT6OT5K5Z4V0J","3RSBJ6YZECCLSSQQCGKCTHC9OPAFOK","","img/set1/S1.jpg","83","1","structured_load","83","structured_load,structured_normal,structured_incentive,random","2,3,4,2,1,2","2,3,4,1","true","","",""
"null","","html-keyboard-response","359","597100","0.0-359.0","3H7XDTSHKDD1XLTH5OM6HFLT035WGN","AT6OT5K5Z4V0J","3RSBJ6YZECCLSSQQCGKCTHC9OPAFOK","","<img src=""img/set1/S1.jpg"" width=""540"" height = ""360"" style=""border:16px solid orange"">","null","","","","","","","","","",""
"null","","html-keyboard-response","360","597302","0.0-360.0","3H7XDTSHKDD1XLTH5OM6HFLT035WGN","AT6OT5K5Z4V0J","3RSBJ6YZECCLSSQQCGKCTHC9OPAFOK","","","null","","","","","","","","","",""
"772","","image-keyboard-response","361","598076","0.0-361.0","3H7XDTSHKDD1XLTH5OM6HFLT035WGN","AT6OT5K5Z4V0J","3RSBJ6YZECCLSSQQCGKCTHC9OPAFOK","","img/set1/S2.jpg","68","2","structured_load","68","structured_load,structured_normal,structured_incentive,random","2,3,4,2,1,2","2,3,4,1","true","","",""
"null","","html-keyboard-response","362","598427","0.0-362.0","3H7XDTSHKDD1XLTH5OM6HFLT035WGN","AT6OT5K5Z4V0J","3RSBJ6YZECCLSSQQCGKCTHC9OPAFOK","","<img src=""img/set1/S2.jpg"" width=""540"" height = ""360"" style=""border:16px solid orange"">","null","","","","","","","","","",""
"null","","html-keyboard-response","363","598629","0.0-363.0","3H7XDTSHKDD1XLTH5OM6HFLT035WGN","AT6OT5K5Z4V0J","3RSBJ6YZECCLSSQQCGKCTHC9OPAFOK","","","null","","","","","","","","","",""
"891","","image-keyboard-response","364","599522","0.0-364.0","3H7XDTSHKDD1XLTH5OM6HFLT035WGN","AT6OT5K5Z4V0J","3RSBJ6YZECCLSSQQCGKCTHC9OPAFOK","","img/set1/S3.jpg","72","3","structured_load","72","structured_load,structured_normal,structured_incentive,random","2,3,4,2,1,2","2,3,4,1","true","","",""
"null","","html-keyboard-response","365","599875","0.0-365.0","3H7XDTSHKDD1XLTH5OM6HFLT035WGN","AT6OT5K5Z4V0J","3RSBJ6YZECCLSSQQCGKCTHC9OPAFOK","","<img src=""img/set1/S3.jpg"" width=""540"" height = ""360"" style=""border:16px solid orange"">","null","","","","","","","","","",""
"null","","html-keyboard-response","366","600077","0.0-366.0","3H7XDTSHKDD1XLTH5OM6HFLT035WGN","AT6OT5K5Z4V0J","3RSBJ6YZECCLSSQQCGKCTHC9OPAFOK","","","null","","","","","","","","","",""
"713","","image-keyboard-response","367","600792","0.0-367.0","3H7XDTSHKDD1XLTH5OM6HFLT035WGN","AT6OT5K5Z4V0J","3RSBJ6YZECCLSSQQCGKCTHC9OPAFOK","","img/set1/S2.jpg","68","2","structured_load","68","structured_load,structured_normal,structured_incentive,random","2,3,4,2,1,2","2,3,4,1","true","","",""
"null","","html-keyboard-response","368","601152","0.0-368.0","3H7XDTSHKDD1XLTH5OM6HFLT035WGN","AT6OT5K5Z4V0J","3RSBJ6YZECCLSSQQCGKCTHC9OPAFOK","","<img src=""img/set1/S2.jpg"" width=""540"" height = ""360"" style=""border:16px solid orange"">","null","","","","","","","","","",""
"null","","html-keyboard-response","369","601354","0.0-369.0","3H7XDTSHKDD1XLTH5OM6HFLT035WGN","AT6OT5K5Z4V0J","3RSBJ6YZECCLSSQQCGKCTHC9OPAFOK","","","null","","","","","","","","","",""
"781","","image-keyboard-response","370","602137","0.0-370.0","3H7XDTSHKDD1XLTH5OM6HFLT035WGN","AT6OT5K5Z4V0J","3RSBJ6YZECCLSSQQCGKCTHC9OPAFOK","","img/set1/S3.jpg","72","3","structured_load","72","structured_load,structured_normal,structured_incentive,random","2,3,4,2,1,2","2,3,4,1","true","","",""
"null","","html-keyboard-response","371","602489","0.0-371.0","3H7XDTSHKDD1XLTH5OM6HFLT035WGN","AT6OT5K5Z4V0J","3RSBJ6YZECCLSSQQCGKCTHC9OPAFOK","","<img src=""img/set1/S3.jpg"" width=""540"" height = ""360"" style=""border:16px solid orange"">","null","","","","","","","","","",""
"null","","html-keyboard-response","372","602691","0.0-372.0","3H7XDTSHKDD1XLTH5OM6HFLT035WGN","AT6OT5K5Z4V0J","3RSBJ6YZECCLSSQQCGKCTHC9OPAFOK","","","null","","","","","","","","","",""
"570","","image-keyboard-response","373","603263","0.0-373.0","3H7XDTSHKDD1XLTH5OM6HFLT035WGN","AT6OT5K5Z4V0J","3RSBJ6YZECCLSSQQCGKCTHC9OPAFOK","","img/set1/S2.jpg","68","2","structured_load","68","structured_load,structured_normal,structured_incentive,random","2,3,4,2,1,2","2,3,4,1","true","","",""
"null","","html-keyboard-response","374","603615","0.0-374.0","3H7XDTSHKDD1XLTH5OM6HFLT035WGN","AT6OT5K5Z4V0J","3RSBJ6YZECCLSSQQCGKCTHC9OPAFOK","","<img src=""img/set1/S2.jpg"" width=""540"" height = ""360"" style=""border:16px solid orange"">","null","","","","","","","","","",""
"null","","html-keyboard-response","375","603817","0.0-375.0","3H7XDTSHKDD1XLTH5OM6HFLT035WGN","AT6OT5K5Z4V0J","3RSBJ6YZECCLSSQQCGKCTHC9OPAFOK","","","null","","","","","","","","","",""
"1098","","image-keyboard-response","376","604917","0.0-376.0","3H7XDTSHKDD1XLTH5OM6HFLT035WGN","AT6OT5K5Z4V0J","3RSBJ6YZECCLSSQQCGKCTHC9OPAFOK","","img/set1/S3.jpg","72","3","structured_load","72","structured_load,structured_normal,structured_incentive,random","2,3,4,2,1,2","2,3,4,1","true","","",""
"null","","html-keyboard-response","377","605269","0.0-377.0","3H7XDTSHKDD1XLTH5OM6HFLT035WGN","AT6OT5K5Z4V0J","3RSBJ6YZECCLSSQQCGKCTHC9OPAFOK","","<img src=""img/set1/S3.jpg"" width=""540"" height = ""360"" style=""border:16px solid orange"">","null","","","","","","","","","",""
"null","","html-keyboard-response","378","605471","0.0-378.0","3H7XDTSHKDD1XLTH5OM6HFLT035WGN","AT6OT5K5Z4V0J","3RSBJ6YZECCLSSQQCGKCTHC9OPAFOK","","","null","","","","","","","","","",""
"724","","image-keyboard-response","379","606197","0.0-379.0","3H7XDTSHKDD1XLTH5OM6HFLT035WGN","AT6OT5K5Z4V0J","3RSBJ6YZECCLSSQQCGKCTHC9OPAFOK","","img/set1/S4.jpg","74","4","structured_load","74","structured_load,structured_normal,structured_incentive,random","2,3,4,2,1,2","2,3,4,1","true","","",""
"null","","html-keyboard-response","380","606550","0.0-380.0","3H7XDTSHKDD1XLTH5OM6HFLT035WGN","AT6OT5K5Z4V0J","3RSBJ6YZECCLSSQQCGKCTHC9OPAFOK","","<img src=""img/set1/S4.jpg"" width=""540"" height = ""360"" style=""border:16px solid orange"">","null","","","","","","","","","",""
"null","","html-keyboard-response","381","606750","0.0-381.0","3H7XDTSHKDD1XLTH5OM6HFLT035WGN","AT6OT5K5Z4V0J","3RSBJ6YZECCLSSQQCGKCTHC9OPAFOK","","","null","","","","","","","","","",""
"985","","image-keyboard-response","382","607737","0.0-382.0","3H7XDTSHKDD1XLTH5OM6HFLT035WGN","AT6OT5K5Z4V0J","3RSBJ6YZECCLSSQQCGKCTHC9OPAFOK","","img/set1/S2.jpg","68","2","structured_load","68","structured_load,structured_normal,structured_incentive,random","2,3,4,2,1,2","2,3,4,1","true","","",""
"null","","html-keyboard-response","383","608089","0.0-383.0","3H7XDTSHKDD1XLTH5OM6HFLT035WGN","AT6OT5K5Z4V0J","3RSBJ6YZECCLSSQQCGKCTHC9OPAFOK","","<img src=""img/set1/S2.jpg"" width=""540"" height = ""360"" style=""border:16px solid orange"">","null","","","","","","","","","",""
"null","","html-keyboard-response","384","608290","0.0-384.0","3H7XDTSHKDD1XLTH5OM6HFLT035WGN","AT6OT5K5Z4V0J","3RSBJ6YZECCLSSQQCGKCTHC9OPAFOK","","","null","","","","","","","","","",""
"792","","image-keyboard-response","385","609083","0.0-385.0","3H7XDTSHKDD1XLTH5OM6HFLT035WGN","AT6OT5K5Z4V0J","3RSBJ6YZECCLSSQQCGKCTHC9OPAFOK","","img/set1/S3.jpg","72","3","structured_load","72","structured_load,structured_normal,structured_incentive,random","2,3,4,2,1,2","2,3,4,1","true","","",""
"null","","html-keyboard-response","386","609436","0.0-386.0","3H7XDTSHKDD1XLTH5OM6HFLT035WGN","AT6OT5K5Z4V0J","3RSBJ6YZECCLSSQQCGKCTHC9OPAFOK","","<img src=""img/set1/S3.jpg"" width=""540"" height = ""360"" style=""border:16px solid orange"">","null","","","","","","","","","",""
"null","","html-keyboard-response","387","609636","0.0-387.0","3H7XDTSHKDD1XLTH5OM6HFLT035WGN","AT6OT5K5Z4V0J","3RSBJ6YZECCLSSQQCGKCTHC9OPAFOK","","","null","","","","","","","","","",""
"641","","image-keyboard-response","388","610279","0.0-388.0","3H7XDTSHKDD1XLTH5OM6HFLT035WGN","AT6OT5K5Z4V0J","3RSBJ6YZECCLSSQQCGKCTHC9OPAFOK","","img/set1/S4.jpg","74","4","structured_load","74","structured_load,structured_normal,structured_incentive,random","2,3,4,2,1,2","2,3,4,1","true","","",""
"null","","html-keyboard-response","389","610631","0.0-389.0","3H7XDTSHKDD1XLTH5OM6HFLT035WGN","AT6OT5K5Z4V0J","3RSBJ6YZECCLSSQQCGKCTHC9OPAFOK","","<img src=""img/set1/S4.jpg"" width=""540"" height = ""360"" style=""border:16px solid orange"">","null","","","","","","","","","",""
"null","","html-keyboard-response","390","610832","0.0-390.0","3H7XDTSHKDD1XLTH5OM6HFLT035WGN","AT6OT5K5Z4V0J","3RSBJ6YZECCLSSQQCGKCTHC9OPAFOK","","","null","","","","","","","","","",""
