"rt","url","trial_type","trial_index","time_elapsed","internal_node_id","view_history","stimulus","key_press","state","test_part","correct_response","order_block","order_chunk","correct","responses","bonus"
"6187.400000035763","consent.html","external-html","0","6254","0.0-0.0","","","","","","","","","","",""
"53998.09999996424","","instructions","1","60253","0.0-1.0","[{""page_index"":0,""viewing_time"":5309.5},{""page_index"":1,""viewing_time"":13040},{""page_index"":2,""viewing_time"":5655.800000011921},{""page_index"":3,""viewing_time"":7408.199999988079},{""page_index"":4,""viewing_time"":6464.099999964237},{""page_index"":5,""viewing_time"":8903.900000035763},{""page_index"":6,""viewing_time"":7215.800000011921}]","","","","","","","","","",""
"7110.800000011921","","instructions","2","67364","0.0-2.0","[{""page_index"":0,""viewing_time"":7110.5}]","","","","","","","","","",""
"2527.899999976158","","instructions","3","69892","0.0-3.0","[{""page_index"":0,""viewing_time"":2527.5}]","","","","","","","","","",""
"1806.300000011921","","image-keyboard-response","4","71700","0.0-4.0","","img/set1/S4.jpg","74","4","random","74","random,structured_load,structured_incentive,structured_normal","2,1,3,4,2,3","true","",""
"null","","html-keyboard-response","5","72066","0.0-5.0","","<img src=""img/set1/S4.jpg"" width=""540"" height = ""360"" style=""border:16px solid orange"">","null","","","","","","","",""
"null","","html-keyboard-response","6","72268","0.0-6.0","","","null","","","","","","","",""
"870.7999999523163","","image-keyboard-response","7","73140","0.0-7.0","","img/set1/S2.jpg","83","2","random","68","random,structured_load,structured_incentive,structured_normal","2,1,3,4,2,3","false","",""
"null","","html-keyboard-response","8","73497","0.0-8.0","","<img src=""img/set1/S2.jpg"" width=""540"" height = ""360"">","null","","","","","","","",""
"null","","html-keyboard-response","9","73700","0.0-9.0","","","null","","","","","","","",""
"647.1999999880791","","image-keyboard-response","10","74348","0.0-10.0","","img/set1/S2.jpg","68","2","random","68","random,structured_load,structured_incentive,structured_normal","2,1,3,4,2,3","true","",""
"null","","html-keyboard-response","11","74709","0.0-11.0","","<img src=""img/set1/S2.jpg"" width=""540"" height = ""360"" style=""border:16px solid orange"">","null","","","","","","","",""
"null","","html-keyboard-response","12","74925","0.0-12.0","","","null","","","","","","","",""
"1078.1000000238419","","image-keyboard-response","13","76004","0.0-13.0","","img/set1/S3.jpg","72","3","random","72","random,structured_load,structured_incentive,structured_normal","2,1,3,4,2,3","true","",""
"null","","html-keyboard-response","14","76369","0.0-14.0","","<img src=""img/set1/S3.jpg"" width=""540"" height = ""360"" style=""border:16px solid orange"">","null","","","","","","","",""
"null","","html-keyboard-response","15","76570","0.0-15.0","","","null","","","","","","","",""
"1041","","image-keyboard-response","16","77612","0.0-16.0","","img/set1/S1.jpg","83","1","random","83","random,structured_load,structured_incentive,structured_normal","2,1,3,4,2,3","true","",""
"null","","html-keyboard-response","17","77968","0.0-17.0","","<img src=""img/set1/S1.jpg"" width=""540"" height = ""360"" style=""border:16px solid orange"">","null","","","","","","","",""
"null","","html-keyboard-response","18","78171","0.0-18.0","","","null","","","","","","","",""
"1183.5","","image-keyboard-response","19","79356","0.0-19.0","","img/set1/S3.jpg","72","3","random","72","random,structured_load,structured_incentive,structured_normal","2,1,3,4,2,3","true","",""
"null","","html-keyboard-response","20","79717","0.0-20.0","","<img src=""img/set1/S3.jpg"" width=""540"" height = ""360"" style=""border:16px solid orange"">","null","","","","","","","",""
"null","","html-keyboard-response","21","79919","0.0-21.0","","","null","","","","","","","",""
"1412","","image-keyboard-response","22","81332","0.0-22.0","","img/set1/S1.jpg","83","1","random","83","random,structured_load,structured_incentive,structured_normal","2,1,3,4,2,3","true","",""
"null","","html-keyboard-response","23","81685","0.0-23.0","","<img src=""img/set1/S1.jpg"" width=""540"" height = ""360"" style=""border:16px solid orange"">","null","","","","","","","",""
"null","","html-keyboard-response","24","81889","0.0-24.0","","","null","","","","","","","",""
"1185.5","","image-keyboard-response","25","83076","0.0-25.0","","img/set1/S2.jpg","68","2","random","68","random,structured_load,structured_incentive,structured_normal","2,1,3,4,2,3","true","",""
"null","","html-keyboard-response","26","83443","0.0-26.0","","<img src=""img/set1/S2.jpg"" width=""540"" height = ""360"" style=""border:16px solid orange"">","null","","","","","","","",""
"null","","html-keyboard-response","27","83657","0.0-27.0","","","null","","","","","","","",""
"1017.8000000119209","","image-keyboard-response","28","84675","0.0-28.0","","img/set1/S3.jpg","74","3","random","72","random,structured_load,structured_incentive,structured_normal","2,1,3,4,2,3","false","",""
"null","","html-keyboard-response","29","85031","0.0-29.0","","<img src=""img/set1/S3.jpg"" width=""540"" height = ""360"">","null","","","","","","","",""
"null","","html-keyboard-response","30","85234","0.0-30.0","","","null","","","","","","","",""
"817.3000000119209","","image-keyboard-response","31","86052","0.0-31.0","","img/set1/S2.jpg","68","2","random","68","random,structured_load,structured_incentive,structured_normal","2,1,3,4,2,3","true","",""
"null","","html-keyboard-response","32","86416","0.0-32.0","","<img src=""img/set1/S2.jpg"" width=""540"" height = ""360"" style=""border:16px solid orange"">","null","","","","","","","",""
"null","","html-keyboard-response","33","86621","0.0-33.0","","","null","","","","","","","",""
"917.8999999761581","","image-keyboard-response","34","87540","0.0-34.0","","img/set1/S3.jpg","74","3","random","72","random,structured_load,structured_incentive,structured_normal","2,1,3,4,2,3","false","",""
"null","","html-keyboard-response","35","87892","0.0-35.0","","<img src=""img/set1/S3.jpg"" width=""540"" height = ""360"">","null","","","","","","","",""
"null","","html-keyboard-response","36","88098","0.0-36.0","","","null","","","","","","","",""
"841.1999999880791","","image-keyboard-response","37","88940","0.0-37.0","","img/set1/S4.jpg","83","4","random","74","random,structured_load,structured_incentive,structured_normal","2,1,3,4,2,3","false","",""
"null","","html-keyboard-response","38","89292","0.0-38.0","","<img src=""img/set1/S4.jpg"" width=""540"" height = ""360"">","null","","","","","","","",""
"null","","html-keyboard-response","39","89507","0.0-39.0","","","null","","","","","","","",""
"495.7000000476837","","image-keyboard-response","40","90004","0.0-40.0","","img/set1/S1.jpg","68","1","random","83","random,structured_load,structured_incentive,structured_normal","2,1,3,4,2,3","false","",""
"null","","html-keyboard-response","41","90358","0.0-41.0","","<img src=""img/set1/S1.jpg"" width=""540"" height = ""360"">","null","","","","","","","",""
"null","","html-keyboard-response","42","90559","0.0-42.0","","","null","","","","","","","",""
"131.30000001192093","","image-keyboard-response","43","90692","0.0-43.0","","img/set1/S2.jpg","72","2","random","68","random,structured_load,structured_incentive,structured_normal","2,1,3,4,2,3","false","",""
"null","","html-keyboard-response","44","91058","0.0-44.0","","<img src=""img/set1/S2.jpg"" width=""540"" height = ""360"">","null","","","","","","","",""
"null","","html-keyboard-response","45","91262","0.0-45.0","","","null","","","","","","","",""
"364.60000002384186","","image-keyboard-response","46","91628","0.0-46.0","","img/set1/S2.jpg","72","2","random","68","random,structured_load,structured_incentive,structured_normal","2,1,3,4,2,3","false","",""
"null","","html-keyboard-response","47","91989","0.0-47.0","","<img src=""img/set1/S2.jpg"" width=""540"" height = ""360"">","null","","","","","","","",""
"null","","html-keyboard-response","48","92204","0.0-48.0","","","null","","","","","","","",""
"278.69999998807907","","image-keyboard-response","49","92483","0.0-49.0","","img/set1/S2.jpg","68","2","random","68","random,structured_load,structured_incentive,structured_normal","2,1,3,4,2,3","true","",""
"null","","html-keyboard-response","50","92843","0.0-50.0","","<img src=""img/set1/S2.jpg"" width=""540"" height = ""360"" style=""border:16px solid orange"">","null","","","","","","","",""
"null","","html-keyboard-response","51","93060","0.0-51.0","","","null","","","","","","","",""
"519.3999999761581","","image-keyboard-response","52","93580","0.0-52.0","","img/set1/S1.jpg","68","1","random","83","random,structured_load,structured_incentive,structured_normal","2,1,3,4,2,3","false","",""
"null","","html-keyboard-response","53","93932","0.0-53.0","","<img src=""img/set1/S1.jpg"" width=""540"" height = ""360"">","null","","","","","","","",""
"null","","html-keyboard-response","54","94134","0.0-54.0","","","null","","","","","","","",""
"573.0999999642372","","image-keyboard-response","55","94708","0.0-55.0","","img/set1/S2.jpg","72","2","random","68","random,structured_load,structured_incentive,structured_normal","2,1,3,4,2,3","false","",""
"null","","html-keyboard-response","56","95062","0.0-56.0","","<img src=""img/set1/S2.jpg"" width=""540"" height = ""360"">","null","","","","","","","",""
"null","","html-keyboard-response","57","95267","0.0-57.0","","","null","","","","","","","",""
"655.2999999523163","","image-keyboard-response","58","95924","0.0-58.0","","img/set1/S4.jpg","83","4","random","74","random,structured_load,structured_incentive,structured_normal","2,1,3,4,2,3","false","",""
"null","","html-keyboard-response","59","96278","0.0-59.0","","<img src=""img/set1/S4.jpg"" width=""540"" height = ""360"">","null","","","","","","","",""
"null","","html-keyboard-response","60","96483","0.0-60.0","","","null","","","","","","","",""
"600.6999999880791","","image-keyboard-response","61","97084","0.0-61.0","","img/set1/S1.jpg","72","1","random","83","random,structured_load,structured_incentive,structured_normal","2,1,3,4,2,3","false","",""
"null","","html-keyboard-response","62","97445","0.0-62.0","","<img src=""img/set1/S1.jpg"" width=""540"" height = ""360"">","null","","","","","","","",""
"null","","html-keyboard-response","63","97648","0.0-63.0","","","null","","","","","","","",""
"546.4000000357628","","image-keyboard-response","64","98196","0.0-64.0","","img/set1/S1.jpg","74","1","random","83","random,structured_load,structured_incentive,structured_normal","2,1,3,4,2,3","false","",""
"null","","html-keyboard-response","65","98549","0.0-65.0","","<img src=""img/set1/S1.jpg"" width=""540"" height = ""360"">","null","","","","","","","",""
"null","","html-keyboard-response","66","98752","0.0-66.0","","","null","","","","","","","",""
"563.5","","image-keyboard-response","67","99316","0.0-67.0","","img/set1/S1.jpg","72","1","random","83","random,structured_load,structured_incentive,structured_normal","2,1,3,4,2,3","false","",""
"null","","html-keyboard-response","68","99682","0.0-68.0","","<img src=""img/set1/S1.jpg"" width=""540"" height = ""360"">","null","","","","","","","",""
"null","","html-keyboard-response","69","99883","0.0-69.0","","","null","","","","","","","",""
"766.0999999642372","","image-keyboard-response","70","100652","0.0-70.0","","img/set1/S3.jpg","74","3","random","72","random,structured_load,structured_incentive,structured_normal","2,1,3,4,2,3","false","",""
"null","","html-keyboard-response","71","101008","0.0-71.0","","<img src=""img/set1/S3.jpg"" width=""540"" height = ""360"">","null","","","","","","","",""
"null","","html-keyboard-response","72","101212","0.0-72.0","","","null","","","","","","","",""
"423","","image-keyboard-response","73","101635","0.0-73.0","","img/set1/S2.jpg","83","2","random","68","random,structured_load,structured_incentive,structured_normal","2,1,3,4,2,3","false","",""
"null","","html-keyboard-response","74","101992","0.0-74.0","","<img src=""img/set1/S2.jpg"" width=""540"" height = ""360"">","null","","","","","","","",""
"null","","html-keyboard-response","75","102198","0.0-75.0","","","null","","","","","","","",""
"388.5999999642372","","image-keyboard-response","76","102588","0.0-76.0","","img/set1/S2.jpg","68","2","random","68","random,structured_load,structured_incentive,structured_normal","2,1,3,4,2,3","true","",""
"null","","html-keyboard-response","77","102954","0.0-77.0","","<img src=""img/set1/S2.jpg"" width=""540"" height = ""360"" style=""border:16px solid orange"">","null","","","","","","","",""
"null","","html-keyboard-response","78","103157","0.0-78.0","","","null","","","","","","","",""
"782.1000000238419","","image-keyboard-response","79","103940","0.0-79.0","","img/set1/S2.jpg","68","2","random","68","random,structured_load,structured_incentive,structured_normal","2,1,3,4,2,3","true","",""
"null","","html-keyboard-response","80","104294","0.0-80.0","","<img src=""img/set1/S2.jpg"" width=""540"" height = ""360"" style=""border:16px solid orange"">","null","","","","","","","",""
"null","","html-keyboard-response","81","104498","0.0-81.0","","","null","","","","","","","",""
"600.3000000119209","","image-keyboard-response","82","105099","0.0-82.0","","img/set1/S2.jpg","68","2","random","68","random,structured_load,structured_incentive,structured_normal","2,1,3,4,2,3","true","",""
"null","","html-keyboard-response","83","105456","0.0-83.0","","<img src=""img/set1/S2.jpg"" width=""540"" height = ""360"" style=""border:16px solid orange"">","null","","","","","","","",""
"null","","html-keyboard-response","84","105662","0.0-84.0","","","null","","","","","","","",""
"557","","image-keyboard-response","85","106220","0.0-85.0","","img/set1/S2.jpg","68","2","random","68","random,structured_load,structured_incentive,structured_normal","2,1,3,4,2,3","true","",""
"null","","html-keyboard-response","86","106579","0.0-86.0","","<img src=""img/set1/S2.jpg"" width=""540"" height = ""360"" style=""border:16px solid orange"">","null","","","","","","","",""
"null","","html-keyboard-response","87","106787","0.0-87.0","","","null","","","","","","","",""
"1056.6000000238419","","image-keyboard-response","88","107844","0.0-88.0","","img/set1/S3.jpg","72","3","random","72","random,structured_load,structured_incentive,structured_normal","2,1,3,4,2,3","true","",""
"null","","html-keyboard-response","89","108209","0.0-89.0","","<img src=""img/set1/S3.jpg"" width=""540"" height = ""360"" style=""border:16px solid orange"">","null","","","","","","","",""
"null","","html-keyboard-response","90","108414","0.0-90.0","","","null","","","","","","","",""
"732.3999999761581","","image-keyboard-response","91","109148","0.0-91.0","","img/set1/S3.jpg","72","3","random","72","random,structured_load,structured_incentive,structured_normal","2,1,3,4,2,3","true","",""
"null","","html-keyboard-response","92","109502","0.0-92.0","","<img src=""img/set1/S3.jpg"" width=""540"" height = ""360"" style=""border:16px solid orange"">","null","","","","","","","",""
"null","","html-keyboard-response","93","109706","0.0-93.0","","","null","","","","","","","",""
"606.5999999642372","","image-keyboard-response","94","110314","0.0-94.0","","img/set1/S3.jpg","72","3","random","72","random,structured_load,structured_incentive,structured_normal","2,1,3,4,2,3","true","",""
"null","","html-keyboard-response","95","110676","0.0-95.0","","<img src=""img/set1/S3.jpg"" width=""540"" height = ""360"" style=""border:16px solid orange"">","null","","","","","","","",""
"null","","html-keyboard-response","96","110890","0.0-96.0","","","null","","","","","","","",""
"809.1000000238419","","image-keyboard-response","97","111700","0.0-97.0","","img/set1/S1.jpg","72","1","random","83","random,structured_load,structured_incentive,structured_normal","2,1,3,4,2,3","false","",""
"null","","html-keyboard-response","98","112059","0.0-98.0","","<img src=""img/set1/S1.jpg"" width=""540"" height = ""360"">","null","","","","","","","",""
"null","","html-keyboard-response","99","112262","0.0-99.0","","","null","","","","","","","",""
"660.6000000238419","","image-keyboard-response","100","112923","0.0-100.0","","img/set1/S3.jpg","72","3","random","72","random,structured_load,structured_incentive,structured_normal","2,1,3,4,2,3","true","",""
"null","","html-keyboard-response","101","113279","0.0-101.0","","<img src=""img/set1/S3.jpg"" width=""540"" height = ""360"" style=""border:16px solid orange"">","null","","","","","","","",""
"null","","html-keyboard-response","102","113481","0.0-102.0","","","null","","","","","","","",""
"874","","image-keyboard-response","103","114356","0.0-103.0","","img/set1/S1.jpg","83","1","random","83","random,structured_load,structured_incentive,structured_normal","2,1,3,4,2,3","true","",""
"null","","html-keyboard-response","104","114708","0.0-104.0","","<img src=""img/set1/S1.jpg"" width=""540"" height = ""360"" style=""border:16px solid orange"">","null","","","","","","","",""
"null","","html-keyboard-response","105","114910","0.0-105.0","","","null","","","","","","","",""
"740.7999999523163","","image-keyboard-response","106","115652","0.0-106.0","","img/set1/S2.jpg","68","2","random","68","random,structured_load,structured_incentive,structured_normal","2,1,3,4,2,3","true","",""
"null","","html-keyboard-response","107","116014","0.0-107.0","","<img src=""img/set1/S2.jpg"" width=""540"" height = ""360"" style=""border:16px solid orange"">","null","","","","","","","",""
"null","","html-keyboard-response","108","116217","0.0-108.0","","","null","","","","","","","",""
"642","","image-keyboard-response","109","116860","0.0-109.0","","img/set1/S3.jpg","72","3","random","72","random,structured_load,structured_incentive,structured_normal","2,1,3,4,2,3","true","",""
"null","","html-keyboard-response","110","117226","0.0-110.0","","<img src=""img/set1/S3.jpg"" width=""540"" height = ""360"" style=""border:16px solid orange"">","null","","","","","","","",""
"null","","html-keyboard-response","111","117428","0.0-111.0","","","null","","","","","","","",""
"679","","image-keyboard-response","112","118108","0.0-112.0","","img/set1/S1.jpg","83","1","random","83","random,structured_load,structured_incentive,structured_normal","2,1,3,4,2,3","true","",""
"null","","html-keyboard-response","113","118468","0.0-113.0","","<img src=""img/set1/S1.jpg"" width=""540"" height = ""360"" style=""border:16px solid orange"">","null","","","","","","","",""
"null","","html-keyboard-response","114","118684","0.0-114.0","","","null","","","","","","","",""
"966.3999999761581","","image-keyboard-response","115","119651","0.0-115.0","","img/set1/S4.jpg","74","4","random","74","random,structured_load,structured_incentive,structured_normal","2,1,3,4,2,3","true","",""
"null","","html-keyboard-response","116","120009","0.0-116.0","","<img src=""img/set1/S4.jpg"" width=""540"" height = ""360"" style=""border:16px solid orange"">","null","","","","","","","",""
"null","","html-keyboard-response","117","120213","0.0-117.0","","","null","","","","","","","",""
"742.5","","image-keyboard-response","118","120956","0.0-118.0","","img/set1/S2.jpg","68","2","random","68","random,structured_load,structured_incentive,structured_normal","2,1,3,4,2,3","true","",""
"null","","html-keyboard-response","119","121318","0.0-119.0","","<img src=""img/set1/S2.jpg"" width=""540"" height = ""360"" style=""border:16px solid orange"">","null","","","","","","","",""
"null","","html-keyboard-response","120","121520","0.0-120.0","","","null","","","","","","","",""
"507.0999999642372","","image-keyboard-response","121","122029","0.0-121.0","","img/set1/S2.jpg","68","2","random","68","random,structured_load,structured_incentive,structured_normal","2,1,3,4,2,3","true","",""
"null","","html-keyboard-response","122","122389","0.0-122.0","","<img src=""img/set1/S2.jpg"" width=""540"" height = ""360"" style=""border:16px solid orange"">","null","","","","","","","",""
"null","","html-keyboard-response","123","122606","0.0-123.0","","","null","","","","","","","",""
"764.6999999880791","","image-keyboard-response","124","123372","0.0-124.0","","img/set1/S4.jpg","83","4","random","74","random,structured_load,structured_incentive,structured_normal","2,1,3,4,2,3","false","",""
"null","","html-keyboard-response","125","123725","0.0-125.0","","<img src=""img/set1/S4.jpg"" width=""540"" height = ""360"">","null","","","","","","","",""
"null","","html-keyboard-response","126","123927","0.0-126.0","","","null","","","","","","","",""
"435.80000001192093","","image-keyboard-response","127","124364","0.0-127.0","","img/set1/S4.jpg","74","4","random","74","random,structured_load,structured_incentive,structured_normal","2,1,3,4,2,3","true","",""
"null","","html-keyboard-response","128","124723","0.0-128.0","","<img src=""img/set1/S4.jpg"" width=""540"" height = ""360"" style=""border:16px solid orange"">","null","","","","","","","",""
"null","","html-keyboard-response","129","124925","0.0-129.0","","","null","","","","","","","",""
"870","","image-keyboard-response","130","125796","0.0-130.0","","img/set1/S2.jpg","68","2","random","68","random,structured_load,structured_incentive,structured_normal","2,1,3,4,2,3","true","",""
"null","","html-keyboard-response","131","126152","0.0-131.0","","<img src=""img/set1/S2.jpg"" width=""540"" height = ""360"" style=""border:16px solid orange"">","null","","","","","","","",""
"null","","html-keyboard-response","132","126358","0.0-132.0","","","null","","","","","","","",""
"781.7000000476837","","image-keyboard-response","133","127140","0.0-133.0","","img/set1/S3.jpg","72","3","random","72","random,structured_load,structured_incentive,structured_normal","2,1,3,4,2,3","true","",""
"null","","html-keyboard-response","134","127493","0.0-134.0","","<img src=""img/set1/S3.jpg"" width=""540"" height = ""360"" style=""border:16px solid orange"">","null","","","","","","","",""
"null","","html-keyboard-response","135","127695","0.0-135.0","","","null","","","","","","","",""
"980.6000000238419","","image-keyboard-response","136","128677","0.0-136.0","","img/set1/S4.jpg","74","4","random","74","random,structured_load,structured_incentive,structured_normal","2,1,3,4,2,3","true","",""
"null","","html-keyboard-response","137","129043","0.0-137.0","","<img src=""img/set1/S4.jpg"" width=""540"" height = ""360"" style=""border:16px solid orange"">","null","","","","","","","",""
"null","","html-keyboard-response","138","129259","0.0-138.0","","","null","","","","","","","",""
"856","","image-keyboard-response","139","130116","0.0-139.0","","img/set1/S2.jpg","68","2","random","68","random,structured_load,structured_incentive,structured_normal","2,1,3,4,2,3","true","",""
"null","","html-keyboard-response","140","130470","0.0-140.0","","<img src=""img/set1/S2.jpg"" width=""540"" height = ""360"" style=""border:16px solid orange"">","null","","","","","","","",""
"null","","html-keyboard-response","141","130674","0.0-141.0","","","null","","","","","","","",""
"793.3000000119209","","image-keyboard-response","142","131469","0.0-142.0","","img/set1/S1.jpg","83","1","random","83","random,structured_load,structured_incentive,structured_normal","2,1,3,4,2,3","true","",""
"null","","html-keyboard-response","143","131822","0.0-143.0","","<img src=""img/set1/S1.jpg"" width=""540"" height = ""360"" style=""border:16px solid orange"">","null","","","","","","","",""
"null","","html-keyboard-response","144","132026","0.0-144.0","","","null","","","","","","","",""
"849.6999999880791","","image-keyboard-response","145","132876","0.0-145.0","","img/set1/S1.jpg","83","1","random","83","random,structured_load,structured_incentive,structured_normal","2,1,3,4,2,3","true","",""
"null","","html-keyboard-response","146","133237","0.0-146.0","","<img src=""img/set1/S1.jpg"" width=""540"" height = ""360"" style=""border:16px solid orange"">","null","","","","","","","",""
"null","","html-keyboard-response","147","133440","0.0-147.0","","","null","","","","","","","",""
"723.6999999880791","","image-keyboard-response","148","134164","0.0-148.0","","img/set1/S4.jpg","74","4","random","74","random,structured_load,structured_incentive,structured_normal","2,1,3,4,2,3","true","",""
"null","","html-keyboard-response","149","134515","0.0-149.0","","<img src=""img/set1/S4.jpg"" width=""540"" height = ""360"" style=""border:16px solid orange"">","null","","","","","","","",""
"null","","html-keyboard-response","150","134719","0.0-150.0","","","null","","","","","","","",""
"700.1999999880791","","image-keyboard-response","151","135420","0.0-151.0","","img/set1/S3.jpg","72","3","random","72","random,structured_load,structured_incentive,structured_normal","2,1,3,4,2,3","true","",""
"null","","html-keyboard-response","152","135783","0.0-152.0","","<img src=""img/set1/S3.jpg"" width=""540"" height = ""360"" style=""border:16px solid orange"">","null","","","","","","","",""
"null","","html-keyboard-response","153","135989","0.0-153.0","","","null","","","","","","","",""
"527.3000000119209","","image-keyboard-response","154","136517","0.0-154.0","","img/set1/S3.jpg","72","3","random","72","random,structured_load,structured_incentive,structured_normal","2,1,3,4,2,3","true","",""
"null","","html-keyboard-response","155","136877","0.0-155.0","","<img src=""img/set1/S3.jpg"" width=""540"" height = ""360"" style=""border:16px solid orange"">","null","","","","","","","",""
"null","","html-keyboard-response","156","137085","0.0-156.0","","","null","","","","","","","",""
"814.4000000357628","","image-keyboard-response","157","137900","0.0-157.0","","img/set1/S2.jpg","68","2","random","68","random,structured_load,structured_incentive,structured_normal","2,1,3,4,2,3","true","",""
"null","","html-keyboard-response","158","138262","0.0-158.0","","<img src=""img/set1/S2.jpg"" width=""540"" height = ""360"" style=""border:16px solid orange"">","null","","","","","","","",""
"null","","html-keyboard-response","159","138470","0.0-159.0","","","null","","","","","","","",""
"501.19999998807907","","image-keyboard-response","160","138972","0.0-160.0","","img/set1/S3.jpg","72","3","random","72","random,structured_load,structured_incentive,structured_normal","2,1,3,4,2,3","true","",""
"null","","html-keyboard-response","161","139327","0.0-161.0","","<img src=""img/set1/S3.jpg"" width=""540"" height = ""360"" style=""border:16px solid orange"">","null","","","","","","","",""
"null","","html-keyboard-response","162","139535","0.0-162.0","","","null","","","","","","","",""
"492.5","","image-keyboard-response","163","140029","0.0-163.0","","img/set1/S2.jpg","68","2","random","68","random,structured_load,structured_incentive,structured_normal","2,1,3,4,2,3","true","",""
"null","","html-keyboard-response","164","140395","0.0-164.0","","<img src=""img/set1/S2.jpg"" width=""540"" height = ""360"" style=""border:16px solid orange"">","null","","","","","","","",""
"null","","html-keyboard-response","165","140601","0.0-165.0","","","null","","","","","","","",""
"521.8999999761581","","image-keyboard-response","166","141124","0.0-166.0","","img/set1/S3.jpg","72","3","random","72","random,structured_load,structured_incentive,structured_normal","2,1,3,4,2,3","true","",""
"null","","html-keyboard-response","167","141488","0.0-167.0","","<img src=""img/set1/S3.jpg"" width=""540"" height = ""360"" style=""border:16px solid orange"">","null","","","","","","","",""
"null","","html-keyboard-response","168","141696","0.0-168.0","","","null","","","","","","","",""
"707.5","","image-keyboard-response","169","142404","0.0-169.0","","img/set1/S4.jpg","74","4","random","74","random,structured_load,structured_incentive,structured_normal","2,1,3,4,2,3","true","",""
"null","","html-keyboard-response","170","142763","0.0-170.0","","<img src=""img/set1/S4.jpg"" width=""540"" height = ""360"" style=""border:16px solid orange"">","null","","","","","","","",""
"null","","html-keyboard-response","171","142971","0.0-171.0","","","null","","","","","","","",""
"863.9000000357628","","image-keyboard-response","172","143836","0.0-172.0","","img/set1/S1.jpg","68","1","random","83","random,structured_load,structured_incentive,structured_normal","2,1,3,4,2,3","false","",""
"null","","html-keyboard-response","173","144200","0.0-173.0","","<img src=""img/set1/S1.jpg"" width=""540"" height = ""360"">","null","","","","","","","",""
"null","","html-keyboard-response","174","144404","0.0-174.0","","","null","","","","","","","",""
"687.8999999761581","","image-keyboard-response","175","145092","0.0-175.0","","img/set1/S3.jpg","72","3","random","72","random,structured_load,structured_incentive,structured_normal","2,1,3,4,2,3","true","",""
"null","","html-keyboard-response","176","145446","0.0-176.0","","<img src=""img/set1/S3.jpg"" width=""540"" height = ""360"" style=""border:16px solid orange"">","null","","","","","","","",""
"null","","html-keyboard-response","177","145652","0.0-177.0","","","null","","","","","","","",""
"575.1999999880791","","image-keyboard-response","178","146228","0.0-178.0","","img/set1/S4.jpg","74","4","random","74","random,structured_load,structured_incentive,structured_normal","2,1,3,4,2,3","true","",""
"null","","html-keyboard-response","179","146592","0.0-179.0","","<img src=""img/set1/S4.jpg"" width=""540"" height = ""360"" style=""border:16px solid orange"">","null","","","","","","","",""
"null","","html-keyboard-response","180","146798","0.0-180.0","","","null","","","","","","","",""
"621.7999999523163","","image-keyboard-response","181","147420","0.0-181.0","","img/set1/S4.jpg","74","4","random","74","random,structured_load,structured_incentive,structured_normal","2,1,3,4,2,3","true","",""
"null","","html-keyboard-response","182","147778","0.0-182.0","","<img src=""img/set1/S4.jpg"" width=""540"" height = ""360"" style=""border:16px solid orange"">","null","","","","","","","",""
"null","","html-keyboard-response","183","147980","0.0-183.0","","","null","","","","","","","",""
"951.8000000119209","","image-keyboard-response","184","148933","0.0-184.0","","img/set1/S2.jpg","68","2","random","68","random,structured_load,structured_incentive,structured_normal","2,1,3,4,2,3","true","",""
"null","","html-keyboard-response","185","149291","0.0-185.0","","<img src=""img/set1/S2.jpg"" width=""540"" height = ""360"" style=""border:16px solid orange"">","null","","","","","","","",""
"null","","html-keyboard-response","186","149494","0.0-186.0","","","null","","","","","","","",""
"876.9000000357628","","image-keyboard-response","187","150372","0.0-187.0","","img/set1/S4.jpg","74","4","random","74","random,structured_load,structured_incentive,structured_normal","2,1,3,4,2,3","true","",""
"null","","html-keyboard-response","188","150730","0.0-188.0","","<img src=""img/set1/S4.jpg"" width=""540"" height = ""360"" style=""border:16px solid orange"">","null","","","","","","","",""
"null","","html-keyboard-response","189","150938","0.0-189.0","","","null","","","","","","","",""
"728.8999999761581","","image-keyboard-response","190","151668","0.0-190.0","","img/set1/S1.jpg","83","1","random","83","random,structured_load,structured_incentive,structured_normal","2,1,3,4,2,3","true","",""
"null","","html-keyboard-response","191","152031","0.0-191.0","","<img src=""img/set1/S1.jpg"" width=""540"" height = ""360"" style=""border:16px solid orange"">","null","","","","","","","",""
"null","","html-keyboard-response","192","152233","0.0-192.0","","","null","","","","","","","",""
"682.4000000357628","","image-keyboard-response","193","152916","0.0-193.0","","img/set1/S2.jpg","68","2","random","68","random,structured_load,structured_incentive,structured_normal","2,1,3,4,2,3","true","",""
"null","","html-keyboard-response","194","153281","0.0-194.0","","<img src=""img/set1/S2.jpg"" width=""540"" height = ""360"" style=""border:16px solid orange"">","null","","","","","","","",""
"null","","html-keyboard-response","195","153487","0.0-195.0","","","null","","","","","","","",""
"380.89999997615814","","image-keyboard-response","196","153869","0.0-196.0","","img/set1/S3.jpg","72","3","random","72","random,structured_load,structured_incentive,structured_normal","2,1,3,4,2,3","true","",""
"null","","html-keyboard-response","197","154233","0.0-197.0","","<img src=""img/set1/S3.jpg"" width=""540"" height = ""360"" style=""border:16px solid orange"">","null","","","","","","","",""
"null","","html-keyboard-response","198","154440","0.0-198.0","","","null","","","","","","","",""
"803.6000000238419","","image-keyboard-response","199","155244","0.0-199.0","","img/set1/S4.jpg","74","4","random","74","random,structured_load,structured_incentive,structured_normal","2,1,3,4,2,3","true","",""
"null","","html-keyboard-response","200","155596","0.0-200.0","","<img src=""img/set1/S4.jpg"" width=""540"" height = ""360"" style=""border:16px solid orange"">","null","","","","","","","",""
"null","","html-keyboard-response","201","155803","0.0-201.0","","","null","","","","","","","",""
"472.5999999642372","","image-keyboard-response","202","156276","0.0-202.0","","img/set1/S4.jpg","74","4","random","74","random,structured_load,structured_incentive,structured_normal","2,1,3,4,2,3","true","",""
"null","","html-keyboard-response","203","156643","0.0-203.0","","<img src=""img/set1/S4.jpg"" width=""540"" height = ""360"" style=""border:16px solid orange"">","null","","","","","","","",""
"null","","html-keyboard-response","204","156847","0.0-204.0","","","null","","","","","","","",""
"685","","image-keyboard-response","205","157532","0.0-205.0","","img/set1/S3.jpg","72","3","random","72","random,structured_load,structured_incentive,structured_normal","2,1,3,4,2,3","true","",""
"null","","html-keyboard-response","206","157891","0.0-206.0","","<img src=""img/set1/S3.jpg"" width=""540"" height = ""360"" style=""border:16px solid orange"">","null","","","","","","","",""
"null","","html-keyboard-response","207","158096","0.0-207.0","","","null","","","","","","","",""
"466.80000001192093","","image-keyboard-response","208","158564","0.0-208.0","","img/set1/S4.jpg","72","4","random","74","random,structured_load,structured_incentive,structured_normal","2,1,3,4,2,3","false","",""
"null","","html-keyboard-response","209","158918","0.0-209.0","","<img src=""img/set1/S4.jpg"" width=""540"" height = ""360"">","null","","","","","","","",""
"null","","html-keyboard-response","210","159124","0.0-210.0","","","null","","","","","","","",""
"831.3000000119209","","image-keyboard-response","211","159957","0.0-211.0","","img/set1/S1.jpg","83","1","random","83","random,structured_load,structured_incentive,structured_normal","2,1,3,4,2,3","true","",""
"null","","html-keyboard-response","212","160317","0.0-212.0","","<img src=""img/set1/S1.jpg"" width=""540"" height = ""360"" style=""border:16px solid orange"">","null","","","","","","","",""
"null","","html-keyboard-response","213","160523","0.0-213.0","","","null","","","","","","","",""
"784.6999999880791","","image-keyboard-response","214","161308","0.0-214.0","","img/set1/S4.jpg","74","4","random","74","random,structured_load,structured_incentive,structured_normal","2,1,3,4,2,3","true","",""
"null","","html-keyboard-response","215","161674","0.0-215.0","","<img src=""img/set1/S4.jpg"" width=""540"" height = ""360"" style=""border:16px solid orange"">","null","","","","","","","",""
"null","","html-keyboard-response","216","161878","0.0-216.0","","","null","","","","","","","",""
"597.6999999880791","","image-keyboard-response","217","162476","0.0-217.0","","img/set1/S1.jpg","83","1","random","83","random,structured_load,structured_incentive,structured_normal","2,1,3,4,2,3","true","",""
"null","","html-keyboard-response","218","162836","0.0-218.0","","<img src=""img/set1/S1.jpg"" width=""540"" height = ""360"" style=""border:16px solid orange"">","null","","","","","","","",""
"null","","html-keyboard-response","219","163044","0.0-219.0","","","null","","","","","","","",""
"527.1999999880791","","image-keyboard-response","220","163572","0.0-220.0","","img/set1/S1.jpg","83","1","random","83","random,structured_load,structured_incentive,structured_normal","2,1,3,4,2,3","true","",""
"null","","html-keyboard-response","221","163924","0.0-221.0","","<img src=""img/set1/S1.jpg"" width=""540"" height = ""360"" style=""border:16px solid orange"">","null","","","","","","","",""
"null","","html-keyboard-response","222","164130","0.0-222.0","","","null","","","","","","","",""
"345.39999997615814","","image-keyboard-response","223","164476","0.0-223.0","","img/set1/S1.jpg","83","1","random","83","random,structured_load,structured_incentive,structured_normal","2,1,3,4,2,3","true","",""
"null","","html-keyboard-response","224","164831","0.0-224.0","","<img src=""img/set1/S1.jpg"" width=""540"" height = ""360"" style=""border:16px solid orange"">","null","","","","","","","",""
"null","","html-keyboard-response","225","165039","0.0-225.0","","","null","","","","","","","",""
"372.0999999642372","","image-keyboard-response","226","165412","0.0-226.0","","img/set1/S1.jpg","83","1","random","83","random,structured_load,structured_incentive,structured_normal","2,1,3,4,2,3","true","",""
"null","","html-keyboard-response","227","165768","0.0-227.0","","<img src=""img/set1/S1.jpg"" width=""540"" height = ""360"" style=""border:16px solid orange"">","null","","","","","","","",""
"null","","html-keyboard-response","228","165974","0.0-228.0","","","null","","","","","","","",""
"525.5999999642372","","image-keyboard-response","229","166500","0.0-229.0","","img/set1/S4.jpg","74","4","random","74","random,structured_load,structured_incentive,structured_normal","2,1,3,4,2,3","true","",""
"null","","html-keyboard-response","230","166861","0.0-230.0","","<img src=""img/set1/S4.jpg"" width=""540"" height = ""360"" style=""border:16px solid orange"">","null","","","","","","","",""
"null","","html-keyboard-response","231","167069","0.0-231.0","","","null","","","","","","","",""
"350.30000001192093","","image-keyboard-response","232","167420","0.0-232.0","","img/set1/S4.jpg","74","4","random","74","random,structured_load,structured_incentive,structured_normal","2,1,3,4,2,3","true","",""
"null","","html-keyboard-response","233","167776","0.0-233.0","","<img src=""img/set1/S4.jpg"" width=""540"" height = ""360"" style=""border:16px solid orange"">","null","","","","","","","",""
"null","","html-keyboard-response","234","167978","0.0-234.0","","","null","","","","","","","",""
"753.6000000238419","","image-keyboard-response","235","168732","0.0-235.0","","img/set1/S3.jpg","72","3","random","72","random,structured_load,structured_incentive,structured_normal","2,1,3,4,2,3","true","",""
"null","","html-keyboard-response","236","169096","0.0-236.0","","<img src=""img/set1/S3.jpg"" width=""540"" height = ""360"" style=""border:16px solid orange"">","null","","","","","","","",""
"null","","html-keyboard-response","237","169298","0.0-237.0","","","null","","","","","","","",""
"529","","image-keyboard-response","238","169828","0.0-238.0","","img/set1/S4.jpg","74","4","random","74","random,structured_load,structured_incentive,structured_normal","2,1,3,4,2,3","true","",""
"null","","html-keyboard-response","239","170189","0.0-239.0","","<img src=""img/set1/S4.jpg"" width=""540"" height = ""360"" style=""border:16px solid orange"">","null","","","","","","","",""
"null","","html-keyboard-response","240","170405","0.0-240.0","","","null","","","","","","","",""
"566.3000000119209","","image-keyboard-response","241","170972","0.0-241.0","","img/set1/S3.jpg","68","3","random","72","random,structured_load,structured_incentive,structured_normal","2,1,3,4,2,3","false","",""
"null","","html-keyboard-response","242","171332","0.0-242.0","","<img src=""img/set1/S3.jpg"" width=""540"" height = ""360"">","null","","","","","","","",""
"null","","html-keyboard-response","243","171543","0.0-243.0","","","null","","","","","","","",""
"355.9000000357628","","image-keyboard-response","244","171900","0.0-244.0","","img/set1/S3.jpg","72","3","random","72","random,structured_load,structured_incentive,structured_normal","2,1,3,4,2,3","true","",""
"null","","html-keyboard-response","245","172260","0.0-245.0","","<img src=""img/set1/S3.jpg"" width=""540"" height = ""360"" style=""border:16px solid orange"">","null","","","","","","","",""
"null","","html-keyboard-response","246","172463","0.0-246.0","","","null","","","","","","","",""
"548.3000000119209","","image-keyboard-response","247","173012","0.0-247.0","","img/set1/S4.jpg","74","4","random","74","random,structured_load,structured_incentive,structured_normal","2,1,3,4,2,3","true","",""
"null","","html-keyboard-response","248","173370","0.0-248.0","","<img src=""img/set1/S4.jpg"" width=""540"" height = ""360"" style=""border:16px solid orange"">","null","","","","","","","",""
"null","","html-keyboard-response","249","173572","0.0-249.0","","","null","","","","","","","",""
"663","","image-keyboard-response","250","174236","0.0-250.0","","img/set1/S1.jpg","68","1","random","83","random,structured_load,structured_incentive,structured_normal","2,1,3,4,2,3","false","",""
"null","","html-keyboard-response","251","174601","0.0-251.0","","<img src=""img/set1/S1.jpg"" width=""540"" height = ""360"">","null","","","","","","","",""
"null","","html-keyboard-response","252","174805","0.0-252.0","","","null","","","","","","","",""
"470.60000002384186","","image-keyboard-response","253","175276","0.0-253.0","","img/set1/S2.jpg","68","2","random","68","random,structured_load,structured_incentive,structured_normal","2,1,3,4,2,3","true","",""
"null","","html-keyboard-response","254","175629","0.0-254.0","","<img src=""img/set1/S2.jpg"" width=""540"" height = ""360"" style=""border:16px solid orange"">","null","","","","","","","",""
"null","","html-keyboard-response","255","175830","0.0-255.0","","","null","","","","","","","",""
"733","","image-keyboard-response","256","176564","0.0-256.0","","img/set1/S3.jpg","72","3","random","72","random,structured_load,structured_incentive,structured_normal","2,1,3,4,2,3","true","",""
"null","","html-keyboard-response","257","176930","0.0-257.0","","<img src=""img/set1/S3.jpg"" width=""540"" height = ""360"" style=""border:16px solid orange"">","null","","","","","","","",""
"null","","html-keyboard-response","258","177131","0.0-258.0","","","null","","","","","","","",""
"776.1000000238419","","image-keyboard-response","259","177908","0.0-259.0","","img/set1/S2.jpg","68","2","random","68","random,structured_load,structured_incentive,structured_normal","2,1,3,4,2,3","true","",""
"null","","html-keyboard-response","260","178267","0.0-260.0","","<img src=""img/set1/S2.jpg"" width=""540"" height = ""360"" style=""border:16px solid orange"">","null","","","","","","","",""
"null","","html-keyboard-response","261","178470","0.0-261.0","","","null","","","","","","","",""
"478","","image-keyboard-response","262","178948","0.0-262.0","","img/set1/S2.jpg","68","2","random","68","random,structured_load,structured_incentive,structured_normal","2,1,3,4,2,3","true","",""
"null","","html-keyboard-response","263","179303","0.0-263.0","","<img src=""img/set1/S2.jpg"" width=""540"" height = ""360"" style=""border:16px solid orange"">","null","","","","","","","",""
"null","","html-keyboard-response","264","179505","0.0-264.0","","","null","","","","","","","",""
"762.4000000357628","","image-keyboard-response","265","180267","0.0-265.0","","img/set1/S4.jpg","74","4","random","74","random,structured_load,structured_incentive,structured_normal","2,1,3,4,2,3","true","",""
"null","","html-keyboard-response","266","180622","0.0-266.0","","<img src=""img/set1/S4.jpg"" width=""540"" height = ""360"" style=""border:16px solid orange"">","null","","","","","","","",""
"null","","html-keyboard-response","267","180826","0.0-267.0","","","null","","","","","","","",""
"713.5999999642372","","image-keyboard-response","268","181540","0.0-268.0","","img/set1/S3.jpg","72","3","random","72","random,structured_load,structured_incentive,structured_normal","2,1,3,4,2,3","true","",""
"null","","html-keyboard-response","269","181900","0.0-269.0","","<img src=""img/set1/S3.jpg"" width=""540"" height = ""360"" style=""border:16px solid orange"">","null","","","","","","","",""
"null","","html-keyboard-response","270","182101","0.0-270.0","","","null","","","","","","","",""
"661.6999999880791","","image-keyboard-response","271","182763","0.0-271.0","","img/set1/S2.jpg","68","2","random","68","random,structured_load,structured_incentive,structured_normal","2,1,3,4,2,3","true","",""
"null","","html-keyboard-response","272","183127","0.0-272.0","","<img src=""img/set1/S2.jpg"" width=""540"" height = ""360"" style=""border:16px solid orange"">","null","","","","","","","",""
"null","","html-keyboard-response","273","183329","0.0-273.0","","","null","","","","","","","",""
"529.6999999880791","","image-keyboard-response","274","183860","0.0-274.0","","img/set1/S3.jpg","72","3","random","72","random,structured_load,structured_incentive,structured_normal","2,1,3,4,2,3","true","",""
"null","","html-keyboard-response","275","184217","0.0-275.0","","<img src=""img/set1/S3.jpg"" width=""540"" height = ""360"" style=""border:16px solid orange"">","null","","","","","","","",""
"null","","html-keyboard-response","276","184421","0.0-276.0","","","null","","","","","","","",""
"630.3000000119209","","image-keyboard-response","277","185052","0.0-277.0","","img/set1/S4.jpg","74","4","random","74","random,structured_load,structured_incentive,structured_normal","2,1,3,4,2,3","true","",""
"null","","html-keyboard-response","278","185418","0.0-278.0","","<img src=""img/set1/S4.jpg"" width=""540"" height = ""360"" style=""border:16px solid orange"">","null","","","","","","","",""
"null","","html-keyboard-response","279","185620","0.0-279.0","","","null","","","","","","","",""
"598.8000000119209","","image-keyboard-response","280","186220","0.0-280.0","","img/set1/S3.jpg","72","3","random","72","random,structured_load,structured_incentive,structured_normal","2,1,3,4,2,3","true","",""
"null","","html-keyboard-response","281","186582","0.0-281.0","","<img src=""img/set1/S3.jpg"" width=""540"" height = ""360"" style=""border:16px solid orange"">","null","","","","","","","",""
"null","","html-keyboard-response","282","186798","0.0-282.0","","","null","","","","","","","",""
"485.2999999523163","","image-keyboard-response","283","187284","0.0-283.0","","img/set1/S3.jpg","72","3","random","72","random,structured_load,structured_incentive,structured_normal","2,1,3,4,2,3","true","",""
"null","","html-keyboard-response","284","187637","0.0-284.0","","<img src=""img/set1/S3.jpg"" width=""540"" height = ""360"" style=""border:16px solid orange"">","null","","","","","","","",""
"null","","html-keyboard-response","285","187839","0.0-285.0","","","null","","","","","","","",""
"836","","image-keyboard-response","286","188675","0.0-286.0","","img/set1/S1.jpg","83","1","random","83","random,structured_load,structured_incentive,structured_normal","2,1,3,4,2,3","true","",""
"null","","html-keyboard-response","287","189034","0.0-287.0","","<img src=""img/set1/S1.jpg"" width=""540"" height = ""360"" style=""border:16px solid orange"">","null","","","","","","","",""
"null","","html-keyboard-response","288","189237","0.0-288.0","","","null","","","","","","","",""
"798.8000000119209","","image-keyboard-response","289","190036","0.0-289.0","","img/set1/S4.jpg","68","4","random","74","random,structured_load,structured_incentive,structured_normal","2,1,3,4,2,3","false","",""
"null","","html-keyboard-response","290","190390","0.0-290.0","","<img src=""img/set1/S4.jpg"" width=""540"" height = ""360"">","null","","","","","","","",""
"null","","html-keyboard-response","291","190592","0.0-291.0","","","null","","","","","","","",""
"426.7999999523163","","image-keyboard-response","292","191020","0.0-292.0","","img/set1/S4.jpg","72","4","random","74","random,structured_load,structured_incentive,structured_normal","2,1,3,4,2,3","false","",""
"null","","html-keyboard-response","293","191380","0.0-293.0","","<img src=""img/set1/S4.jpg"" width=""540"" height = ""360"">","null","","","","","","","",""
"null","","html-keyboard-response","294","191584","0.0-294.0","","","null","","","","","","","",""
"658.1000000238419","","image-keyboard-response","295","192243","0.0-295.0","","img/set1/S3.jpg","72","3","random","72","random,structured_load,structured_incentive,structured_normal","2,1,3,4,2,3","true","",""
"null","","html-keyboard-response","296","192597","0.0-296.0","","<img src=""img/set1/S3.jpg"" width=""540"" height = ""360"" style=""border:16px solid orange"">","null","","","","","","","",""
"null","","html-keyboard-response","297","192798","0.0-297.0","","","null","","","","","","","",""
"957","","image-keyboard-response","298","193756","0.0-298.0","","img/set1/S2.jpg","68","2","random","68","random,structured_load,structured_incentive,structured_normal","2,1,3,4,2,3","true","",""
"null","","html-keyboard-response","299","194117","0.0-299.0","","<img src=""img/set1/S2.jpg"" width=""540"" height = ""360"" style=""border:16px solid orange"">","null","","","","","","","",""
"null","","html-keyboard-response","300","194333","0.0-300.0","","","null","","","","","","","",""
"693.4000000357628","","image-keyboard-response","301","195028","0.0-301.0","","img/set1/S1.jpg","83","1","random","83","random,structured_load,structured_incentive,structured_normal","2,1,3,4,2,3","true","",""
"null","","html-keyboard-response","302","195394","0.0-302.0","","<img src=""img/set1/S1.jpg"" width=""540"" height = ""360"" style=""border:16px solid orange"">","null","","","","","","","",""
"null","","html-keyboard-response","303","195596","0.0-303.0","","","null","","","","","","","",""
"558.6000000238419","","image-keyboard-response","304","196156","0.0-304.0","","img/set1/S2.jpg","68","2","random","68","random,structured_load,structured_incentive,structured_normal","2,1,3,4,2,3","true","",""
"null","","html-keyboard-response","305","196515","0.0-305.0","","<img src=""img/set1/S2.jpg"" width=""540"" height = ""360"" style=""border:16px solid orange"">","null","","","","","","","",""
"null","","html-keyboard-response","306","196717","0.0-306.0","","","null","","","","","","","",""
"630.2999999523163","","image-keyboard-response","307","197348","0.0-307.0","","img/set1/S4.jpg","74","4","random","74","random,structured_load,structured_incentive,structured_normal","2,1,3,4,2,3","true","",""
"null","","html-keyboard-response","308","197711","0.0-308.0","","<img src=""img/set1/S4.jpg"" width=""540"" height = ""360"" style=""border:16px solid orange"">","null","","","","","","","",""
"null","","html-keyboard-response","309","197914","0.0-309.0","","","null","","","","","","","",""
"552.8999999761581","","image-keyboard-response","310","198468","0.0-310.0","","img/set1/S3.jpg","72","3","random","72","random,structured_load,structured_incentive,structured_normal","2,1,3,4,2,3","true","",""
"null","","html-keyboard-response","311","198820","0.0-311.0","","<img src=""img/set1/S3.jpg"" width=""540"" height = ""360"" style=""border:16px solid orange"">","null","","","","","","","",""
"null","","html-keyboard-response","312","199037","0.0-312.0","","","null","","","","","","","",""
"750","","image-keyboard-response","313","199788","0.0-313.0","","img/set1/S1.jpg","83","1","random","83","random,structured_load,structured_incentive,structured_normal","2,1,3,4,2,3","true","",""
"null","","html-keyboard-response","314","200150","0.0-314.0","","<img src=""img/set1/S1.jpg"" width=""540"" height = ""360"" style=""border:16px solid orange"">","null","","","","","","","",""
"null","","html-keyboard-response","315","200355","0.0-315.0","","","null","","","","","","","",""
"607.8999999761581","","image-keyboard-response","316","200964","0.0-316.0","","img/set1/S2.jpg","68","2","random","68","random,structured_load,structured_incentive,structured_normal","2,1,3,4,2,3","true","",""
"null","","html-keyboard-response","317","201317","0.0-317.0","","<img src=""img/set1/S2.jpg"" width=""540"" height = ""360"" style=""border:16px solid orange"">","null","","","","","","","",""
"null","","html-keyboard-response","318","201520","0.0-318.0","","","null","","","","","","","",""
"610.8000000119209","","image-keyboard-response","319","202132","0.0-319.0","","img/set1/S4.jpg","74","4","random","74","random,structured_load,structured_incentive,structured_normal","2,1,3,4,2,3","true","",""
"null","","html-keyboard-response","320","202491","0.0-320.0","","<img src=""img/set1/S4.jpg"" width=""540"" height = ""360"" style=""border:16px solid orange"">","null","","","","","","","",""
"null","","html-keyboard-response","321","202694","0.0-321.0","","","null","","","","","","","",""
"676.9000000357628","","image-keyboard-response","322","203372","0.0-322.0","","img/set1/S1.jpg","83","1","random","83","random,structured_load,structured_incentive,structured_normal","2,1,3,4,2,3","true","",""
"null","","html-keyboard-response","323","203735","0.0-323.0","","<img src=""img/set1/S1.jpg"" width=""540"" height = ""360"" style=""border:16px solid orange"">","null","","","","","","","",""
"null","","html-keyboard-response","324","203938","0.0-324.0","","","null","","","","","","","",""
"416.89999997615814","","image-keyboard-response","325","204356","0.0-325.0","","img/set1/S1.jpg","83","1","random","83","random,structured_load,structured_incentive,structured_normal","2,1,3,4,2,3","true","",""
"null","","html-keyboard-response","326","204716","0.0-326.0","","<img src=""img/set1/S1.jpg"" width=""540"" height = ""360"" style=""border:16px solid orange"">","null","","","","","","","",""
"null","","html-keyboard-response","327","204918","0.0-327.0","","","null","","","","","","","",""
"428.4000000357628","","image-keyboard-response","328","205348","0.0-328.0","","img/set1/S1.jpg","83","1","random","83","random,structured_load,structured_incentive,structured_normal","2,1,3,4,2,3","true","",""
"null","","html-keyboard-response","329","205713","0.0-329.0","","<img src=""img/set1/S1.jpg"" width=""540"" height = ""360"" style=""border:16px solid orange"">","null","","","","","","","",""
"null","","html-keyboard-response","330","205917","0.0-330.0","","","null","","","","","","","",""
"509.69999998807907","","image-keyboard-response","331","206428","0.0-331.0","","img/set1/S1.jpg","83","1","random","83","random,structured_load,structured_incentive,structured_normal","2,1,3,4,2,3","true","",""
"null","","html-keyboard-response","332","206788","0.0-332.0","","<img src=""img/set1/S1.jpg"" width=""540"" height = ""360"" style=""border:16px solid orange"">","null","","","","","","","",""
"null","","html-keyboard-response","333","207005","0.0-333.0","","","null","","","","","","","",""
"685.9000000357628","","image-keyboard-response","334","207692","0.0-334.0","","img/set1/S4.jpg","74","4","random","74","random,structured_load,structured_incentive,structured_normal","2,1,3,4,2,3","true","",""
"null","","html-keyboard-response","335","208045","0.0-335.0","","<img src=""img/set1/S4.jpg"" width=""540"" height = ""360"" style=""border:16px solid orange"">","null","","","","","","","",""
"null","","html-keyboard-response","336","208246","0.0-336.0","","","null","","","","","","","",""
"604.2000000476837","","image-keyboard-response","337","208852","0.0-337.0","","img/set1/S4.jpg","74","4","random","74","random,structured_load,structured_incentive,structured_normal","2,1,3,4,2,3","true","",""
"null","","html-keyboard-response","338","209207","0.0-338.0","","<img src=""img/set1/S4.jpg"" width=""540"" height = ""360"" style=""border:16px solid orange"">","null","","","","","","","",""
"null","","html-keyboard-response","339","209408","0.0-339.0","","","null","","","","","","","",""
"643.3000000119209","","image-keyboard-response","340","210052","0.0-340.0","","img/set1/S1.jpg","83","1","random","83","random,structured_load,structured_incentive,structured_normal","2,1,3,4,2,3","true","",""
"null","","html-keyboard-response","341","210417","0.0-341.0","","<img src=""img/set1/S1.jpg"" width=""540"" height = ""360"" style=""border:16px solid orange"">","null","","","","","","","",""
"null","","html-keyboard-response","342","210620","0.0-342.0","","","null","","","","","","","",""
"791.5999999642372","","image-keyboard-response","343","211413","0.0-343.0","","img/set1/S3.jpg","72","3","random","72","random,structured_load,structured_incentive,structured_normal","2,1,3,4,2,3","true","",""
"null","","html-keyboard-response","344","211773","0.0-344.0","","<img src=""img/set1/S3.jpg"" width=""540"" height = ""360"" style=""border:16px solid orange"">","null","","","","","","","",""
"null","","html-keyboard-response","345","211979","0.0-345.0","","","null","","","","","","","",""
"608.5","","image-keyboard-response","346","212588","0.0-346.0","","img/set1/S2.jpg","68","2","random","68","random,structured_load,structured_incentive,structured_normal","2,1,3,4,2,3","true","",""
"null","","html-keyboard-response","347","212945","0.0-347.0","","<img src=""img/set1/S2.jpg"" width=""540"" height = ""360"" style=""border:16px solid orange"">","null","","","","","","","",""
"null","","html-keyboard-response","348","213151","0.0-348.0","","","null","","","","","","","",""
"795.6999999880791","","image-keyboard-response","349","213948","0.0-349.0","","img/set1/S4.jpg","74","4","random","74","random,structured_load,structured_incentive,structured_normal","2,1,3,4,2,3","true","",""
"null","","html-keyboard-response","350","214312","0.0-350.0","","<img src=""img/set1/S4.jpg"" width=""540"" height = ""360"" style=""border:16px solid orange"">","null","","","","","","","",""
"null","","html-keyboard-response","351","214514","0.0-351.0","","","null","","","","","","","",""
"689.3000000119209","","image-keyboard-response","352","215204","0.0-352.0","","img/set1/S1.jpg","72","1","random","83","random,structured_load,structured_incentive,structured_normal","2,1,3,4,2,3","false","",""
"null","","html-keyboard-response","353","215557","0.0-353.0","","<img src=""img/set1/S1.jpg"" width=""540"" height = ""360"">","null","","","","","","","",""
"null","","html-keyboard-response","354","215760","0.0-354.0","","","null","","","","","","","",""
"674.5999999642372","","image-keyboard-response","355","216436","0.0-355.0","","img/set1/S3.jpg","72","3","random","72","random,structured_load,structured_incentive,structured_normal","2,1,3,4,2,3","true","",""
"null","","html-keyboard-response","356","216802","0.0-356.0","","<img src=""img/set1/S3.jpg"" width=""540"" height = ""360"" style=""border:16px solid orange"">","null","","","","","","","",""
"null","","html-keyboard-response","357","217018","0.0-357.0","","","null","","","","","","","",""
"568.5","","image-keyboard-response","358","217587","0.0-358.0","","img/set1/S4.jpg","74","4","random","74","random,structured_load,structured_incentive,structured_normal","2,1,3,4,2,3","true","",""
"null","","html-keyboard-response","359","217948","0.0-359.0","","<img src=""img/set1/S4.jpg"" width=""540"" height = ""360"" style=""border:16px solid orange"">","null","","","","","","","",""
"null","","html-keyboard-response","360","218152","0.0-360.0","","","null","","","","","","","",""
"850.9000000357628","","image-keyboard-response","361","219004","0.0-361.0","","img/set1/S1.jpg","83","1","random","83","random,structured_load,structured_incentive,structured_normal","2,1,3,4,2,3","true","",""
"null","","html-keyboard-response","362","219361","0.0-362.0","","<img src=""img/set1/S1.jpg"" width=""540"" height = ""360"" style=""border:16px solid orange"">","null","","","","","","","",""
"null","","html-keyboard-response","363","219576","0.0-363.0","","","null","","","","","","","",""
"2658.5","","html-keyboard-response","364","222236","0.0-364.0","","<p class=""center-content"">You have completed a block! </p><p class=""center-content"">Press any key on the keyboard to continue, </p><p class=""center-content"">or wait for the automatic progression to the next block after one minute.</p>","68","","","","","","","",""
"4791.600000023842","","instructions","365","227028","0.0-365.0","[{""page_index"":0,""viewing_time"":4791.300000011921}]","","","","","","","","","",""
"30615.69999998808","","instructions","366","257644","0.0-366.0","[{""page_index"":0,""viewing_time"":29399.399999976158},{""page_index"":1,""viewing_time"":1216}]","","","","","","","","","",""
"1070.7999999523163","","image-keyboard-response","367","258716","0.0-367.0","","img/set2/S2.jpg","74","2","structured_load","68","random,structured_load,structured_incentive,structured_normal","2,1,3,4,2,3","false","",""
"null","","html-keyboard-response","368","259069","0.0-368.0","","<img src=""img/set2/S2.jpg"" width=""540"" height = ""360"">","null","","","","","","","",""
"null","","html-keyboard-response","369","259270","0.0-369.0","","","null","","","","","","","",""
"532.8000000119209","","image-keyboard-response","370","259804","0.0-370.0","","img/set2/S1.jpg","68","1","structured_load","83","random,structured_load,structured_incentive,structured_normal","2,1,3,4,2,3","false","",""
"null","","html-keyboard-response","371","260160","0.0-371.0","","<img src=""img/set2/S1.jpg"" width=""540"" height = ""360"">","null","","","","","","","",""
"null","","html-keyboard-response","372","260376","0.0-372.0","","","null","","","","","","","",""
"499.19999998807907","","image-keyboard-response","373","260876","0.0-373.0","","img/set2/S3.jpg","68","3","structured_load","72","random,structured_load,structured_incentive,structured_normal","2,1,3,4,2,3","false","",""
"null","","html-keyboard-response","374","261228","0.0-374.0","","<img src=""img/set2/S3.jpg"" width=""540"" height = ""360"">","null","","","","","","","",""
"null","","html-keyboard-response","375","261430","0.0-375.0","","","null","","","","","","","",""
"1885.199999988079","","image-keyboard-response","376","263316","0.0-376.0","","img/set2/S4.jpg","74","4","structured_load","74","random,structured_load,structured_incentive,structured_normal","2,1,3,4,2,3","true","",""
"null","","html-keyboard-response","377","263677","0.0-377.0","","<img src=""img/set2/S4.jpg"" width=""540"" height = ""360"" style=""border:16px solid orange"">","null","","","","","","","",""
"null","","html-keyboard-response","378","263893","0.0-378.0","","","null","","","","","","","",""
"1014","","image-keyboard-response","379","264908","0.0-379.0","","img/set2/S2.jpg","68","2","structured_load","68","random,structured_load,structured_incentive,structured_normal","2,1,3,4,2,3","true","",""
"null","","html-keyboard-response","380","265262","0.0-380.0","","<img src=""img/set2/S2.jpg"" width=""540"" height = ""360"" style=""border:16px solid orange"">","null","","","","","","","",""
"null","","html-keyboard-response","381","265464","0.0-381.0","","","null","","","","","","","",""
"931.5","","image-keyboard-response","382","266396","0.0-382.0","","img/set2/S1.jpg","83","1","structured_load","83","random,structured_load,structured_incentive,structured_normal","2,1,3,4,2,3","true","",""
"null","","html-keyboard-response","383","266758","0.0-383.0","","<img src=""img/set2/S1.jpg"" width=""540"" height = ""360"" style=""border:16px solid orange"">","null","","","","","","","",""
"null","","html-keyboard-response","384","266975","0.0-384.0","","","null","","","","","","","",""
"1235.9000000357628","","image-keyboard-response","385","268212","0.0-385.0","","img/set2/S4.jpg","74","4","structured_load","74","random,structured_load,structured_incentive,structured_normal","2,1,3,4,2,3","true","",""
"null","","html-keyboard-response","386","268565","0.0-386.0","","<img src=""img/set2/S4.jpg"" width=""540"" height = ""360"" style=""border:16px solid orange"">","null","","","","","","","",""
"null","","html-keyboard-response","387","268781","0.0-387.0","","","null","","","","","","","",""
"462","","image-keyboard-response","388","269244","0.0-388.0","","img/set2/S4.jpg","74","4","structured_load","74","random,structured_load,structured_incentive,structured_normal","2,1,3,4,2,3","true","",""
"null","","html-keyboard-response","389","269602","0.0-389.0","","<img src=""img/set2/S4.jpg"" width=""540"" height = ""360"" style=""border:16px solid orange"">","null","","","","","","","",""
"null","","html-keyboard-response","390","269803","0.0-390.0","","","null","","","","","","","",""
"2136.5","","image-keyboard-response","391","271940","0.0-391.0","","img/set2/S2.jpg","72","2","structured_load","68","random,structured_load,structured_incentive,structured_normal","2,1,3,4,2,3","false","",""
"null","","html-keyboard-response","392","272292","0.0-392.0","","<img src=""img/set2/S2.jpg"" width=""540"" height = ""360"">","null","","","","","","","",""
"null","","html-keyboard-response","393","272497","0.0-393.0","","","null","","","","","","","",""
"546.4000000357628","","image-keyboard-response","394","273044","0.0-394.0","","img/set2/S1.jpg","83","1","structured_load","83","random,structured_load,structured_incentive,structured_normal","2,1,3,4,2,3","true","",""
"null","","html-keyboard-response","395","273403","0.0-395.0","","<img src=""img/set2/S1.jpg"" width=""540"" height = ""360"" style=""border:16px solid orange"">","null","","","","","","","",""
"null","","html-keyboard-response","396","273606","0.0-396.0","","","null","","","","","","","",""
"1685.5999999642372","","image-keyboard-response","397","275292","0.0-397.0","","img/set2/S2.jpg","74","2","structured_load","68","random,structured_load,structured_incentive,structured_normal","2,1,3,4,2,3","false","",""
"null","","html-keyboard-response","398","275644","0.0-398.0","","<img src=""img/set2/S2.jpg"" width=""540"" height = ""360"">","null","","","","","","","",""
"null","","html-keyboard-response","399","275852","0.0-399.0","","","null","","","","","","","",""
"599.6999999880791","","image-keyboard-response","400","276452","0.0-400.0","","img/set2/S1.jpg","68","1","structured_load","83","random,structured_load,structured_incentive,structured_normal","2,1,3,4,2,3","false","",""
"null","","html-keyboard-response","401","276815","0.0-401.0","","<img src=""img/set2/S1.jpg"" width=""540"" height = ""360"">","null","","","","","","","",""
"null","","html-keyboard-response","402","277018","0.0-402.0","","","null","","","","","","","",""
"593.6000000238419","","image-keyboard-response","403","277612","0.0-403.0","","img/set2/S4.jpg","72","4","structured_load","74","random,structured_load,structured_incentive,structured_normal","2,1,3,4,2,3","false","",""
"null","","html-keyboard-response","404","277965","0.0-404.0","","<img src=""img/set2/S4.jpg"" width=""540"" height = ""360"">","null","","","","","","","",""
"null","","html-keyboard-response","405","278168","0.0-405.0","","","null","","","","","","","",""
"3.299999952316284","","image-keyboard-response","406","278172","0.0-406.0","","img/set2/S3.jpg","74","3","structured_load","72","random,structured_load,structured_incentive,structured_normal","2,1,3,4,2,3","false","",""
"null","","html-keyboard-response","407","278527","0.0-407.0","","<img src=""img/set2/S3.jpg"" width=""540"" height = ""360"">","null","","","","","","","",""
"null","","html-keyboard-response","408","278728","0.0-408.0","","","null","","","","","","","",""
"1283.3999999761581","","image-keyboard-response","409","280012","0.0-409.0","","img/set2/S2.jpg","83","2","structured_load","68","random,structured_load,structured_incentive,structured_normal","2,1,3,4,2,3","false","",""
"null","","html-keyboard-response","410","280375","0.0-410.0","","<img src=""img/set2/S2.jpg"" width=""540"" height = ""360"">","null","","","","","","","",""
"null","","html-keyboard-response","411","280578","0.0-411.0","","","null","","","","","","","",""
"2201.600000023842","","image-keyboard-response","412","282780","0.0-412.0","","img/set2/S1.jpg","72","1","structured_load","83","random,structured_load,structured_incentive,structured_normal","2,1,3,4,2,3","false","",""
"null","","html-keyboard-response","413","283133","0.0-413.0","","<img src=""img/set2/S1.jpg"" width=""540"" height = ""360"">","null","","","","","","","",""
"null","","html-keyboard-response","414","283336","0.0-414.0","","","null","","","","","","","",""
"1258.7999999523163","","image-keyboard-response","415","284596","0.0-415.0","","img/set2/S3.jpg","74","3","structured_load","72","random,structured_load,structured_incentive,structured_normal","2,1,3,4,2,3","false","",""
"null","","html-keyboard-response","416","284952","0.0-416.0","","<img src=""img/set2/S3.jpg"" width=""540"" height = ""360"">","null","","","","","","","",""
"null","","html-keyboard-response","417","285155","0.0-417.0","","","null","","","","","","","",""
"656.3999999761581","","image-keyboard-response","418","285812","0.0-418.0","","img/set2/S4.jpg","83","4","structured_load","74","random,structured_load,structured_incentive,structured_normal","2,1,3,4,2,3","false","",""
"null","","html-keyboard-response","419","286177","0.0-419.0","","<img src=""img/set2/S4.jpg"" width=""540"" height = ""360"">","null","","","","","","","",""
"null","","html-keyboard-response","420","286380","0.0-420.0","","","null","","","","","","","",""
"431.39999997615814","","image-keyboard-response","421","286812","0.0-421.0","","img/set2/S4.jpg","72","4","structured_load","74","random,structured_load,structured_incentive,structured_normal","2,1,3,4,2,3","false","",""
"null","","html-keyboard-response","422","287174","0.0-422.0","","<img src=""img/set2/S4.jpg"" width=""540"" height = ""360"">","null","","","","","","","",""
"null","","html-keyboard-response","423","287378","0.0-423.0","","","null","","","","","","","",""
"401.30000001192093","","image-keyboard-response","424","287780","0.0-424.0","","img/set2/S3.jpg","74","3","structured_load","72","random,structured_load,structured_incentive,structured_normal","2,1,3,4,2,3","false","",""
"null","","html-keyboard-response","425","288144","0.0-425.0","","<img src=""img/set2/S3.jpg"" width=""540"" height = ""360"">","null","","","","","","","",""
"null","","html-keyboard-response","426","288346","0.0-426.0","","","null","","","","","","","",""
"1009.6000000238419","","image-keyboard-response","427","289356","0.0-427.0","","img/set2/S4.jpg","83","4","structured_load","74","random,structured_load,structured_incentive,structured_normal","2,1,3,4,2,3","false","",""
"null","","html-keyboard-response","428","289714","0.0-428.0","","<img src=""img/set2/S4.jpg"" width=""540"" height = ""360"">","null","","","","","","","",""
"null","","html-keyboard-response","429","289931","0.0-429.0","","","null","","","","","","","",""
"727.6000000238419","","image-keyboard-response","430","290660","0.0-430.0","","img/set2/S2.jpg","72","2","structured_load","68","random,structured_load,structured_incentive,structured_normal","2,1,3,4,2,3","false","",""
"null","","html-keyboard-response","431","291020","0.0-431.0","","<img src=""img/set2/S2.jpg"" width=""540"" height = ""360"">","null","","","","","","","",""
"null","","html-keyboard-response","432","291222","0.0-432.0","","","null","","","","","","","",""
"805.2999999523163","","image-keyboard-response","433","292028","0.0-433.0","","img/set2/S1.jpg","83","1","structured_load","83","random,structured_load,structured_incentive,structured_normal","2,1,3,4,2,3","true","",""
"null","","html-keyboard-response","434","292389","0.0-434.0","","<img src=""img/set2/S1.jpg"" width=""540"" height = ""360"" style=""border:16px solid orange"">","null","","","","","","","",""
"null","","html-keyboard-response","435","292591","0.0-435.0","","","null","","","","","","","",""
"null","","image-keyboard-response","436","295106","0.0-436.0","","img/set2/S3.jpg","null","3","structured_load","72","random,structured_load,structured_incentive,structured_normal","2,1,3,4,2,3","false","",""
"null","","html-keyboard-response","437","295463","0.0-437.0","","<img src=""img/set2/S3.jpg"" width=""540"" height = ""360"">","null","","","","","","","",""
"null","","html-keyboard-response","438","295666","0.0-438.0","","","null","","","","","","","",""
"760.5999999642372","","image-keyboard-response","439","296428","0.0-439.0","","img/set2/S3.jpg","74","3","structured_load","72","random,structured_load,structured_incentive,structured_normal","2,1,3,4,2,3","false","",""
"null","","html-keyboard-response","440","296782","0.0-440.0","","<img src=""img/set2/S3.jpg"" width=""540"" height = ""360"">","null","","","","","","","",""
"null","","html-keyboard-response","441","296998","0.0-441.0","","","null","","","","","","","",""
"565","","image-keyboard-response","442","297564","0.0-442.0","","img/set2/S3.jpg","68","3","structured_load","72","random,structured_load,structured_incentive,structured_normal","2,1,3,4,2,3","false","",""
"null","","html-keyboard-response","443","297916","0.0-443.0","","<img src=""img/set2/S3.jpg"" width=""540"" height = ""360"">","null","","","","","","","",""
"null","","html-keyboard-response","444","298119","0.0-444.0","","","null","","","","","","","",""
"731.6999999880791","","image-keyboard-response","445","298852","0.0-445.0","","img/set2/S3.jpg","68","3","structured_load","72","random,structured_load,structured_incentive,structured_normal","2,1,3,4,2,3","false","",""
"null","","html-keyboard-response","446","299217","0.0-446.0","","<img src=""img/set2/S3.jpg"" width=""540"" height = ""360"">","null","","","","","","","",""
"null","","html-keyboard-response","447","299420","0.0-447.0","","","null","","","","","","","",""
"478.69999998807907","","image-keyboard-response","448","299900","0.0-448.0","","img/set2/S3.jpg","72","3","structured_load","72","random,structured_load,structured_incentive,structured_normal","2,1,3,4,2,3","true","",""
"null","","html-keyboard-response","449","300263","0.0-449.0","","<img src=""img/set2/S3.jpg"" width=""540"" height = ""360"" style=""border:16px solid orange"">","null","","","","","","","",""
"null","","html-keyboard-response","450","300465","0.0-450.0","","","null","","","","","","","",""
"841.6999999880791","","image-keyboard-response","451","301308","0.0-451.0","","img/set2/S4.jpg","83","4","structured_load","74","random,structured_load,structured_incentive,structured_normal","2,1,3,4,2,3","false","",""
"null","","html-keyboard-response","452","301668","0.0-452.0","","<img src=""img/set2/S4.jpg"" width=""540"" height = ""360"">","null","","","","","","","",""
"null","","html-keyboard-response","453","301871","0.0-453.0","","","null","","","","","","","",""
"372.19999998807907","","image-keyboard-response","454","302244","0.0-454.0","","img/set2/S4.jpg","74","4","structured_load","74","random,structured_load,structured_incentive,structured_normal","2,1,3,4,2,3","true","",""
"null","","html-keyboard-response","455","302595","0.0-455.0","","<img src=""img/set2/S4.jpg"" width=""540"" height = ""360"" style=""border:16px solid orange"">","null","","","","","","","",""
"null","","html-keyboard-response","456","302797","0.0-456.0","","","null","","","","","","","",""
"887","","image-keyboard-response","457","303685","0.0-457.0","","img/set2/S2.jpg","72","2","structured_load","68","random,structured_load,structured_incentive,structured_normal","2,1,3,4,2,3","false","",""
"null","","html-keyboard-response","458","304043","0.0-458.0","","<img src=""img/set2/S2.jpg"" width=""540"" height = ""360"">","null","","","","","","","",""
"null","","html-keyboard-response","459","304259","0.0-459.0","","","null","","","","","","","",""
"703.6000000238419","","image-keyboard-response","460","304964","0.0-460.0","","img/set2/S1.jpg","68","1","structured_load","83","random,structured_load,structured_incentive,structured_normal","2,1,3,4,2,3","false","",""
"null","","html-keyboard-response","461","305323","0.0-461.0","","<img src=""img/set2/S1.jpg"" width=""540"" height = ""360"">","null","","","","","","","",""
"null","","html-keyboard-response","462","305524","0.0-462.0","","","null","","","","","","","",""
"1838.9000000357628","","image-keyboard-response","463","307364","0.0-463.0","","img/set2/S2.jpg","72","2","structured_load","68","random,structured_load,structured_incentive,structured_normal","2,1,3,4,2,3","false","",""
"null","","html-keyboard-response","464","307719","0.0-464.0","","<img src=""img/set2/S2.jpg"" width=""540"" height = ""360"">","null","","","","","","","",""
"null","","html-keyboard-response","465","307936","0.0-465.0","","","null","","","","","","","",""
"1530.8999999761581","","image-keyboard-response","466","309468","0.0-466.0","","img/set2/S1.jpg","83","1","structured_load","83","random,structured_load,structured_incentive,structured_normal","2,1,3,4,2,3","true","",""
"null","","html-keyboard-response","467","309831","0.0-467.0","","<img src=""img/set2/S1.jpg"" width=""540"" height = ""360"" style=""border:16px solid orange"">","null","","","","","","","",""
"null","","html-keyboard-response","468","310034","0.0-468.0","","","null","","","","","","","",""
"1569.300000011921","","image-keyboard-response","469","311604","0.0-469.0","","img/set2/S3.jpg","74","3","structured_load","72","random,structured_load,structured_incentive,structured_normal","2,1,3,4,2,3","false","",""
"null","","html-keyboard-response","470","311958","0.0-470.0","","<img src=""img/set2/S3.jpg"" width=""540"" height = ""360"">","null","","","","","","","",""
"null","","html-keyboard-response","471","312163","0.0-471.0","","","null","","","","","","","",""
"null","","image-keyboard-response","472","314678","0.0-472.0","","img/set2/S3.jpg","null","3","structured_load","72","random,structured_load,structured_incentive,structured_normal","2,1,3,4,2,3","false","",""
"null","","html-keyboard-response","473","315040","0.0-473.0","","<img src=""img/set2/S3.jpg"" width=""540"" height = ""360"">","null","","","","","","","",""
"null","","html-keyboard-response","474","315242","0.0-474.0","","","null","","","","","","","",""
"1400.7999999523163","","image-keyboard-response","475","316644","0.0-475.0","","img/set2/S3.jpg","68","3","structured_load","72","random,structured_load,structured_incentive,structured_normal","2,1,3,4,2,3","false","",""
"null","","html-keyboard-response","476","317002","0.0-476.0","","<img src=""img/set2/S3.jpg"" width=""540"" height = ""360"">","null","","","","","","","",""
"null","","html-keyboard-response","477","317202","0.0-477.0","","","null","","","","","","","",""
"624.5","","image-keyboard-response","478","317828","0.0-478.0","","img/set2/S4.jpg","74","4","structured_load","74","random,structured_load,structured_incentive,structured_normal","2,1,3,4,2,3","true","",""
"null","","html-keyboard-response","479","318181","0.0-479.0","","<img src=""img/set2/S4.jpg"" width=""540"" height = ""360"" style=""border:16px solid orange"">","null","","","","","","","",""
"null","","html-keyboard-response","480","318398","0.0-480.0","","","null","","","","","","","",""
"1748.9000000357628","","image-keyboard-response","481","320148","0.0-481.0","","img/set2/S2.jpg","74","2","structured_load","68","random,structured_load,structured_incentive,structured_normal","2,1,3,4,2,3","false","",""
"null","","html-keyboard-response","482","320507","0.0-482.0","","<img src=""img/set2/S2.jpg"" width=""540"" height = ""360"">","null","","","","","","","",""
"null","","html-keyboard-response","483","320723","0.0-483.0","","","null","","","","","","","",""
"832.1000000238419","","image-keyboard-response","484","321556","0.0-484.0","","img/set2/S1.jpg","83","1","structured_load","83","random,structured_load,structured_incentive,structured_normal","2,1,3,4,2,3","true","",""
"null","","html-keyboard-response","485","321917","0.0-485.0","","<img src=""img/set2/S1.jpg"" width=""540"" height = ""360"" style=""border:16px solid orange"">","null","","","","","","","",""
"null","","html-keyboard-response","486","322119","0.0-486.0","","","null","","","","","","","",""
"1299.5999999642372","","image-keyboard-response","487","323420","0.0-487.0","","img/set2/S2.jpg","68","2","structured_load","68","random,structured_load,structured_incentive,structured_normal","2,1,3,4,2,3","true","",""
"null","","html-keyboard-response","488","323779","0.0-488.0","","<img src=""img/set2/S2.jpg"" width=""540"" height = ""360"" style=""border:16px solid orange"">","null","","","","","","","",""
"null","","html-keyboard-response","489","323982","0.0-489.0","","","null","","","","","","","",""
"1204.699999988079","","image-keyboard-response","490","325188","0.0-490.0","","img/set2/S1.jpg","83","1","structured_load","83","random,structured_load,structured_incentive,structured_normal","2,1,3,4,2,3","true","",""
"null","","html-keyboard-response","491","325554","0.0-491.0","","<img src=""img/set2/S1.jpg"" width=""540"" height = ""360"" style=""border:16px solid orange"">","null","","","","","","","",""
"null","","html-keyboard-response","492","325757","0.0-492.0","","","null","","","","","","","",""
"517.2999999523163","","image-keyboard-response","493","326276","0.0-493.0","","img/set2/S2.jpg","68","2","structured_load","68","random,structured_load,structured_incentive,structured_normal","2,1,3,4,2,3","true","",""
"null","","html-keyboard-response","494","326629","0.0-494.0","","<img src=""img/set2/S2.jpg"" width=""540"" height = ""360"" style=""border:16px solid orange"">","null","","","","","","","",""
"null","","html-keyboard-response","495","326845","0.0-495.0","","","null","","","","","","","",""
"477.69999998807907","","image-keyboard-response","496","327324","0.0-496.0","","img/set2/S1.jpg","83","1","structured_load","83","random,structured_load,structured_incentive,structured_normal","2,1,3,4,2,3","true","",""
"null","","html-keyboard-response","497","327686","0.0-497.0","","<img src=""img/set2/S1.jpg"" width=""540"" height = ""360"" style=""border:16px solid orange"">","null","","","","","","","",""
"null","","html-keyboard-response","498","327902","0.0-498.0","","","null","","","","","","","",""
"980.8000000119209","","image-keyboard-response","499","328884","0.0-499.0","","img/set2/S3.jpg","72","3","structured_load","72","random,structured_load,structured_incentive,structured_normal","2,1,3,4,2,3","true","",""
"null","","html-keyboard-response","500","329238","0.0-500.0","","<img src=""img/set2/S3.jpg"" width=""540"" height = ""360"" style=""border:16px solid orange"">","null","","","","","","","",""
"null","","html-keyboard-response","501","329441","0.0-501.0","","","null","","","","","","","",""
"1289.5","","image-keyboard-response","502","330732","0.0-502.0","","img/set2/S2.jpg","68","2","structured_load","68","random,structured_load,structured_incentive,structured_normal","2,1,3,4,2,3","true","",""
"null","","html-keyboard-response","503","331087","0.0-503.0","","<img src=""img/set2/S2.jpg"" width=""540"" height = ""360"" style=""border:16px solid orange"">","null","","","","","","","",""
"null","","html-keyboard-response","504","331289","0.0-504.0","","","null","","","","","","","",""
"593.6999999880791","","image-keyboard-response","505","331884","0.0-505.0","","img/set2/S1.jpg","83","1","structured_load","83","random,structured_load,structured_incentive,structured_normal","2,1,3,4,2,3","true","",""
"null","","html-keyboard-response","506","332250","0.0-506.0","","<img src=""img/set2/S1.jpg"" width=""540"" height = ""360"" style=""border:16px solid orange"">","null","","","","","","","",""
"null","","html-keyboard-response","507","332466","0.0-507.0","","","null","","","","","","","",""
"865.0999999642372","","image-keyboard-response","508","333332","0.0-508.0","","img/set2/S3.jpg","74","3","structured_load","72","random,structured_load,structured_incentive,structured_normal","2,1,3,4,2,3","false","",""
"null","","html-keyboard-response","509","333686","0.0-509.0","","<img src=""img/set2/S3.jpg"" width=""540"" height = ""360"">","null","","","","","","","",""
"null","","html-keyboard-response","510","333901","0.0-510.0","","","null","","","","","","","",""
"909.1999999880791","","image-keyboard-response","511","334811","0.0-511.0","","img/set2/S4.jpg","72","4","structured_load","74","random,structured_load,structured_incentive,structured_normal","2,1,3,4,2,3","false","",""
"null","","html-keyboard-response","512","335164","0.0-512.0","","<img src=""img/set2/S4.jpg"" width=""540"" height = ""360"">","null","","","","","","","",""
"null","","html-keyboard-response","513","335367","0.0-513.0","","","null","","","","","","","",""
"755.9000000357628","","image-keyboard-response","514","336124","0.0-514.0","","img/set2/S2.jpg","68","2","structured_load","68","random,structured_load,structured_incentive,structured_normal","2,1,3,4,2,3","true","",""
"null","","html-keyboard-response","515","336490","0.0-515.0","","<img src=""img/set2/S2.jpg"" width=""540"" height = ""360"" style=""border:16px solid orange"">","null","","","","","","","",""
"null","","html-keyboard-response","516","336693","0.0-516.0","","","null","","","","","","","",""
"958.1999999880791","","image-keyboard-response","517","337652","0.0-517.0","","img/set2/S1.jpg","83","1","structured_load","83","random,structured_load,structured_incentive,structured_normal","2,1,3,4,2,3","true","",""
"null","","html-keyboard-response","518","338019","0.0-518.0","","<img src=""img/set2/S1.jpg"" width=""540"" height = ""360"" style=""border:16px solid orange"">","null","","","","","","","",""
"null","","html-keyboard-response","519","338223","0.0-519.0","","","null","","","","","","","",""
"1004","","image-keyboard-response","520","339228","0.0-520.0","","img/set2/S2.jpg","68","2","structured_load","68","random,structured_load,structured_incentive,structured_normal","2,1,3,4,2,3","true","",""
"null","","html-keyboard-response","521","339580","0.0-521.0","","<img src=""img/set2/S2.jpg"" width=""540"" height = ""360"" style=""border:16px solid orange"">","null","","","","","","","",""
"null","","html-keyboard-response","522","339783","0.0-522.0","","","null","","","","","","","",""
"1267.300000011921","","image-keyboard-response","523","341052","0.0-523.0","","img/set2/S1.jpg","68","1","structured_load","83","random,structured_load,structured_incentive,structured_normal","2,1,3,4,2,3","false","",""
"null","","html-keyboard-response","524","341406","0.0-524.0","","<img src=""img/set2/S1.jpg"" width=""540"" height = ""360"">","null","","","","","","","",""
"null","","html-keyboard-response","525","341608","0.0-525.0","","","null","","","","","","","",""
"651.1999999880791","","image-keyboard-response","526","342260","0.0-526.0","","img/set2/S2.jpg","68","2","structured_load","68","random,structured_load,structured_incentive,structured_normal","2,1,3,4,2,3","true","",""
"null","","html-keyboard-response","527","342617","0.0-527.0","","<img src=""img/set2/S2.jpg"" width=""540"" height = ""360"" style=""border:16px solid orange"">","null","","","","","","","",""
"null","","html-keyboard-response","528","342834","0.0-528.0","","","null","","","","","","","",""
"472.80000001192093","","image-keyboard-response","529","343308","0.0-529.0","","img/set2/S1.jpg","83","1","structured_load","83","random,structured_load,structured_incentive,structured_normal","2,1,3,4,2,3","true","",""
"null","","html-keyboard-response","530","343669","0.0-530.0","","<img src=""img/set2/S1.jpg"" width=""540"" height = ""360"" style=""border:16px solid orange"">","null","","","","","","","",""
"null","","html-keyboard-response","531","343873","0.0-531.0","","","null","","","","","","","",""
"1121.9000000357628","","image-keyboard-response","532","344996","0.0-532.0","","img/set2/S4.jpg","72","4","structured_load","74","random,structured_load,structured_incentive,structured_normal","2,1,3,4,2,3","false","",""
"null","","html-keyboard-response","533","345356","0.0-533.0","","<img src=""img/set2/S4.jpg"" width=""540"" height = ""360"">","null","","","","","","","",""
"null","","html-keyboard-response","534","345562","0.0-534.0","","","null","","","","","","","",""
"616.8000000119209","","image-keyboard-response","535","346180","0.0-535.0","","img/set2/S4.jpg","83","4","structured_load","74","random,structured_load,structured_incentive,structured_normal","2,1,3,4,2,3","false","",""
"null","","html-keyboard-response","536","346540","0.0-536.0","","<img src=""img/set2/S4.jpg"" width=""540"" height = ""360"">","null","","","","","","","",""
"null","","html-keyboard-response","537","346748","0.0-537.0","","","null","","","","","","","",""
"391.5","","image-keyboard-response","538","347140","0.0-538.0","","img/set2/S4.jpg","74","4","structured_load","74","random,structured_load,structured_incentive,structured_normal","2,1,3,4,2,3","true","",""
"null","","html-keyboard-response","539","347496","0.0-539.0","","<img src=""img/set2/S4.jpg"" width=""540"" height = ""360"" style=""border:16px solid orange"">","null","","","","","","","",""
"null","","html-keyboard-response","540","347704","0.0-540.0","","","null","","","","","","","",""
"523.4000000357628","","image-keyboard-response","541","348228","0.0-541.0","","img/set2/S4.jpg","74","4","structured_load","74","random,structured_load,structured_incentive,structured_normal","2,1,3,4,2,3","true","",""
"null","","html-keyboard-response","542","348583","0.0-542.0","","<img src=""img/set2/S4.jpg"" width=""540"" height = ""360"" style=""border:16px solid orange"">","null","","","","","","","",""
"null","","html-keyboard-response","543","348791","0.0-543.0","","","null","","","","","","","",""
"844","","image-keyboard-response","544","349636","0.0-544.0","","img/set2/S3.jpg","72","3","structured_load","72","random,structured_load,structured_incentive,structured_normal","2,1,3,4,2,3","true","",""
"null","","html-keyboard-response","545","350001","0.0-545.0","","<img src=""img/set2/S3.jpg"" width=""540"" height = ""360"" style=""border:16px solid orange"">","null","","","","","","","",""
"null","","html-keyboard-response","546","350207","0.0-546.0","","","null","","","","","","","",""
"835.5","","image-keyboard-response","547","351044","0.0-547.0","","img/set2/S4.jpg","74","4","structured_load","74","random,structured_load,structured_incentive,structured_normal","2,1,3,4,2,3","true","",""
"null","","html-keyboard-response","548","351399","0.0-548.0","","<img src=""img/set2/S4.jpg"" width=""540"" height = ""360"" style=""border:16px solid orange"">","null","","","","","","","",""
"null","","html-keyboard-response","549","351603","0.0-549.0","","","null","","","","","","","",""
"991.3000000119209","","image-keyboard-response","550","352596","0.0-550.0","","img/set2/S3.jpg","72","3","structured_load","72","random,structured_load,structured_incentive,structured_normal","2,1,3,4,2,3","true","",""
"null","","html-keyboard-response","551","352953","0.0-551.0","","<img src=""img/set2/S3.jpg"" width=""540"" height = ""360"" style=""border:16px solid orange"">","null","","","","","","","",""
"null","","html-keyboard-response","552","353160","0.0-552.0","","","null","","","","","","","",""
"1283.199999988079","","image-keyboard-response","553","354444","0.0-553.0","","img/set2/S2.jpg","68","2","structured_load","68","random,structured_load,structured_incentive,structured_normal","2,1,3,4,2,3","true","",""
"null","","html-keyboard-response","554","354806","0.0-554.0","","<img src=""img/set2/S2.jpg"" width=""540"" height = ""360"" style=""border:16px solid orange"">","null","","","","","","","",""
"null","","html-keyboard-response","555","355010","0.0-555.0","","","null","","","","","","","",""
"817.1999999880791","","image-keyboard-response","556","355828","0.0-556.0","","img/set2/S1.jpg","83","1","structured_load","83","random,structured_load,structured_incentive,structured_normal","2,1,3,4,2,3","true","",""
"null","","html-keyboard-response","557","356180","0.0-557.0","","<img src=""img/set2/S1.jpg"" width=""540"" height = ""360"" style=""border:16px solid orange"">","null","","","","","","","",""
"null","","html-keyboard-response","558","356388","0.0-558.0","","","null","","","","","","","",""
"1510.699999988079","","image-keyboard-response","559","357900","0.0-559.0","","img/set2/S3.jpg","72","3","structured_load","72","random,structured_load,structured_incentive,structured_normal","2,1,3,4,2,3","true","",""
"null","","html-keyboard-response","560","358258","0.0-560.0","","<img src=""img/set2/S3.jpg"" width=""540"" height = ""360"" style=""border:16px solid orange"">","null","","","","","","","",""
"null","","html-keyboard-response","561","358462","0.0-561.0","","","null","","","","","","","",""
"813","","image-keyboard-response","562","359276","0.0-562.0","","img/set2/S3.jpg","72","3","structured_load","72","random,structured_load,structured_incentive,structured_normal","2,1,3,4,2,3","true","",""
"null","","html-keyboard-response","563","359638","0.0-563.0","","<img src=""img/set2/S3.jpg"" width=""540"" height = ""360"" style=""border:16px solid orange"">","null","","","","","","","",""
"null","","html-keyboard-response","564","359844","0.0-564.0","","","null","","","","","","","",""
"933.1999999880791","","image-keyboard-response","565","360780","0.0-565.0","","img/set2/S2.jpg","68","2","structured_load","68","random,structured_load,structured_incentive,structured_normal","2,1,3,4,2,3","true","",""
"null","","html-keyboard-response","566","361139","0.0-566.0","","<img src=""img/set2/S2.jpg"" width=""540"" height = ""360"" style=""border:16px solid orange"">","null","","","","","","","",""
"null","","html-keyboard-response","567","361356","0.0-567.0","","","null","","","","","","","",""
"863.1999999880791","","image-keyboard-response","568","362220","0.0-568.0","","img/set2/S1.jpg","83","1","structured_load","83","random,structured_load,structured_incentive,structured_normal","2,1,3,4,2,3","true","",""
"null","","html-keyboard-response","569","362571","0.0-569.0","","<img src=""img/set2/S1.jpg"" width=""540"" height = ""360"" style=""border:16px solid orange"">","null","","","","","","","",""
"null","","html-keyboard-response","570","362788","0.0-570.0","","","null","","","","","","","",""
"1222.7999999523163","","image-keyboard-response","571","364012","0.0-571.0","","img/set2/S2.jpg","68","2","structured_load","68","random,structured_load,structured_incentive,structured_normal","2,1,3,4,2,3","true","",""
"null","","html-keyboard-response","572","364378","0.0-572.0","","<img src=""img/set2/S2.jpg"" width=""540"" height = ""360"" style=""border:16px solid orange"">","null","","","","","","","",""
"null","","html-keyboard-response","573","364592","0.0-573.0","","","null","","","","","","","",""
"922.3999999761581","","image-keyboard-response","574","365516","0.0-574.0","","img/set2/S1.jpg","83","1","structured_load","83","random,structured_load,structured_incentive,structured_normal","2,1,3,4,2,3","true","",""
"null","","html-keyboard-response","575","365873","0.0-575.0","","<img src=""img/set2/S1.jpg"" width=""540"" height = ""360"" style=""border:16px solid orange"">","null","","","","","","","",""
"null","","html-keyboard-response","576","366090","0.0-576.0","","","null","","","","","","","",""
"793.6999999880791","","image-keyboard-response","577","366884","0.0-577.0","","img/set2/S3.jpg","72","3","structured_load","72","random,structured_load,structured_incentive,structured_normal","2,1,3,4,2,3","true","",""
"null","","html-keyboard-response","578","367248","0.0-578.0","","<img src=""img/set2/S3.jpg"" width=""540"" height = ""360"" style=""border:16px solid orange"">","null","","","","","","","",""
"null","","html-keyboard-response","579","367450","0.0-579.0","","","null","","","","","","","",""
"793.6999999880791","","image-keyboard-response","580","368245","0.0-580.0","","img/set2/S4.jpg","74","4","structured_load","74","random,structured_load,structured_incentive,structured_normal","2,1,3,4,2,3","true","",""
"null","","html-keyboard-response","581","368598","0.0-581.0","","<img src=""img/set2/S4.jpg"" width=""540"" height = ""360"" style=""border:16px solid orange"">","null","","","","","","","",""
"null","","html-keyboard-response","582","368812","0.0-582.0","","","null","","","","","","","",""
"567.3999999761581","","image-keyboard-response","583","369381","0.0-583.0","","img/set2/S3.jpg","72","3","structured_load","72","random,structured_load,structured_incentive,structured_normal","2,1,3,4,2,3","true","",""
"null","","html-keyboard-response","584","369743","0.0-584.0","","<img src=""img/set2/S3.jpg"" width=""540"" height = ""360"" style=""border:16px solid orange"">","null","","","","","","","",""
"null","","html-keyboard-response","585","369955","0.0-585.0","","","null","","","","","","","",""
"449.19999998807907","","image-keyboard-response","586","370405","0.0-586.0","","img/set2/S3.jpg","72","3","structured_load","72","random,structured_load,structured_incentive,structured_normal","2,1,3,4,2,3","true","",""
"null","","html-keyboard-response","587","370759","0.0-587.0","","<img src=""img/set2/S3.jpg"" width=""540"" height = ""360"" style=""border:16px solid orange"">","null","","","","","","","",""
"null","","html-keyboard-response","588","370975","0.0-588.0","","","null","","","","","","","",""
"1205.5","","image-keyboard-response","589","372181","0.0-589.0","","img/set2/S2.jpg","68","2","structured_load","68","random,structured_load,structured_incentive,structured_normal","2,1,3,4,2,3","true","",""
"null","","html-keyboard-response","590","372539","0.0-590.0","","<img src=""img/set2/S2.jpg"" width=""540"" height = ""360"" style=""border:16px solid orange"">","null","","","","","","","",""
"null","","html-keyboard-response","591","372741","0.0-591.0","","","null","","","","","","","",""
"638.8999999761581","","image-keyboard-response","592","373381","0.0-592.0","","img/set2/S1.jpg","83","1","structured_load","83","random,structured_load,structured_incentive,structured_normal","2,1,3,4,2,3","true","",""
"null","","html-keyboard-response","593","373743","0.0-593.0","","<img src=""img/set2/S1.jpg"" width=""540"" height = ""360"" style=""border:16px solid orange"">","null","","","","","","","",""
"null","","html-keyboard-response","594","373948","0.0-594.0","","","null","","","","","","","",""
"1463.699999988079","","image-keyboard-response","595","375412","0.0-595.0","","img/set2/S3.jpg","72","3","structured_load","72","random,structured_load,structured_incentive,structured_normal","2,1,3,4,2,3","true","",""
"null","","html-keyboard-response","596","375767","0.0-596.0","","<img src=""img/set2/S3.jpg"" width=""540"" height = ""360"" style=""border:16px solid orange"">","null","","","","","","","",""
"null","","html-keyboard-response","597","375970","0.0-597.0","","","null","","","","","","","",""
"737.1999999880791","","image-keyboard-response","598","376708","0.0-598.0","","img/set2/S2.jpg","68","2","structured_load","68","random,structured_load,structured_incentive,structured_normal","2,1,3,4,2,3","true","",""
