"rt","url","trial_type","trial_index","time_elapsed","internal_node_id","assignmentID","mturkID","hitID","view_history","stimulus","key_press","state","test_part","correct_response","order_block","order_chunk","order_freq","correct","responses","question_order","bonus"
"9185","consent.html","external-html","0","9509","0.0-0.0","3OCHAWUVGP6LO7UQ5K37HQRTH0KXK5","AU34T9OMHN4Z4","3URJ6VVYUP9BUCT1SZOT2DFI02L4OC","","","","","","","","","","","","",""
"351858.40000000596","","instructions","1","361368","0.0-1.0","3OCHAWUVGP6LO7UQ5K37HQRTH0KXK5","AU34T9OMHN4Z4","3URJ6VVYUP9BUCT1SZOT2DFI02L4OC","[{""page_index"":0,""viewing_time"":8647.90000000596},{""page_index"":1,""viewing_time"":20700.59999999404},{""page_index"":2,""viewing_time"":17356.70000000298},{""page_index"":3,""viewing_time"":18082.89999999106},{""page_index"":4,""viewing_time"":9981.90000000596},{""page_index"":5,""viewing_time"":243065.40000000596},{""page_index"":6,""viewing_time"":24157.5},{""page_index"":5,""viewing_time"":1169.2999999970198},{""page_index"":4,""viewing_time"":1166.2000000029802},{""page_index"":3,""viewing_time"":3793.5},{""page_index"":4,""viewing_time"":1164.199999988079},{""page_index"":5,""viewing_time"":1125.7000000029802},{""page_index"":6,""viewing_time"":1445.9000000059605}]","","","","","","","","","","","",""
"10326.89999999106","","instructions","2","371696","0.0-2.0","3OCHAWUVGP6LO7UQ5K37HQRTH0KXK5","AU34T9OMHN4Z4","3URJ6VVYUP9BUCT1SZOT2DFI02L4OC","[{""page_index"":0,""viewing_time"":10326.70000000298}]","","","","","","","","","","","",""
"30469.5","","instructions","3","402167","0.0-3.0","3OCHAWUVGP6LO7UQ5K37HQRTH0KXK5","AU34T9OMHN4Z4","3URJ6VVYUP9BUCT1SZOT2DFI02L4OC","[{""page_index"":0,""viewing_time"":26485.59999999404},{""page_index"":1,""viewing_time"":3983.7000000029802}]","","","","","","","","","","","",""
"null","","image-keyboard-response","4","404671","0.0-4.0","3OCHAWUVGP6LO7UQ5K37HQRTH0KXK5","AU34T9OMHN4Z4","3URJ6VVYUP9BUCT1SZOT2DFI02L4OC","","img/set1/S4.jpg","null","4","structured_load","74","structured_load,random,structured_incentive,structured_normal","2,3,4,2,1,2","4,3,1,2","false","","",""
"null","","html-keyboard-response","5","405023","0.0-5.0","3OCHAWUVGP6LO7UQ5K37HQRTH0KXK5","AU34T9OMHN4Z4","3URJ6VVYUP9BUCT1SZOT2DFI02L4OC","","<img src=""img/set1/S4.jpg"" width=""540"" height = ""360"">","null","","","","","","","","","",""
"null","","html-keyboard-response","6","405224","0.0-6.0","3OCHAWUVGP6LO7UQ5K37HQRTH0KXK5","AU34T9OMHN4Z4","3URJ6VVYUP9BUCT1SZOT2DFI02L4OC","","","null","","","","","","","","","",""
"897.0999999940395","","image-keyboard-response","7","406123","0.0-7.0","3OCHAWUVGP6LO7UQ5K37HQRTH0KXK5","AU34T9OMHN4Z4","3URJ6VVYUP9BUCT1SZOT2DFI02L4OC","","img/set1/S2.jpg","72","2","structured_load","68","structured_load,random,structured_incentive,structured_normal","2,3,4,2,1,2","4,3,1,2","false","","",""
"null","","html-keyboard-response","8","406478","0.0-8.0","3OCHAWUVGP6LO7UQ5K37HQRTH0KXK5","AU34T9OMHN4Z4","3URJ6VVYUP9BUCT1SZOT2DFI02L4OC","","<img src=""img/set1/S2.jpg"" width=""540"" height = ""360"">","null","","","","","","","","","",""
"null","","html-keyboard-response","9","406680","0.0-9.0","3OCHAWUVGP6LO7UQ5K37HQRTH0KXK5","AU34T9OMHN4Z4","3URJ6VVYUP9BUCT1SZOT2DFI02L4OC","","","null","","","","","","","","","",""
"880.7999999970198","","image-keyboard-response","10","407562","0.0-10.0","3OCHAWUVGP6LO7UQ5K37HQRTH0KXK5","AU34T9OMHN4Z4","3URJ6VVYUP9BUCT1SZOT2DFI02L4OC","","img/set1/S3.jpg","74","3","structured_load","72","structured_load,random,structured_incentive,structured_normal","2,3,4,2,1,2","4,3,1,2","false","","",""
"null","","html-keyboard-response","11","407914","0.0-11.0","3OCHAWUVGP6LO7UQ5K37HQRTH0KXK5","AU34T9OMHN4Z4","3URJ6VVYUP9BUCT1SZOT2DFI02L4OC","","<img src=""img/set1/S3.jpg"" width=""540"" height = ""360"">","null","","","","","","","","","",""
"null","","html-keyboard-response","12","408115","0.0-12.0","3OCHAWUVGP6LO7UQ5K37HQRTH0KXK5","AU34T9OMHN4Z4","3URJ6VVYUP9BUCT1SZOT2DFI02L4OC","","","null","","","","","","","","","",""
"390.1000000089407","","image-keyboard-response","13","408506","0.0-13.0","3OCHAWUVGP6LO7UQ5K37HQRTH0KXK5","AU34T9OMHN4Z4","3URJ6VVYUP9BUCT1SZOT2DFI02L4OC","","img/set1/S1.jpg","83","1","structured_load","83","structured_load,random,structured_incentive,structured_normal","2,3,4,2,1,2","4,3,1,2","true","","",""
"null","","html-keyboard-response","14","408863","0.0-14.0","3OCHAWUVGP6LO7UQ5K37HQRTH0KXK5","AU34T9OMHN4Z4","3URJ6VVYUP9BUCT1SZOT2DFI02L4OC","","<img src=""img/set1/S1.jpg"" width=""540"" height = ""360"" style=""border:16px solid orange"">","null","","","","","","","","","",""
"null","","html-keyboard-response","15","409068","0.0-15.0","3OCHAWUVGP6LO7UQ5K37HQRTH0KXK5","AU34T9OMHN4Z4","3URJ6VVYUP9BUCT1SZOT2DFI02L4OC","","","null","","","","","","","","","",""
"597.4000000059605","","image-keyboard-response","16","409666","0.0-16.0","3OCHAWUVGP6LO7UQ5K37HQRTH0KXK5","AU34T9OMHN4Z4","3URJ6VVYUP9BUCT1SZOT2DFI02L4OC","","img/set1/S4.jpg","83","4","structured_load","74","structured_load,random,structured_incentive,structured_normal","2,3,4,2,1,2","4,3,1,2","false","","",""
"null","","html-keyboard-response","17","410017","0.0-17.0","3OCHAWUVGP6LO7UQ5K37HQRTH0KXK5","AU34T9OMHN4Z4","3URJ6VVYUP9BUCT1SZOT2DFI02L4OC","","<img src=""img/set1/S4.jpg"" width=""540"" height = ""360"">","null","","","","","","","","","",""
"null","","html-keyboard-response","18","410220","0.0-18.0","3OCHAWUVGP6LO7UQ5K37HQRTH0KXK5","AU34T9OMHN4Z4","3URJ6VVYUP9BUCT1SZOT2DFI02L4OC","","","null","","","","","","","","","",""
"676.2999999970198","","image-keyboard-response","19","410898","0.0-19.0","3OCHAWUVGP6LO7UQ5K37HQRTH0KXK5","AU34T9OMHN4Z4","3URJ6VVYUP9BUCT1SZOT2DFI02L4OC","","img/set1/S4.jpg","83","4","structured_load","74","structured_load,random,structured_incentive,structured_normal","2,3,4,2,1,2","4,3,1,2","false","","",""
"null","","html-keyboard-response","20","411250","0.0-20.0","3OCHAWUVGP6LO7UQ5K37HQRTH0KXK5","AU34T9OMHN4Z4","3URJ6VVYUP9BUCT1SZOT2DFI02L4OC","","<img src=""img/set1/S4.jpg"" width=""540"" height = ""360"">","null","","","","","","","","","",""
"null","","html-keyboard-response","21","411452","0.0-21.0","3OCHAWUVGP6LO7UQ5K37HQRTH0KXK5","AU34T9OMHN4Z4","3URJ6VVYUP9BUCT1SZOT2DFI02L4OC","","","null","","","","","","","","","",""
"524.9000000059605","","image-keyboard-response","22","411978","0.0-22.0","3OCHAWUVGP6LO7UQ5K37HQRTH0KXK5","AU34T9OMHN4Z4","3URJ6VVYUP9BUCT1SZOT2DFI02L4OC","","img/set1/S2.jpg","72","2","structured_load","68","structured_load,random,structured_incentive,structured_normal","2,3,4,2,1,2","4,3,1,2","false","","",""
"null","","html-keyboard-response","23","412330","0.0-23.0","3OCHAWUVGP6LO7UQ5K37HQRTH0KXK5","AU34T9OMHN4Z4","3URJ6VVYUP9BUCT1SZOT2DFI02L4OC","","<img src=""img/set1/S2.jpg"" width=""540"" height = ""360"">","null","","","","","","","","","",""
"null","","html-keyboard-response","24","412532","0.0-24.0","3OCHAWUVGP6LO7UQ5K37HQRTH0KXK5","AU34T9OMHN4Z4","3URJ6VVYUP9BUCT1SZOT2DFI02L4OC","","","null","","","","","","","","","",""
"437.29999999701977","","image-keyboard-response","25","412970","0.0-25.0","3OCHAWUVGP6LO7UQ5K37HQRTH0KXK5","AU34T9OMHN4Z4","3URJ6VVYUP9BUCT1SZOT2DFI02L4OC","","img/set1/S3.jpg","74","3","structured_load","72","structured_load,random,structured_incentive,structured_normal","2,3,4,2,1,2","4,3,1,2","false","","",""
"null","","html-keyboard-response","26","413321","0.0-26.0","3OCHAWUVGP6LO7UQ5K37HQRTH0KXK5","AU34T9OMHN4Z4","3URJ6VVYUP9BUCT1SZOT2DFI02L4OC","","<img src=""img/set1/S3.jpg"" width=""540"" height = ""360"">","null","","","","","","","","","",""
"null","","html-keyboard-response","27","413523","0.0-27.0","3OCHAWUVGP6LO7UQ5K37HQRTH0KXK5","AU34T9OMHN4Z4","3URJ6VVYUP9BUCT1SZOT2DFI02L4OC","","","null","","","","","","","","","",""
"390.29999999701977","","image-keyboard-response","28","413914","0.0-28.0","3OCHAWUVGP6LO7UQ5K37HQRTH0KXK5","AU34T9OMHN4Z4","3URJ6VVYUP9BUCT1SZOT2DFI02L4OC","","img/set1/S2.jpg","68","2","structured_load","68","structured_load,random,structured_incentive,structured_normal","2,3,4,2,1,2","4,3,1,2","true","","",""
"null","","html-keyboard-response","29","414266","0.0-29.0","3OCHAWUVGP6LO7UQ5K37HQRTH0KXK5","AU34T9OMHN4Z4","3URJ6VVYUP9BUCT1SZOT2DFI02L4OC","","<img src=""img/set1/S2.jpg"" width=""540"" height = ""360"" style=""border:16px solid orange"">","null","","","","","","","","","",""
"null","","html-keyboard-response","30","414474","0.0-30.0","3OCHAWUVGP6LO7UQ5K37HQRTH0KXK5","AU34T9OMHN4Z4","3URJ6VVYUP9BUCT1SZOT2DFI02L4OC","","","null","","","","","","","","","",""
"862.7999999970198","","image-keyboard-response","31","415338","0.0-31.0","3OCHAWUVGP6LO7UQ5K37HQRTH0KXK5","AU34T9OMHN4Z4","3URJ6VVYUP9BUCT1SZOT2DFI02L4OC","","img/set1/S4.jpg","83","4","structured_load","74","structured_load,random,structured_incentive,structured_normal","2,3,4,2,1,2","4,3,1,2","false","","",""
"null","","html-keyboard-response","32","415690","0.0-32.0","3OCHAWUVGP6LO7UQ5K37HQRTH0KXK5","AU34T9OMHN4Z4","3URJ6VVYUP9BUCT1SZOT2DFI02L4OC","","<img src=""img/set1/S4.jpg"" width=""540"" height = ""360"">","null","","","","","","","","","",""
"null","","html-keyboard-response","33","415892","0.0-33.0","3OCHAWUVGP6LO7UQ5K37HQRTH0KXK5","AU34T9OMHN4Z4","3URJ6VVYUP9BUCT1SZOT2DFI02L4OC","","","null","","","","","","","","","",""
"420.69999998807907","","image-keyboard-response","34","416314","0.0-34.0","3OCHAWUVGP6LO7UQ5K37HQRTH0KXK5","AU34T9OMHN4Z4","3URJ6VVYUP9BUCT1SZOT2DFI02L4OC","","img/set1/S2.jpg","68","2","structured_load","68","structured_load,random,structured_incentive,structured_normal","2,3,4,2,1,2","4,3,1,2","true","","",""
"null","","html-keyboard-response","35","416665","0.0-35.0","3OCHAWUVGP6LO7UQ5K37HQRTH0KXK5","AU34T9OMHN4Z4","3URJ6VVYUP9BUCT1SZOT2DFI02L4OC","","<img src=""img/set1/S2.jpg"" width=""540"" height = ""360"" style=""border:16px solid orange"">","null","","","","","","","","","",""
"null","","html-keyboard-response","36","416867","0.0-36.0","3OCHAWUVGP6LO7UQ5K37HQRTH0KXK5","AU34T9OMHN4Z4","3URJ6VVYUP9BUCT1SZOT2DFI02L4OC","","","null","","","","","","","","","",""
"598.1999999880791","","image-keyboard-response","37","417466","0.0-37.0","3OCHAWUVGP6LO7UQ5K37HQRTH0KXK5","AU34T9OMHN4Z4","3URJ6VVYUP9BUCT1SZOT2DFI02L4OC","","img/set1/S3.jpg","72","3","structured_load","72","structured_load,random,structured_incentive,structured_normal","2,3,4,2,1,2","4,3,1,2","true","","",""
"null","","html-keyboard-response","38","417818","0.0-38.0","3OCHAWUVGP6LO7UQ5K37HQRTH0KXK5","AU34T9OMHN4Z4","3URJ6VVYUP9BUCT1SZOT2DFI02L4OC","","<img src=""img/set1/S3.jpg"" width=""540"" height = ""360"" style=""border:16px solid orange"">","null","","","","","","","","","",""
"null","","html-keyboard-response","39","418020","0.0-39.0","3OCHAWUVGP6LO7UQ5K37HQRTH0KXK5","AU34T9OMHN4Z4","3URJ6VVYUP9BUCT1SZOT2DFI02L4OC","","","null","","","","","","","","","",""
"901.2000000029802","","image-keyboard-response","40","418922","0.0-40.0","3OCHAWUVGP6LO7UQ5K37HQRTH0KXK5","AU34T9OMHN4Z4","3URJ6VVYUP9BUCT1SZOT2DFI02L4OC","","img/set1/S4.jpg","83","4","structured_load","74","structured_load,random,structured_incentive,structured_normal","2,3,4,2,1,2","4,3,1,2","false","","",""
"null","","html-keyboard-response","41","419274","0.0-41.0","3OCHAWUVGP6LO7UQ5K37HQRTH0KXK5","AU34T9OMHN4Z4","3URJ6VVYUP9BUCT1SZOT2DFI02L4OC","","<img src=""img/set1/S4.jpg"" width=""540"" height = ""360"">","null","","","","","","","","","",""
"null","","html-keyboard-response","42","419476","0.0-42.0","3OCHAWUVGP6LO7UQ5K37HQRTH0KXK5","AU34T9OMHN4Z4","3URJ6VVYUP9BUCT1SZOT2DFI02L4OC","","","null","","","","","","","","","",""
"852.7000000029802","","image-keyboard-response","43","420330","0.0-43.0","3OCHAWUVGP6LO7UQ5K37HQRTH0KXK5","AU34T9OMHN4Z4","3URJ6VVYUP9BUCT1SZOT2DFI02L4OC","","img/set1/S2.jpg","72","2","structured_load","68","structured_load,random,structured_incentive,structured_normal","2,3,4,2,1,2","4,3,1,2","false","","",""
"null","","html-keyboard-response","44","420681","0.0-44.0","3OCHAWUVGP6LO7UQ5K37HQRTH0KXK5","AU34T9OMHN4Z4","3URJ6VVYUP9BUCT1SZOT2DFI02L4OC","","<img src=""img/set1/S2.jpg"" width=""540"" height = ""360"">","null","","","","","","","","","",""
"null","","html-keyboard-response","45","420883","0.0-45.0","3OCHAWUVGP6LO7UQ5K37HQRTH0KXK5","AU34T9OMHN4Z4","3URJ6VVYUP9BUCT1SZOT2DFI02L4OC","","","null","","","","","","","","","",""
"477.8999999910593","","image-keyboard-response","46","421362","0.0-46.0","3OCHAWUVGP6LO7UQ5K37HQRTH0KXK5","AU34T9OMHN4Z4","3URJ6VVYUP9BUCT1SZOT2DFI02L4OC","","img/set1/S3.jpg","74","3","structured_load","72","structured_load,random,structured_incentive,structured_normal","2,3,4,2,1,2","4,3,1,2","false","","",""
"null","","html-keyboard-response","47","421714","0.0-47.0","3OCHAWUVGP6LO7UQ5K37HQRTH0KXK5","AU34T9OMHN4Z4","3URJ6VVYUP9BUCT1SZOT2DFI02L4OC","","<img src=""img/set1/S3.jpg"" width=""540"" height = ""360"">","null","","","","","","","","","",""
"null","","html-keyboard-response","48","421916","0.0-48.0","3OCHAWUVGP6LO7UQ5K37HQRTH0KXK5","AU34T9OMHN4Z4","3URJ6VVYUP9BUCT1SZOT2DFI02L4OC","","","null","","","","","","","","","",""
"405","","image-keyboard-response","49","422322","0.0-49.0","3OCHAWUVGP6LO7UQ5K37HQRTH0KXK5","AU34T9OMHN4Z4","3URJ6VVYUP9BUCT1SZOT2DFI02L4OC","","img/set1/S4.jpg","68","4","structured_load","74","structured_load,random,structured_incentive,structured_normal","2,3,4,2,1,2","4,3,1,2","false","","",""
"null","","html-keyboard-response","50","422675","0.0-50.0","3OCHAWUVGP6LO7UQ5K37HQRTH0KXK5","AU34T9OMHN4Z4","3URJ6VVYUP9BUCT1SZOT2DFI02L4OC","","<img src=""img/set1/S4.jpg"" width=""540"" height = ""360"">","null","","","","","","","","","",""
"null","","html-keyboard-response","51","422877","0.0-51.0","3OCHAWUVGP6LO7UQ5K37HQRTH0KXK5","AU34T9OMHN4Z4","3URJ6VVYUP9BUCT1SZOT2DFI02L4OC","","","null","","","","","","","","","",""
"723.7999999970198","","image-keyboard-response","52","423602","0.0-52.0","3OCHAWUVGP6LO7UQ5K37HQRTH0KXK5","AU34T9OMHN4Z4","3URJ6VVYUP9BUCT1SZOT2DFI02L4OC","","img/set1/S1.jpg","72","1","structured_load","83","structured_load,random,structured_incentive,structured_normal","2,3,4,2,1,2","4,3,1,2","false","","",""
"null","","html-keyboard-response","53","423954","0.0-53.0","3OCHAWUVGP6LO7UQ5K37HQRTH0KXK5","AU34T9OMHN4Z4","3URJ6VVYUP9BUCT1SZOT2DFI02L4OC","","<img src=""img/set1/S1.jpg"" width=""540"" height = ""360"">","null","","","","","","","","","",""
"null","","html-keyboard-response","54","424157","0.0-54.0","3OCHAWUVGP6LO7UQ5K37HQRTH0KXK5","AU34T9OMHN4Z4","3URJ6VVYUP9BUCT1SZOT2DFI02L4OC","","","null","","","","","","","","","",""
"436.19999998807907","","image-keyboard-response","55","424594","0.0-55.0","3OCHAWUVGP6LO7UQ5K37HQRTH0KXK5","AU34T9OMHN4Z4","3URJ6VVYUP9BUCT1SZOT2DFI02L4OC","","img/set1/S3.jpg","83","3","structured_load","72","structured_load,random,structured_incentive,structured_normal","2,3,4,2,1,2","4,3,1,2","false","","",""
"null","","html-keyboard-response","56","424946","0.0-56.0","3OCHAWUVGP6LO7UQ5K37HQRTH0KXK5","AU34T9OMHN4Z4","3URJ6VVYUP9BUCT1SZOT2DFI02L4OC","","<img src=""img/set1/S3.jpg"" width=""540"" height = ""360"">","null","","","","","","","","","",""
"null","","html-keyboard-response","57","425147","0.0-57.0","3OCHAWUVGP6LO7UQ5K37HQRTH0KXK5","AU34T9OMHN4Z4","3URJ6VVYUP9BUCT1SZOT2DFI02L4OC","","","null","","","","","","","","","",""
"602.7999999970198","","image-keyboard-response","58","425751","0.0-58.0","3OCHAWUVGP6LO7UQ5K37HQRTH0KXK5","AU34T9OMHN4Z4","3URJ6VVYUP9BUCT1SZOT2DFI02L4OC","","img/set1/S1.jpg","68","1","structured_load","83","structured_load,random,structured_incentive,structured_normal","2,3,4,2,1,2","4,3,1,2","false","","",""
"null","","html-keyboard-response","59","426103","0.0-59.0","3OCHAWUVGP6LO7UQ5K37HQRTH0KXK5","AU34T9OMHN4Z4","3URJ6VVYUP9BUCT1SZOT2DFI02L4OC","","<img src=""img/set1/S1.jpg"" width=""540"" height = ""360"">","null","","","","","","","","","",""
"null","","html-keyboard-response","60","426304","0.0-60.0","3OCHAWUVGP6LO7UQ5K37HQRTH0KXK5","AU34T9OMHN4Z4","3URJ6VVYUP9BUCT1SZOT2DFI02L4OC","","","null","","","","","","","","","",""
"577.3000000119209","","image-keyboard-response","61","426882","0.0-61.0","3OCHAWUVGP6LO7UQ5K37HQRTH0KXK5","AU34T9OMHN4Z4","3URJ6VVYUP9BUCT1SZOT2DFI02L4OC","","img/set1/S4.jpg","72","4","structured_load","74","structured_load,random,structured_incentive,structured_normal","2,3,4,2,1,2","4,3,1,2","false","","",""
"null","","html-keyboard-response","62","427234","0.0-62.0","3OCHAWUVGP6LO7UQ5K37HQRTH0KXK5","AU34T9OMHN4Z4","3URJ6VVYUP9BUCT1SZOT2DFI02L4OC","","<img src=""img/set1/S4.jpg"" width=""540"" height = ""360"">","null","","","","","","","","","",""
"null","","html-keyboard-response","63","427436","0.0-63.0","3OCHAWUVGP6LO7UQ5K37HQRTH0KXK5","AU34T9OMHN4Z4","3URJ6VVYUP9BUCT1SZOT2DFI02L4OC","","","null","","","","","","","","","",""
"493.20000000298023","","image-keyboard-response","64","427930","0.0-64.0","3OCHAWUVGP6LO7UQ5K37HQRTH0KXK5","AU34T9OMHN4Z4","3URJ6VVYUP9BUCT1SZOT2DFI02L4OC","","img/set1/S1.jpg","74","1","structured_load","83","structured_load,random,structured_incentive,structured_normal","2,3,4,2,1,2","4,3,1,2","false","","",""
"null","","html-keyboard-response","65","428281","0.0-65.0","3OCHAWUVGP6LO7UQ5K37HQRTH0KXK5","AU34T9OMHN4Z4","3URJ6VVYUP9BUCT1SZOT2DFI02L4OC","","<img src=""img/set1/S1.jpg"" width=""540"" height = ""360"">","null","","","","","","","","","",""
"null","","html-keyboard-response","66","428482","0.0-66.0","3OCHAWUVGP6LO7UQ5K37HQRTH0KXK5","AU34T9OMHN4Z4","3URJ6VVYUP9BUCT1SZOT2DFI02L4OC","","","null","","","","","","","","","",""
"559.5","","image-keyboard-response","67","429042","0.0-67.0","3OCHAWUVGP6LO7UQ5K37HQRTH0KXK5","AU34T9OMHN4Z4","3URJ6VVYUP9BUCT1SZOT2DFI02L4OC","","img/set1/S1.jpg","68","1","structured_load","83","structured_load,random,structured_incentive,structured_normal","2,3,4,2,1,2","4,3,1,2","false","","",""
"null","","html-keyboard-response","68","429394","0.0-68.0","3OCHAWUVGP6LO7UQ5K37HQRTH0KXK5","AU34T9OMHN4Z4","3URJ6VVYUP9BUCT1SZOT2DFI02L4OC","","<img src=""img/set1/S1.jpg"" width=""540"" height = ""360"">","null","","","","","","","","","",""
"null","","html-keyboard-response","69","429596","0.0-69.0","3OCHAWUVGP6LO7UQ5K37HQRTH0KXK5","AU34T9OMHN4Z4","3URJ6VVYUP9BUCT1SZOT2DFI02L4OC","","","null","","","","","","","","","",""
"517","","image-keyboard-response","70","430114","0.0-70.0","3OCHAWUVGP6LO7UQ5K37HQRTH0KXK5","AU34T9OMHN4Z4","3URJ6VVYUP9BUCT1SZOT2DFI02L4OC","","img/set1/S4.jpg","72","4","structured_load","74","structured_load,random,structured_incentive,structured_normal","2,3,4,2,1,2","4,3,1,2","false","","",""
"null","","html-keyboard-response","71","430464","0.0-71.0","3OCHAWUVGP6LO7UQ5K37HQRTH0KXK5","AU34T9OMHN4Z4","3URJ6VVYUP9BUCT1SZOT2DFI02L4OC","","<img src=""img/set1/S4.jpg"" width=""540"" height = ""360"">","null","","","","","","","","","",""
"null","","html-keyboard-response","72","430667","0.0-72.0","3OCHAWUVGP6LO7UQ5K37HQRTH0KXK5","AU34T9OMHN4Z4","3URJ6VVYUP9BUCT1SZOT2DFI02L4OC","","","null","","","","","","","","","",""
"614.2000000029802","","image-keyboard-response","73","431282","0.0-73.0","3OCHAWUVGP6LO7UQ5K37HQRTH0KXK5","AU34T9OMHN4Z4","3URJ6VVYUP9BUCT1SZOT2DFI02L4OC","","img/set1/S2.jpg","74","2","structured_load","68","structured_load,random,structured_incentive,structured_normal","2,3,4,2,1,2","4,3,1,2","false","","",""
"null","","html-keyboard-response","74","431633","0.0-74.0","3OCHAWUVGP6LO7UQ5K37HQRTH0KXK5","AU34T9OMHN4Z4","3URJ6VVYUP9BUCT1SZOT2DFI02L4OC","","<img src=""img/set1/S2.jpg"" width=""540"" height = ""360"">","null","","","","","","","","","",""
"null","","html-keyboard-response","75","431834","0.0-75.0","3OCHAWUVGP6LO7UQ5K37HQRTH0KXK5","AU34T9OMHN4Z4","3URJ6VVYUP9BUCT1SZOT2DFI02L4OC","","","null","","","","","","","","","",""
"607.9000000059605","","image-keyboard-response","76","432442","0.0-76.0","3OCHAWUVGP6LO7UQ5K37HQRTH0KXK5","AU34T9OMHN4Z4","3URJ6VVYUP9BUCT1SZOT2DFI02L4OC","","img/set1/S3.jpg","83","3","structured_load","72","structured_load,random,structured_incentive,structured_normal","2,3,4,2,1,2","4,3,1,2","false","","",""
"null","","html-keyboard-response","77","432795","0.0-77.0","3OCHAWUVGP6LO7UQ5K37HQRTH0KXK5","AU34T9OMHN4Z4","3URJ6VVYUP9BUCT1SZOT2DFI02L4OC","","<img src=""img/set1/S3.jpg"" width=""540"" height = ""360"">","null","","","","","","","","","",""
"null","","html-keyboard-response","78","432997","0.0-78.0","3OCHAWUVGP6LO7UQ5K37HQRTH0KXK5","AU34T9OMHN4Z4","3URJ6VVYUP9BUCT1SZOT2DFI02L4OC","","","null","","","","","","","","","",""
"564","","image-keyboard-response","79","433562","0.0-79.0","3OCHAWUVGP6LO7UQ5K37HQRTH0KXK5","AU34T9OMHN4Z4","3URJ6VVYUP9BUCT1SZOT2DFI02L4OC","","img/set1/S2.jpg","68","2","structured_load","68","structured_load,random,structured_incentive,structured_normal","2,3,4,2,1,2","4,3,1,2","true","","",""
"null","","html-keyboard-response","80","433927","0.0-80.0","3OCHAWUVGP6LO7UQ5K37HQRTH0KXK5","AU34T9OMHN4Z4","3URJ6VVYUP9BUCT1SZOT2DFI02L4OC","","<img src=""img/set1/S2.jpg"" width=""540"" height = ""360"" style=""border:16px solid orange"">","null","","","","","","","","","",""
"null","","html-keyboard-response","81","434129","0.0-81.0","3OCHAWUVGP6LO7UQ5K37HQRTH0KXK5","AU34T9OMHN4Z4","3URJ6VVYUP9BUCT1SZOT2DFI02L4OC","","","null","","","","","","","","","",""
"615.6000000089407","","image-keyboard-response","82","434746","0.0-82.0","3OCHAWUVGP6LO7UQ5K37HQRTH0KXK5","AU34T9OMHN4Z4","3URJ6VVYUP9BUCT1SZOT2DFI02L4OC","","img/set1/S3.jpg","72","3","structured_load","72","structured_load,random,structured_incentive,structured_normal","2,3,4,2,1,2","4,3,1,2","true","","",""
"null","","html-keyboard-response","83","435098","0.0-83.0","3OCHAWUVGP6LO7UQ5K37HQRTH0KXK5","AU34T9OMHN4Z4","3URJ6VVYUP9BUCT1SZOT2DFI02L4OC","","<img src=""img/set1/S3.jpg"" width=""540"" height = ""360"" style=""border:16px solid orange"">","null","","","","","","","","","",""
"null","","html-keyboard-response","84","435299","0.0-84.0","3OCHAWUVGP6LO7UQ5K37HQRTH0KXK5","AU34T9OMHN4Z4","3URJ6VVYUP9BUCT1SZOT2DFI02L4OC","","","null","","","","","","","","","",""
"780.2999999970198","","image-keyboard-response","85","436080","0.0-85.0","3OCHAWUVGP6LO7UQ5K37HQRTH0KXK5","AU34T9OMHN4Z4","3URJ6VVYUP9BUCT1SZOT2DFI02L4OC","","img/set1/S1.jpg","74","1","structured_load","83","structured_load,random,structured_incentive,structured_normal","2,3,4,2,1,2","4,3,1,2","false","","",""
"null","","html-keyboard-response","86","436432","0.0-86.0","3OCHAWUVGP6LO7UQ5K37HQRTH0KXK5","AU34T9OMHN4Z4","3URJ6VVYUP9BUCT1SZOT2DFI02L4OC","","<img src=""img/set1/S1.jpg"" width=""540"" height = ""360"">","null","","","","","","","","","",""
"null","","html-keyboard-response","87","436633","0.0-87.0","3OCHAWUVGP6LO7UQ5K37HQRTH0KXK5","AU34T9OMHN4Z4","3URJ6VVYUP9BUCT1SZOT2DFI02L4OC","","","null","","","","","","","","","",""
"767.7000000029802","","image-keyboard-response","88","437402","0.0-88.0","3OCHAWUVGP6LO7UQ5K37HQRTH0KXK5","AU34T9OMHN4Z4","3URJ6VVYUP9BUCT1SZOT2DFI02L4OC","","img/set1/S3.jpg","68","3","structured_load","72","structured_load,random,structured_incentive,structured_normal","2,3,4,2,1,2","4,3,1,2","false","","",""
"null","","html-keyboard-response","89","437754","0.0-89.0","3OCHAWUVGP6LO7UQ5K37HQRTH0KXK5","AU34T9OMHN4Z4","3URJ6VVYUP9BUCT1SZOT2DFI02L4OC","","<img src=""img/set1/S3.jpg"" width=""540"" height = ""360"">","null","","","","","","","","","",""
"null","","html-keyboard-response","90","437957","0.0-90.0","3OCHAWUVGP6LO7UQ5K37HQRTH0KXK5","AU34T9OMHN4Z4","3URJ6VVYUP9BUCT1SZOT2DFI02L4OC","","","null","","","","","","","","","",""
"803.5999999940395","","image-keyboard-response","91","438762","0.0-91.0","3OCHAWUVGP6LO7UQ5K37HQRTH0KXK5","AU34T9OMHN4Z4","3URJ6VVYUP9BUCT1SZOT2DFI02L4OC","","img/set1/S4.jpg","72","4","structured_load","74","structured_load,random,structured_incentive,structured_normal","2,3,4,2,1,2","4,3,1,2","false","","",""
"null","","html-keyboard-response","92","439114","0.0-92.0","3OCHAWUVGP6LO7UQ5K37HQRTH0KXK5","AU34T9OMHN4Z4","3URJ6VVYUP9BUCT1SZOT2DFI02L4OC","","<img src=""img/set1/S4.jpg"" width=""540"" height = ""360"">","null","","","","","","","","","",""
"null","","html-keyboard-response","93","439316","0.0-93.0","3OCHAWUVGP6LO7UQ5K37HQRTH0KXK5","AU34T9OMHN4Z4","3URJ6VVYUP9BUCT1SZOT2DFI02L4OC","","","null","","","","","","","","","",""
"477.40000000596046","","image-keyboard-response","94","439794","0.0-94.0","3OCHAWUVGP6LO7UQ5K37HQRTH0KXK5","AU34T9OMHN4Z4","3URJ6VVYUP9BUCT1SZOT2DFI02L4OC","","img/set1/S2.jpg","83","2","structured_load","68","structured_load,random,structured_incentive,structured_normal","2,3,4,2,1,2","4,3,1,2","false","","",""
"null","","html-keyboard-response","95","440146","0.0-95.0","3OCHAWUVGP6LO7UQ5K37HQRTH0KXK5","AU34T9OMHN4Z4","3URJ6VVYUP9BUCT1SZOT2DFI02L4OC","","<img src=""img/set1/S2.jpg"" width=""540"" height = ""360"">","null","","","","","","","","","",""
"null","","html-keyboard-response","96","440348","0.0-96.0","3OCHAWUVGP6LO7UQ5K37HQRTH0KXK5","AU34T9OMHN4Z4","3URJ6VVYUP9BUCT1SZOT2DFI02L4OC","","","null","","","","","","","","","",""
"613.5","","image-keyboard-response","97","440962","0.0-97.0","3OCHAWUVGP6LO7UQ5K37HQRTH0KXK5","AU34T9OMHN4Z4","3URJ6VVYUP9BUCT1SZOT2DFI02L4OC","","img/set1/S4.jpg","68","4","structured_load","74","structured_load,random,structured_incentive,structured_normal","2,3,4,2,1,2","4,3,1,2","false","","",""
"null","","html-keyboard-response","98","441315","0.0-98.0","3OCHAWUVGP6LO7UQ5K37HQRTH0KXK5","AU34T9OMHN4Z4","3URJ6VVYUP9BUCT1SZOT2DFI02L4OC","","<img src=""img/set1/S4.jpg"" width=""540"" height = ""360"">","null","","","","","","","","","",""
"null","","html-keyboard-response","99","441517","0.0-99.0","3OCHAWUVGP6LO7UQ5K37HQRTH0KXK5","AU34T9OMHN4Z4","3URJ6VVYUP9BUCT1SZOT2DFI02L4OC","","","null","","","","","","","","","",""
"340.8999999910593","","image-keyboard-response","100","441858","0.0-100.0","3OCHAWUVGP6LO7UQ5K37HQRTH0KXK5","AU34T9OMHN4Z4","3URJ6VVYUP9BUCT1SZOT2DFI02L4OC","","img/set1/S4.jpg","72","4","structured_load","74","structured_load,random,structured_incentive,structured_normal","2,3,4,2,1,2","4,3,1,2","false","","",""
"null","","html-keyboard-response","101","442211","0.0-101.0","3OCHAWUVGP6LO7UQ5K37HQRTH0KXK5","AU34T9OMHN4Z4","3URJ6VVYUP9BUCT1SZOT2DFI02L4OC","","<img src=""img/set1/S4.jpg"" width=""540"" height = ""360"">","null","","","","","","","","","",""
"null","","html-keyboard-response","102","442412","0.0-102.0","3OCHAWUVGP6LO7UQ5K37HQRTH0KXK5","AU34T9OMHN4Z4","3URJ6VVYUP9BUCT1SZOT2DFI02L4OC","","","null","","","","","","","","","",""
"324.40000000596046","","image-keyboard-response","103","442738","0.0-103.0","3OCHAWUVGP6LO7UQ5K37HQRTH0KXK5","AU34T9OMHN4Z4","3URJ6VVYUP9BUCT1SZOT2DFI02L4OC","","img/set1/S2.jpg","74","2","structured_load","68","structured_load,random,structured_incentive,structured_normal","2,3,4,2,1,2","4,3,1,2","false","","",""
"null","","html-keyboard-response","104","443090","0.0-104.0","3OCHAWUVGP6LO7UQ5K37HQRTH0KXK5","AU34T9OMHN4Z4","3URJ6VVYUP9BUCT1SZOT2DFI02L4OC","","<img src=""img/set1/S2.jpg"" width=""540"" height = ""360"">","null","","","","","","","","","",""
"null","","html-keyboard-response","105","443293","0.0-105.0","3OCHAWUVGP6LO7UQ5K37HQRTH0KXK5","AU34T9OMHN4Z4","3URJ6VVYUP9BUCT1SZOT2DFI02L4OC","","","null","","","","","","","","","",""
"227.70000000298023","","image-keyboard-response","106","443522","0.0-106.0","3OCHAWUVGP6LO7UQ5K37HQRTH0KXK5","AU34T9OMHN4Z4","3URJ6VVYUP9BUCT1SZOT2DFI02L4OC","","img/set1/S3.jpg","68","3","structured_load","72","structured_load,random,structured_incentive,structured_normal","2,3,4,2,1,2","4,3,1,2","false","","",""
"null","","html-keyboard-response","107","443873","0.0-107.0","3OCHAWUVGP6LO7UQ5K37HQRTH0KXK5","AU34T9OMHN4Z4","3URJ6VVYUP9BUCT1SZOT2DFI02L4OC","","<img src=""img/set1/S3.jpg"" width=""540"" height = ""360"">","null","","","","","","","","","",""
"null","","html-keyboard-response","108","444075","0.0-108.0","3OCHAWUVGP6LO7UQ5K37HQRTH0KXK5","AU34T9OMHN4Z4","3URJ6VVYUP9BUCT1SZOT2DFI02L4OC","","","null","","","","","","","","","",""
"174.5","","image-keyboard-response","109","444250","0.0-109.0","3OCHAWUVGP6LO7UQ5K37HQRTH0KXK5","AU34T9OMHN4Z4","3URJ6VVYUP9BUCT1SZOT2DFI02L4OC","","img/set1/S4.jpg","72","4","structured_load","74","structured_load,random,structured_incentive,structured_normal","2,3,4,2,1,2","4,3,1,2","false","","",""
"null","","html-keyboard-response","110","444602","0.0-110.0","3OCHAWUVGP6LO7UQ5K37HQRTH0KXK5","AU34T9OMHN4Z4","3URJ6VVYUP9BUCT1SZOT2DFI02L4OC","","<img src=""img/set1/S4.jpg"" width=""540"" height = ""360"">","null","","","","","","","","","",""
"null","","html-keyboard-response","111","444804","0.0-111.0","3OCHAWUVGP6LO7UQ5K37HQRTH0KXK5","AU34T9OMHN4Z4","3URJ6VVYUP9BUCT1SZOT2DFI02L4OC","","","null","","","","","","","","","",""
"157.1000000089407","","image-keyboard-response","112","444962","0.0-112.0","3OCHAWUVGP6LO7UQ5K37HQRTH0KXK5","AU34T9OMHN4Z4","3URJ6VVYUP9BUCT1SZOT2DFI02L4OC","","img/set1/S2.jpg","83","2","structured_load","68","structured_load,random,structured_incentive,structured_normal","2,3,4,2,1,2","4,3,1,2","false","","",""
"null","","html-keyboard-response","113","445314","0.0-113.0","3OCHAWUVGP6LO7UQ5K37HQRTH0KXK5","AU34T9OMHN4Z4","3URJ6VVYUP9BUCT1SZOT2DFI02L4OC","","<img src=""img/set1/S2.jpg"" width=""540"" height = ""360"">","null","","","","","","","","","",""
"null","","html-keyboard-response","114","445516","0.0-114.0","3OCHAWUVGP6LO7UQ5K37HQRTH0KXK5","AU34T9OMHN4Z4","3URJ6VVYUP9BUCT1SZOT2DFI02L4OC","","","null","","","","","","","","","",""
"709.5","","image-keyboard-response","115","446226","0.0-115.0","3OCHAWUVGP6LO7UQ5K37HQRTH0KXK5","AU34T9OMHN4Z4","3URJ6VVYUP9BUCT1SZOT2DFI02L4OC","","img/set1/S4.jpg","68","4","structured_load","74","structured_load,random,structured_incentive,structured_normal","2,3,4,2,1,2","4,3,1,2","false","","",""
"null","","html-keyboard-response","116","446578","0.0-116.0","3OCHAWUVGP6LO7UQ5K37HQRTH0KXK5","AU34T9OMHN4Z4","3URJ6VVYUP9BUCT1SZOT2DFI02L4OC","","<img src=""img/set1/S4.jpg"" width=""540"" height = ""360"">","null","","","","","","","","","",""
"null","","html-keyboard-response","117","446780","0.0-117.0","3OCHAWUVGP6LO7UQ5K37HQRTH0KXK5","AU34T9OMHN4Z4","3URJ6VVYUP9BUCT1SZOT2DFI02L4OC","","","null","","","","","","","","","",""
"653.7000000029802","","image-keyboard-response","118","447434","0.0-118.0","3OCHAWUVGP6LO7UQ5K37HQRTH0KXK5","AU34T9OMHN4Z4","3URJ6VVYUP9BUCT1SZOT2DFI02L4OC","","img/set1/S2.jpg","72","2","structured_load","68","structured_load,random,structured_incentive,structured_normal","2,3,4,2,1,2","4,3,1,2","false","","",""
"null","","html-keyboard-response","119","447786","0.0-119.0","3OCHAWUVGP6LO7UQ5K37HQRTH0KXK5","AU34T9OMHN4Z4","3URJ6VVYUP9BUCT1SZOT2DFI02L4OC","","<img src=""img/set1/S2.jpg"" width=""540"" height = ""360"">","null","","","","","","","","","",""
"null","","html-keyboard-response","120","447987","0.0-120.0","3OCHAWUVGP6LO7UQ5K37HQRTH0KXK5","AU34T9OMHN4Z4","3URJ6VVYUP9BUCT1SZOT2DFI02L4OC","","","null","","","","","","","","","",""
"374.3999999910593","","image-keyboard-response","121","448362","0.0-121.0","3OCHAWUVGP6LO7UQ5K37HQRTH0KXK5","AU34T9OMHN4Z4","3URJ6VVYUP9BUCT1SZOT2DFI02L4OC","","img/set1/S3.jpg","74","3","structured_load","72","structured_load,random,structured_incentive,structured_normal","2,3,4,2,1,2","4,3,1,2","false","","",""
"null","","html-keyboard-response","122","448714","0.0-122.0","3OCHAWUVGP6LO7UQ5K37HQRTH0KXK5","AU34T9OMHN4Z4","3URJ6VVYUP9BUCT1SZOT2DFI02L4OC","","<img src=""img/set1/S3.jpg"" width=""540"" height = ""360"">","null","","","","","","","","","",""
"null","","html-keyboard-response","123","448916","0.0-123.0","3OCHAWUVGP6LO7UQ5K37HQRTH0KXK5","AU34T9OMHN4Z4","3URJ6VVYUP9BUCT1SZOT2DFI02L4OC","","","null","","","","","","","","","",""
"941","","image-keyboard-response","124","449858","0.0-124.0","3OCHAWUVGP6LO7UQ5K37HQRTH0KXK5","AU34T9OMHN4Z4","3URJ6VVYUP9BUCT1SZOT2DFI02L4OC","","img/set1/S4.jpg","72","4","structured_load","74","structured_load,random,structured_incentive,structured_normal","2,3,4,2,1,2","4,3,1,2","false","","",""
"null","","html-keyboard-response","125","450211","0.0-125.0","3OCHAWUVGP6LO7UQ5K37HQRTH0KXK5","AU34T9OMHN4Z4","3URJ6VVYUP9BUCT1SZOT2DFI02L4OC","","<img src=""img/set1/S4.jpg"" width=""540"" height = ""360"">","null","","","","","","","","","",""
"null","","html-keyboard-response","126","450413","0.0-126.0","3OCHAWUVGP6LO7UQ5K37HQRTH0KXK5","AU34T9OMHN4Z4","3URJ6VVYUP9BUCT1SZOT2DFI02L4OC","","","null","","","","","","","","","",""
"764.3999999910593","","image-keyboard-response","127","451178","0.0-127.0","3OCHAWUVGP6LO7UQ5K37HQRTH0KXK5","AU34T9OMHN4Z4","3URJ6VVYUP9BUCT1SZOT2DFI02L4OC","","img/set1/S4.jpg","74","4","structured_load","74","structured_load,random,structured_incentive,structured_normal","2,3,4,2,1,2","4,3,1,2","true","","",""
"null","","html-keyboard-response","128","451530","0.0-128.0","3OCHAWUVGP6LO7UQ5K37HQRTH0KXK5","AU34T9OMHN4Z4","3URJ6VVYUP9BUCT1SZOT2DFI02L4OC","","<img src=""img/set1/S4.jpg"" width=""540"" height = ""360"" style=""border:16px solid orange"">","null","","","","","","","","","",""
"null","","html-keyboard-response","129","451731","0.0-129.0","3OCHAWUVGP6LO7UQ5K37HQRTH0KXK5","AU34T9OMHN4Z4","3URJ6VVYUP9BUCT1SZOT2DFI02L4OC","","","null","","","","","","","","","",""
"989.5999999940395","","image-keyboard-response","130","452722","0.0-130.0","3OCHAWUVGP6LO7UQ5K37HQRTH0KXK5","AU34T9OMHN4Z4","3URJ6VVYUP9BUCT1SZOT2DFI02L4OC","","img/set1/S1.jpg","72","1","structured_load","83","structured_load,random,structured_incentive,structured_normal","2,3,4,2,1,2","4,3,1,2","false","","",""
"null","","html-keyboard-response","131","453074","0.0-131.0","3OCHAWUVGP6LO7UQ5K37HQRTH0KXK5","AU34T9OMHN4Z4","3URJ6VVYUP9BUCT1SZOT2DFI02L4OC","","<img src=""img/set1/S1.jpg"" width=""540"" height = ""360"">","null","","","","","","","","","",""
"null","","html-keyboard-response","132","453276","0.0-132.0","3OCHAWUVGP6LO7UQ5K37HQRTH0KXK5","AU34T9OMHN4Z4","3URJ6VVYUP9BUCT1SZOT2DFI02L4OC","","","null","","","","","","","","","",""
"900.6000000089407","","image-keyboard-response","133","454178","0.0-133.0","3OCHAWUVGP6LO7UQ5K37HQRTH0KXK5","AU34T9OMHN4Z4","3URJ6VVYUP9BUCT1SZOT2DFI02L4OC","","img/set1/S2.jpg","68","2","structured_load","68","structured_load,random,structured_incentive,structured_normal","2,3,4,2,1,2","4,3,1,2","true","","",""
"null","","html-keyboard-response","134","454530","0.0-134.0","3OCHAWUVGP6LO7UQ5K37HQRTH0KXK5","AU34T9OMHN4Z4","3URJ6VVYUP9BUCT1SZOT2DFI02L4OC","","<img src=""img/set1/S2.jpg"" width=""540"" height = ""360"" style=""border:16px solid orange"">","null","","","","","","","","","",""
"null","","html-keyboard-response","135","454731","0.0-135.0","3OCHAWUVGP6LO7UQ5K37HQRTH0KXK5","AU34T9OMHN4Z4","3URJ6VVYUP9BUCT1SZOT2DFI02L4OC","","","null","","","","","","","","","",""
"1013.7999999970198","","image-keyboard-response","136","455746","0.0-136.0","3OCHAWUVGP6LO7UQ5K37HQRTH0KXK5","AU34T9OMHN4Z4","3URJ6VVYUP9BUCT1SZOT2DFI02L4OC","","img/set1/S3.jpg","72","3","structured_load","72","structured_load,random,structured_incentive,structured_normal","2,3,4,2,1,2","4,3,1,2","true","","",""
"null","","html-keyboard-response","137","456098","0.0-137.0","3OCHAWUVGP6LO7UQ5K37HQRTH0KXK5","AU34T9OMHN4Z4","3URJ6VVYUP9BUCT1SZOT2DFI02L4OC","","<img src=""img/set1/S3.jpg"" width=""540"" height = ""360"" style=""border:16px solid orange"">","null","","","","","","","","","",""
"null","","html-keyboard-response","138","456299","0.0-138.0","3OCHAWUVGP6LO7UQ5K37HQRTH0KXK5","AU34T9OMHN4Z4","3URJ6VVYUP9BUCT1SZOT2DFI02L4OC","","","null","","","","","","","","","",""
"1053.7000000029802","","image-keyboard-response","139","457354","0.0-139.0","3OCHAWUVGP6LO7UQ5K37HQRTH0KXK5","AU34T9OMHN4Z4","3URJ6VVYUP9BUCT1SZOT2DFI02L4OC","","img/set1/S1.jpg","83","1","structured_load","83","structured_load,random,structured_incentive,structured_normal","2,3,4,2,1,2","4,3,1,2","true","","",""
"null","","html-keyboard-response","140","457706","0.0-140.0","3OCHAWUVGP6LO7UQ5K37HQRTH0KXK5","AU34T9OMHN4Z4","3URJ6VVYUP9BUCT1SZOT2DFI02L4OC","","<img src=""img/set1/S1.jpg"" width=""540"" height = ""360"" style=""border:16px solid orange"">","null","","","","","","","","","",""
"null","","html-keyboard-response","141","457908","0.0-141.0","3OCHAWUVGP6LO7UQ5K37HQRTH0KXK5","AU34T9OMHN4Z4","3URJ6VVYUP9BUCT1SZOT2DFI02L4OC","","","null","","","","","","","","","",""
"628.7000000029802","","image-keyboard-response","142","458538","0.0-142.0","3OCHAWUVGP6LO7UQ5K37HQRTH0KXK5","AU34T9OMHN4Z4","3URJ6VVYUP9BUCT1SZOT2DFI02L4OC","","img/set1/S1.jpg","83","1","structured_load","83","structured_load,random,structured_incentive,structured_normal","2,3,4,2,1,2","4,3,1,2","true","","",""
"null","","html-keyboard-response","143","458898","0.0-143.0","3OCHAWUVGP6LO7UQ5K37HQRTH0KXK5","AU34T9OMHN4Z4","3URJ6VVYUP9BUCT1SZOT2DFI02L4OC","","<img src=""img/set1/S1.jpg"" width=""540"" height = ""360"" style=""border:16px solid orange"">","null","","","","","","","","","",""
"null","","html-keyboard-response","144","459099","0.0-144.0","3OCHAWUVGP6LO7UQ5K37HQRTH0KXK5","AU34T9OMHN4Z4","3URJ6VVYUP9BUCT1SZOT2DFI02L4OC","","","null","","","","","","","","","",""
"917.5","","image-keyboard-response","145","460017","0.0-145.0","3OCHAWUVGP6LO7UQ5K37HQRTH0KXK5","AU34T9OMHN4Z4","3URJ6VVYUP9BUCT1SZOT2DFI02L4OC","","img/set1/S3.jpg","72","3","structured_load","72","structured_load,random,structured_incentive,structured_normal","2,3,4,2,1,2","4,3,1,2","true","","",""
"null","","html-keyboard-response","146","460370","0.0-146.0","3OCHAWUVGP6LO7UQ5K37HQRTH0KXK5","AU34T9OMHN4Z4","3URJ6VVYUP9BUCT1SZOT2DFI02L4OC","","<img src=""img/set1/S3.jpg"" width=""540"" height = ""360"" style=""border:16px solid orange"">","null","","","","","","","","","",""
"null","","html-keyboard-response","147","460571","0.0-147.0","3OCHAWUVGP6LO7UQ5K37HQRTH0KXK5","AU34T9OMHN4Z4","3URJ6VVYUP9BUCT1SZOT2DFI02L4OC","","","null","","","","","","","","","",""
"821.7000000029802","","image-keyboard-response","148","461393","0.0-148.0","3OCHAWUVGP6LO7UQ5K37HQRTH0KXK5","AU34T9OMHN4Z4","3URJ6VVYUP9BUCT1SZOT2DFI02L4OC","","img/set1/S1.jpg","83","1","structured_load","83","structured_load,random,structured_incentive,structured_normal","2,3,4,2,1,2","4,3,1,2","true","","",""
"null","","html-keyboard-response","149","461745","0.0-149.0","3OCHAWUVGP6LO7UQ5K37HQRTH0KXK5","AU34T9OMHN4Z4","3URJ6VVYUP9BUCT1SZOT2DFI02L4OC","","<img src=""img/set1/S1.jpg"" width=""540"" height = ""360"" style=""border:16px solid orange"">","null","","","","","","","","","",""
"null","","html-keyboard-response","150","461946","0.0-150.0","3OCHAWUVGP6LO7UQ5K37HQRTH0KXK5","AU34T9OMHN4Z4","3URJ6VVYUP9BUCT1SZOT2DFI02L4OC","","","null","","","","","","","","","",""
"654.2999999970198","","image-keyboard-response","151","462601","0.0-151.0","3OCHAWUVGP6LO7UQ5K37HQRTH0KXK5","AU34T9OMHN4Z4","3URJ6VVYUP9BUCT1SZOT2DFI02L4OC","","img/set1/S1.jpg","83","1","structured_load","83","structured_load,random,structured_incentive,structured_normal","2,3,4,2,1,2","4,3,1,2","true","","",""
"null","","html-keyboard-response","152","462953","0.0-152.0","3OCHAWUVGP6LO7UQ5K37HQRTH0KXK5","AU34T9OMHN4Z4","3URJ6VVYUP9BUCT1SZOT2DFI02L4OC","","<img src=""img/set1/S1.jpg"" width=""540"" height = ""360"" style=""border:16px solid orange"">","null","","","","","","","","","",""
"null","","html-keyboard-response","153","463154","0.0-153.0","3OCHAWUVGP6LO7UQ5K37HQRTH0KXK5","AU34T9OMHN4Z4","3URJ6VVYUP9BUCT1SZOT2DFI02L4OC","","","null","","","","","","","","","",""
"902.2999999970198","","image-keyboard-response","154","464058","0.0-154.0","3OCHAWUVGP6LO7UQ5K37HQRTH0KXK5","AU34T9OMHN4Z4","3URJ6VVYUP9BUCT1SZOT2DFI02L4OC","","img/set1/S4.jpg","68","4","structured_load","74","structured_load,random,structured_incentive,structured_normal","2,3,4,2,1,2","4,3,1,2","false","","",""
"null","","html-keyboard-response","155","464410","0.0-155.0","3OCHAWUVGP6LO7UQ5K37HQRTH0KXK5","AU34T9OMHN4Z4","3URJ6VVYUP9BUCT1SZOT2DFI02L4OC","","<img src=""img/set1/S4.jpg"" width=""540"" height = ""360"">","null","","","","","","","","","",""
"null","","html-keyboard-response","156","464612","0.0-156.0","3OCHAWUVGP6LO7UQ5K37HQRTH0KXK5","AU34T9OMHN4Z4","3URJ6VVYUP9BUCT1SZOT2DFI02L4OC","","","null","","","","","","","","","",""
"844.7000000029802","","image-keyboard-response","157","465458","0.0-157.0","3OCHAWUVGP6LO7UQ5K37HQRTH0KXK5","AU34T9OMHN4Z4","3URJ6VVYUP9BUCT1SZOT2DFI02L4OC","","img/set1/S4.jpg","74","4","structured_load","74","structured_load,random,structured_incentive,structured_normal","2,3,4,2,1,2","4,3,1,2","true","","",""
"null","","html-keyboard-response","158","465810","0.0-158.0","3OCHAWUVGP6LO7UQ5K37HQRTH0KXK5","AU34T9OMHN4Z4","3URJ6VVYUP9BUCT1SZOT2DFI02L4OC","","<img src=""img/set1/S4.jpg"" width=""540"" height = ""360"" style=""border:16px solid orange"">","null","","","","","","","","","",""
"null","","html-keyboard-response","159","466013","0.0-159.0","3OCHAWUVGP6LO7UQ5K37HQRTH0KXK5","AU34T9OMHN4Z4","3URJ6VVYUP9BUCT1SZOT2DFI02L4OC","","","null","","","","","","","","","",""
"908.2000000029802","","image-keyboard-response","160","466922","0.0-160.0","3OCHAWUVGP6LO7UQ5K37HQRTH0KXK5","AU34T9OMHN4Z4","3URJ6VVYUP9BUCT1SZOT2DFI02L4OC","","img/set1/S1.jpg","83","1","structured_load","83","structured_load,random,structured_incentive,structured_normal","2,3,4,2,1,2","4,3,1,2","true","","",""
"null","","html-keyboard-response","161","467273","0.0-161.0","3OCHAWUVGP6LO7UQ5K37HQRTH0KXK5","AU34T9OMHN4Z4","3URJ6VVYUP9BUCT1SZOT2DFI02L4OC","","<img src=""img/set1/S1.jpg"" width=""540"" height = ""360"" style=""border:16px solid orange"">","null","","","","","","","","","",""
"null","","html-keyboard-response","162","467474","0.0-162.0","3OCHAWUVGP6LO7UQ5K37HQRTH0KXK5","AU34T9OMHN4Z4","3URJ6VVYUP9BUCT1SZOT2DFI02L4OC","","","null","","","","","","","","","",""
"726.6999999880791","","image-keyboard-response","163","468201","0.0-163.0","3OCHAWUVGP6LO7UQ5K37HQRTH0KXK5","AU34T9OMHN4Z4","3URJ6VVYUP9BUCT1SZOT2DFI02L4OC","","img/set1/S1.jpg","83","1","structured_load","83","structured_load,random,structured_incentive,structured_normal","2,3,4,2,1,2","4,3,1,2","true","","",""
"null","","html-keyboard-response","164","468553","0.0-164.0","3OCHAWUVGP6LO7UQ5K37HQRTH0KXK5","AU34T9OMHN4Z4","3URJ6VVYUP9BUCT1SZOT2DFI02L4OC","","<img src=""img/set1/S1.jpg"" width=""540"" height = ""360"" style=""border:16px solid orange"">","null","","","","","","","","","",""
"null","","html-keyboard-response","165","468755","0.0-165.0","3OCHAWUVGP6LO7UQ5K37HQRTH0KXK5","AU34T9OMHN4Z4","3URJ6VVYUP9BUCT1SZOT2DFI02L4OC","","","null","","","","","","","","","",""
"629.5","","image-keyboard-response","166","469385","0.0-166.0","3OCHAWUVGP6LO7UQ5K37HQRTH0KXK5","AU34T9OMHN4Z4","3URJ6VVYUP9BUCT1SZOT2DFI02L4OC","","img/set1/S1.jpg","83","1","structured_load","83","structured_load,random,structured_incentive,structured_normal","2,3,4,2,1,2","4,3,1,2","true","","",""
"null","","html-keyboard-response","167","469737","0.0-167.0","3OCHAWUVGP6LO7UQ5K37HQRTH0KXK5","AU34T9OMHN4Z4","3URJ6VVYUP9BUCT1SZOT2DFI02L4OC","","<img src=""img/set1/S1.jpg"" width=""540"" height = ""360"" style=""border:16px solid orange"">","null","","","","","","","","","",""
"null","","html-keyboard-response","168","469940","0.0-168.0","3OCHAWUVGP6LO7UQ5K37HQRTH0KXK5","AU34T9OMHN4Z4","3URJ6VVYUP9BUCT1SZOT2DFI02L4OC","","","null","","","","","","","","","",""
"580.4000000059605","","image-keyboard-response","169","470521","0.0-169.0","3OCHAWUVGP6LO7UQ5K37HQRTH0KXK5","AU34T9OMHN4Z4","3URJ6VVYUP9BUCT1SZOT2DFI02L4OC","","img/set1/S1.jpg","83","1","structured_load","83","structured_load,random,structured_incentive,structured_normal","2,3,4,2,1,2","4,3,1,2","true","","",""
"null","","html-keyboard-response","170","470874","0.0-170.0","3OCHAWUVGP6LO7UQ5K37HQRTH0KXK5","AU34T9OMHN4Z4","3URJ6VVYUP9BUCT1SZOT2DFI02L4OC","","<img src=""img/set1/S1.jpg"" width=""540"" height = ""360"" style=""border:16px solid orange"">","null","","","","","","","","","",""
"null","","html-keyboard-response","171","471077","0.0-171.0","3OCHAWUVGP6LO7UQ5K37HQRTH0KXK5","AU34T9OMHN4Z4","3URJ6VVYUP9BUCT1SZOT2DFI02L4OC","","","null","","","","","","","","","",""
"1051.8999999910593","","image-keyboard-response","172","472129","0.0-172.0","3OCHAWUVGP6LO7UQ5K37HQRTH0KXK5","AU34T9OMHN4Z4","3URJ6VVYUP9BUCT1SZOT2DFI02L4OC","","img/set1/S4.jpg","74","4","structured_load","74","structured_load,random,structured_incentive,structured_normal","2,3,4,2,1,2","4,3,1,2","true","","",""
"null","","html-keyboard-response","173","472481","0.0-173.0","3OCHAWUVGP6LO7UQ5K37HQRTH0KXK5","AU34T9OMHN4Z4","3URJ6VVYUP9BUCT1SZOT2DFI02L4OC","","<img src=""img/set1/S4.jpg"" width=""540"" height = ""360"" style=""border:16px solid orange"">","null","","","","","","","","","",""
"null","","html-keyboard-response","174","472682","0.0-174.0","3OCHAWUVGP6LO7UQ5K37HQRTH0KXK5","AU34T9OMHN4Z4","3URJ6VVYUP9BUCT1SZOT2DFI02L4OC","","","null","","","","","","","","","",""
"878.8000000119209","","image-keyboard-response","175","473561","0.0-175.0","3OCHAWUVGP6LO7UQ5K37HQRTH0KXK5","AU34T9OMHN4Z4","3URJ6VVYUP9BUCT1SZOT2DFI02L4OC","","img/set1/S1.jpg","83","1","structured_load","83","structured_load,random,structured_incentive,structured_normal","2,3,4,2,1,2","4,3,1,2","true","","",""
"null","","html-keyboard-response","176","473914","0.0-176.0","3OCHAWUVGP6LO7UQ5K37HQRTH0KXK5","AU34T9OMHN4Z4","3URJ6VVYUP9BUCT1SZOT2DFI02L4OC","","<img src=""img/set1/S1.jpg"" width=""540"" height = ""360"" style=""border:16px solid orange"">","null","","","","","","","","","",""
"null","","html-keyboard-response","177","474115","0.0-177.0","3OCHAWUVGP6LO7UQ5K37HQRTH0KXK5","AU34T9OMHN4Z4","3URJ6VVYUP9BUCT1SZOT2DFI02L4OC","","","null","","","","","","","","","",""
"557.7999999970198","","image-keyboard-response","178","474674","0.0-178.0","3OCHAWUVGP6LO7UQ5K37HQRTH0KXK5","AU34T9OMHN4Z4","3URJ6VVYUP9BUCT1SZOT2DFI02L4OC","","img/set1/S1.jpg","83","1","structured_load","83","structured_load,random,structured_incentive,structured_normal","2,3,4,2,1,2","4,3,1,2","true","","",""
"null","","html-keyboard-response","179","475026","0.0-179.0","3OCHAWUVGP6LO7UQ5K37HQRTH0KXK5","AU34T9OMHN4Z4","3URJ6VVYUP9BUCT1SZOT2DFI02L4OC","","<img src=""img/set1/S1.jpg"" width=""540"" height = ""360"" style=""border:16px solid orange"">","null","","","","","","","","","",""
"null","","html-keyboard-response","180","475228","0.0-180.0","3OCHAWUVGP6LO7UQ5K37HQRTH0KXK5","AU34T9OMHN4Z4","3URJ6VVYUP9BUCT1SZOT2DFI02L4OC","","","null","","","","","","","","","",""
"836.4000000059605","","image-keyboard-response","181","476065","0.0-181.0","3OCHAWUVGP6LO7UQ5K37HQRTH0KXK5","AU34T9OMHN4Z4","3URJ6VVYUP9BUCT1SZOT2DFI02L4OC","","img/set1/S4.jpg","74","4","structured_load","74","structured_load,random,structured_incentive,structured_normal","2,3,4,2,1,2","4,3,1,2","true","","",""
"null","","html-keyboard-response","182","476417","0.0-182.0","3OCHAWUVGP6LO7UQ5K37HQRTH0KXK5","AU34T9OMHN4Z4","3URJ6VVYUP9BUCT1SZOT2DFI02L4OC","","<img src=""img/set1/S4.jpg"" width=""540"" height = ""360"" style=""border:16px solid orange"">","null","","","","","","","","","",""
"null","","html-keyboard-response","183","476619","0.0-183.0","3OCHAWUVGP6LO7UQ5K37HQRTH0KXK5","AU34T9OMHN4Z4","3URJ6VVYUP9BUCT1SZOT2DFI02L4OC","","","null","","","","","","","","","",""
"853.5999999940395","","image-keyboard-response","184","477474","0.0-184.0","3OCHAWUVGP6LO7UQ5K37HQRTH0KXK5","AU34T9OMHN4Z4","3URJ6VVYUP9BUCT1SZOT2DFI02L4OC","","img/set1/S1.jpg","83","1","structured_load","83","structured_load,random,structured_incentive,structured_normal","2,3,4,2,1,2","4,3,1,2","true","","",""
"null","","html-keyboard-response","185","477827","0.0-185.0","3OCHAWUVGP6LO7UQ5K37HQRTH0KXK5","AU34T9OMHN4Z4","3URJ6VVYUP9BUCT1SZOT2DFI02L4OC","","<img src=""img/set1/S1.jpg"" width=""540"" height = ""360"" style=""border:16px solid orange"">","null","","","","","","","","","",""
"null","","html-keyboard-response","186","478028","0.0-186.0","3OCHAWUVGP6LO7UQ5K37HQRTH0KXK5","AU34T9OMHN4Z4","3URJ6VVYUP9BUCT1SZOT2DFI02L4OC","","","null","","","","","","","","","",""
"533.1000000089407","","image-keyboard-response","187","478562","0.0-187.0","3OCHAWUVGP6LO7UQ5K37HQRTH0KXK5","AU34T9OMHN4Z4","3URJ6VVYUP9BUCT1SZOT2DFI02L4OC","","img/set1/S1.jpg","83","1","structured_load","83","structured_load,random,structured_incentive,structured_normal","2,3,4,2,1,2","4,3,1,2","true","","",""
"null","","html-keyboard-response","188","478914","0.0-188.0","3OCHAWUVGP6LO7UQ5K37HQRTH0KXK5","AU34T9OMHN4Z4","3URJ6VVYUP9BUCT1SZOT2DFI02L4OC","","<img src=""img/set1/S1.jpg"" width=""540"" height = ""360"" style=""border:16px solid orange"">","null","","","","","","","","","",""
"null","","html-keyboard-response","189","479114","0.0-189.0","3OCHAWUVGP6LO7UQ5K37HQRTH0KXK5","AU34T9OMHN4Z4","3URJ6VVYUP9BUCT1SZOT2DFI02L4OC","","","null","","","","","","","","","",""
"486.69999998807907","","image-keyboard-response","190","479602","0.0-190.0","3OCHAWUVGP6LO7UQ5K37HQRTH0KXK5","AU34T9OMHN4Z4","3URJ6VVYUP9BUCT1SZOT2DFI02L4OC","","img/set1/S1.jpg","83","1","structured_load","83","structured_load,random,structured_incentive,structured_normal","2,3,4,2,1,2","4,3,1,2","true","","",""
"null","","html-keyboard-response","191","479953","0.0-191.0","3OCHAWUVGP6LO7UQ5K37HQRTH0KXK5","AU34T9OMHN4Z4","3URJ6VVYUP9BUCT1SZOT2DFI02L4OC","","<img src=""img/set1/S1.jpg"" width=""540"" height = ""360"" style=""border:16px solid orange"">","null","","","","","","","","","",""
"null","","html-keyboard-response","192","480155","0.0-192.0","3OCHAWUVGP6LO7UQ5K37HQRTH0KXK5","AU34T9OMHN4Z4","3URJ6VVYUP9BUCT1SZOT2DFI02L4OC","","","null","","","","","","","","","",""
"1037.699999988079","","image-keyboard-response","193","481194","0.0-193.0","3OCHAWUVGP6LO7UQ5K37HQRTH0KXK5","AU34T9OMHN4Z4","3URJ6VVYUP9BUCT1SZOT2DFI02L4OC","","img/set1/S2.jpg","72","2","structured_load","68","structured_load,random,structured_incentive,structured_normal","2,3,4,2,1,2","4,3,1,2","false","","",""
"null","","html-keyboard-response","194","481545","0.0-194.0","3OCHAWUVGP6LO7UQ5K37HQRTH0KXK5","AU34T9OMHN4Z4","3URJ6VVYUP9BUCT1SZOT2DFI02L4OC","","<img src=""img/set1/S2.jpg"" width=""540"" height = ""360"">","null","","","","","","","","","",""
"null","","html-keyboard-response","195","481746","0.0-195.0","3OCHAWUVGP6LO7UQ5K37HQRTH0KXK5","AU34T9OMHN4Z4","3URJ6VVYUP9BUCT1SZOT2DFI02L4OC","","","null","","","","","","","","","",""
"1366.0999999940395","","image-keyboard-response","196","483113","0.0-196.0","3OCHAWUVGP6LO7UQ5K37HQRTH0KXK5","AU34T9OMHN4Z4","3URJ6VVYUP9BUCT1SZOT2DFI02L4OC","","img/set1/S3.jpg","74","3","structured_load","72","structured_load,random,structured_incentive,structured_normal","2,3,4,2,1,2","4,3,1,2","false","","",""
"null","","html-keyboard-response","197","483465","0.0-197.0","3OCHAWUVGP6LO7UQ5K37HQRTH0KXK5","AU34T9OMHN4Z4","3URJ6VVYUP9BUCT1SZOT2DFI02L4OC","","<img src=""img/set1/S3.jpg"" width=""540"" height = ""360"">","null","","","","","","","","","",""
"null","","html-keyboard-response","198","483667","0.0-198.0","3OCHAWUVGP6LO7UQ5K37HQRTH0KXK5","AU34T9OMHN4Z4","3URJ6VVYUP9BUCT1SZOT2DFI02L4OC","","","null","","","","","","","","","",""
"1941.6000000089407","","image-keyboard-response","199","485610","0.0-199.0","3OCHAWUVGP6LO7UQ5K37HQRTH0KXK5","AU34T9OMHN4Z4","3URJ6VVYUP9BUCT1SZOT2DFI02L4OC","","img/set1/S4.jpg","74","4","structured_load","74","structured_load,random,structured_incentive,structured_normal","2,3,4,2,1,2","4,3,1,2","true","","",""
"null","","html-keyboard-response","200","485962","0.0-200.0","3OCHAWUVGP6LO7UQ5K37HQRTH0KXK5","AU34T9OMHN4Z4","3URJ6VVYUP9BUCT1SZOT2DFI02L4OC","","<img src=""img/set1/S4.jpg"" width=""540"" height = ""360"" style=""border:16px solid orange"">","null","","","","","","","","","",""
"null","","html-keyboard-response","201","486163","0.0-201.0","3OCHAWUVGP6LO7UQ5K37HQRTH0KXK5","AU34T9OMHN4Z4","3URJ6VVYUP9BUCT1SZOT2DFI02L4OC","","","null","","","","","","","","","",""
"950.1999999880791","","image-keyboard-response","202","487114","0.0-202.0","3OCHAWUVGP6LO7UQ5K37HQRTH0KXK5","AU34T9OMHN4Z4","3URJ6VVYUP9BUCT1SZOT2DFI02L4OC","","img/set1/S1.jpg","83","1","structured_load","83","structured_load,random,structured_incentive,structured_normal","2,3,4,2,1,2","4,3,1,2","true","","",""
"null","","html-keyboard-response","203","487466","0.0-203.0","3OCHAWUVGP6LO7UQ5K37HQRTH0KXK5","AU34T9OMHN4Z4","3URJ6VVYUP9BUCT1SZOT2DFI02L4OC","","<img src=""img/set1/S1.jpg"" width=""540"" height = ""360"" style=""border:16px solid orange"">","null","","","","","","","","","",""
"null","","html-keyboard-response","204","487666","0.0-204.0","3OCHAWUVGP6LO7UQ5K37HQRTH0KXK5","AU34T9OMHN4Z4","3URJ6VVYUP9BUCT1SZOT2DFI02L4OC","","","null","","","","","","","","","",""
"846.4000000059605","","image-keyboard-response","205","488513","0.0-205.0","3OCHAWUVGP6LO7UQ5K37HQRTH0KXK5","AU34T9OMHN4Z4","3URJ6VVYUP9BUCT1SZOT2DFI02L4OC","","img/set1/S3.jpg","68","3","structured_load","72","structured_load,random,structured_incentive,structured_normal","2,3,4,2,1,2","4,3,1,2","false","","",""
"null","","html-keyboard-response","206","488866","0.0-206.0","3OCHAWUVGP6LO7UQ5K37HQRTH0KXK5","AU34T9OMHN4Z4","3URJ6VVYUP9BUCT1SZOT2DFI02L4OC","","<img src=""img/set1/S3.jpg"" width=""540"" height = ""360"">","null","","","","","","","","","",""
"null","","html-keyboard-response","207","489067","0.0-207.0","3OCHAWUVGP6LO7UQ5K37HQRTH0KXK5","AU34T9OMHN4Z4","3URJ6VVYUP9BUCT1SZOT2DFI02L4OC","","","null","","","","","","","","","",""
"1125.5999999940395","","image-keyboard-response","208","490193","0.0-208.0","3OCHAWUVGP6LO7UQ5K37HQRTH0KXK5","AU34T9OMHN4Z4","3URJ6VVYUP9BUCT1SZOT2DFI02L4OC","","img/set1/S2.jpg","68","2","structured_load","68","structured_load,random,structured_incentive,structured_normal","2,3,4,2,1,2","4,3,1,2","true","","",""
"null","","html-keyboard-response","209","490545","0.0-209.0","3OCHAWUVGP6LO7UQ5K37HQRTH0KXK5","AU34T9OMHN4Z4","3URJ6VVYUP9BUCT1SZOT2DFI02L4OC","","<img src=""img/set1/S2.jpg"" width=""540"" height = ""360"" style=""border:16px solid orange"">","null","","","","","","","","","",""
"null","","html-keyboard-response","210","490748","0.0-210.0","3OCHAWUVGP6LO7UQ5K37HQRTH0KXK5","AU34T9OMHN4Z4","3URJ6VVYUP9BUCT1SZOT2DFI02L4OC","","","null","","","","","","","","","",""
"1638","","image-keyboard-response","211","492387","0.0-211.0","3OCHAWUVGP6LO7UQ5K37HQRTH0KXK5","AU34T9OMHN4Z4","3URJ6VVYUP9BUCT1SZOT2DFI02L4OC","","img/set1/S4.jpg","74","4","structured_load","74","structured_load,random,structured_incentive,structured_normal","2,3,4,2,1,2","4,3,1,2","true","","",""
"null","","html-keyboard-response","212","492739","0.0-212.0","3OCHAWUVGP6LO7UQ5K37HQRTH0KXK5","AU34T9OMHN4Z4","3URJ6VVYUP9BUCT1SZOT2DFI02L4OC","","<img src=""img/set1/S4.jpg"" width=""540"" height = ""360"" style=""border:16px solid orange"">","null","","","","","","","","","",""
"null","","html-keyboard-response","213","492941","0.0-213.0","3OCHAWUVGP6LO7UQ5K37HQRTH0KXK5","AU34T9OMHN4Z4","3URJ6VVYUP9BUCT1SZOT2DFI02L4OC","","","null","","","","","","","","","",""
"707.7999999970198","","image-keyboard-response","214","493649","0.0-214.0","3OCHAWUVGP6LO7UQ5K37HQRTH0KXK5","AU34T9OMHN4Z4","3URJ6VVYUP9BUCT1SZOT2DFI02L4OC","","img/set1/S4.jpg","74","4","structured_load","74","structured_load,random,structured_incentive,structured_normal","2,3,4,2,1,2","4,3,1,2","true","","",""
"null","","html-keyboard-response","215","494015","0.0-215.0","3OCHAWUVGP6LO7UQ5K37HQRTH0KXK5","AU34T9OMHN4Z4","3URJ6VVYUP9BUCT1SZOT2DFI02L4OC","","<img src=""img/set1/S4.jpg"" width=""540"" height = ""360"" style=""border:16px solid orange"">","null","","","","","","","","","",""
"null","","html-keyboard-response","216","494217","0.0-216.0","3OCHAWUVGP6LO7UQ5K37HQRTH0KXK5","AU34T9OMHN4Z4","3URJ6VVYUP9BUCT1SZOT2DFI02L4OC","","","null","","","","","","","","","",""
"591.7000000029802","","image-keyboard-response","217","494810","0.0-217.0","3OCHAWUVGP6LO7UQ5K37HQRTH0KXK5","AU34T9OMHN4Z4","3URJ6VVYUP9BUCT1SZOT2DFI02L4OC","","img/set1/S4.jpg","74","4","structured_load","74","structured_load,random,structured_incentive,structured_normal","2,3,4,2,1,2","4,3,1,2","true","","",""
"null","","html-keyboard-response","218","495162","0.0-218.0","3OCHAWUVGP6LO7UQ5K37HQRTH0KXK5","AU34T9OMHN4Z4","3URJ6VVYUP9BUCT1SZOT2DFI02L4OC","","<img src=""img/set1/S4.jpg"" width=""540"" height = ""360"" style=""border:16px solid orange"">","null","","","","","","","","","",""
"null","","html-keyboard-response","219","495364","0.0-219.0","3OCHAWUVGP6LO7UQ5K37HQRTH0KXK5","AU34T9OMHN4Z4","3URJ6VVYUP9BUCT1SZOT2DFI02L4OC","","","null","","","","","","","","","",""
"1300.199999988079","","image-keyboard-response","220","496665","0.0-220.0","3OCHAWUVGP6LO7UQ5K37HQRTH0KXK5","AU34T9OMHN4Z4","3URJ6VVYUP9BUCT1SZOT2DFI02L4OC","","img/set1/S2.jpg","68","2","structured_load","68","structured_load,random,structured_incentive,structured_normal","2,3,4,2,1,2","4,3,1,2","true","","",""
"null","","html-keyboard-response","221","497017","0.0-221.0","3OCHAWUVGP6LO7UQ5K37HQRTH0KXK5","AU34T9OMHN4Z4","3URJ6VVYUP9BUCT1SZOT2DFI02L4OC","","<img src=""img/set1/S2.jpg"" width=""540"" height = ""360"" style=""border:16px solid orange"">","null","","","","","","","","","",""
"null","","html-keyboard-response","222","497219","0.0-222.0","3OCHAWUVGP6LO7UQ5K37HQRTH0KXK5","AU34T9OMHN4Z4","3URJ6VVYUP9BUCT1SZOT2DFI02L4OC","","","null","","","","","","","","","",""
"974","","image-keyboard-response","223","498194","0.0-223.0","3OCHAWUVGP6LO7UQ5K37HQRTH0KXK5","AU34T9OMHN4Z4","3URJ6VVYUP9BUCT1SZOT2DFI02L4OC","","img/set1/S3.jpg","72","3","structured_load","72","structured_load,random,structured_incentive,structured_normal","2,3,4,2,1,2","4,3,1,2","true","","",""
"null","","html-keyboard-response","224","498545","0.0-224.0","3OCHAWUVGP6LO7UQ5K37HQRTH0KXK5","AU34T9OMHN4Z4","3URJ6VVYUP9BUCT1SZOT2DFI02L4OC","","<img src=""img/set1/S3.jpg"" width=""540"" height = ""360"" style=""border:16px solid orange"">","null","","","","","","","","","",""
"null","","html-keyboard-response","225","498748","0.0-225.0","3OCHAWUVGP6LO7UQ5K37HQRTH0KXK5","AU34T9OMHN4Z4","3URJ6VVYUP9BUCT1SZOT2DFI02L4OC","","","null","","","","","","","","","",""
"1445.5","","image-keyboard-response","226","500194","0.0-226.0","3OCHAWUVGP6LO7UQ5K37HQRTH0KXK5","AU34T9OMHN4Z4","3URJ6VVYUP9BUCT1SZOT2DFI02L4OC","","img/set1/S4.jpg","74","4","structured_load","74","structured_load,random,structured_incentive,structured_normal","2,3,4,2,1,2","4,3,1,2","true","","",""
"null","","html-keyboard-response","227","500546","0.0-227.0","3OCHAWUVGP6LO7UQ5K37HQRTH0KXK5","AU34T9OMHN4Z4","3URJ6VVYUP9BUCT1SZOT2DFI02L4OC","","<img src=""img/set1/S4.jpg"" width=""540"" height = ""360"" style=""border:16px solid orange"">","null","","","","","","","","","",""
"null","","html-keyboard-response","228","500748","0.0-228.0","3OCHAWUVGP6LO7UQ5K37HQRTH0KXK5","AU34T9OMHN4Z4","3URJ6VVYUP9BUCT1SZOT2DFI02L4OC","","","null","","","","","","","","","",""
"708.5","","image-keyboard-response","229","501458","0.0-229.0","3OCHAWUVGP6LO7UQ5K37HQRTH0KXK5","AU34T9OMHN4Z4","3URJ6VVYUP9BUCT1SZOT2DFI02L4OC","","img/set1/S1.jpg","83","1","structured_load","83","structured_load,random,structured_incentive,structured_normal","2,3,4,2,1,2","4,3,1,2","true","","",""
"null","","html-keyboard-response","230","501810","0.0-230.0","3OCHAWUVGP6LO7UQ5K37HQRTH0KXK5","AU34T9OMHN4Z4","3URJ6VVYUP9BUCT1SZOT2DFI02L4OC","","<img src=""img/set1/S1.jpg"" width=""540"" height = ""360"" style=""border:16px solid orange"">","null","","","","","","","","","",""
"null","","html-keyboard-response","231","502011","0.0-231.0","3OCHAWUVGP6LO7UQ5K37HQRTH0KXK5","AU34T9OMHN4Z4","3URJ6VVYUP9BUCT1SZOT2DFI02L4OC","","","null","","","","","","","","","",""
"533.0999999940395","","image-keyboard-response","232","502545","0.0-232.0","3OCHAWUVGP6LO7UQ5K37HQRTH0KXK5","AU34T9OMHN4Z4","3URJ6VVYUP9BUCT1SZOT2DFI02L4OC","","img/set1/S1.jpg","83","1","structured_load","83","structured_load,random,structured_incentive,structured_normal","2,3,4,2,1,2","4,3,1,2","true","","",""
"null","","html-keyboard-response","233","502913","0.0-233.0","3OCHAWUVGP6LO7UQ5K37HQRTH0KXK5","AU34T9OMHN4Z4","3URJ6VVYUP9BUCT1SZOT2DFI02L4OC","","<img src=""img/set1/S1.jpg"" width=""540"" height = ""360"" style=""border:16px solid orange"">","null","","","","","","","","","",""
"null","","html-keyboard-response","234","503115","0.0-234.0","3OCHAWUVGP6LO7UQ5K37HQRTH0KXK5","AU34T9OMHN4Z4","3URJ6VVYUP9BUCT1SZOT2DFI02L4OC","","","null","","","","","","","","","",""
"1413.8999999910593","","image-keyboard-response","235","504529","0.0-235.0","3OCHAWUVGP6LO7UQ5K37HQRTH0KXK5","AU34T9OMHN4Z4","3URJ6VVYUP9BUCT1SZOT2DFI02L4OC","","img/set1/S2.jpg","68","2","structured_load","68","structured_load,random,structured_incentive,structured_normal","2,3,4,2,1,2","4,3,1,2","true","","",""
"null","","html-keyboard-response","236","504881","0.0-236.0","3OCHAWUVGP6LO7UQ5K37HQRTH0KXK5","AU34T9OMHN4Z4","3URJ6VVYUP9BUCT1SZOT2DFI02L4OC","","<img src=""img/set1/S2.jpg"" width=""540"" height = ""360"" style=""border:16px solid orange"">","null","","","","","","","","","",""
"null","","html-keyboard-response","237","505083","0.0-237.0","3OCHAWUVGP6LO7UQ5K37HQRTH0KXK5","AU34T9OMHN4Z4","3URJ6VVYUP9BUCT1SZOT2DFI02L4OC","","","null","","","","","","","","","",""
"1589.300000011921","","image-keyboard-response","238","506673","0.0-238.0","3OCHAWUVGP6LO7UQ5K37HQRTH0KXK5","AU34T9OMHN4Z4","3URJ6VVYUP9BUCT1SZOT2DFI02L4OC","","img/set1/S3.jpg","72","3","structured_load","72","structured_load,random,structured_incentive,structured_normal","2,3,4,2,1,2","4,3,1,2","true","","",""
"null","","html-keyboard-response","239","507026","0.0-239.0","3OCHAWUVGP6LO7UQ5K37HQRTH0KXK5","AU34T9OMHN4Z4","3URJ6VVYUP9BUCT1SZOT2DFI02L4OC","","<img src=""img/set1/S3.jpg"" width=""540"" height = ""360"" style=""border:16px solid orange"">","null","","","","","","","","","",""
"null","","html-keyboard-response","240","507228","0.0-240.0","3OCHAWUVGP6LO7UQ5K37HQRTH0KXK5","AU34T9OMHN4Z4","3URJ6VVYUP9BUCT1SZOT2DFI02L4OC","","","null","","","","","","","","","",""
"1185.2000000029802","","image-keyboard-response","241","508414","0.0-241.0","3OCHAWUVGP6LO7UQ5K37HQRTH0KXK5","AU34T9OMHN4Z4","3URJ6VVYUP9BUCT1SZOT2DFI02L4OC","","img/set1/S4.jpg","74","4","structured_load","74","structured_load,random,structured_incentive,structured_normal","2,3,4,2,1,2","4,3,1,2","true","","",""
"null","","html-keyboard-response","242","508767","0.0-242.0","3OCHAWUVGP6LO7UQ5K37HQRTH0KXK5","AU34T9OMHN4Z4","3URJ6VVYUP9BUCT1SZOT2DFI02L4OC","","<img src=""img/set1/S4.jpg"" width=""540"" height = ""360"" style=""border:16px solid orange"">","null","","","","","","","","","",""
"null","","html-keyboard-response","243","508970","0.0-243.0","3OCHAWUVGP6LO7UQ5K37HQRTH0KXK5","AU34T9OMHN4Z4","3URJ6VVYUP9BUCT1SZOT2DFI02L4OC","","","null","","","","","","","","","",""
"1238.9000000059605","","image-keyboard-response","244","510210","0.0-244.0","3OCHAWUVGP6LO7UQ5K37HQRTH0KXK5","AU34T9OMHN4Z4","3URJ6VVYUP9BUCT1SZOT2DFI02L4OC","","img/set1/S3.jpg","72","3","structured_load","72","structured_load,random,structured_incentive,structured_normal","2,3,4,2,1,2","4,3,1,2","true","","",""
"null","","html-keyboard-response","245","510562","0.0-245.0","3OCHAWUVGP6LO7UQ5K37HQRTH0KXK5","AU34T9OMHN4Z4","3URJ6VVYUP9BUCT1SZOT2DFI02L4OC","","<img src=""img/set1/S3.jpg"" width=""540"" height = ""360"" style=""border:16px solid orange"">","null","","","","","","","","","",""
"null","","html-keyboard-response","246","510764","0.0-246.0","3OCHAWUVGP6LO7UQ5K37HQRTH0KXK5","AU34T9OMHN4Z4","3URJ6VVYUP9BUCT1SZOT2DFI02L4OC","","","null","","","","","","","","","",""
"1067.8999999910593","","image-keyboard-response","247","511833","0.0-247.0","3OCHAWUVGP6LO7UQ5K37HQRTH0KXK5","AU34T9OMHN4Z4","3URJ6VVYUP9BUCT1SZOT2DFI02L4OC","","img/set1/S2.jpg","74","2","structured_load","68","structured_load,random,structured_incentive,structured_normal","2,3,4,2,1,2","4,3,1,2","false","","",""
"null","","html-keyboard-response","248","512186","0.0-248.0","3OCHAWUVGP6LO7UQ5K37HQRTH0KXK5","AU34T9OMHN4Z4","3URJ6VVYUP9BUCT1SZOT2DFI02L4OC","","<img src=""img/set1/S2.jpg"" width=""540"" height = ""360"">","null","","","","","","","","","",""
"null","","html-keyboard-response","249","512388","0.0-249.0","3OCHAWUVGP6LO7UQ5K37HQRTH0KXK5","AU34T9OMHN4Z4","3URJ6VVYUP9BUCT1SZOT2DFI02L4OC","","","null","","","","","","","","","",""
"2132.9000000059605","","image-keyboard-response","250","514522","0.0-250.0","3OCHAWUVGP6LO7UQ5K37HQRTH0KXK5","AU34T9OMHN4Z4","3URJ6VVYUP9BUCT1SZOT2DFI02L4OC","","img/set1/S3.jpg","72","3","structured_load","72","structured_load,random,structured_incentive,structured_normal","2,3,4,2,1,2","4,3,1,2","true","","",""
"null","","html-keyboard-response","251","514875","0.0-251.0","3OCHAWUVGP6LO7UQ5K37HQRTH0KXK5","AU34T9OMHN4Z4","3URJ6VVYUP9BUCT1SZOT2DFI02L4OC","","<img src=""img/set1/S3.jpg"" width=""540"" height = ""360"" style=""border:16px solid orange"">","null","","","","","","","","","",""
"null","","html-keyboard-response","252","515076","0.0-252.0","3OCHAWUVGP6LO7UQ5K37HQRTH0KXK5","AU34T9OMHN4Z4","3URJ6VVYUP9BUCT1SZOT2DFI02L4OC","","","null","","","","","","","","","",""
"572.5","","image-keyboard-response","253","515649","0.0-253.0","3OCHAWUVGP6LO7UQ5K37HQRTH0KXK5","AU34T9OMHN4Z4","3URJ6VVYUP9BUCT1SZOT2DFI02L4OC","","img/set1/S3.jpg","72","3","structured_load","72","structured_load,random,structured_incentive,structured_normal","2,3,4,2,1,2","4,3,1,2","true","","",""
"null","","html-keyboard-response","254","516001","0.0-254.0","3OCHAWUVGP6LO7UQ5K37HQRTH0KXK5","AU34T9OMHN4Z4","3URJ6VVYUP9BUCT1SZOT2DFI02L4OC","","<img src=""img/set1/S3.jpg"" width=""540"" height = ""360"" style=""border:16px solid orange"">","null","","","","","","","","","",""
"null","","html-keyboard-response","255","516203","0.0-255.0","3OCHAWUVGP6LO7UQ5K37HQRTH0KXK5","AU34T9OMHN4Z4","3URJ6VVYUP9BUCT1SZOT2DFI02L4OC","","","null","","","","","","","","","",""
"725.5","","image-keyboard-response","256","516929","0.0-256.0","3OCHAWUVGP6LO7UQ5K37HQRTH0KXK5","AU34T9OMHN4Z4","3URJ6VVYUP9BUCT1SZOT2DFI02L4OC","","img/set1/S1.jpg","83","1","structured_load","83","structured_load,random,structured_incentive,structured_normal","2,3,4,2,1,2","4,3,1,2","true","","",""
"null","","html-keyboard-response","257","517281","0.0-257.0","3OCHAWUVGP6LO7UQ5K37HQRTH0KXK5","AU34T9OMHN4Z4","3URJ6VVYUP9BUCT1SZOT2DFI02L4OC","","<img src=""img/set1/S1.jpg"" width=""540"" height = ""360"" style=""border:16px solid orange"">","null","","","","","","","","","",""
"null","","html-keyboard-response","258","517482","0.0-258.0","3OCHAWUVGP6LO7UQ5K37HQRTH0KXK5","AU34T9OMHN4Z4","3URJ6VVYUP9BUCT1SZOT2DFI02L4OC","","","null","","","","","","","","","",""
"1070.5","","image-keyboard-response","259","518553","0.0-259.0","3OCHAWUVGP6LO7UQ5K37HQRTH0KXK5","AU34T9OMHN4Z4","3URJ6VVYUP9BUCT1SZOT2DFI02L4OC","","img/set1/S2.jpg","68","2","structured_load","68","structured_load,random,structured_incentive,structured_normal","2,3,4,2,1,2","4,3,1,2","true","","",""
"null","","html-keyboard-response","260","518912","0.0-260.0","3OCHAWUVGP6LO7UQ5K37HQRTH0KXK5","AU34T9OMHN4Z4","3URJ6VVYUP9BUCT1SZOT2DFI02L4OC","","<img src=""img/set1/S2.jpg"" width=""540"" height = ""360"" style=""border:16px solid orange"">","null","","","","","","","","","",""
"null","","html-keyboard-response","261","519113","0.0-261.0","3OCHAWUVGP6LO7UQ5K37HQRTH0KXK5","AU34T9OMHN4Z4","3URJ6VVYUP9BUCT1SZOT2DFI02L4OC","","","null","","","","","","","","","",""
"727.4000000059605","","image-keyboard-response","262","519841","0.0-262.0","3OCHAWUVGP6LO7UQ5K37HQRTH0KXK5","AU34T9OMHN4Z4","3URJ6VVYUP9BUCT1SZOT2DFI02L4OC","","img/set1/S3.jpg","72","3","structured_load","72","structured_load,random,structured_incentive,structured_normal","2,3,4,2,1,2","4,3,1,2","true","","",""
"null","","html-keyboard-response","263","520194","0.0-263.0","3OCHAWUVGP6LO7UQ5K37HQRTH0KXK5","AU34T9OMHN4Z4","3URJ6VVYUP9BUCT1SZOT2DFI02L4OC","","<img src=""img/set1/S3.jpg"" width=""540"" height = ""360"" style=""border:16px solid orange"">","null","","","","","","","","","",""
"null","","html-keyboard-response","264","520396","0.0-264.0","3OCHAWUVGP6LO7UQ5K37HQRTH0KXK5","AU34T9OMHN4Z4","3URJ6VVYUP9BUCT1SZOT2DFI02L4OC","","","null","","","","","","","","","",""
"822.7999999970198","","image-keyboard-response","265","521219","0.0-265.0","3OCHAWUVGP6LO7UQ5K37HQRTH0KXK5","AU34T9OMHN4Z4","3URJ6VVYUP9BUCT1SZOT2DFI02L4OC","","img/set1/S4.jpg","74","4","structured_load","74","structured_load,random,structured_incentive,structured_normal","2,3,4,2,1,2","4,3,1,2","true","","",""
"null","","html-keyboard-response","266","521571","0.0-266.0","3OCHAWUVGP6LO7UQ5K37HQRTH0KXK5","AU34T9OMHN4Z4","3URJ6VVYUP9BUCT1SZOT2DFI02L4OC","","<img src=""img/set1/S4.jpg"" width=""540"" height = ""360"" style=""border:16px solid orange"">","null","","","","","","","","","",""
"null","","html-keyboard-response","267","521773","0.0-267.0","3OCHAWUVGP6LO7UQ5K37HQRTH0KXK5","AU34T9OMHN4Z4","3URJ6VVYUP9BUCT1SZOT2DFI02L4OC","","","null","","","","","","","","","",""
"771.9000000059605","","image-keyboard-response","268","522546","0.0-268.0","3OCHAWUVGP6LO7UQ5K37HQRTH0KXK5","AU34T9OMHN4Z4","3URJ6VVYUP9BUCT1SZOT2DFI02L4OC","","img/set1/S4.jpg","74","4","structured_load","74","structured_load,random,structured_incentive,structured_normal","2,3,4,2,1,2","4,3,1,2","true","","",""
"null","","html-keyboard-response","269","522897","0.0-269.0","3OCHAWUVGP6LO7UQ5K37HQRTH0KXK5","AU34T9OMHN4Z4","3URJ6VVYUP9BUCT1SZOT2DFI02L4OC","","<img src=""img/set1/S4.jpg"" width=""540"" height = ""360"" style=""border:16px solid orange"">","null","","","","","","","","","",""
"null","","html-keyboard-response","270","523099","0.0-270.0","3OCHAWUVGP6LO7UQ5K37HQRTH0KXK5","AU34T9OMHN4Z4","3URJ6VVYUP9BUCT1SZOT2DFI02L4OC","","","null","","","","","","","","","",""
"1558","","image-keyboard-response","271","524658","0.0-271.0","3OCHAWUVGP6LO7UQ5K37HQRTH0KXK5","AU34T9OMHN4Z4","3URJ6VVYUP9BUCT1SZOT2DFI02L4OC","","img/set1/S2.jpg","68","2","structured_load","68","structured_load,random,structured_incentive,structured_normal","2,3,4,2,1,2","4,3,1,2","true","","",""
"null","","html-keyboard-response","272","525010","0.0-272.0","3OCHAWUVGP6LO7UQ5K37HQRTH0KXK5","AU34T9OMHN4Z4","3URJ6VVYUP9BUCT1SZOT2DFI02L4OC","","<img src=""img/set1/S2.jpg"" width=""540"" height = ""360"" style=""border:16px solid orange"">","null","","","","","","","","","",""
"null","","html-keyboard-response","273","525212","0.0-273.0","3OCHAWUVGP6LO7UQ5K37HQRTH0KXK5","AU34T9OMHN4Z4","3URJ6VVYUP9BUCT1SZOT2DFI02L4OC","","","null","","","","","","","","","",""
"1805","","image-keyboard-response","274","527018","0.0-274.0","3OCHAWUVGP6LO7UQ5K37HQRTH0KXK5","AU34T9OMHN4Z4","3URJ6VVYUP9BUCT1SZOT2DFI02L4OC","","img/set1/S3.jpg","72","3","structured_load","72","structured_load,random,structured_incentive,structured_normal","2,3,4,2,1,2","4,3,1,2","true","","",""
"null","","html-keyboard-response","275","527370","0.0-275.0","3OCHAWUVGP6LO7UQ5K37HQRTH0KXK5","AU34T9OMHN4Z4","3URJ6VVYUP9BUCT1SZOT2DFI02L4OC","","<img src=""img/set1/S3.jpg"" width=""540"" height = ""360"" style=""border:16px solid orange"">","null","","","","","","","","","",""
"null","","html-keyboard-response","276","527573","0.0-276.0","3OCHAWUVGP6LO7UQ5K37HQRTH0KXK5","AU34T9OMHN4Z4","3URJ6VVYUP9BUCT1SZOT2DFI02L4OC","","","null","","","","","","","","","",""
"627.5","","image-keyboard-response","277","528201","0.0-277.0","3OCHAWUVGP6LO7UQ5K37HQRTH0KXK5","AU34T9OMHN4Z4","3URJ6VVYUP9BUCT1SZOT2DFI02L4OC","","img/set1/S1.jpg","83","1","structured_load","83","structured_load,random,structured_incentive,structured_normal","2,3,4,2,1,2","4,3,1,2","true","","",""
"null","","html-keyboard-response","278","528553","0.0-278.0","3OCHAWUVGP6LO7UQ5K37HQRTH0KXK5","AU34T9OMHN4Z4","3URJ6VVYUP9BUCT1SZOT2DFI02L4OC","","<img src=""img/set1/S1.jpg"" width=""540"" height = ""360"" style=""border:16px solid orange"">","null","","","","","","","","","",""
"null","","html-keyboard-response","279","528754","0.0-279.0","3OCHAWUVGP6LO7UQ5K37HQRTH0KXK5","AU34T9OMHN4Z4","3URJ6VVYUP9BUCT1SZOT2DFI02L4OC","","","null","","","","","","","","","",""
"887.7000000029802","","image-keyboard-response","280","529643","0.0-280.0","3OCHAWUVGP6LO7UQ5K37HQRTH0KXK5","AU34T9OMHN4Z4","3URJ6VVYUP9BUCT1SZOT2DFI02L4OC","","img/set1/S2.jpg","68","2","structured_load","68","structured_load,random,structured_incentive,structured_normal","2,3,4,2,1,2","4,3,1,2","true","","",""
"null","","html-keyboard-response","281","529999","0.0-281.0","3OCHAWUVGP6LO7UQ5K37HQRTH0KXK5","AU34T9OMHN4Z4","3URJ6VVYUP9BUCT1SZOT2DFI02L4OC","","<img src=""img/set1/S2.jpg"" width=""540"" height = ""360"" style=""border:16px solid orange"">","null","","","","","","","","","",""
"null","","html-keyboard-response","282","530203","0.0-282.0","3OCHAWUVGP6LO7UQ5K37HQRTH0KXK5","AU34T9OMHN4Z4","3URJ6VVYUP9BUCT1SZOT2DFI02L4OC","","","null","","","","","","","","","",""
"1900.199999988079","","image-keyboard-response","283","532104","0.0-283.0","3OCHAWUVGP6LO7UQ5K37HQRTH0KXK5","AU34T9OMHN4Z4","3URJ6VVYUP9BUCT1SZOT2DFI02L4OC","","img/set1/S4.jpg","72","4","structured_load","74","structured_load,random,structured_incentive,structured_normal","2,3,4,2,1,2","4,3,1,2","false","","",""
"null","","html-keyboard-response","284","532457","0.0-284.0","3OCHAWUVGP6LO7UQ5K37HQRTH0KXK5","AU34T9OMHN4Z4","3URJ6VVYUP9BUCT1SZOT2DFI02L4OC","","<img src=""img/set1/S4.jpg"" width=""540"" height = ""360"">","null","","","","","","","","","",""
"null","","html-keyboard-response","285","532659","0.0-285.0","3OCHAWUVGP6LO7UQ5K37HQRTH0KXK5","AU34T9OMHN4Z4","3URJ6VVYUP9BUCT1SZOT2DFI02L4OC","","","null","","","","","","","","","",""
"1654.4000000059605","","image-keyboard-response","286","534314","0.0-286.0","3OCHAWUVGP6LO7UQ5K37HQRTH0KXK5","AU34T9OMHN4Z4","3URJ6VVYUP9BUCT1SZOT2DFI02L4OC","","img/set1/S2.jpg","68","2","structured_load","68","structured_load,random,structured_incentive,structured_normal","2,3,4,2,1,2","4,3,1,2","true","","",""
"null","","html-keyboard-response","287","534666","0.0-287.0","3OCHAWUVGP6LO7UQ5K37HQRTH0KXK5","AU34T9OMHN4Z4","3URJ6VVYUP9BUCT1SZOT2DFI02L4OC","","<img src=""img/set1/S2.jpg"" width=""540"" height = ""360"" style=""border:16px solid orange"">","null","","","","","","","","","",""
"null","","html-keyboard-response","288","534868","0.0-288.0","3OCHAWUVGP6LO7UQ5K37HQRTH0KXK5","AU34T9OMHN4Z4","3URJ6VVYUP9BUCT1SZOT2DFI02L4OC","","","null","","","","","","","","","",""
"1521.3999999910593","","image-keyboard-response","289","536391","0.0-289.0","3OCHAWUVGP6LO7UQ5K37HQRTH0KXK5","AU34T9OMHN4Z4","3URJ6VVYUP9BUCT1SZOT2DFI02L4OC","","img/set1/S3.jpg","72","3","structured_load","72","structured_load,random,structured_incentive,structured_normal","2,3,4,2,1,2","4,3,1,2","true","","",""
"null","","html-keyboard-response","290","536745","0.0-290.0","3OCHAWUVGP6LO7UQ5K37HQRTH0KXK5","AU34T9OMHN4Z4","3URJ6VVYUP9BUCT1SZOT2DFI02L4OC","","<img src=""img/set1/S3.jpg"" width=""540"" height = ""360"" style=""border:16px solid orange"">","null","","","","","","","","","",""
"null","","html-keyboard-response","291","536947","0.0-291.0","3OCHAWUVGP6LO7UQ5K37HQRTH0KXK5","AU34T9OMHN4Z4","3URJ6VVYUP9BUCT1SZOT2DFI02L4OC","","","null","","","","","","","","","",""
"1203.7000000029802","","image-keyboard-response","292","538151","0.0-292.0","3OCHAWUVGP6LO7UQ5K37HQRTH0KXK5","AU34T9OMHN4Z4","3URJ6VVYUP9BUCT1SZOT2DFI02L4OC","","img/set1/S2.jpg","68","2","structured_load","68","structured_load,random,structured_incentive,structured_normal","2,3,4,2,1,2","4,3,1,2","true","","",""
"null","","html-keyboard-response","293","538504","0.0-293.0","3OCHAWUVGP6LO7UQ5K37HQRTH0KXK5","AU34T9OMHN4Z4","3URJ6VVYUP9BUCT1SZOT2DFI02L4OC","","<img src=""img/set1/S2.jpg"" width=""540"" height = ""360"" style=""border:16px solid orange"">","null","","","","","","","","","",""
"null","","html-keyboard-response","294","538706","0.0-294.0","3OCHAWUVGP6LO7UQ5K37HQRTH0KXK5","AU34T9OMHN4Z4","3URJ6VVYUP9BUCT1SZOT2DFI02L4OC","","","null","","","","","","","","","",""
"1646.199999988079","","image-keyboard-response","295","540354","0.0-295.0","3OCHAWUVGP6LO7UQ5K37HQRTH0KXK5","AU34T9OMHN4Z4","3URJ6VVYUP9BUCT1SZOT2DFI02L4OC","","img/set1/S3.jpg","72","3","structured_load","72","structured_load,random,structured_incentive,structured_normal","2,3,4,2,1,2","4,3,1,2","true","","",""
"null","","html-keyboard-response","296","540706","0.0-296.0","3OCHAWUVGP6LO7UQ5K37HQRTH0KXK5","AU34T9OMHN4Z4","3URJ6VVYUP9BUCT1SZOT2DFI02L4OC","","<img src=""img/set1/S3.jpg"" width=""540"" height = ""360"" style=""border:16px solid orange"">","null","","","","","","","","","",""
"null","","html-keyboard-response","297","540907","0.0-297.0","3OCHAWUVGP6LO7UQ5K37HQRTH0KXK5","AU34T9OMHN4Z4","3URJ6VVYUP9BUCT1SZOT2DFI02L4OC","","","null","","","","","","","","","",""
"869.1000000089407","","image-keyboard-response","298","541778","0.0-298.0","3OCHAWUVGP6LO7UQ5K37HQRTH0KXK5","AU34T9OMHN4Z4","3URJ6VVYUP9BUCT1SZOT2DFI02L4OC","","img/set1/S1.jpg","83","1","structured_load","83","structured_load,random,structured_incentive,structured_normal","2,3,4,2,1,2","4,3,1,2","true","","",""
"null","","html-keyboard-response","299","542152","0.0-299.0","3OCHAWUVGP6LO7UQ5K37HQRTH0KXK5","AU34T9OMHN4Z4","3URJ6VVYUP9BUCT1SZOT2DFI02L4OC","","<img src=""img/set1/S1.jpg"" width=""540"" height = ""360"" style=""border:16px solid orange"">","null","","","","","","","","","",""
"null","","html-keyboard-response","300","542354","0.0-300.0","3OCHAWUVGP6LO7UQ5K37HQRTH0KXK5","AU34T9OMHN4Z4","3URJ6VVYUP9BUCT1SZOT2DFI02L4OC","","","null","","","","","","","","","",""
"1046","","image-keyboard-response","301","543401","0.0-301.0","3OCHAWUVGP6LO7UQ5K37HQRTH0KXK5","AU34T9OMHN4Z4","3URJ6VVYUP9BUCT1SZOT2DFI02L4OC","","img/set1/S2.jpg","68","2","structured_load","68","structured_load,random,structured_incentive,structured_normal","2,3,4,2,1,2","4,3,1,2","true","","",""
"null","","html-keyboard-response","302","543759","0.0-302.0","3OCHAWUVGP6LO7UQ5K37HQRTH0KXK5","AU34T9OMHN4Z4","3URJ6VVYUP9BUCT1SZOT2DFI02L4OC","","<img src=""img/set1/S2.jpg"" width=""540"" height = ""360"" style=""border:16px solid orange"">","null","","","","","","","","","",""
"null","","html-keyboard-response","303","543960","0.0-303.0","3OCHAWUVGP6LO7UQ5K37HQRTH0KXK5","AU34T9OMHN4Z4","3URJ6VVYUP9BUCT1SZOT2DFI02L4OC","","","null","","","","","","","","","",""
"920.0999999940395","","image-keyboard-response","304","544881","0.0-304.0","3OCHAWUVGP6LO7UQ5K37HQRTH0KXK5","AU34T9OMHN4Z4","3URJ6VVYUP9BUCT1SZOT2DFI02L4OC","","img/set1/S3.jpg","72","3","structured_load","72","structured_load,random,structured_incentive,structured_normal","2,3,4,2,1,2","4,3,1,2","true","","",""
"null","","html-keyboard-response","305","545234","0.0-305.0","3OCHAWUVGP6LO7UQ5K37HQRTH0KXK5","AU34T9OMHN4Z4","3URJ6VVYUP9BUCT1SZOT2DFI02L4OC","","<img src=""img/set1/S3.jpg"" width=""540"" height = ""360"" style=""border:16px solid orange"">","null","","","","","","","","","",""
"null","","html-keyboard-response","306","545436","0.0-306.0","3OCHAWUVGP6LO7UQ5K37HQRTH0KXK5","AU34T9OMHN4Z4","3URJ6VVYUP9BUCT1SZOT2DFI02L4OC","","","null","","","","","","","","","",""
"852.6999999880791","","image-keyboard-response","307","546290","0.0-307.0","3OCHAWUVGP6LO7UQ5K37HQRTH0KXK5","AU34T9OMHN4Z4","3URJ6VVYUP9BUCT1SZOT2DFI02L4OC","","img/set1/S2.jpg","68","2","structured_load","68","structured_load,random,structured_incentive,structured_normal","2,3,4,2,1,2","4,3,1,2","true","","",""
"null","","html-keyboard-response","308","546642","0.0-308.0","3OCHAWUVGP6LO7UQ5K37HQRTH0KXK5","AU34T9OMHN4Z4","3URJ6VVYUP9BUCT1SZOT2DFI02L4OC","","<img src=""img/set1/S2.jpg"" width=""540"" height = ""360"" style=""border:16px solid orange"">","null","","","","","","","","","",""
"null","","html-keyboard-response","309","546844","0.0-309.0","3OCHAWUVGP6LO7UQ5K37HQRTH0KXK5","AU34T9OMHN4Z4","3URJ6VVYUP9BUCT1SZOT2DFI02L4OC","","","null","","","","","","","","","",""
"1796.2999999970198","","image-keyboard-response","310","548642","0.0-310.0","3OCHAWUVGP6LO7UQ5K37HQRTH0KXK5","AU34T9OMHN4Z4","3URJ6VVYUP9BUCT1SZOT2DFI02L4OC","","img/set1/S3.jpg","72","3","structured_load","72","structured_load,random,structured_incentive,structured_normal","2,3,4,2,1,2","4,3,1,2","true","","",""
"null","","html-keyboard-response","311","548995","0.0-311.0","3OCHAWUVGP6LO7UQ5K37HQRTH0KXK5","AU34T9OMHN4Z4","3URJ6VVYUP9BUCT1SZOT2DFI02L4OC","","<img src=""img/set1/S3.jpg"" width=""540"" height = ""360"" style=""border:16px solid orange"">","null","","","","","","","","","",""
"null","","html-keyboard-response","312","549196","0.0-312.0","3OCHAWUVGP6LO7UQ5K37HQRTH0KXK5","AU34T9OMHN4Z4","3URJ6VVYUP9BUCT1SZOT2DFI02L4OC","","","null","","","","","","","","","",""
"1100.5","","image-keyboard-response","313","550298","0.0-313.0","3OCHAWUVGP6LO7UQ5K37HQRTH0KXK5","AU34T9OMHN4Z4","3URJ6VVYUP9BUCT1SZOT2DFI02L4OC","","img/set1/S1.jpg","83","1","structured_load","83","structured_load,random,structured_incentive,structured_normal","2,3,4,2,1,2","4,3,1,2","true","","",""
"null","","html-keyboard-response","314","550667","0.0-314.0","3OCHAWUVGP6LO7UQ5K37HQRTH0KXK5","AU34T9OMHN4Z4","3URJ6VVYUP9BUCT1SZOT2DFI02L4OC","","<img src=""img/set1/S1.jpg"" width=""540"" height = ""360"" style=""border:16px solid orange"">","null","","","","","","","","","",""
"null","","html-keyboard-response","315","550869","0.0-315.0","3OCHAWUVGP6LO7UQ5K37HQRTH0KXK5","AU34T9OMHN4Z4","3URJ6VVYUP9BUCT1SZOT2DFI02L4OC","","","null","","","","","","","","","",""
"548","","image-keyboard-response","316","551418","0.0-316.0","3OCHAWUVGP6LO7UQ5K37HQRTH0KXK5","AU34T9OMHN4Z4","3URJ6VVYUP9BUCT1SZOT2DFI02L4OC","","img/set1/S1.jpg","83","1","structured_load","83","structured_load,random,structured_incentive,structured_normal","2,3,4,2,1,2","4,3,1,2","true","","",""
"null","","html-keyboard-response","317","551770","0.0-317.0","3OCHAWUVGP6LO7UQ5K37HQRTH0KXK5","AU34T9OMHN4Z4","3URJ6VVYUP9BUCT1SZOT2DFI02L4OC","","<img src=""img/set1/S1.jpg"" width=""540"" height = ""360"" style=""border:16px solid orange"">","null","","","","","","","","","",""
"null","","html-keyboard-response","318","551973","0.0-318.0","3OCHAWUVGP6LO7UQ5K37HQRTH0KXK5","AU34T9OMHN4Z4","3URJ6VVYUP9BUCT1SZOT2DFI02L4OC","","","null","","","","","","","","","",""
"723.4000000059605","","image-keyboard-response","319","552697","0.0-319.0","3OCHAWUVGP6LO7UQ5K37HQRTH0KXK5","AU34T9OMHN4Z4","3URJ6VVYUP9BUCT1SZOT2DFI02L4OC","","img/set1/S2.jpg","68","2","structured_load","68","structured_load,random,structured_incentive,structured_normal","2,3,4,2,1,2","4,3,1,2","true","","",""
"null","","html-keyboard-response","320","553050","0.0-320.0","3OCHAWUVGP6LO7UQ5K37HQRTH0KXK5","AU34T9OMHN4Z4","3URJ6VVYUP9BUCT1SZOT2DFI02L4OC","","<img src=""img/set1/S2.jpg"" width=""540"" height = ""360"" style=""border:16px solid orange"">","null","","","","","","","","","",""
"null","","html-keyboard-response","321","553252","0.0-321.0","3OCHAWUVGP6LO7UQ5K37HQRTH0KXK5","AU34T9OMHN4Z4","3URJ6VVYUP9BUCT1SZOT2DFI02L4OC","","","null","","","","","","","","","",""
"1380.7000000029802","","image-keyboard-response","322","554633","0.0-322.0","3OCHAWUVGP6LO7UQ5K37HQRTH0KXK5","AU34T9OMHN4Z4","3URJ6VVYUP9BUCT1SZOT2DFI02L4OC","","img/set1/S3.jpg","72","3","structured_load","72","structured_load,random,structured_incentive,structured_normal","2,3,4,2,1,2","4,3,1,2","true","","",""
"null","","html-keyboard-response","323","554986","0.0-323.0","3OCHAWUVGP6LO7UQ5K37HQRTH0KXK5","AU34T9OMHN4Z4","3URJ6VVYUP9BUCT1SZOT2DFI02L4OC","","<img src=""img/set1/S3.jpg"" width=""540"" height = ""360"" style=""border:16px solid orange"">","null","","","","","","","","","",""
"null","","html-keyboard-response","324","555192","0.0-324.0","3OCHAWUVGP6LO7UQ5K37HQRTH0KXK5","AU34T9OMHN4Z4","3URJ6VVYUP9BUCT1SZOT2DFI02L4OC","","","null","","","","","","","","","",""
"990.5999999940395","","image-keyboard-response","325","556184","0.0-325.0","3OCHAWUVGP6LO7UQ5K37HQRTH0KXK5","AU34T9OMHN4Z4","3URJ6VVYUP9BUCT1SZOT2DFI02L4OC","","img/set1/S4.jpg","74","4","structured_load","74","structured_load,random,structured_incentive,structured_normal","2,3,4,2,1,2","4,3,1,2","true","","",""
"null","","html-keyboard-response","326","556537","0.0-326.0","3OCHAWUVGP6LO7UQ5K37HQRTH0KXK5","AU34T9OMHN4Z4","3URJ6VVYUP9BUCT1SZOT2DFI02L4OC","","<img src=""img/set1/S4.jpg"" width=""540"" height = ""360"" style=""border:16px solid orange"">","null","","","","","","","","","",""
"null","","html-keyboard-response","327","556738","0.0-327.0","3OCHAWUVGP6LO7UQ5K37HQRTH0KXK5","AU34T9OMHN4Z4","3URJ6VVYUP9BUCT1SZOT2DFI02L4OC","","","null","","","","","","","","","",""
"600.5","","image-keyboard-response","328","557340","0.0-328.0","3OCHAWUVGP6LO7UQ5K37HQRTH0KXK5","AU34T9OMHN4Z4","3URJ6VVYUP9BUCT1SZOT2DFI02L4OC","","img/set1/S1.jpg","83","1","structured_load","83","structured_load,random,structured_incentive,structured_normal","2,3,4,2,1,2","4,3,1,2","true","","",""
"null","","html-keyboard-response","329","557693","0.0-329.0","3OCHAWUVGP6LO7UQ5K37HQRTH0KXK5","AU34T9OMHN4Z4","3URJ6VVYUP9BUCT1SZOT2DFI02L4OC","","<img src=""img/set1/S1.jpg"" width=""540"" height = ""360"" style=""border:16px solid orange"">","null","","","","","","","","","",""
"null","","html-keyboard-response","330","557894","0.0-330.0","3OCHAWUVGP6LO7UQ5K37HQRTH0KXK5","AU34T9OMHN4Z4","3URJ6VVYUP9BUCT1SZOT2DFI02L4OC","","","null","","","","","","","","","",""
"538.0999999940395","","image-keyboard-response","331","558433","0.0-331.0","3OCHAWUVGP6LO7UQ5K37HQRTH0KXK5","AU34T9OMHN4Z4","3URJ6VVYUP9BUCT1SZOT2DFI02L4OC","","img/set1/S2.jpg","68","2","structured_load","68","structured_load,random,structured_incentive,structured_normal","2,3,4,2,1,2","4,3,1,2","true","","",""
"null","","html-keyboard-response","332","558789","0.0-332.0","3OCHAWUVGP6LO7UQ5K37HQRTH0KXK5","AU34T9OMHN4Z4","3URJ6VVYUP9BUCT1SZOT2DFI02L4OC","","<img src=""img/set1/S2.jpg"" width=""540"" height = ""360"" style=""border:16px solid orange"">","null","","","","","","","","","",""
"null","","html-keyboard-response","333","558991","0.0-333.0","3OCHAWUVGP6LO7UQ5K37HQRTH0KXK5","AU34T9OMHN4Z4","3URJ6VVYUP9BUCT1SZOT2DFI02L4OC","","","null","","","","","","","","","",""
"1057.5999999940395","","image-keyboard-response","334","560050","0.0-334.0","3OCHAWUVGP6LO7UQ5K37HQRTH0KXK5","AU34T9OMHN4Z4","3URJ6VVYUP9BUCT1SZOT2DFI02L4OC","","img/set1/S3.jpg","72","3","structured_load","72","structured_load,random,structured_incentive,structured_normal","2,3,4,2,1,2","4,3,1,2","true","","",""
"null","","html-keyboard-response","335","560419","0.0-335.0","3OCHAWUVGP6LO7UQ5K37HQRTH0KXK5","AU34T9OMHN4Z4","3URJ6VVYUP9BUCT1SZOT2DFI02L4OC","","<img src=""img/set1/S3.jpg"" width=""540"" height = ""360"" style=""border:16px solid orange"">","null","","","","","","","","","",""
"null","","html-keyboard-response","336","560620","0.0-336.0","3OCHAWUVGP6LO7UQ5K37HQRTH0KXK5","AU34T9OMHN4Z4","3URJ6VVYUP9BUCT1SZOT2DFI02L4OC","","","null","","","","","","","","","",""
"636.2000000029802","","image-keyboard-response","337","561258","0.0-337.0","3OCHAWUVGP6LO7UQ5K37HQRTH0KXK5","AU34T9OMHN4Z4","3URJ6VVYUP9BUCT1SZOT2DFI02L4OC","","img/set1/S1.jpg","83","1","structured_load","83","structured_load,random,structured_incentive,structured_normal","2,3,4,2,1,2","4,3,1,2","true","","",""
"null","","html-keyboard-response","338","561610","0.0-338.0","3OCHAWUVGP6LO7UQ5K37HQRTH0KXK5","AU34T9OMHN4Z4","3URJ6VVYUP9BUCT1SZOT2DFI02L4OC","","<img src=""img/set1/S1.jpg"" width=""540"" height = ""360"" style=""border:16px solid orange"">","null","","","","","","","","","",""
"null","","html-keyboard-response","339","561843","0.0-339.0","3OCHAWUVGP6LO7UQ5K37HQRTH0KXK5","AU34T9OMHN4Z4","3URJ6VVYUP9BUCT1SZOT2DFI02L4OC","","","null","","","","","","","","","",""
"1121.2000000029802","","image-keyboard-response","340","562966","0.0-340.0","3OCHAWUVGP6LO7UQ5K37HQRTH0KXK5","AU34T9OMHN4Z4","3URJ6VVYUP9BUCT1SZOT2DFI02L4OC","","img/set1/S2.jpg","68","2","structured_load","68","structured_load,random,structured_incentive,structured_normal","2,3,4,2,1,2","4,3,1,2","true","","",""
"null","","html-keyboard-response","341","563324","0.0-341.0","3OCHAWUVGP6LO7UQ5K37HQRTH0KXK5","AU34T9OMHN4Z4","3URJ6VVYUP9BUCT1SZOT2DFI02L4OC","","<img src=""img/set1/S2.jpg"" width=""540"" height = ""360"" style=""border:16px solid orange"">","null","","","","","","","","","",""
"null","","html-keyboard-response","342","563535","0.0-342.0","3OCHAWUVGP6LO7UQ5K37HQRTH0KXK5","AU34T9OMHN4Z4","3URJ6VVYUP9BUCT1SZOT2DFI02L4OC","","","null","","","","","","","","","",""
"1465","","image-keyboard-response","343","565001","0.0-343.0","3OCHAWUVGP6LO7UQ5K37HQRTH0KXK5","AU34T9OMHN4Z4","3URJ6VVYUP9BUCT1SZOT2DFI02L4OC","","img/set1/S3.jpg","72","3","structured_load","72","structured_load,random,structured_incentive,structured_normal","2,3,4,2,1,2","4,3,1,2","true","","",""
"null","","html-keyboard-response","344","565353","0.0-344.0","3OCHAWUVGP6LO7UQ5K37HQRTH0KXK5","AU34T9OMHN4Z4","3URJ6VVYUP9BUCT1SZOT2DFI02L4OC","","<img src=""img/set1/S3.jpg"" width=""540"" height = ""360"" style=""border:16px solid orange"">","null","","","","","","","","","",""
"null","","html-keyboard-response","345","565556","0.0-345.0","3OCHAWUVGP6LO7UQ5K37HQRTH0KXK5","AU34T9OMHN4Z4","3URJ6VVYUP9BUCT1SZOT2DFI02L4OC","","","null","","","","","","","","","",""
"754.1000000089407","","image-keyboard-response","346","566312","0.0-346.0","3OCHAWUVGP6LO7UQ5K37HQRTH0KXK5","AU34T9OMHN4Z4","3URJ6VVYUP9BUCT1SZOT2DFI02L4OC","","img/set1/S2.jpg","83","2","structured_load","68","structured_load,random,structured_incentive,structured_normal","2,3,4,2,1,2","4,3,1,2","false","","",""
"null","","html-keyboard-response","347","566663","0.0-347.0","3OCHAWUVGP6LO7UQ5K37HQRTH0KXK5","AU34T9OMHN4Z4","3URJ6VVYUP9BUCT1SZOT2DFI02L4OC","","<img src=""img/set1/S2.jpg"" width=""540"" height = ""360"">","null","","","","","","","","","",""
"null","","html-keyboard-response","348","566869","0.0-348.0","3OCHAWUVGP6LO7UQ5K37HQRTH0KXK5","AU34T9OMHN4Z4","3URJ6VVYUP9BUCT1SZOT2DFI02L4OC","","","null","","","","","","","","","",""
"1076.5","","image-keyboard-response","349","567946","0.0-349.0","3OCHAWUVGP6LO7UQ5K37HQRTH0KXK5","AU34T9OMHN4Z4","3URJ6VVYUP9BUCT1SZOT2DFI02L4OC","","img/set1/S3.jpg","72","3","structured_load","72","structured_load,random,structured_incentive,structured_normal","2,3,4,2,1,2","4,3,1,2","true","","",""
"null","","html-keyboard-response","350","568299","0.0-350.0","3OCHAWUVGP6LO7UQ5K37HQRTH0KXK5","AU34T9OMHN4Z4","3URJ6VVYUP9BUCT1SZOT2DFI02L4OC","","<img src=""img/set1/S3.jpg"" width=""540"" height = ""360"" style=""border:16px solid orange"">","null","","","","","","","","","",""
"null","","html-keyboard-response","351","568501","0.0-351.0","3OCHAWUVGP6LO7UQ5K37HQRTH0KXK5","AU34T9OMHN4Z4","3URJ6VVYUP9BUCT1SZOT2DFI02L4OC","","","null","","","","","","","","","",""
"716.9000000059605","","image-keyboard-response","352","569219","0.0-352.0","3OCHAWUVGP6LO7UQ5K37HQRTH0KXK5","AU34T9OMHN4Z4","3URJ6VVYUP9BUCT1SZOT2DFI02L4OC","","img/set1/S1.jpg","83","1","structured_load","83","structured_load,random,structured_incentive,structured_normal","2,3,4,2,1,2","4,3,1,2","true","","",""
"null","","html-keyboard-response","353","569572","0.0-353.0","3OCHAWUVGP6LO7UQ5K37HQRTH0KXK5","AU34T9OMHN4Z4","3URJ6VVYUP9BUCT1SZOT2DFI02L4OC","","<img src=""img/set1/S1.jpg"" width=""540"" height = ""360"" style=""border:16px solid orange"">","null","","","","","","","","","",""
"null","","html-keyboard-response","354","569774","0.0-354.0","3OCHAWUVGP6LO7UQ5K37HQRTH0KXK5","AU34T9OMHN4Z4","3URJ6VVYUP9BUCT1SZOT2DFI02L4OC","","","null","","","","","","","","","",""
"834.8999999910593","","image-keyboard-response","355","570610","0.0-355.0","3OCHAWUVGP6LO7UQ5K37HQRTH0KXK5","AU34T9OMHN4Z4","3URJ6VVYUP9BUCT1SZOT2DFI02L4OC","","img/set1/S2.jpg","68","2","structured_load","68","structured_load,random,structured_incentive,structured_normal","2,3,4,2,1,2","4,3,1,2","true","","",""
"null","","html-keyboard-response","356","570979","0.0-356.0","3OCHAWUVGP6LO7UQ5K37HQRTH0KXK5","AU34T9OMHN4Z4","3URJ6VVYUP9BUCT1SZOT2DFI02L4OC","","<img src=""img/set1/S2.jpg"" width=""540"" height = ""360"" style=""border:16px solid orange"">","null","","","","","","","","","",""
"null","","html-keyboard-response","357","571183","0.0-357.0","3OCHAWUVGP6LO7UQ5K37HQRTH0KXK5","AU34T9OMHN4Z4","3URJ6VVYUP9BUCT1SZOT2DFI02L4OC","","","null","","","","","","","","","",""
"1088.7000000029802","","image-keyboard-response","358","572273","0.0-358.0","3OCHAWUVGP6LO7UQ5K37HQRTH0KXK5","AU34T9OMHN4Z4","3URJ6VVYUP9BUCT1SZOT2DFI02L4OC","","img/set1/S3.jpg","72","3","structured_load","72","structured_load,random,structured_incentive,structured_normal","2,3,4,2,1,2","4,3,1,2","true","","",""
"null","","html-keyboard-response","359","572625","0.0-359.0","3OCHAWUVGP6LO7UQ5K37HQRTH0KXK5","AU34T9OMHN4Z4","3URJ6VVYUP9BUCT1SZOT2DFI02L4OC","","<img src=""img/set1/S3.jpg"" width=""540"" height = ""360"" style=""border:16px solid orange"">","null","","","","","","","","","",""
"null","","html-keyboard-response","360","572828","0.0-360.0","3OCHAWUVGP6LO7UQ5K37HQRTH0KXK5","AU34T9OMHN4Z4","3URJ6VVYUP9BUCT1SZOT2DFI02L4OC","","","null","","","","","","","","","",""
"820.6000000089407","","image-keyboard-response","361","573649","0.0-361.0","3OCHAWUVGP6LO7UQ5K37HQRTH0KXK5","AU34T9OMHN4Z4","3URJ6VVYUP9BUCT1SZOT2DFI02L4OC","","img/set1/S2.jpg","68","2","structured_load","68","structured_load,random,structured_incentive,structured_normal","2,3,4,2,1,2","4,3,1,2","true","","",""
"null","","html-keyboard-response","362","574002","0.0-362.0","3OCHAWUVGP6LO7UQ5K37HQRTH0KXK5","AU34T9OMHN4Z4","3URJ6VVYUP9BUCT1SZOT2DFI02L4OC","","<img src=""img/set1/S2.jpg"" width=""540"" height = ""360"" style=""border:16px solid orange"">","null","","","","","","","","","",""
"null","","html-keyboard-response","363","574204","0.0-363.0","3OCHAWUVGP6LO7UQ5K37HQRTH0KXK5","AU34T9OMHN4Z4","3URJ6VVYUP9BUCT1SZOT2DFI02L4OC","","","null","","","","","","","","","",""
"1128.2999999970198","","image-keyboard-response","364","575334","0.0-364.0","3OCHAWUVGP6LO7UQ5K37HQRTH0KXK5","AU34T9OMHN4Z4","3URJ6VVYUP9BUCT1SZOT2DFI02L4OC","","img/set1/S3.jpg","72","3","structured_load","72","structured_load,random,structured_incentive,structured_normal","2,3,4,2,1,2","4,3,1,2","true","","",""
"null","","html-keyboard-response","365","575701","0.0-365.0","3OCHAWUVGP6LO7UQ5K37HQRTH0KXK5","AU34T9OMHN4Z4","3URJ6VVYUP9BUCT1SZOT2DFI02L4OC","","<img src=""img/set1/S3.jpg"" width=""540"" height = ""360"" style=""border:16px solid orange"">","null","","","","","","","","","",""
"null","","html-keyboard-response","366","575907","0.0-366.0","3OCHAWUVGP6LO7UQ5K37HQRTH0KXK5","AU34T9OMHN4Z4","3URJ6VVYUP9BUCT1SZOT2DFI02L4OC","","","null","","","","","","","","","",""
"909.7999999970198","","image-keyboard-response","367","576818","0.0-367.0","3OCHAWUVGP6LO7UQ5K37HQRTH0KXK5","AU34T9OMHN4Z4","3URJ6VVYUP9BUCT1SZOT2DFI02L4OC","","img/set1/S2.jpg","68","2","structured_load","68","structured_load,random,structured_incentive,structured_normal","2,3,4,2,1,2","4,3,1,2","true","","",""
"null","","html-keyboard-response","368","577172","0.0-368.0","3OCHAWUVGP6LO7UQ5K37HQRTH0KXK5","AU34T9OMHN4Z4","3URJ6VVYUP9BUCT1SZOT2DFI02L4OC","","<img src=""img/set1/S2.jpg"" width=""540"" height = ""360"" style=""border:16px solid orange"">","null","","","","","","","","","",""
"null","","html-keyboard-response","369","577374","0.0-369.0","3OCHAWUVGP6LO7UQ5K37HQRTH0KXK5","AU34T9OMHN4Z4","3URJ6VVYUP9BUCT1SZOT2DFI02L4OC","","","null","","","","","","","","","",""
"898.5","","image-keyboard-response","370","578274","0.0-370.0","3OCHAWUVGP6LO7UQ5K37HQRTH0KXK5","AU34T9OMHN4Z4","3URJ6VVYUP9BUCT1SZOT2DFI02L4OC","","img/set1/S3.jpg","72","3","structured_load","72","structured_load,random,structured_incentive,structured_normal","2,3,4,2,1,2","4,3,1,2","true","","",""
"null","","html-keyboard-response","371","578626","0.0-371.0","3OCHAWUVGP6LO7UQ5K37HQRTH0KXK5","AU34T9OMHN4Z4","3URJ6VVYUP9BUCT1SZOT2DFI02L4OC","","<img src=""img/set1/S3.jpg"" width=""540"" height = ""360"" style=""border:16px solid orange"">","null","","","","","","","","","",""
"null","","html-keyboard-response","372","578827","0.0-372.0","3OCHAWUVGP6LO7UQ5K37HQRTH0KXK5","AU34T9OMHN4Z4","3URJ6VVYUP9BUCT1SZOT2DFI02L4OC","","","null","","","","","","","","","",""
"765.7999999970198","","image-keyboard-response","373","579594","0.0-373.0","3OCHAWUVGP6LO7UQ5K37HQRTH0KXK5","AU34T9OMHN4Z4","3URJ6VVYUP9BUCT1SZOT2DFI02L4OC","","img/set1/S4.jpg","74","4","structured_load","74","structured_load,random,structured_incentive,structured_normal","2,3,4,2,1,2","4,3,1,2","true","","",""
"null","","html-keyboard-response","374","579951","0.0-374.0","3OCHAWUVGP6LO7UQ5K37HQRTH0KXK5","AU34T9OMHN4Z4","3URJ6VVYUP9BUCT1SZOT2DFI02L4OC","","<img src=""img/set1/S4.jpg"" width=""540"" height = ""360"" style=""border:16px solid orange"">","null","","","","","","","","","",""
"null","","html-keyboard-response","375","580161","0.0-375.0","3OCHAWUVGP6LO7UQ5K37HQRTH0KXK5","AU34T9OMHN4Z4","3URJ6VVYUP9BUCT1SZOT2DFI02L4OC","","","null","","","","","","","","","",""
"548.6000000089407","","image-keyboard-response","376","580711","0.0-376.0","3OCHAWUVGP6LO7UQ5K37HQRTH0KXK5","AU34T9OMHN4Z4","3URJ6VVYUP9BUCT1SZOT2DFI02L4OC","","img/set1/S4.jpg","74","4","structured_load","74","structured_load,random,structured_incentive,structured_normal","2,3,4,2,1,2","4,3,1,2","true","","",""
"null","","html-keyboard-response","377","581072","0.0-377.0","3OCHAWUVGP6LO7UQ5K37HQRTH0KXK5","AU34T9OMHN4Z4","3URJ6VVYUP9BUCT1SZOT2DFI02L4OC","","<img src=""img/set1/S4.jpg"" width=""540"" height = ""360"" style=""border:16px solid orange"">","null","","","","","","","","","",""
"null","","html-keyboard-response","378","581279","0.0-378.0","3OCHAWUVGP6LO7UQ5K37HQRTH0KXK5","AU34T9OMHN4Z4","3URJ6VVYUP9BUCT1SZOT2DFI02L4OC","","","null","","","","","","","","","",""
"770.0999999940395","","image-keyboard-response","379","582050","0.0-379.0","3OCHAWUVGP6LO7UQ5K37HQRTH0KXK5","AU34T9OMHN4Z4","3URJ6VVYUP9BUCT1SZOT2DFI02L4OC","","img/set1/S2.jpg","68","2","structured_load","68","structured_load,random,structured_incentive,structured_normal","2,3,4,2,1,2","4,3,1,2","true","","",""
"null","","html-keyboard-response","380","582402","0.0-380.0","3OCHAWUVGP6LO7UQ5K37HQRTH0KXK5","AU34T9OMHN4Z4","3URJ6VVYUP9BUCT1SZOT2DFI02L4OC","","<img src=""img/set1/S2.jpg"" width=""540"" height = ""360"" style=""border:16px solid orange"">","null","","","","","","","","","",""
"null","","html-keyboard-response","381","582604","0.0-381.0","3OCHAWUVGP6LO7UQ5K37HQRTH0KXK5","AU34T9OMHN4Z4","3URJ6VVYUP9BUCT1SZOT2DFI02L4OC","","","null","","","","","","","","","",""
"1092.7000000029802","","image-keyboard-response","382","583698","0.0-382.0","3OCHAWUVGP6LO7UQ5K37HQRTH0KXK5","AU34T9OMHN4Z4","3URJ6VVYUP9BUCT1SZOT2DFI02L4OC","","img/set1/S3.jpg","72","3","structured_load","72","structured_load,random,structured_incentive,structured_normal","2,3,4,2,1,2","4,3,1,2","true","","",""
"null","","html-keyboard-response","383","584051","0.0-383.0","3OCHAWUVGP6LO7UQ5K37HQRTH0KXK5","AU34T9OMHN4Z4","3URJ6VVYUP9BUCT1SZOT2DFI02L4OC","","<img src=""img/set1/S3.jpg"" width=""540"" height = ""360"" style=""border:16px solid orange"">","null","","","","","","","","","",""
"null","","html-keyboard-response","384","584254","0.0-384.0","3OCHAWUVGP6LO7UQ5K37HQRTH0KXK5","AU34T9OMHN4Z4","3URJ6VVYUP9BUCT1SZOT2DFI02L4OC","","","null","","","","","","","","","",""
