"rt","url","trial_type","trial_index","time_elapsed","internal_node_id","assignmentID","mturkID","hitID","view_history","stimulus","key_press","state","test_part","correct_response","order_block","order_chunk","order_freq","correct","responses","question_order","bonus"
"3110.5","consent.html","external-html","0","3278","0.0-0.0","3PDJHANYK62H329MYCRK4LYHSD16HW","AV22FQTJNBUZT","3G9UA71JVVGUCOKNEKUVXTI6SA17JG","","","","","","","","","","","","",""
"24079.5","","instructions","1","27359","0.0-1.0","3PDJHANYK62H329MYCRK4LYHSD16HW","AV22FQTJNBUZT","3G9UA71JVVGUCOKNEKUVXTI6SA17JG","[{""page_index"":0,""viewing_time"":1758.6000000238419},{""page_index"":1,""viewing_time"":2303.899999976158},{""page_index"":2,""viewing_time"":2129.399999976158},{""page_index"":3,""viewing_time"":5158.200000047684},{""page_index"":4,""viewing_time"":3716.2999999523163},{""page_index"":5,""viewing_time"":5363.700000047684},{""page_index"":6,""viewing_time"":3648.2999999523163}]","","","","","","","","","","","",""
"4990.300000011921","","instructions","2","32350","0.0-2.0","3PDJHANYK62H329MYCRK4LYHSD16HW","AV22FQTJNBUZT","3G9UA71JVVGUCOKNEKUVXTI6SA17JG","[{""page_index"":0,""viewing_time"":4990}]","","","","","","","","","","","",""
"1605.300000011921","","instructions","3","33956","0.0-3.0","3PDJHANYK62H329MYCRK4LYHSD16HW","AV22FQTJNBUZT","3G9UA71JVVGUCOKNEKUVXTI6SA17JG","[{""page_index"":0,""viewing_time"":1605}]","","","","","","","","","","","",""
"1179.300000011921","","image-keyboard-response","4","35137","0.0-4.0","3PDJHANYK62H329MYCRK4LYHSD16HW","AV22FQTJNBUZT","3G9UA71JVVGUCOKNEKUVXTI6SA17JG","","img/set1/S2.jpg","74","2","structured_normal","68","structured_normal,random,structured_load,structured_incentive","1,2,4,2,2,3","4,2,1,3","false","","",""
"null","","html-keyboard-response","5","35490","0.0-5.0","3PDJHANYK62H329MYCRK4LYHSD16HW","AV22FQTJNBUZT","3G9UA71JVVGUCOKNEKUVXTI6SA17JG","","<img src=""img/set1/S2.jpg"" width=""540"" height = ""360"">","null","","","","","","","","","",""
"null","","html-keyboard-response","6","35694","0.0-6.0","3PDJHANYK62H329MYCRK4LYHSD16HW","AV22FQTJNBUZT","3G9UA71JVVGUCOKNEKUVXTI6SA17JG","","","null","","","","","","","","","",""
"913.1000000238419","","image-keyboard-response","7","36609","0.0-7.0","3PDJHANYK62H329MYCRK4LYHSD16HW","AV22FQTJNBUZT","3G9UA71JVVGUCOKNEKUVXTI6SA17JG","","img/set1/S1.jpg","72","1","structured_normal","83","structured_normal,random,structured_load,structured_incentive","1,2,4,2,2,3","4,2,1,3","false","","",""
"null","","html-keyboard-response","8","36962","0.0-8.0","3PDJHANYK62H329MYCRK4LYHSD16HW","AV22FQTJNBUZT","3G9UA71JVVGUCOKNEKUVXTI6SA17JG","","<img src=""img/set1/S1.jpg"" width=""540"" height = ""360"">","null","","","","","","","","","",""
"null","","html-keyboard-response","9","37164","0.0-9.0","3PDJHANYK62H329MYCRK4LYHSD16HW","AV22FQTJNBUZT","3G9UA71JVVGUCOKNEKUVXTI6SA17JG","","","null","","","","","","","","","",""
"852.3000000119209","","image-keyboard-response","10","38018","0.0-10.0","3PDJHANYK62H329MYCRK4LYHSD16HW","AV22FQTJNBUZT","3G9UA71JVVGUCOKNEKUVXTI6SA17JG","","img/set1/S4.jpg","68","4","structured_normal","74","structured_normal,random,structured_load,structured_incentive","1,2,4,2,2,3","4,2,1,3","false","","",""
"null","","html-keyboard-response","11","38374","0.0-11.0","3PDJHANYK62H329MYCRK4LYHSD16HW","AV22FQTJNBUZT","3G9UA71JVVGUCOKNEKUVXTI6SA17JG","","<img src=""img/set1/S4.jpg"" width=""540"" height = ""360"">","null","","","","","","","","","",""
"null","","html-keyboard-response","12","38576","0.0-12.0","3PDJHANYK62H329MYCRK4LYHSD16HW","AV22FQTJNBUZT","3G9UA71JVVGUCOKNEKUVXTI6SA17JG","","","null","","","","","","","","","",""
"846.9000000357628","","image-keyboard-response","13","39426","0.0-13.0","3PDJHANYK62H329MYCRK4LYHSD16HW","AV22FQTJNBUZT","3G9UA71JVVGUCOKNEKUVXTI6SA17JG","","img/set1/S3.jpg","83","3","structured_normal","72","structured_normal,random,structured_load,structured_incentive","1,2,4,2,2,3","4,2,1,3","false","","",""
"null","","html-keyboard-response","14","39779","0.0-14.0","3PDJHANYK62H329MYCRK4LYHSD16HW","AV22FQTJNBUZT","3G9UA71JVVGUCOKNEKUVXTI6SA17JG","","<img src=""img/set1/S3.jpg"" width=""540"" height = ""360"">","null","","","","","","","","","",""
"null","","html-keyboard-response","15","39982","0.0-15.0","3PDJHANYK62H329MYCRK4LYHSD16HW","AV22FQTJNBUZT","3G9UA71JVVGUCOKNEKUVXTI6SA17JG","","","null","","","","","","","","","",""
"816","","image-keyboard-response","16","40800","0.0-16.0","3PDJHANYK62H329MYCRK4LYHSD16HW","AV22FQTJNBUZT","3G9UA71JVVGUCOKNEKUVXTI6SA17JG","","img/set1/S4.jpg","83","4","structured_normal","74","structured_normal,random,structured_load,structured_incentive","1,2,4,2,2,3","4,2,1,3","false","","",""
"null","","html-keyboard-response","17","41152","0.0-17.0","3PDJHANYK62H329MYCRK4LYHSD16HW","AV22FQTJNBUZT","3G9UA71JVVGUCOKNEKUVXTI6SA17JG","","<img src=""img/set1/S4.jpg"" width=""540"" height = ""360"">","null","","","","","","","","","",""
"null","","html-keyboard-response","18","41356","0.0-18.0","3PDJHANYK62H329MYCRK4LYHSD16HW","AV22FQTJNBUZT","3G9UA71JVVGUCOKNEKUVXTI6SA17JG","","","null","","","","","","","","","",""
"858.5","","image-keyboard-response","19","42216","0.0-19.0","3PDJHANYK62H329MYCRK4LYHSD16HW","AV22FQTJNBUZT","3G9UA71JVVGUCOKNEKUVXTI6SA17JG","","img/set1/S3.jpg","72","3","structured_normal","72","structured_normal,random,structured_load,structured_incentive","1,2,4,2,2,3","4,2,1,3","true","","",""
"null","","html-keyboard-response","20","42567","0.0-20.0","3PDJHANYK62H329MYCRK4LYHSD16HW","AV22FQTJNBUZT","3G9UA71JVVGUCOKNEKUVXTI6SA17JG","","<img src=""img/set1/S3.jpg"" width=""540"" height = ""360"" style=""border:16px solid orange"">","null","","","","","","","","","",""
"null","","html-keyboard-response","21","42770","0.0-21.0","3PDJHANYK62H329MYCRK4LYHSD16HW","AV22FQTJNBUZT","3G9UA71JVVGUCOKNEKUVXTI6SA17JG","","","null","","","","","","","","","",""
"797.6999999880791","","image-keyboard-response","22","43569","0.0-22.0","3PDJHANYK62H329MYCRK4LYHSD16HW","AV22FQTJNBUZT","3G9UA71JVVGUCOKNEKUVXTI6SA17JG","","img/set1/S3.jpg","72","3","structured_normal","72","structured_normal,random,structured_load,structured_incentive","1,2,4,2,2,3","4,2,1,3","true","","",""
"null","","html-keyboard-response","23","43922","0.0-23.0","3PDJHANYK62H329MYCRK4LYHSD16HW","AV22FQTJNBUZT","3G9UA71JVVGUCOKNEKUVXTI6SA17JG","","<img src=""img/set1/S3.jpg"" width=""540"" height = ""360"" style=""border:16px solid orange"">","null","","","","","","","","","",""
"null","","html-keyboard-response","24","44125","0.0-24.0","3PDJHANYK62H329MYCRK4LYHSD16HW","AV22FQTJNBUZT","3G9UA71JVVGUCOKNEKUVXTI6SA17JG","","","null","","","","","","","","","",""
"866.5","","image-keyboard-response","25","44993","0.0-25.0","3PDJHANYK62H329MYCRK4LYHSD16HW","AV22FQTJNBUZT","3G9UA71JVVGUCOKNEKUVXTI6SA17JG","","img/set1/S1.jpg","72","1","structured_normal","83","structured_normal,random,structured_load,structured_incentive","1,2,4,2,2,3","4,2,1,3","false","","",""
"null","","html-keyboard-response","26","45346","0.0-26.0","3PDJHANYK62H329MYCRK4LYHSD16HW","AV22FQTJNBUZT","3G9UA71JVVGUCOKNEKUVXTI6SA17JG","","<img src=""img/set1/S1.jpg"" width=""540"" height = ""360"">","null","","","","","","","","","",""
"null","","html-keyboard-response","27","45548","0.0-27.0","3PDJHANYK62H329MYCRK4LYHSD16HW","AV22FQTJNBUZT","3G9UA71JVVGUCOKNEKUVXTI6SA17JG","","","null","","","","","","","","","",""
"619.1000000238419","","image-keyboard-response","28","46170","0.0-28.0","3PDJHANYK62H329MYCRK4LYHSD16HW","AV22FQTJNBUZT","3G9UA71JVVGUCOKNEKUVXTI6SA17JG","","img/set1/S4.jpg","83","4","structured_normal","74","structured_normal,random,structured_load,structured_incentive","1,2,4,2,2,3","4,2,1,3","false","","",""
"null","","html-keyboard-response","29","46522","0.0-29.0","3PDJHANYK62H329MYCRK4LYHSD16HW","AV22FQTJNBUZT","3G9UA71JVVGUCOKNEKUVXTI6SA17JG","","<img src=""img/set1/S4.jpg"" width=""540"" height = ""360"">","null","","","","","","","","","",""
"null","","html-keyboard-response","30","46725","0.0-30.0","3PDJHANYK62H329MYCRK4LYHSD16HW","AV22FQTJNBUZT","3G9UA71JVVGUCOKNEKUVXTI6SA17JG","","","null","","","","","","","","","",""
"627","","image-keyboard-response","31","47354","0.0-31.0","3PDJHANYK62H329MYCRK4LYHSD16HW","AV22FQTJNBUZT","3G9UA71JVVGUCOKNEKUVXTI6SA17JG","","img/set1/S3.jpg","68","3","structured_normal","72","structured_normal,random,structured_load,structured_incentive","1,2,4,2,2,3","4,2,1,3","false","","",""
"null","","html-keyboard-response","32","47709","0.0-32.0","3PDJHANYK62H329MYCRK4LYHSD16HW","AV22FQTJNBUZT","3G9UA71JVVGUCOKNEKUVXTI6SA17JG","","<img src=""img/set1/S3.jpg"" width=""540"" height = ""360"">","null","","","","","","","","","",""
"null","","html-keyboard-response","33","47913","0.0-33.0","3PDJHANYK62H329MYCRK4LYHSD16HW","AV22FQTJNBUZT","3G9UA71JVVGUCOKNEKUVXTI6SA17JG","","","null","","","","","","","","","",""
"339.5","","image-keyboard-response","34","48257","0.0-34.0","3PDJHANYK62H329MYCRK4LYHSD16HW","AV22FQTJNBUZT","3G9UA71JVVGUCOKNEKUVXTI6SA17JG","","img/set1/S3.jpg","72","3","structured_normal","72","structured_normal,random,structured_load,structured_incentive","1,2,4,2,2,3","4,2,1,3","true","","",""
"null","","html-keyboard-response","35","48609","0.0-35.0","3PDJHANYK62H329MYCRK4LYHSD16HW","AV22FQTJNBUZT","3G9UA71JVVGUCOKNEKUVXTI6SA17JG","","<img src=""img/set1/S3.jpg"" width=""540"" height = ""360"" style=""border:16px solid orange"">","null","","","","","","","","","",""
"null","","html-keyboard-response","36","48812","0.0-36.0","3PDJHANYK62H329MYCRK4LYHSD16HW","AV22FQTJNBUZT","3G9UA71JVVGUCOKNEKUVXTI6SA17JG","","","null","","","","","","","","","",""
"515.3000000119209","","image-keyboard-response","37","49330","0.0-37.0","3PDJHANYK62H329MYCRK4LYHSD16HW","AV22FQTJNBUZT","3G9UA71JVVGUCOKNEKUVXTI6SA17JG","","img/set1/S3.jpg","72","3","structured_normal","72","structured_normal,random,structured_load,structured_incentive","1,2,4,2,2,3","4,2,1,3","true","","",""
"null","","html-keyboard-response","38","49683","0.0-38.0","3PDJHANYK62H329MYCRK4LYHSD16HW","AV22FQTJNBUZT","3G9UA71JVVGUCOKNEKUVXTI6SA17JG","","<img src=""img/set1/S3.jpg"" width=""540"" height = ""360"" style=""border:16px solid orange"">","null","","","","","","","","","",""
"null","","html-keyboard-response","39","49886","0.0-39.0","3PDJHANYK62H329MYCRK4LYHSD16HW","AV22FQTJNBUZT","3G9UA71JVVGUCOKNEKUVXTI6SA17JG","","","null","","","","","","","","","",""
"530.3000000119209","","image-keyboard-response","40","50418","0.0-40.0","3PDJHANYK62H329MYCRK4LYHSD16HW","AV22FQTJNBUZT","3G9UA71JVVGUCOKNEKUVXTI6SA17JG","","img/set1/S4.jpg","74","4","structured_normal","74","structured_normal,random,structured_load,structured_incentive","1,2,4,2,2,3","4,2,1,3","true","","",""
"null","","html-keyboard-response","41","50772","0.0-41.0","3PDJHANYK62H329MYCRK4LYHSD16HW","AV22FQTJNBUZT","3G9UA71JVVGUCOKNEKUVXTI6SA17JG","","<img src=""img/set1/S4.jpg"" width=""540"" height = ""360"" style=""border:16px solid orange"">","null","","","","","","","","","",""
"null","","html-keyboard-response","42","50973","0.0-42.0","3PDJHANYK62H329MYCRK4LYHSD16HW","AV22FQTJNBUZT","3G9UA71JVVGUCOKNEKUVXTI6SA17JG","","","null","","","","","","","","","",""
"434.80000001192093","","image-keyboard-response","43","51409","0.0-43.0","3PDJHANYK62H329MYCRK4LYHSD16HW","AV22FQTJNBUZT","3G9UA71JVVGUCOKNEKUVXTI6SA17JG","","img/set1/S4.jpg","74","4","structured_normal","74","structured_normal,random,structured_load,structured_incentive","1,2,4,2,2,3","4,2,1,3","true","","",""
"null","","html-keyboard-response","44","51762","0.0-44.0","3PDJHANYK62H329MYCRK4LYHSD16HW","AV22FQTJNBUZT","3G9UA71JVVGUCOKNEKUVXTI6SA17JG","","<img src=""img/set1/S4.jpg"" width=""540"" height = ""360"" style=""border:16px solid orange"">","null","","","","","","","","","",""
"null","","html-keyboard-response","45","51963","0.0-45.0","3PDJHANYK62H329MYCRK4LYHSD16HW","AV22FQTJNBUZT","3G9UA71JVVGUCOKNEKUVXTI6SA17JG","","","null","","","","","","","","","",""
"756.6000000238419","","image-keyboard-response","46","52721","0.0-46.0","3PDJHANYK62H329MYCRK4LYHSD16HW","AV22FQTJNBUZT","3G9UA71JVVGUCOKNEKUVXTI6SA17JG","","img/set1/S1.jpg","83","1","structured_normal","83","structured_normal,random,structured_load,structured_incentive","1,2,4,2,2,3","4,2,1,3","true","","",""
"null","","html-keyboard-response","47","53074","0.0-47.0","3PDJHANYK62H329MYCRK4LYHSD16HW","AV22FQTJNBUZT","3G9UA71JVVGUCOKNEKUVXTI6SA17JG","","<img src=""img/set1/S1.jpg"" width=""540"" height = ""360"" style=""border:16px solid orange"">","null","","","","","","","","","",""
"null","","html-keyboard-response","48","53277","0.0-48.0","3PDJHANYK62H329MYCRK4LYHSD16HW","AV22FQTJNBUZT","3G9UA71JVVGUCOKNEKUVXTI6SA17JG","","","null","","","","","","","","","",""
"617.8000000119209","","image-keyboard-response","49","53897","0.0-49.0","3PDJHANYK62H329MYCRK4LYHSD16HW","AV22FQTJNBUZT","3G9UA71JVVGUCOKNEKUVXTI6SA17JG","","img/set1/S2.jpg","72","2","structured_normal","68","structured_normal,random,structured_load,structured_incentive","1,2,4,2,2,3","4,2,1,3","false","","",""
"null","","html-keyboard-response","50","54250","0.0-50.0","3PDJHANYK62H329MYCRK4LYHSD16HW","AV22FQTJNBUZT","3G9UA71JVVGUCOKNEKUVXTI6SA17JG","","<img src=""img/set1/S2.jpg"" width=""540"" height = ""360"">","null","","","","","","","","","",""
"null","","html-keyboard-response","51","54452","0.0-51.0","3PDJHANYK62H329MYCRK4LYHSD16HW","AV22FQTJNBUZT","3G9UA71JVVGUCOKNEKUVXTI6SA17JG","","","null","","","","","","","","","",""
"1050.3999999761581","","image-keyboard-response","52","55504","0.0-52.0","3PDJHANYK62H329MYCRK4LYHSD16HW","AV22FQTJNBUZT","3G9UA71JVVGUCOKNEKUVXTI6SA17JG","","img/set1/S1.jpg","68","1","structured_normal","83","structured_normal,random,structured_load,structured_incentive","1,2,4,2,2,3","4,2,1,3","false","","",""
"null","","html-keyboard-response","53","55856","0.0-53.0","3PDJHANYK62H329MYCRK4LYHSD16HW","AV22FQTJNBUZT","3G9UA71JVVGUCOKNEKUVXTI6SA17JG","","<img src=""img/set1/S1.jpg"" width=""540"" height = ""360"">","null","","","","","","","","","",""
"null","","html-keyboard-response","54","56057","0.0-54.0","3PDJHANYK62H329MYCRK4LYHSD16HW","AV22FQTJNBUZT","3G9UA71JVVGUCOKNEKUVXTI6SA17JG","","","null","","","","","","","","","",""
"742.3000000119209","","image-keyboard-response","55","56801","0.0-55.0","3PDJHANYK62H329MYCRK4LYHSD16HW","AV22FQTJNBUZT","3G9UA71JVVGUCOKNEKUVXTI6SA17JG","","img/set1/S4.jpg","74","4","structured_normal","74","structured_normal,random,structured_load,structured_incentive","1,2,4,2,2,3","4,2,1,3","true","","",""
"null","","html-keyboard-response","56","57155","0.0-56.0","3PDJHANYK62H329MYCRK4LYHSD16HW","AV22FQTJNBUZT","3G9UA71JVVGUCOKNEKUVXTI6SA17JG","","<img src=""img/set1/S4.jpg"" width=""540"" height = ""360"" style=""border:16px solid orange"">","null","","","","","","","","","",""
"null","","html-keyboard-response","57","57357","0.0-57.0","3PDJHANYK62H329MYCRK4LYHSD16HW","AV22FQTJNBUZT","3G9UA71JVVGUCOKNEKUVXTI6SA17JG","","","null","","","","","","","","","",""
"698.3000000119209","","image-keyboard-response","58","58058","0.0-58.0","3PDJHANYK62H329MYCRK4LYHSD16HW","AV22FQTJNBUZT","3G9UA71JVVGUCOKNEKUVXTI6SA17JG","","img/set1/S1.jpg","83","1","structured_normal","83","structured_normal,random,structured_load,structured_incentive","1,2,4,2,2,3","4,2,1,3","true","","",""
"null","","html-keyboard-response","59","58411","0.0-59.0","3PDJHANYK62H329MYCRK4LYHSD16HW","AV22FQTJNBUZT","3G9UA71JVVGUCOKNEKUVXTI6SA17JG","","<img src=""img/set1/S1.jpg"" width=""540"" height = ""360"" style=""border:16px solid orange"">","null","","","","","","","","","",""
"null","","html-keyboard-response","60","58613","0.0-60.0","3PDJHANYK62H329MYCRK4LYHSD16HW","AV22FQTJNBUZT","3G9UA71JVVGUCOKNEKUVXTI6SA17JG","","","null","","","","","","","","","",""
"897.8000000119209","","image-keyboard-response","61","59513","0.0-61.0","3PDJHANYK62H329MYCRK4LYHSD16HW","AV22FQTJNBUZT","3G9UA71JVVGUCOKNEKUVXTI6SA17JG","","img/set1/S4.jpg","74","4","structured_normal","74","structured_normal,random,structured_load,structured_incentive","1,2,4,2,2,3","4,2,1,3","true","","",""
"null","","html-keyboard-response","62","59865","0.0-62.0","3PDJHANYK62H329MYCRK4LYHSD16HW","AV22FQTJNBUZT","3G9UA71JVVGUCOKNEKUVXTI6SA17JG","","<img src=""img/set1/S4.jpg"" width=""540"" height = ""360"" style=""border:16px solid orange"">","null","","","","","","","","","",""
"null","","html-keyboard-response","63","60068","0.0-63.0","3PDJHANYK62H329MYCRK4LYHSD16HW","AV22FQTJNBUZT","3G9UA71JVVGUCOKNEKUVXTI6SA17JG","","","null","","","","","","","","","",""
"418.5","","image-keyboard-response","64","60488","0.0-64.0","3PDJHANYK62H329MYCRK4LYHSD16HW","AV22FQTJNBUZT","3G9UA71JVVGUCOKNEKUVXTI6SA17JG","","img/set1/S3.jpg","72","3","structured_normal","72","structured_normal,random,structured_load,structured_incentive","1,2,4,2,2,3","4,2,1,3","true","","",""
"null","","html-keyboard-response","65","60840","0.0-65.0","3PDJHANYK62H329MYCRK4LYHSD16HW","AV22FQTJNBUZT","3G9UA71JVVGUCOKNEKUVXTI6SA17JG","","<img src=""img/set1/S3.jpg"" width=""540"" height = ""360"" style=""border:16px solid orange"">","null","","","","","","","","","",""
"null","","html-keyboard-response","66","61043","0.0-66.0","3PDJHANYK62H329MYCRK4LYHSD16HW","AV22FQTJNBUZT","3G9UA71JVVGUCOKNEKUVXTI6SA17JG","","","null","","","","","","","","","",""
"444.19999998807907","","image-keyboard-response","67","61490","0.0-67.0","3PDJHANYK62H329MYCRK4LYHSD16HW","AV22FQTJNBUZT","3G9UA71JVVGUCOKNEKUVXTI6SA17JG","","img/set1/S4.jpg","74","4","structured_normal","74","structured_normal,random,structured_load,structured_incentive","1,2,4,2,2,3","4,2,1,3","true","","",""
"null","","html-keyboard-response","68","61844","0.0-68.0","3PDJHANYK62H329MYCRK4LYHSD16HW","AV22FQTJNBUZT","3G9UA71JVVGUCOKNEKUVXTI6SA17JG","","<img src=""img/set1/S4.jpg"" width=""540"" height = ""360"" style=""border:16px solid orange"">","null","","","","","","","","","",""
"null","","html-keyboard-response","69","62046","0.0-69.0","3PDJHANYK62H329MYCRK4LYHSD16HW","AV22FQTJNBUZT","3G9UA71JVVGUCOKNEKUVXTI6SA17JG","","","null","","","","","","","","","",""
"500.10000002384186","","image-keyboard-response","70","62552","0.0-70.0","3PDJHANYK62H329MYCRK4LYHSD16HW","AV22FQTJNBUZT","3G9UA71JVVGUCOKNEKUVXTI6SA17JG","","img/set1/S3.jpg","72","3","structured_normal","72","structured_normal,random,structured_load,structured_incentive","1,2,4,2,2,3","4,2,1,3","true","","",""
"null","","html-keyboard-response","71","62906","0.0-71.0","3PDJHANYK62H329MYCRK4LYHSD16HW","AV22FQTJNBUZT","3G9UA71JVVGUCOKNEKUVXTI6SA17JG","","<img src=""img/set1/S3.jpg"" width=""540"" height = ""360"" style=""border:16px solid orange"">","null","","","","","","","","","",""
"null","","html-keyboard-response","72","63108","0.0-72.0","3PDJHANYK62H329MYCRK4LYHSD16HW","AV22FQTJNBUZT","3G9UA71JVVGUCOKNEKUVXTI6SA17JG","","","null","","","","","","","","","",""
"379.19999998807907","","image-keyboard-response","73","63491","0.0-73.0","3PDJHANYK62H329MYCRK4LYHSD16HW","AV22FQTJNBUZT","3G9UA71JVVGUCOKNEKUVXTI6SA17JG","","img/set1/S3.jpg","72","3","structured_normal","72","structured_normal,random,structured_load,structured_incentive","1,2,4,2,2,3","4,2,1,3","true","","",""
"null","","html-keyboard-response","74","63853","0.0-74.0","3PDJHANYK62H329MYCRK4LYHSD16HW","AV22FQTJNBUZT","3G9UA71JVVGUCOKNEKUVXTI6SA17JG","","<img src=""img/set1/S3.jpg"" width=""540"" height = ""360"" style=""border:16px solid orange"">","null","","","","","","","","","",""
"null","","html-keyboard-response","75","64055","0.0-75.0","3PDJHANYK62H329MYCRK4LYHSD16HW","AV22FQTJNBUZT","3G9UA71JVVGUCOKNEKUVXTI6SA17JG","","","null","","","","","","","","","",""
"575.8000000119209","","image-keyboard-response","76","64632","0.0-76.0","3PDJHANYK62H329MYCRK4LYHSD16HW","AV22FQTJNBUZT","3G9UA71JVVGUCOKNEKUVXTI6SA17JG","","img/set1/S1.jpg","68","1","structured_normal","83","structured_normal,random,structured_load,structured_incentive","1,2,4,2,2,3","4,2,1,3","false","","",""
"null","","html-keyboard-response","77","64985","0.0-77.0","3PDJHANYK62H329MYCRK4LYHSD16HW","AV22FQTJNBUZT","3G9UA71JVVGUCOKNEKUVXTI6SA17JG","","<img src=""img/set1/S1.jpg"" width=""540"" height = ""360"">","null","","","","","","","","","",""
"null","","html-keyboard-response","78","65189","0.0-78.0","3PDJHANYK62H329MYCRK4LYHSD16HW","AV22FQTJNBUZT","3G9UA71JVVGUCOKNEKUVXTI6SA17JG","","","null","","","","","","","","","",""
"609.1999999880791","","image-keyboard-response","79","65800","0.0-79.0","3PDJHANYK62H329MYCRK4LYHSD16HW","AV22FQTJNBUZT","3G9UA71JVVGUCOKNEKUVXTI6SA17JG","","img/set1/S2.jpg","68","2","structured_normal","68","structured_normal,random,structured_load,structured_incentive","1,2,4,2,2,3","4,2,1,3","true","","",""
"null","","html-keyboard-response","80","66153","0.0-80.0","3PDJHANYK62H329MYCRK4LYHSD16HW","AV22FQTJNBUZT","3G9UA71JVVGUCOKNEKUVXTI6SA17JG","","<img src=""img/set1/S2.jpg"" width=""540"" height = ""360"" style=""border:16px solid orange"">","null","","","","","","","","","",""
"null","","html-keyboard-response","81","66356","0.0-81.0","3PDJHANYK62H329MYCRK4LYHSD16HW","AV22FQTJNBUZT","3G9UA71JVVGUCOKNEKUVXTI6SA17JG","","","null","","","","","","","","","",""
"668.3000000119209","","image-keyboard-response","82","67026","0.0-82.0","3PDJHANYK62H329MYCRK4LYHSD16HW","AV22FQTJNBUZT","3G9UA71JVVGUCOKNEKUVXTI6SA17JG","","img/set1/S3.jpg","72","3","structured_normal","72","structured_normal,random,structured_load,structured_incentive","1,2,4,2,2,3","4,2,1,3","true","","",""
"null","","html-keyboard-response","83","67381","0.0-83.0","3PDJHANYK62H329MYCRK4LYHSD16HW","AV22FQTJNBUZT","3G9UA71JVVGUCOKNEKUVXTI6SA17JG","","<img src=""img/set1/S3.jpg"" width=""540"" height = ""360"" style=""border:16px solid orange"">","null","","","","","","","","","",""
"null","","html-keyboard-response","84","67582","0.0-84.0","3PDJHANYK62H329MYCRK4LYHSD16HW","AV22FQTJNBUZT","3G9UA71JVVGUCOKNEKUVXTI6SA17JG","","","null","","","","","","","","","",""
"841.9000000357628","","image-keyboard-response","85","68425","0.0-85.0","3PDJHANYK62H329MYCRK4LYHSD16HW","AV22FQTJNBUZT","3G9UA71JVVGUCOKNEKUVXTI6SA17JG","","img/set1/S2.jpg","68","2","structured_normal","68","structured_normal,random,structured_load,structured_incentive","1,2,4,2,2,3","4,2,1,3","true","","",""
"null","","html-keyboard-response","86","68778","0.0-86.0","3PDJHANYK62H329MYCRK4LYHSD16HW","AV22FQTJNBUZT","3G9UA71JVVGUCOKNEKUVXTI6SA17JG","","<img src=""img/set1/S2.jpg"" width=""540"" height = ""360"" style=""border:16px solid orange"">","null","","","","","","","","","",""
"null","","html-keyboard-response","87","68980","0.0-87.0","3PDJHANYK62H329MYCRK4LYHSD16HW","AV22FQTJNBUZT","3G9UA71JVVGUCOKNEKUVXTI6SA17JG","","","null","","","","","","","","","",""
"498.39999997615814","","image-keyboard-response","88","69480","0.0-88.0","3PDJHANYK62H329MYCRK4LYHSD16HW","AV22FQTJNBUZT","3G9UA71JVVGUCOKNEKUVXTI6SA17JG","","img/set1/S1.jpg","83","1","structured_normal","83","structured_normal,random,structured_load,structured_incentive","1,2,4,2,2,3","4,2,1,3","true","","",""
"null","","html-keyboard-response","89","69833","0.0-89.0","3PDJHANYK62H329MYCRK4LYHSD16HW","AV22FQTJNBUZT","3G9UA71JVVGUCOKNEKUVXTI6SA17JG","","<img src=""img/set1/S1.jpg"" width=""540"" height = ""360"" style=""border:16px solid orange"">","null","","","","","","","","","",""
"null","","html-keyboard-response","90","70036","0.0-90.0","3PDJHANYK62H329MYCRK4LYHSD16HW","AV22FQTJNBUZT","3G9UA71JVVGUCOKNEKUVXTI6SA17JG","","","null","","","","","","","","","",""
"467.19999998807907","","image-keyboard-response","91","70505","0.0-91.0","3PDJHANYK62H329MYCRK4LYHSD16HW","AV22FQTJNBUZT","3G9UA71JVVGUCOKNEKUVXTI6SA17JG","","img/set1/S4.jpg","72","4","structured_normal","74","structured_normal,random,structured_load,structured_incentive","1,2,4,2,2,3","4,2,1,3","false","","",""
"null","","html-keyboard-response","92","70856","0.0-92.0","3PDJHANYK62H329MYCRK4LYHSD16HW","AV22FQTJNBUZT","3G9UA71JVVGUCOKNEKUVXTI6SA17JG","","<img src=""img/set1/S4.jpg"" width=""540"" height = ""360"">","null","","","","","","","","","",""
"null","","html-keyboard-response","93","71059","0.0-93.0","3PDJHANYK62H329MYCRK4LYHSD16HW","AV22FQTJNBUZT","3G9UA71JVVGUCOKNEKUVXTI6SA17JG","","","null","","","","","","","","","",""
"643.8000000119209","","image-keyboard-response","94","71704","0.0-94.0","3PDJHANYK62H329MYCRK4LYHSD16HW","AV22FQTJNBUZT","3G9UA71JVVGUCOKNEKUVXTI6SA17JG","","img/set1/S4.jpg","74","4","structured_normal","74","structured_normal,random,structured_load,structured_incentive","1,2,4,2,2,3","4,2,1,3","true","","",""
"null","","html-keyboard-response","95","72056","0.0-95.0","3PDJHANYK62H329MYCRK4LYHSD16HW","AV22FQTJNBUZT","3G9UA71JVVGUCOKNEKUVXTI6SA17JG","","<img src=""img/set1/S4.jpg"" width=""540"" height = ""360"" style=""border:16px solid orange"">","null","","","","","","","","","",""
"null","","html-keyboard-response","96","72257","0.0-96.0","3PDJHANYK62H329MYCRK4LYHSD16HW","AV22FQTJNBUZT","3G9UA71JVVGUCOKNEKUVXTI6SA17JG","","","null","","","","","","","","","",""
"710.5","","image-keyboard-response","97","72969","0.0-97.0","3PDJHANYK62H329MYCRK4LYHSD16HW","AV22FQTJNBUZT","3G9UA71JVVGUCOKNEKUVXTI6SA17JG","","img/set1/S2.jpg","68","2","structured_normal","68","structured_normal,random,structured_load,structured_incentive","1,2,4,2,2,3","4,2,1,3","true","","",""
"null","","html-keyboard-response","98","73323","0.0-98.0","3PDJHANYK62H329MYCRK4LYHSD16HW","AV22FQTJNBUZT","3G9UA71JVVGUCOKNEKUVXTI6SA17JG","","<img src=""img/set1/S2.jpg"" width=""540"" height = ""360"" style=""border:16px solid orange"">","null","","","","","","","","","",""
"null","","html-keyboard-response","99","73525","0.0-99.0","3PDJHANYK62H329MYCRK4LYHSD16HW","AV22FQTJNBUZT","3G9UA71JVVGUCOKNEKUVXTI6SA17JG","","","null","","","","","","","","","",""
"634.3000000119209","","image-keyboard-response","100","74162","0.0-100.0","3PDJHANYK62H329MYCRK4LYHSD16HW","AV22FQTJNBUZT","3G9UA71JVVGUCOKNEKUVXTI6SA17JG","","img/set1/S3.jpg","72","3","structured_normal","72","structured_normal,random,structured_load,structured_incentive","1,2,4,2,2,3","4,2,1,3","true","","",""
"null","","html-keyboard-response","101","74516","0.0-101.0","3PDJHANYK62H329MYCRK4LYHSD16HW","AV22FQTJNBUZT","3G9UA71JVVGUCOKNEKUVXTI6SA17JG","","<img src=""img/set1/S3.jpg"" width=""540"" height = ""360"" style=""border:16px solid orange"">","null","","","","","","","","","",""
"null","","html-keyboard-response","102","74719","0.0-102.0","3PDJHANYK62H329MYCRK4LYHSD16HW","AV22FQTJNBUZT","3G9UA71JVVGUCOKNEKUVXTI6SA17JG","","","null","","","","","","","","","",""
"673","","image-keyboard-response","103","75394","0.0-103.0","3PDJHANYK62H329MYCRK4LYHSD16HW","AV22FQTJNBUZT","3G9UA71JVVGUCOKNEKUVXTI6SA17JG","","img/set1/S1.jpg","83","1","structured_normal","83","structured_normal,random,structured_load,structured_incentive","1,2,4,2,2,3","4,2,1,3","true","","",""
"null","","html-keyboard-response","104","75747","0.0-104.0","3PDJHANYK62H329MYCRK4LYHSD16HW","AV22FQTJNBUZT","3G9UA71JVVGUCOKNEKUVXTI6SA17JG","","<img src=""img/set1/S1.jpg"" width=""540"" height = ""360"" style=""border:16px solid orange"">","null","","","","","","","","","",""
"null","","html-keyboard-response","105","75950","0.0-105.0","3PDJHANYK62H329MYCRK4LYHSD16HW","AV22FQTJNBUZT","3G9UA71JVVGUCOKNEKUVXTI6SA17JG","","","null","","","","","","","","","",""
"641.1000000238419","","image-keyboard-response","106","76594","0.0-106.0","3PDJHANYK62H329MYCRK4LYHSD16HW","AV22FQTJNBUZT","3G9UA71JVVGUCOKNEKUVXTI6SA17JG","","img/set1/S4.jpg","74","4","structured_normal","74","structured_normal,random,structured_load,structured_incentive","1,2,4,2,2,3","4,2,1,3","true","","",""
"null","","html-keyboard-response","107","76947","0.0-107.0","3PDJHANYK62H329MYCRK4LYHSD16HW","AV22FQTJNBUZT","3G9UA71JVVGUCOKNEKUVXTI6SA17JG","","<img src=""img/set1/S4.jpg"" width=""540"" height = ""360"" style=""border:16px solid orange"">","null","","","","","","","","","",""
"null","","html-keyboard-response","108","77149","0.0-108.0","3PDJHANYK62H329MYCRK4LYHSD16HW","AV22FQTJNBUZT","3G9UA71JVVGUCOKNEKUVXTI6SA17JG","","","null","","","","","","","","","",""
"505.89999997615814","","image-keyboard-response","109","77658","0.0-109.0","3PDJHANYK62H329MYCRK4LYHSD16HW","AV22FQTJNBUZT","3G9UA71JVVGUCOKNEKUVXTI6SA17JG","","img/set1/S3.jpg","74","3","structured_normal","72","structured_normal,random,structured_load,structured_incentive","1,2,4,2,2,3","4,2,1,3","false","","",""
"null","","html-keyboard-response","110","78011","0.0-110.0","3PDJHANYK62H329MYCRK4LYHSD16HW","AV22FQTJNBUZT","3G9UA71JVVGUCOKNEKUVXTI6SA17JG","","<img src=""img/set1/S3.jpg"" width=""540"" height = ""360"">","null","","","","","","","","","",""
"null","","html-keyboard-response","111","78220","0.0-111.0","3PDJHANYK62H329MYCRK4LYHSD16HW","AV22FQTJNBUZT","3G9UA71JVVGUCOKNEKUVXTI6SA17JG","","","null","","","","","","","","","",""
"652","","image-keyboard-response","112","78874","0.0-112.0","3PDJHANYK62H329MYCRK4LYHSD16HW","AV22FQTJNBUZT","3G9UA71JVVGUCOKNEKUVXTI6SA17JG","","img/set1/S2.jpg","68","2","structured_normal","68","structured_normal,random,structured_load,structured_incentive","1,2,4,2,2,3","4,2,1,3","true","","",""
"null","","html-keyboard-response","113","79227","0.0-113.0","3PDJHANYK62H329MYCRK4LYHSD16HW","AV22FQTJNBUZT","3G9UA71JVVGUCOKNEKUVXTI6SA17JG","","<img src=""img/set1/S2.jpg"" width=""540"" height = ""360"" style=""border:16px solid orange"">","null","","","","","","","","","",""
"null","","html-keyboard-response","114","79429","0.0-114.0","3PDJHANYK62H329MYCRK4LYHSD16HW","AV22FQTJNBUZT","3G9UA71JVVGUCOKNEKUVXTI6SA17JG","","","null","","","","","","","","","",""
"657.8999999761581","","image-keyboard-response","115","80090","0.0-115.0","3PDJHANYK62H329MYCRK4LYHSD16HW","AV22FQTJNBUZT","3G9UA71JVVGUCOKNEKUVXTI6SA17JG","","img/set1/S1.jpg","83","1","structured_normal","83","structured_normal,random,structured_load,structured_incentive","1,2,4,2,2,3","4,2,1,3","true","","",""
"null","","html-keyboard-response","116","80443","0.0-116.0","3PDJHANYK62H329MYCRK4LYHSD16HW","AV22FQTJNBUZT","3G9UA71JVVGUCOKNEKUVXTI6SA17JG","","<img src=""img/set1/S1.jpg"" width=""540"" height = ""360"" style=""border:16px solid orange"">","null","","","","","","","","","",""
"null","","html-keyboard-response","117","80645","0.0-117.0","3PDJHANYK62H329MYCRK4LYHSD16HW","AV22FQTJNBUZT","3G9UA71JVVGUCOKNEKUVXTI6SA17JG","","","null","","","","","","","","","",""
"828.1000000238419","","image-keyboard-response","118","81475","0.0-118.0","3PDJHANYK62H329MYCRK4LYHSD16HW","AV22FQTJNBUZT","3G9UA71JVVGUCOKNEKUVXTI6SA17JG","","img/set1/S2.jpg","68","2","structured_normal","68","structured_normal,random,structured_load,structured_incentive","1,2,4,2,2,3","4,2,1,3","true","","",""
"null","","html-keyboard-response","119","81830","0.0-119.0","3PDJHANYK62H329MYCRK4LYHSD16HW","AV22FQTJNBUZT","3G9UA71JVVGUCOKNEKUVXTI6SA17JG","","<img src=""img/set1/S2.jpg"" width=""540"" height = ""360"" style=""border:16px solid orange"">","null","","","","","","","","","",""
"null","","html-keyboard-response","120","82032","0.0-120.0","3PDJHANYK62H329MYCRK4LYHSD16HW","AV22FQTJNBUZT","3G9UA71JVVGUCOKNEKUVXTI6SA17JG","","","null","","","","","","","","","",""
"414.60000002384186","","image-keyboard-response","121","82449","0.0-121.0","3PDJHANYK62H329MYCRK4LYHSD16HW","AV22FQTJNBUZT","3G9UA71JVVGUCOKNEKUVXTI6SA17JG","","img/set1/S3.jpg","72","3","structured_normal","72","structured_normal,random,structured_load,structured_incentive","1,2,4,2,2,3","4,2,1,3","true","","",""
"null","","html-keyboard-response","122","82802","0.0-122.0","3PDJHANYK62H329MYCRK4LYHSD16HW","AV22FQTJNBUZT","3G9UA71JVVGUCOKNEKUVXTI6SA17JG","","<img src=""img/set1/S3.jpg"" width=""540"" height = ""360"" style=""border:16px solid orange"">","null","","","","","","","","","",""
"null","","html-keyboard-response","123","83005","0.0-123.0","3PDJHANYK62H329MYCRK4LYHSD16HW","AV22FQTJNBUZT","3G9UA71JVVGUCOKNEKUVXTI6SA17JG","","","null","","","","","","","","","",""
"434.5","","image-keyboard-response","124","83442","0.0-124.0","3PDJHANYK62H329MYCRK4LYHSD16HW","AV22FQTJNBUZT","3G9UA71JVVGUCOKNEKUVXTI6SA17JG","","img/set1/S3.jpg","72","3","structured_normal","72","structured_normal,random,structured_load,structured_incentive","1,2,4,2,2,3","4,2,1,3","true","","",""
"null","","html-keyboard-response","125","83795","0.0-125.0","3PDJHANYK62H329MYCRK4LYHSD16HW","AV22FQTJNBUZT","3G9UA71JVVGUCOKNEKUVXTI6SA17JG","","<img src=""img/set1/S3.jpg"" width=""540"" height = ""360"" style=""border:16px solid orange"">","null","","","","","","","","","",""
"null","","html-keyboard-response","126","83998","0.0-126.0","3PDJHANYK62H329MYCRK4LYHSD16HW","AV22FQTJNBUZT","3G9UA71JVVGUCOKNEKUVXTI6SA17JG","","","null","","","","","","","","","",""
"768.5","","image-keyboard-response","127","84768","0.0-127.0","3PDJHANYK62H329MYCRK4LYHSD16HW","AV22FQTJNBUZT","3G9UA71JVVGUCOKNEKUVXTI6SA17JG","","img/set1/S1.jpg","83","1","structured_normal","83","structured_normal,random,structured_load,structured_incentive","1,2,4,2,2,3","4,2,1,3","true","","",""
"null","","html-keyboard-response","128","85122","0.0-128.0","3PDJHANYK62H329MYCRK4LYHSD16HW","AV22FQTJNBUZT","3G9UA71JVVGUCOKNEKUVXTI6SA17JG","","<img src=""img/set1/S1.jpg"" width=""540"" height = ""360"" style=""border:16px solid orange"">","null","","","","","","","","","",""
"null","","html-keyboard-response","129","85324","0.0-129.0","3PDJHANYK62H329MYCRK4LYHSD16HW","AV22FQTJNBUZT","3G9UA71JVVGUCOKNEKUVXTI6SA17JG","","","null","","","","","","","","","",""
"427.60000002384186","","image-keyboard-response","130","85753","0.0-130.0","3PDJHANYK62H329MYCRK4LYHSD16HW","AV22FQTJNBUZT","3G9UA71JVVGUCOKNEKUVXTI6SA17JG","","img/set1/S2.jpg","68","2","structured_normal","68","structured_normal,random,structured_load,structured_incentive","1,2,4,2,2,3","4,2,1,3","true","","",""
"null","","html-keyboard-response","131","86106","0.0-131.0","3PDJHANYK62H329MYCRK4LYHSD16HW","AV22FQTJNBUZT","3G9UA71JVVGUCOKNEKUVXTI6SA17JG","","<img src=""img/set1/S2.jpg"" width=""540"" height = ""360"" style=""border:16px solid orange"">","null","","","","","","","","","",""
"null","","html-keyboard-response","132","86309","0.0-132.0","3PDJHANYK62H329MYCRK4LYHSD16HW","AV22FQTJNBUZT","3G9UA71JVVGUCOKNEKUVXTI6SA17JG","","","null","","","","","","","","","",""
"616.3000000119209","","image-keyboard-response","133","86928","0.0-133.0","3PDJHANYK62H329MYCRK4LYHSD16HW","AV22FQTJNBUZT","3G9UA71JVVGUCOKNEKUVXTI6SA17JG","","img/set1/S1.jpg","83","1","structured_normal","83","structured_normal,random,structured_load,structured_incentive","1,2,4,2,2,3","4,2,1,3","true","","",""
"null","","html-keyboard-response","134","87281","0.0-134.0","3PDJHANYK62H329MYCRK4LYHSD16HW","AV22FQTJNBUZT","3G9UA71JVVGUCOKNEKUVXTI6SA17JG","","<img src=""img/set1/S1.jpg"" width=""540"" height = ""360"" style=""border:16px solid orange"">","null","","","","","","","","","",""
"null","","html-keyboard-response","135","87483","0.0-135.0","3PDJHANYK62H329MYCRK4LYHSD16HW","AV22FQTJNBUZT","3G9UA71JVVGUCOKNEKUVXTI6SA17JG","","","null","","","","","","","","","",""
"500.80000001192093","","image-keyboard-response","136","87986","0.0-136.0","3PDJHANYK62H329MYCRK4LYHSD16HW","AV22FQTJNBUZT","3G9UA71JVVGUCOKNEKUVXTI6SA17JG","","img/set1/S2.jpg","68","2","structured_normal","68","structured_normal,random,structured_load,structured_incentive","1,2,4,2,2,3","4,2,1,3","true","","",""
"null","","html-keyboard-response","137","88339","0.0-137.0","3PDJHANYK62H329MYCRK4LYHSD16HW","AV22FQTJNBUZT","3G9UA71JVVGUCOKNEKUVXTI6SA17JG","","<img src=""img/set1/S2.jpg"" width=""540"" height = ""360"" style=""border:16px solid orange"">","null","","","","","","","","","",""
"null","","html-keyboard-response","138","88542","0.0-138.0","3PDJHANYK62H329MYCRK4LYHSD16HW","AV22FQTJNBUZT","3G9UA71JVVGUCOKNEKUVXTI6SA17JG","","","null","","","","","","","","","",""
"609.6000000238419","","image-keyboard-response","139","89154","0.0-139.0","3PDJHANYK62H329MYCRK4LYHSD16HW","AV22FQTJNBUZT","3G9UA71JVVGUCOKNEKUVXTI6SA17JG","","img/set1/S1.jpg","83","1","structured_normal","83","structured_normal,random,structured_load,structured_incentive","1,2,4,2,2,3","4,2,1,3","true","","",""
"null","","html-keyboard-response","140","89506","0.0-140.0","3PDJHANYK62H329MYCRK4LYHSD16HW","AV22FQTJNBUZT","3G9UA71JVVGUCOKNEKUVXTI6SA17JG","","<img src=""img/set1/S1.jpg"" width=""540"" height = ""360"" style=""border:16px solid orange"">","null","","","","","","","","","",""
"null","","html-keyboard-response","141","89708","0.0-141.0","3PDJHANYK62H329MYCRK4LYHSD16HW","AV22FQTJNBUZT","3G9UA71JVVGUCOKNEKUVXTI6SA17JG","","","null","","","","","","","","","",""
"474.7000000476837","","image-keyboard-response","142","90185","0.0-142.0","3PDJHANYK62H329MYCRK4LYHSD16HW","AV22FQTJNBUZT","3G9UA71JVVGUCOKNEKUVXTI6SA17JG","","img/set1/S2.jpg","68","2","structured_normal","68","structured_normal,random,structured_load,structured_incentive","1,2,4,2,2,3","4,2,1,3","true","","",""
"null","","html-keyboard-response","143","90539","0.0-143.0","3PDJHANYK62H329MYCRK4LYHSD16HW","AV22FQTJNBUZT","3G9UA71JVVGUCOKNEKUVXTI6SA17JG","","<img src=""img/set1/S2.jpg"" width=""540"" height = ""360"" style=""border:16px solid orange"">","null","","","","","","","","","",""
"null","","html-keyboard-response","144","90741","0.0-144.0","3PDJHANYK62H329MYCRK4LYHSD16HW","AV22FQTJNBUZT","3G9UA71JVVGUCOKNEKUVXTI6SA17JG","","","null","","","","","","","","","",""
"410.2000000476837","","image-keyboard-response","145","91152","0.0-145.0","3PDJHANYK62H329MYCRK4LYHSD16HW","AV22FQTJNBUZT","3G9UA71JVVGUCOKNEKUVXTI6SA17JG","","img/set1/S3.jpg","72","3","structured_normal","72","structured_normal,random,structured_load,structured_incentive","1,2,4,2,2,3","4,2,1,3","true","","",""
"null","","html-keyboard-response","146","91505","0.0-146.0","3PDJHANYK62H329MYCRK4LYHSD16HW","AV22FQTJNBUZT","3G9UA71JVVGUCOKNEKUVXTI6SA17JG","","<img src=""img/set1/S3.jpg"" width=""540"" height = ""360"" style=""border:16px solid orange"">","null","","","","","","","","","",""
"null","","html-keyboard-response","147","91707","0.0-147.0","3PDJHANYK62H329MYCRK4LYHSD16HW","AV22FQTJNBUZT","3G9UA71JVVGUCOKNEKUVXTI6SA17JG","","","null","","","","","","","","","",""
"436.69999998807907","","image-keyboard-response","148","92146","0.0-148.0","3PDJHANYK62H329MYCRK4LYHSD16HW","AV22FQTJNBUZT","3G9UA71JVVGUCOKNEKUVXTI6SA17JG","","img/set1/S1.jpg","72","1","structured_normal","83","structured_normal,random,structured_load,structured_incentive","1,2,4,2,2,3","4,2,1,3","false","","",""
"null","","html-keyboard-response","149","92500","0.0-149.0","3PDJHANYK62H329MYCRK4LYHSD16HW","AV22FQTJNBUZT","3G9UA71JVVGUCOKNEKUVXTI6SA17JG","","<img src=""img/set1/S1.jpg"" width=""540"" height = ""360"">","null","","","","","","","","","",""
"null","","html-keyboard-response","150","92702","0.0-150.0","3PDJHANYK62H329MYCRK4LYHSD16HW","AV22FQTJNBUZT","3G9UA71JVVGUCOKNEKUVXTI6SA17JG","","","null","","","","","","","","","",""
"625.1999999880791","","image-keyboard-response","151","93329","0.0-151.0","3PDJHANYK62H329MYCRK4LYHSD16HW","AV22FQTJNBUZT","3G9UA71JVVGUCOKNEKUVXTI6SA17JG","","img/set1/S2.jpg","68","2","structured_normal","68","structured_normal,random,structured_load,structured_incentive","1,2,4,2,2,3","4,2,1,3","true","","",""
"null","","html-keyboard-response","152","93681","0.0-152.0","3PDJHANYK62H329MYCRK4LYHSD16HW","AV22FQTJNBUZT","3G9UA71JVVGUCOKNEKUVXTI6SA17JG","","<img src=""img/set1/S2.jpg"" width=""540"" height = ""360"" style=""border:16px solid orange"">","null","","","","","","","","","",""
"null","","html-keyboard-response","153","93883","0.0-153.0","3PDJHANYK62H329MYCRK4LYHSD16HW","AV22FQTJNBUZT","3G9UA71JVVGUCOKNEKUVXTI6SA17JG","","","null","","","","","","","","","",""
"743.2999999523163","","image-keyboard-response","154","94629","0.0-154.0","3PDJHANYK62H329MYCRK4LYHSD16HW","AV22FQTJNBUZT","3G9UA71JVVGUCOKNEKUVXTI6SA17JG","","img/set1/S4.jpg","74","4","structured_normal","74","structured_normal,random,structured_load,structured_incentive","1,2,4,2,2,3","4,2,1,3","true","","",""
"null","","html-keyboard-response","155","94987","0.0-155.0","3PDJHANYK62H329MYCRK4LYHSD16HW","AV22FQTJNBUZT","3G9UA71JVVGUCOKNEKUVXTI6SA17JG","","<img src=""img/set1/S4.jpg"" width=""540"" height = ""360"" style=""border:16px solid orange"">","null","","","","","","","","","",""
"null","","html-keyboard-response","156","95189","0.0-156.0","3PDJHANYK62H329MYCRK4LYHSD16HW","AV22FQTJNBUZT","3G9UA71JVVGUCOKNEKUVXTI6SA17JG","","","null","","","","","","","","","",""
"439.2000000476837","","image-keyboard-response","157","95633","0.0-157.0","3PDJHANYK62H329MYCRK4LYHSD16HW","AV22FQTJNBUZT","3G9UA71JVVGUCOKNEKUVXTI6SA17JG","","img/set1/S4.jpg","74","4","structured_normal","74","structured_normal,random,structured_load,structured_incentive","1,2,4,2,2,3","4,2,1,3","true","","",""
"null","","html-keyboard-response","158","95988","0.0-158.0","3PDJHANYK62H329MYCRK4LYHSD16HW","AV22FQTJNBUZT","3G9UA71JVVGUCOKNEKUVXTI6SA17JG","","<img src=""img/set1/S4.jpg"" width=""540"" height = ""360"" style=""border:16px solid orange"">","null","","","","","","","","","",""
"null","","html-keyboard-response","159","96193","0.0-159.0","3PDJHANYK62H329MYCRK4LYHSD16HW","AV22FQTJNBUZT","3G9UA71JVVGUCOKNEKUVXTI6SA17JG","","","null","","","","","","","","","",""
"631.5","","image-keyboard-response","160","96827","0.0-160.0","3PDJHANYK62H329MYCRK4LYHSD16HW","AV22FQTJNBUZT","3G9UA71JVVGUCOKNEKUVXTI6SA17JG","","img/set1/S1.jpg","83","1","structured_normal","83","structured_normal,random,structured_load,structured_incentive","1,2,4,2,2,3","4,2,1,3","true","","",""
"null","","html-keyboard-response","161","97181","0.0-161.0","3PDJHANYK62H329MYCRK4LYHSD16HW","AV22FQTJNBUZT","3G9UA71JVVGUCOKNEKUVXTI6SA17JG","","<img src=""img/set1/S1.jpg"" width=""540"" height = ""360"" style=""border:16px solid orange"">","null","","","","","","","","","",""
"null","","html-keyboard-response","162","97383","0.0-162.0","3PDJHANYK62H329MYCRK4LYHSD16HW","AV22FQTJNBUZT","3G9UA71JVVGUCOKNEKUVXTI6SA17JG","","","null","","","","","","","","","",""
"784.5999999642372","","image-keyboard-response","163","98169","0.0-163.0","3PDJHANYK62H329MYCRK4LYHSD16HW","AV22FQTJNBUZT","3G9UA71JVVGUCOKNEKUVXTI6SA17JG","","img/set1/S2.jpg","68","2","structured_normal","68","structured_normal,random,structured_load,structured_incentive","1,2,4,2,2,3","4,2,1,3","true","","",""
"null","","html-keyboard-response","164","98523","0.0-164.0","3PDJHANYK62H329MYCRK4LYHSD16HW","AV22FQTJNBUZT","3G9UA71JVVGUCOKNEKUVXTI6SA17JG","","<img src=""img/set1/S2.jpg"" width=""540"" height = ""360"" style=""border:16px solid orange"">","null","","","","","","","","","",""
"null","","html-keyboard-response","165","98725","0.0-165.0","3PDJHANYK62H329MYCRK4LYHSD16HW","AV22FQTJNBUZT","3G9UA71JVVGUCOKNEKUVXTI6SA17JG","","","null","","","","","","","","","",""
"705.8999999761581","","image-keyboard-response","166","99432","0.0-166.0","3PDJHANYK62H329MYCRK4LYHSD16HW","AV22FQTJNBUZT","3G9UA71JVVGUCOKNEKUVXTI6SA17JG","","img/set1/S3.jpg","72","3","structured_normal","72","structured_normal,random,structured_load,structured_incentive","1,2,4,2,2,3","4,2,1,3","true","","",""
"null","","html-keyboard-response","167","99784","0.0-167.0","3PDJHANYK62H329MYCRK4LYHSD16HW","AV22FQTJNBUZT","3G9UA71JVVGUCOKNEKUVXTI6SA17JG","","<img src=""img/set1/S3.jpg"" width=""540"" height = ""360"" style=""border:16px solid orange"">","null","","","","","","","","","",""
"null","","html-keyboard-response","168","99986","0.0-168.0","3PDJHANYK62H329MYCRK4LYHSD16HW","AV22FQTJNBUZT","3G9UA71JVVGUCOKNEKUVXTI6SA17JG","","","null","","","","","","","","","",""
"524.7999999523163","","image-keyboard-response","169","100516","0.0-169.0","3PDJHANYK62H329MYCRK4LYHSD16HW","AV22FQTJNBUZT","3G9UA71JVVGUCOKNEKUVXTI6SA17JG","","img/set1/S4.jpg","74","4","structured_normal","74","structured_normal,random,structured_load,structured_incentive","1,2,4,2,2,3","4,2,1,3","true","","",""
"null","","html-keyboard-response","170","100870","0.0-170.0","3PDJHANYK62H329MYCRK4LYHSD16HW","AV22FQTJNBUZT","3G9UA71JVVGUCOKNEKUVXTI6SA17JG","","<img src=""img/set1/S4.jpg"" width=""540"" height = ""360"" style=""border:16px solid orange"">","null","","","","","","","","","",""
"null","","html-keyboard-response","171","101072","0.0-171.0","3PDJHANYK62H329MYCRK4LYHSD16HW","AV22FQTJNBUZT","3G9UA71JVVGUCOKNEKUVXTI6SA17JG","","","null","","","","","","","","","",""
"405.9000000357628","","image-keyboard-response","172","101480","0.0-172.0","3PDJHANYK62H329MYCRK4LYHSD16HW","AV22FQTJNBUZT","3G9UA71JVVGUCOKNEKUVXTI6SA17JG","","img/set1/S4.jpg","74","4","structured_normal","74","structured_normal,random,structured_load,structured_incentive","1,2,4,2,2,3","4,2,1,3","true","","",""
"null","","html-keyboard-response","173","101832","0.0-173.0","3PDJHANYK62H329MYCRK4LYHSD16HW","AV22FQTJNBUZT","3G9UA71JVVGUCOKNEKUVXTI6SA17JG","","<img src=""img/set1/S4.jpg"" width=""540"" height = ""360"" style=""border:16px solid orange"">","null","","","","","","","","","",""
"null","","html-keyboard-response","174","102035","0.0-174.0","3PDJHANYK62H329MYCRK4LYHSD16HW","AV22FQTJNBUZT","3G9UA71JVVGUCOKNEKUVXTI6SA17JG","","","null","","","","","","","","","",""
"420.5999999642372","","image-keyboard-response","175","102457","0.0-175.0","3PDJHANYK62H329MYCRK4LYHSD16HW","AV22FQTJNBUZT","3G9UA71JVVGUCOKNEKUVXTI6SA17JG","","img/set1/S4.jpg","74","4","structured_normal","74","structured_normal,random,structured_load,structured_incentive","1,2,4,2,2,3","4,2,1,3","true","","",""
"null","","html-keyboard-response","176","102809","0.0-176.0","3PDJHANYK62H329MYCRK4LYHSD16HW","AV22FQTJNBUZT","3G9UA71JVVGUCOKNEKUVXTI6SA17JG","","<img src=""img/set1/S4.jpg"" width=""540"" height = ""360"" style=""border:16px solid orange"">","null","","","","","","","","","",""
"null","","html-keyboard-response","177","103025","0.0-177.0","3PDJHANYK62H329MYCRK4LYHSD16HW","AV22FQTJNBUZT","3G9UA71JVVGUCOKNEKUVXTI6SA17JG","","","null","","","","","","","","","",""
"645.5","","image-keyboard-response","178","103672","0.0-178.0","3PDJHANYK62H329MYCRK4LYHSD16HW","AV22FQTJNBUZT","3G9UA71JVVGUCOKNEKUVXTI6SA17JG","","img/set1/S1.jpg","83","1","structured_normal","83","structured_normal,random,structured_load,structured_incentive","1,2,4,2,2,3","4,2,1,3","true","","",""
"null","","html-keyboard-response","179","104025","0.0-179.0","3PDJHANYK62H329MYCRK4LYHSD16HW","AV22FQTJNBUZT","3G9UA71JVVGUCOKNEKUVXTI6SA17JG","","<img src=""img/set1/S1.jpg"" width=""540"" height = ""360"" style=""border:16px solid orange"">","null","","","","","","","","","",""
"null","","html-keyboard-response","180","104229","0.0-180.0","3PDJHANYK62H329MYCRK4LYHSD16HW","AV22FQTJNBUZT","3G9UA71JVVGUCOKNEKUVXTI6SA17JG","","","null","","","","","","","","","",""
"387","","image-keyboard-response","181","104618","0.0-181.0","3PDJHANYK62H329MYCRK4LYHSD16HW","AV22FQTJNBUZT","3G9UA71JVVGUCOKNEKUVXTI6SA17JG","","img/set1/S2.jpg","68","2","structured_normal","68","structured_normal,random,structured_load,structured_incentive","1,2,4,2,2,3","4,2,1,3","true","","",""
"null","","html-keyboard-response","182","104972","0.0-182.0","3PDJHANYK62H329MYCRK4LYHSD16HW","AV22FQTJNBUZT","3G9UA71JVVGUCOKNEKUVXTI6SA17JG","","<img src=""img/set1/S2.jpg"" width=""540"" height = ""360"" style=""border:16px solid orange"">","null","","","","","","","","","",""
"null","","html-keyboard-response","183","105174","0.0-183.0","3PDJHANYK62H329MYCRK4LYHSD16HW","AV22FQTJNBUZT","3G9UA71JVVGUCOKNEKUVXTI6SA17JG","","","null","","","","","","","","","",""
"432.80000001192093","","image-keyboard-response","184","105609","0.0-184.0","3PDJHANYK62H329MYCRK4LYHSD16HW","AV22FQTJNBUZT","3G9UA71JVVGUCOKNEKUVXTI6SA17JG","","img/set1/S3.jpg","72","3","structured_normal","72","structured_normal,random,structured_load,structured_incentive","1,2,4,2,2,3","4,2,1,3","true","","",""
"null","","html-keyboard-response","185","105963","0.0-185.0","3PDJHANYK62H329MYCRK4LYHSD16HW","AV22FQTJNBUZT","3G9UA71JVVGUCOKNEKUVXTI6SA17JG","","<img src=""img/set1/S3.jpg"" width=""540"" height = ""360"" style=""border:16px solid orange"">","null","","","","","","","","","",""
"null","","html-keyboard-response","186","106165","0.0-186.0","3PDJHANYK62H329MYCRK4LYHSD16HW","AV22FQTJNBUZT","3G9UA71JVVGUCOKNEKUVXTI6SA17JG","","","null","","","","","","","","","",""
"379.39999997615814","","image-keyboard-response","187","106546","0.0-187.0","3PDJHANYK62H329MYCRK4LYHSD16HW","AV22FQTJNBUZT","3G9UA71JVVGUCOKNEKUVXTI6SA17JG","","img/set1/S3.jpg","72","3","structured_normal","72","structured_normal,random,structured_load,structured_incentive","1,2,4,2,2,3","4,2,1,3","true","","",""
"null","","html-keyboard-response","188","106900","0.0-188.0","3PDJHANYK62H329MYCRK4LYHSD16HW","AV22FQTJNBUZT","3G9UA71JVVGUCOKNEKUVXTI6SA17JG","","<img src=""img/set1/S3.jpg"" width=""540"" height = ""360"" style=""border:16px solid orange"">","null","","","","","","","","","",""
"null","","html-keyboard-response","189","107102","0.0-189.0","3PDJHANYK62H329MYCRK4LYHSD16HW","AV22FQTJNBUZT","3G9UA71JVVGUCOKNEKUVXTI6SA17JG","","","null","","","","","","","","","",""
"504.39999997615814","","image-keyboard-response","190","107608","0.0-190.0","3PDJHANYK62H329MYCRK4LYHSD16HW","AV22FQTJNBUZT","3G9UA71JVVGUCOKNEKUVXTI6SA17JG","","img/set1/S4.jpg","74","4","structured_normal","74","structured_normal,random,structured_load,structured_incentive","1,2,4,2,2,3","4,2,1,3","true","","",""
"null","","html-keyboard-response","191","107972","0.0-191.0","3PDJHANYK62H329MYCRK4LYHSD16HW","AV22FQTJNBUZT","3G9UA71JVVGUCOKNEKUVXTI6SA17JG","","<img src=""img/set1/S4.jpg"" width=""540"" height = ""360"" style=""border:16px solid orange"">","null","","","","","","","","","",""
"null","","html-keyboard-response","192","108174","0.0-192.0","3PDJHANYK62H329MYCRK4LYHSD16HW","AV22FQTJNBUZT","3G9UA71JVVGUCOKNEKUVXTI6SA17JG","","","null","","","","","","","","","",""
"561.3000000119209","","image-keyboard-response","193","108737","0.0-193.0","3PDJHANYK62H329MYCRK4LYHSD16HW","AV22FQTJNBUZT","3G9UA71JVVGUCOKNEKUVXTI6SA17JG","","img/set1/S1.jpg","83","1","structured_normal","83","structured_normal,random,structured_load,structured_incentive","1,2,4,2,2,3","4,2,1,3","true","","",""
"null","","html-keyboard-response","194","109092","0.0-194.0","3PDJHANYK62H329MYCRK4LYHSD16HW","AV22FQTJNBUZT","3G9UA71JVVGUCOKNEKUVXTI6SA17JG","","<img src=""img/set1/S1.jpg"" width=""540"" height = ""360"" style=""border:16px solid orange"">","null","","","","","","","","","",""
"null","","html-keyboard-response","195","109294","0.0-195.0","3PDJHANYK62H329MYCRK4LYHSD16HW","AV22FQTJNBUZT","3G9UA71JVVGUCOKNEKUVXTI6SA17JG","","","null","","","","","","","","","",""
"521.8999999761581","","image-keyboard-response","196","109818","0.0-196.0","3PDJHANYK62H329MYCRK4LYHSD16HW","AV22FQTJNBUZT","3G9UA71JVVGUCOKNEKUVXTI6SA17JG","","img/set1/S2.jpg","68","2","structured_normal","68","structured_normal,random,structured_load,structured_incentive","1,2,4,2,2,3","4,2,1,3","true","","",""
"null","","html-keyboard-response","197","110171","0.0-197.0","3PDJHANYK62H329MYCRK4LYHSD16HW","AV22FQTJNBUZT","3G9UA71JVVGUCOKNEKUVXTI6SA17JG","","<img src=""img/set1/S2.jpg"" width=""540"" height = ""360"" style=""border:16px solid orange"">","null","","","","","","","","","",""
"null","","html-keyboard-response","198","110374","0.0-198.0","3PDJHANYK62H329MYCRK4LYHSD16HW","AV22FQTJNBUZT","3G9UA71JVVGUCOKNEKUVXTI6SA17JG","","","null","","","","","","","","","",""
"416.0999999642372","","image-keyboard-response","199","110792","0.0-199.0","3PDJHANYK62H329MYCRK4LYHSD16HW","AV22FQTJNBUZT","3G9UA71JVVGUCOKNEKUVXTI6SA17JG","","img/set1/S1.jpg","68","1","structured_normal","83","structured_normal,random,structured_load,structured_incentive","1,2,4,2,2,3","4,2,1,3","false","","",""
"null","","html-keyboard-response","200","111144","0.0-200.0","3PDJHANYK62H329MYCRK4LYHSD16HW","AV22FQTJNBUZT","3G9UA71JVVGUCOKNEKUVXTI6SA17JG","","<img src=""img/set1/S1.jpg"" width=""540"" height = ""360"">","null","","","","","","","","","",""
"null","","html-keyboard-response","201","111345","0.0-201.0","3PDJHANYK62H329MYCRK4LYHSD16HW","AV22FQTJNBUZT","3G9UA71JVVGUCOKNEKUVXTI6SA17JG","","","null","","","","","","","","","",""
"842.1000000238419","","image-keyboard-response","202","112189","0.0-202.0","3PDJHANYK62H329MYCRK4LYHSD16HW","AV22FQTJNBUZT","3G9UA71JVVGUCOKNEKUVXTI6SA17JG","","img/set1/S4.jpg","68","4","structured_normal","74","structured_normal,random,structured_load,structured_incentive","1,2,4,2,2,3","4,2,1,3","false","","",""
"null","","html-keyboard-response","203","112543","0.0-203.0","3PDJHANYK62H329MYCRK4LYHSD16HW","AV22FQTJNBUZT","3G9UA71JVVGUCOKNEKUVXTI6SA17JG","","<img src=""img/set1/S4.jpg"" width=""540"" height = ""360"">","null","","","","","","","","","",""
"null","","html-keyboard-response","204","112746","0.0-204.0","3PDJHANYK62H329MYCRK4LYHSD16HW","AV22FQTJNBUZT","3G9UA71JVVGUCOKNEKUVXTI6SA17JG","","","null","","","","","","","","","",""
"821.5","","image-keyboard-response","205","113570","0.0-205.0","3PDJHANYK62H329MYCRK4LYHSD16HW","AV22FQTJNBUZT","3G9UA71JVVGUCOKNEKUVXTI6SA17JG","","img/set1/S3.jpg","72","3","structured_normal","72","structured_normal,random,structured_load,structured_incentive","1,2,4,2,2,3","4,2,1,3","true","","",""
"null","","html-keyboard-response","206","113924","0.0-206.0","3PDJHANYK62H329MYCRK4LYHSD16HW","AV22FQTJNBUZT","3G9UA71JVVGUCOKNEKUVXTI6SA17JG","","<img src=""img/set1/S3.jpg"" width=""540"" height = ""360"" style=""border:16px solid orange"">","null","","","","","","","","","",""
"null","","html-keyboard-response","207","114126","0.0-207.0","3PDJHANYK62H329MYCRK4LYHSD16HW","AV22FQTJNBUZT","3G9UA71JVVGUCOKNEKUVXTI6SA17JG","","","null","","","","","","","","","",""
"418.39999997615814","","image-keyboard-response","208","114547","0.0-208.0","3PDJHANYK62H329MYCRK4LYHSD16HW","AV22FQTJNBUZT","3G9UA71JVVGUCOKNEKUVXTI6SA17JG","","img/set1/S3.jpg","72","3","structured_normal","72","structured_normal,random,structured_load,structured_incentive","1,2,4,2,2,3","4,2,1,3","true","","",""
"null","","html-keyboard-response","209","114900","0.0-209.0","3PDJHANYK62H329MYCRK4LYHSD16HW","AV22FQTJNBUZT","3G9UA71JVVGUCOKNEKUVXTI6SA17JG","","<img src=""img/set1/S3.jpg"" width=""540"" height = ""360"" style=""border:16px solid orange"">","null","","","","","","","","","",""
"null","","html-keyboard-response","210","115102","0.0-210.0","3PDJHANYK62H329MYCRK4LYHSD16HW","AV22FQTJNBUZT","3G9UA71JVVGUCOKNEKUVXTI6SA17JG","","","null","","","","","","","","","",""
"391.7000000476837","","image-keyboard-response","211","115496","0.0-211.0","3PDJHANYK62H329MYCRK4LYHSD16HW","AV22FQTJNBUZT","3G9UA71JVVGUCOKNEKUVXTI6SA17JG","","img/set1/S3.jpg","72","3","structured_normal","72","structured_normal,random,structured_load,structured_incentive","1,2,4,2,2,3","4,2,1,3","true","","",""
"null","","html-keyboard-response","212","115849","0.0-212.0","3PDJHANYK62H329MYCRK4LYHSD16HW","AV22FQTJNBUZT","3G9UA71JVVGUCOKNEKUVXTI6SA17JG","","<img src=""img/set1/S3.jpg"" width=""540"" height = ""360"" style=""border:16px solid orange"">","null","","","","","","","","","",""
"null","","html-keyboard-response","213","116051","0.0-213.0","3PDJHANYK62H329MYCRK4LYHSD16HW","AV22FQTJNBUZT","3G9UA71JVVGUCOKNEKUVXTI6SA17JG","","","null","","","","","","","","","",""
"362.5999999642372","","image-keyboard-response","214","116416","0.0-214.0","3PDJHANYK62H329MYCRK4LYHSD16HW","AV22FQTJNBUZT","3G9UA71JVVGUCOKNEKUVXTI6SA17JG","","img/set1/S3.jpg","72","3","structured_normal","72","structured_normal,random,structured_load,structured_incentive","1,2,4,2,2,3","4,2,1,3","true","","",""
"null","","html-keyboard-response","215","116767","0.0-215.0","3PDJHANYK62H329MYCRK4LYHSD16HW","AV22FQTJNBUZT","3G9UA71JVVGUCOKNEKUVXTI6SA17JG","","<img src=""img/set1/S3.jpg"" width=""540"" height = ""360"" style=""border:16px solid orange"">","null","","","","","","","","","",""
"null","","html-keyboard-response","216","116969","0.0-216.0","3PDJHANYK62H329MYCRK4LYHSD16HW","AV22FQTJNBUZT","3G9UA71JVVGUCOKNEKUVXTI6SA17JG","","","null","","","","","","","","","",""
"502.4000000357628","","image-keyboard-response","217","117474","0.0-217.0","3PDJHANYK62H329MYCRK4LYHSD16HW","AV22FQTJNBUZT","3G9UA71JVVGUCOKNEKUVXTI6SA17JG","","img/set1/S4.jpg","74","4","structured_normal","74","structured_normal,random,structured_load,structured_incentive","1,2,4,2,2,3","4,2,1,3","true","","",""
"null","","html-keyboard-response","218","117828","0.0-218.0","3PDJHANYK62H329MYCRK4LYHSD16HW","AV22FQTJNBUZT","3G9UA71JVVGUCOKNEKUVXTI6SA17JG","","<img src=""img/set1/S4.jpg"" width=""540"" height = ""360"" style=""border:16px solid orange"">","null","","","","","","","","","",""
"null","","html-keyboard-response","219","118030","0.0-219.0","3PDJHANYK62H329MYCRK4LYHSD16HW","AV22FQTJNBUZT","3G9UA71JVVGUCOKNEKUVXTI6SA17JG","","","null","","","","","","","","","",""
"544.9000000357628","","image-keyboard-response","220","118577","0.0-220.0","3PDJHANYK62H329MYCRK4LYHSD16HW","AV22FQTJNBUZT","3G9UA71JVVGUCOKNEKUVXTI6SA17JG","","img/set1/S3.jpg","72","3","structured_normal","72","structured_normal,random,structured_load,structured_incentive","1,2,4,2,2,3","4,2,1,3","true","","",""
"null","","html-keyboard-response","221","118932","0.0-221.0","3PDJHANYK62H329MYCRK4LYHSD16HW","AV22FQTJNBUZT","3G9UA71JVVGUCOKNEKUVXTI6SA17JG","","<img src=""img/set1/S3.jpg"" width=""540"" height = ""360"" style=""border:16px solid orange"">","null","","","","","","","","","",""
"null","","html-keyboard-response","222","119134","0.0-222.0","3PDJHANYK62H329MYCRK4LYHSD16HW","AV22FQTJNBUZT","3G9UA71JVVGUCOKNEKUVXTI6SA17JG","","","null","","","","","","","","","",""
"592.1999999880791","","image-keyboard-response","223","119728","0.0-223.0","3PDJHANYK62H329MYCRK4LYHSD16HW","AV22FQTJNBUZT","3G9UA71JVVGUCOKNEKUVXTI6SA17JG","","img/set1/S1.jpg","83","1","structured_normal","83","structured_normal,random,structured_load,structured_incentive","1,2,4,2,2,3","4,2,1,3","true","","",""
"null","","html-keyboard-response","224","120079","0.0-224.0","3PDJHANYK62H329MYCRK4LYHSD16HW","AV22FQTJNBUZT","3G9UA71JVVGUCOKNEKUVXTI6SA17JG","","<img src=""img/set1/S1.jpg"" width=""540"" height = ""360"" style=""border:16px solid orange"">","null","","","","","","","","","",""
"null","","html-keyboard-response","225","120281","0.0-225.0","3PDJHANYK62H329MYCRK4LYHSD16HW","AV22FQTJNBUZT","3G9UA71JVVGUCOKNEKUVXTI6SA17JG","","","null","","","","","","","","","",""
"430.2999999523163","","image-keyboard-response","226","120714","0.0-226.0","3PDJHANYK62H329MYCRK4LYHSD16HW","AV22FQTJNBUZT","3G9UA71JVVGUCOKNEKUVXTI6SA17JG","","img/set1/S2.jpg","68","2","structured_normal","68","structured_normal,random,structured_load,structured_incentive","1,2,4,2,2,3","4,2,1,3","true","","",""
"null","","html-keyboard-response","227","121066","0.0-227.0","3PDJHANYK62H329MYCRK4LYHSD16HW","AV22FQTJNBUZT","3G9UA71JVVGUCOKNEKUVXTI6SA17JG","","<img src=""img/set1/S2.jpg"" width=""540"" height = ""360"" style=""border:16px solid orange"">","null","","","","","","","","","",""
"null","","html-keyboard-response","228","121268","0.0-228.0","3PDJHANYK62H329MYCRK4LYHSD16HW","AV22FQTJNBUZT","3G9UA71JVVGUCOKNEKUVXTI6SA17JG","","","null","","","","","","","","","",""
"581.8999999761581","","image-keyboard-response","229","121852","0.0-229.0","3PDJHANYK62H329MYCRK4LYHSD16HW","AV22FQTJNBUZT","3G9UA71JVVGUCOKNEKUVXTI6SA17JG","","img/set1/S4.jpg","74","4","structured_normal","74","structured_normal,random,structured_load,structured_incentive","1,2,4,2,2,3","4,2,1,3","true","","",""
"null","","html-keyboard-response","230","122204","0.0-230.0","3PDJHANYK62H329MYCRK4LYHSD16HW","AV22FQTJNBUZT","3G9UA71JVVGUCOKNEKUVXTI6SA17JG","","<img src=""img/set1/S4.jpg"" width=""540"" height = ""360"" style=""border:16px solid orange"">","null","","","","","","","","","",""
"null","","html-keyboard-response","231","122406","0.0-231.0","3PDJHANYK62H329MYCRK4LYHSD16HW","AV22FQTJNBUZT","3G9UA71JVVGUCOKNEKUVXTI6SA17JG","","","null","","","","","","","","","",""
"407.89999997615814","","image-keyboard-response","232","122817","0.0-232.0","3PDJHANYK62H329MYCRK4LYHSD16HW","AV22FQTJNBUZT","3G9UA71JVVGUCOKNEKUVXTI6SA17JG","","img/set1/S4.jpg","74","4","structured_normal","74","structured_normal,random,structured_load,structured_incentive","1,2,4,2,2,3","4,2,1,3","true","","",""
"null","","html-keyboard-response","233","123170","0.0-233.0","3PDJHANYK62H329MYCRK4LYHSD16HW","AV22FQTJNBUZT","3G9UA71JVVGUCOKNEKUVXTI6SA17JG","","<img src=""img/set1/S4.jpg"" width=""540"" height = ""360"" style=""border:16px solid orange"">","null","","","","","","","","","",""
"null","","html-keyboard-response","234","123372","0.0-234.0","3PDJHANYK62H329MYCRK4LYHSD16HW","AV22FQTJNBUZT","3G9UA71JVVGUCOKNEKUVXTI6SA17JG","","","null","","","","","","","","","",""
"505.7000000476837","","image-keyboard-response","235","123880","0.0-235.0","3PDJHANYK62H329MYCRK4LYHSD16HW","AV22FQTJNBUZT","3G9UA71JVVGUCOKNEKUVXTI6SA17JG","","img/set1/S3.jpg","72","3","structured_normal","72","structured_normal,random,structured_load,structured_incentive","1,2,4,2,2,3","4,2,1,3","true","","",""
"null","","html-keyboard-response","236","124239","0.0-236.0","3PDJHANYK62H329MYCRK4LYHSD16HW","AV22FQTJNBUZT","3G9UA71JVVGUCOKNEKUVXTI6SA17JG","","<img src=""img/set1/S3.jpg"" width=""540"" height = ""360"" style=""border:16px solid orange"">","null","","","","","","","","","",""
"null","","html-keyboard-response","237","124442","0.0-237.0","3PDJHANYK62H329MYCRK4LYHSD16HW","AV22FQTJNBUZT","3G9UA71JVVGUCOKNEKUVXTI6SA17JG","","","null","","","","","","","","","",""
"524.6999999880791","","image-keyboard-response","238","124970","0.0-238.0","3PDJHANYK62H329MYCRK4LYHSD16HW","AV22FQTJNBUZT","3G9UA71JVVGUCOKNEKUVXTI6SA17JG","","img/set1/S1.jpg","83","1","structured_normal","83","structured_normal,random,structured_load,structured_incentive","1,2,4,2,2,3","4,2,1,3","true","","",""
"null","","html-keyboard-response","239","125324","0.0-239.0","3PDJHANYK62H329MYCRK4LYHSD16HW","AV22FQTJNBUZT","3G9UA71JVVGUCOKNEKUVXTI6SA17JG","","<img src=""img/set1/S1.jpg"" width=""540"" height = ""360"" style=""border:16px solid orange"">","null","","","","","","","","","",""
"null","","html-keyboard-response","240","125527","0.0-240.0","3PDJHANYK62H329MYCRK4LYHSD16HW","AV22FQTJNBUZT","3G9UA71JVVGUCOKNEKUVXTI6SA17JG","","","null","","","","","","","","","",""
"535.9000000357628","","image-keyboard-response","241","126066","0.0-241.0","3PDJHANYK62H329MYCRK4LYHSD16HW","AV22FQTJNBUZT","3G9UA71JVVGUCOKNEKUVXTI6SA17JG","","img/set1/S4.jpg","74","4","structured_normal","74","structured_normal,random,structured_load,structured_incentive","1,2,4,2,2,3","4,2,1,3","true","","",""
"null","","html-keyboard-response","242","126420","0.0-242.0","3PDJHANYK62H329MYCRK4LYHSD16HW","AV22FQTJNBUZT","3G9UA71JVVGUCOKNEKUVXTI6SA17JG","","<img src=""img/set1/S4.jpg"" width=""540"" height = ""360"" style=""border:16px solid orange"">","null","","","","","","","","","",""
"null","","html-keyboard-response","243","126622","0.0-243.0","3PDJHANYK62H329MYCRK4LYHSD16HW","AV22FQTJNBUZT","3G9UA71JVVGUCOKNEKUVXTI6SA17JG","","","null","","","","","","","","","",""
"432.80000001192093","","image-keyboard-response","244","127058","0.0-244.0","3PDJHANYK62H329MYCRK4LYHSD16HW","AV22FQTJNBUZT","3G9UA71JVVGUCOKNEKUVXTI6SA17JG","","img/set1/S4.jpg","74","4","structured_normal","74","structured_normal,random,structured_load,structured_incentive","1,2,4,2,2,3","4,2,1,3","true","","",""
"null","","html-keyboard-response","245","127412","0.0-245.0","3PDJHANYK62H329MYCRK4LYHSD16HW","AV22FQTJNBUZT","3G9UA71JVVGUCOKNEKUVXTI6SA17JG","","<img src=""img/set1/S4.jpg"" width=""540"" height = ""360"" style=""border:16px solid orange"">","null","","","","","","","","","",""
"null","","html-keyboard-response","246","127614","0.0-246.0","3PDJHANYK62H329MYCRK4LYHSD16HW","AV22FQTJNBUZT","3G9UA71JVVGUCOKNEKUVXTI6SA17JG","","","null","","","","","","","","","",""
"360.10000002384186","","image-keyboard-response","247","127976","0.0-247.0","3PDJHANYK62H329MYCRK4LYHSD16HW","AV22FQTJNBUZT","3G9UA71JVVGUCOKNEKUVXTI6SA17JG","","img/set1/S4.jpg","74","4","structured_normal","74","structured_normal,random,structured_load,structured_incentive","1,2,4,2,2,3","4,2,1,3","true","","",""
"null","","html-keyboard-response","248","128329","0.0-248.0","3PDJHANYK62H329MYCRK4LYHSD16HW","AV22FQTJNBUZT","3G9UA71JVVGUCOKNEKUVXTI6SA17JG","","<img src=""img/set1/S4.jpg"" width=""540"" height = ""360"" style=""border:16px solid orange"">","null","","","","","","","","","",""
"null","","html-keyboard-response","249","128532","0.0-249.0","3PDJHANYK62H329MYCRK4LYHSD16HW","AV22FQTJNBUZT","3G9UA71JVVGUCOKNEKUVXTI6SA17JG","","","null","","","","","","","","","",""
"587.3000000119209","","image-keyboard-response","250","129122","0.0-250.0","3PDJHANYK62H329MYCRK4LYHSD16HW","AV22FQTJNBUZT","3G9UA71JVVGUCOKNEKUVXTI6SA17JG","","img/set1/S2.jpg","68","2","structured_normal","68","structured_normal,random,structured_load,structured_incentive","1,2,4,2,2,3","4,2,1,3","true","","",""
"null","","html-keyboard-response","251","129477","0.0-251.0","3PDJHANYK62H329MYCRK4LYHSD16HW","AV22FQTJNBUZT","3G9UA71JVVGUCOKNEKUVXTI6SA17JG","","<img src=""img/set1/S2.jpg"" width=""540"" height = ""360"" style=""border:16px solid orange"">","null","","","","","","","","","",""
"null","","html-keyboard-response","252","129679","0.0-252.0","3PDJHANYK62H329MYCRK4LYHSD16HW","AV22FQTJNBUZT","3G9UA71JVVGUCOKNEKUVXTI6SA17JG","","","null","","","","","","","","","",""
"408.69999998807907","","image-keyboard-response","253","130090","0.0-253.0","3PDJHANYK62H329MYCRK4LYHSD16HW","AV22FQTJNBUZT","3G9UA71JVVGUCOKNEKUVXTI6SA17JG","","img/set1/S2.jpg","68","2","structured_normal","68","structured_normal,random,structured_load,structured_incentive","1,2,4,2,2,3","4,2,1,3","true","","",""
"null","","html-keyboard-response","254","130443","0.0-254.0","3PDJHANYK62H329MYCRK4LYHSD16HW","AV22FQTJNBUZT","3G9UA71JVVGUCOKNEKUVXTI6SA17JG","","<img src=""img/set1/S2.jpg"" width=""540"" height = ""360"" style=""border:16px solid orange"">","null","","","","","","","","","",""
"null","","html-keyboard-response","255","130646","0.0-255.0","3PDJHANYK62H329MYCRK4LYHSD16HW","AV22FQTJNBUZT","3G9UA71JVVGUCOKNEKUVXTI6SA17JG","","","null","","","","","","","","","",""
"769.4000000357628","","image-keyboard-response","256","131417","0.0-256.0","3PDJHANYK62H329MYCRK4LYHSD16HW","AV22FQTJNBUZT","3G9UA71JVVGUCOKNEKUVXTI6SA17JG","","img/set1/S4.jpg","74","4","structured_normal","74","structured_normal,random,structured_load,structured_incentive","1,2,4,2,2,3","4,2,1,3","true","","",""
"null","","html-keyboard-response","257","131770","0.0-257.0","3PDJHANYK62H329MYCRK4LYHSD16HW","AV22FQTJNBUZT","3G9UA71JVVGUCOKNEKUVXTI6SA17JG","","<img src=""img/set1/S4.jpg"" width=""540"" height = ""360"" style=""border:16px solid orange"">","null","","","","","","","","","",""
"null","","html-keyboard-response","258","131972","0.0-258.0","3PDJHANYK62H329MYCRK4LYHSD16HW","AV22FQTJNBUZT","3G9UA71JVVGUCOKNEKUVXTI6SA17JG","","","null","","","","","","","","","",""
"731.5999999642372","","image-keyboard-response","259","132705","0.0-259.0","3PDJHANYK62H329MYCRK4LYHSD16HW","AV22FQTJNBUZT","3G9UA71JVVGUCOKNEKUVXTI6SA17JG","","img/set1/S1.jpg","83","1","structured_normal","83","structured_normal,random,structured_load,structured_incentive","1,2,4,2,2,3","4,2,1,3","true","","",""
"null","","html-keyboard-response","260","133058","0.0-260.0","3PDJHANYK62H329MYCRK4LYHSD16HW","AV22FQTJNBUZT","3G9UA71JVVGUCOKNEKUVXTI6SA17JG","","<img src=""img/set1/S1.jpg"" width=""540"" height = ""360"" style=""border:16px solid orange"">","null","","","","","","","","","",""
"null","","html-keyboard-response","261","133259","0.0-261.0","3PDJHANYK62H329MYCRK4LYHSD16HW","AV22FQTJNBUZT","3G9UA71JVVGUCOKNEKUVXTI6SA17JG","","","null","","","","","","","","","",""
"620.6999999880791","","image-keyboard-response","262","133881","0.0-262.0","3PDJHANYK62H329MYCRK4LYHSD16HW","AV22FQTJNBUZT","3G9UA71JVVGUCOKNEKUVXTI6SA17JG","","img/set1/S2.jpg","68","2","structured_normal","68","structured_normal,random,structured_load,structured_incentive","1,2,4,2,2,3","4,2,1,3","true","","",""
"null","","html-keyboard-response","263","134234","0.0-263.0","3PDJHANYK62H329MYCRK4LYHSD16HW","AV22FQTJNBUZT","3G9UA71JVVGUCOKNEKUVXTI6SA17JG","","<img src=""img/set1/S2.jpg"" width=""540"" height = ""360"" style=""border:16px solid orange"">","null","","","","","","","","","",""
"null","","html-keyboard-response","264","134435","0.0-264.0","3PDJHANYK62H329MYCRK4LYHSD16HW","AV22FQTJNBUZT","3G9UA71JVVGUCOKNEKUVXTI6SA17JG","","","null","","","","","","","","","",""
"724.2000000476837","","image-keyboard-response","265","135161","0.0-265.0","3PDJHANYK62H329MYCRK4LYHSD16HW","AV22FQTJNBUZT","3G9UA71JVVGUCOKNEKUVXTI6SA17JG","","img/set1/S1.jpg","83","1","structured_normal","83","structured_normal,random,structured_load,structured_incentive","1,2,4,2,2,3","4,2,1,3","true","","",""
"null","","html-keyboard-response","266","135513","0.0-266.0","3PDJHANYK62H329MYCRK4LYHSD16HW","AV22FQTJNBUZT","3G9UA71JVVGUCOKNEKUVXTI6SA17JG","","<img src=""img/set1/S1.jpg"" width=""540"" height = ""360"" style=""border:16px solid orange"">","null","","","","","","","","","",""
"null","","html-keyboard-response","267","135714","0.0-267.0","3PDJHANYK62H329MYCRK4LYHSD16HW","AV22FQTJNBUZT","3G9UA71JVVGUCOKNEKUVXTI6SA17JG","","","null","","","","","","","","","",""
"621.8999999761581","","image-keyboard-response","268","136337","0.0-268.0","3PDJHANYK62H329MYCRK4LYHSD16HW","AV22FQTJNBUZT","3G9UA71JVVGUCOKNEKUVXTI6SA17JG","","img/set1/S4.jpg","74","4","structured_normal","74","structured_normal,random,structured_load,structured_incentive","1,2,4,2,2,3","4,2,1,3","true","","",""
"null","","html-keyboard-response","269","136691","0.0-269.0","3PDJHANYK62H329MYCRK4LYHSD16HW","AV22FQTJNBUZT","3G9UA71JVVGUCOKNEKUVXTI6SA17JG","","<img src=""img/set1/S4.jpg"" width=""540"" height = ""360"" style=""border:16px solid orange"">","null","","","","","","","","","",""
"null","","html-keyboard-response","270","136893","0.0-270.0","3PDJHANYK62H329MYCRK4LYHSD16HW","AV22FQTJNBUZT","3G9UA71JVVGUCOKNEKUVXTI6SA17JG","","","null","","","","","","","","","",""
"562.9000000357628","","image-keyboard-response","271","137458","0.0-271.0","3PDJHANYK62H329MYCRK4LYHSD16HW","AV22FQTJNBUZT","3G9UA71JVVGUCOKNEKUVXTI6SA17JG","","img/set1/S1.jpg","83","1","structured_normal","83","structured_normal,random,structured_load,structured_incentive","1,2,4,2,2,3","4,2,1,3","true","","",""
"null","","html-keyboard-response","272","137811","0.0-272.0","3PDJHANYK62H329MYCRK4LYHSD16HW","AV22FQTJNBUZT","3G9UA71JVVGUCOKNEKUVXTI6SA17JG","","<img src=""img/set1/S1.jpg"" width=""540"" height = ""360"" style=""border:16px solid orange"">","null","","","","","","","","","",""
"null","","html-keyboard-response","273","138013","0.0-273.0","3PDJHANYK62H329MYCRK4LYHSD16HW","AV22FQTJNBUZT","3G9UA71JVVGUCOKNEKUVXTI6SA17JG","","","null","","","","","","","","","",""
"529.3999999761581","","image-keyboard-response","274","138544","0.0-274.0","3PDJHANYK62H329MYCRK4LYHSD16HW","AV22FQTJNBUZT","3G9UA71JVVGUCOKNEKUVXTI6SA17JG","","img/set1/S2.jpg","68","2","structured_normal","68","structured_normal,random,structured_load,structured_incentive","1,2,4,2,2,3","4,2,1,3","true","","",""
"null","","html-keyboard-response","275","138897","0.0-275.0","3PDJHANYK62H329MYCRK4LYHSD16HW","AV22FQTJNBUZT","3G9UA71JVVGUCOKNEKUVXTI6SA17JG","","<img src=""img/set1/S2.jpg"" width=""540"" height = ""360"" style=""border:16px solid orange"">","null","","","","","","","","","",""
"null","","html-keyboard-response","276","139099","0.0-276.0","3PDJHANYK62H329MYCRK4LYHSD16HW","AV22FQTJNBUZT","3G9UA71JVVGUCOKNEKUVXTI6SA17JG","","","null","","","","","","","","","",""
"387.69999998807907","","image-keyboard-response","277","139490","0.0-277.0","3PDJHANYK62H329MYCRK4LYHSD16HW","AV22FQTJNBUZT","3G9UA71JVVGUCOKNEKUVXTI6SA17JG","","img/set1/S3.jpg","72","3","structured_normal","72","structured_normal,random,structured_load,structured_incentive","1,2,4,2,2,3","4,2,1,3","true","","",""
"null","","html-keyboard-response","278","139843","0.0-278.0","3PDJHANYK62H329MYCRK4LYHSD16HW","AV22FQTJNBUZT","3G9UA71JVVGUCOKNEKUVXTI6SA17JG","","<img src=""img/set1/S3.jpg"" width=""540"" height = ""360"" style=""border:16px solid orange"">","null","","","","","","","","","",""
"null","","html-keyboard-response","279","140046","0.0-279.0","3PDJHANYK62H329MYCRK4LYHSD16HW","AV22FQTJNBUZT","3G9UA71JVVGUCOKNEKUVXTI6SA17JG","","","null","","","","","","","","","",""
"1121.5","","image-keyboard-response","280","141170","0.0-280.0","3PDJHANYK62H329MYCRK4LYHSD16HW","AV22FQTJNBUZT","3G9UA71JVVGUCOKNEKUVXTI6SA17JG","","img/set1/S1.jpg","83","1","structured_normal","83","structured_normal,random,structured_load,structured_incentive","1,2,4,2,2,3","4,2,1,3","true","","",""
"null","","html-keyboard-response","281","141525","0.0-281.0","3PDJHANYK62H329MYCRK4LYHSD16HW","AV22FQTJNBUZT","3G9UA71JVVGUCOKNEKUVXTI6SA17JG","","<img src=""img/set1/S1.jpg"" width=""540"" height = ""360"" style=""border:16px solid orange"">","null","","","","","","","","","",""
"null","","html-keyboard-response","282","141727","0.0-282.0","3PDJHANYK62H329MYCRK4LYHSD16HW","AV22FQTJNBUZT","3G9UA71JVVGUCOKNEKUVXTI6SA17JG","","","null","","","","","","","","","",""
"647.6999999880791","","image-keyboard-response","283","142376","0.0-283.0","3PDJHANYK62H329MYCRK4LYHSD16HW","AV22FQTJNBUZT","3G9UA71JVVGUCOKNEKUVXTI6SA17JG","","img/set1/S2.jpg","68","2","structured_normal","68","structured_normal,random,structured_load,structured_incentive","1,2,4,2,2,3","4,2,1,3","true","","",""
"null","","html-keyboard-response","284","142728","0.0-284.0","3PDJHANYK62H329MYCRK4LYHSD16HW","AV22FQTJNBUZT","3G9UA71JVVGUCOKNEKUVXTI6SA17JG","","<img src=""img/set1/S2.jpg"" width=""540"" height = ""360"" style=""border:16px solid orange"">","null","","","","","","","","","",""
"null","","html-keyboard-response","285","142931","0.0-285.0","3PDJHANYK62H329MYCRK4LYHSD16HW","AV22FQTJNBUZT","3G9UA71JVVGUCOKNEKUVXTI6SA17JG","","","null","","","","","","","","","",""
"628.8000000119209","","image-keyboard-response","286","143562","0.0-286.0","3PDJHANYK62H329MYCRK4LYHSD16HW","AV22FQTJNBUZT","3G9UA71JVVGUCOKNEKUVXTI6SA17JG","","img/set1/S1.jpg","83","1","structured_normal","83","structured_normal,random,structured_load,structured_incentive","1,2,4,2,2,3","4,2,1,3","true","","",""
"null","","html-keyboard-response","287","143916","0.0-287.0","3PDJHANYK62H329MYCRK4LYHSD16HW","AV22FQTJNBUZT","3G9UA71JVVGUCOKNEKUVXTI6SA17JG","","<img src=""img/set1/S1.jpg"" width=""540"" height = ""360"" style=""border:16px solid orange"">","null","","","","","","","","","",""
"null","","html-keyboard-response","288","144118","0.0-288.0","3PDJHANYK62H329MYCRK4LYHSD16HW","AV22FQTJNBUZT","3G9UA71JVVGUCOKNEKUVXTI6SA17JG","","","null","","","","","","","","","",""
"544.1999999880791","","image-keyboard-response","289","144664","0.0-289.0","3PDJHANYK62H329MYCRK4LYHSD16HW","AV22FQTJNBUZT","3G9UA71JVVGUCOKNEKUVXTI6SA17JG","","img/set1/S2.jpg","68","2","structured_normal","68","structured_normal,random,structured_load,structured_incentive","1,2,4,2,2,3","4,2,1,3","true","","",""
"null","","html-keyboard-response","290","145016","0.0-290.0","3PDJHANYK62H329MYCRK4LYHSD16HW","AV22FQTJNBUZT","3G9UA71JVVGUCOKNEKUVXTI6SA17JG","","<img src=""img/set1/S2.jpg"" width=""540"" height = ""360"" style=""border:16px solid orange"">","null","","","","","","","","","",""
"null","","html-keyboard-response","291","145219","0.0-291.0","3PDJHANYK62H329MYCRK4LYHSD16HW","AV22FQTJNBUZT","3G9UA71JVVGUCOKNEKUVXTI6SA17JG","","","null","","","","","","","","","",""
"652","","image-keyboard-response","292","145874","0.0-292.0","3PDJHANYK62H329MYCRK4LYHSD16HW","AV22FQTJNBUZT","3G9UA71JVVGUCOKNEKUVXTI6SA17JG","","img/set1/S4.jpg","74","4","structured_normal","74","structured_normal,random,structured_load,structured_incentive","1,2,4,2,2,3","4,2,1,3","true","","",""
"null","","html-keyboard-response","293","146230","0.0-293.0","3PDJHANYK62H329MYCRK4LYHSD16HW","AV22FQTJNBUZT","3G9UA71JVVGUCOKNEKUVXTI6SA17JG","","<img src=""img/set1/S4.jpg"" width=""540"" height = ""360"" style=""border:16px solid orange"">","null","","","","","","","","","",""
"null","","html-keyboard-response","294","146433","0.0-294.0","3PDJHANYK62H329MYCRK4LYHSD16HW","AV22FQTJNBUZT","3G9UA71JVVGUCOKNEKUVXTI6SA17JG","","","null","","","","","","","","","",""
"582.1000000238419","","image-keyboard-response","295","147018","0.0-295.0","3PDJHANYK62H329MYCRK4LYHSD16HW","AV22FQTJNBUZT","3G9UA71JVVGUCOKNEKUVXTI6SA17JG","","img/set1/S1.jpg","83","1","structured_normal","83","structured_normal,random,structured_load,structured_incentive","1,2,4,2,2,3","4,2,1,3","true","","",""
"null","","html-keyboard-response","296","147371","0.0-296.0","3PDJHANYK62H329MYCRK4LYHSD16HW","AV22FQTJNBUZT","3G9UA71JVVGUCOKNEKUVXTI6SA17JG","","<img src=""img/set1/S1.jpg"" width=""540"" height = ""360"" style=""border:16px solid orange"">","null","","","","","","","","","",""
"null","","html-keyboard-response","297","147573","0.0-297.0","3PDJHANYK62H329MYCRK4LYHSD16HW","AV22FQTJNBUZT","3G9UA71JVVGUCOKNEKUVXTI6SA17JG","","","null","","","","","","","","","",""
"458.80000001192093","","image-keyboard-response","298","148034","0.0-298.0","3PDJHANYK62H329MYCRK4LYHSD16HW","AV22FQTJNBUZT","3G9UA71JVVGUCOKNEKUVXTI6SA17JG","","img/set1/S2.jpg","68","2","structured_normal","68","structured_normal,random,structured_load,structured_incentive","1,2,4,2,2,3","4,2,1,3","true","","",""
"null","","html-keyboard-response","299","148387","0.0-299.0","3PDJHANYK62H329MYCRK4LYHSD16HW","AV22FQTJNBUZT","3G9UA71JVVGUCOKNEKUVXTI6SA17JG","","<img src=""img/set1/S2.jpg"" width=""540"" height = ""360"" style=""border:16px solid orange"">","null","","","","","","","","","",""
"null","","html-keyboard-response","300","148589","0.0-300.0","3PDJHANYK62H329MYCRK4LYHSD16HW","AV22FQTJNBUZT","3G9UA71JVVGUCOKNEKUVXTI6SA17JG","","","null","","","","","","","","","",""
"649.7000000476837","","image-keyboard-response","301","149240","0.0-301.0","3PDJHANYK62H329MYCRK4LYHSD16HW","AV22FQTJNBUZT","3G9UA71JVVGUCOKNEKUVXTI6SA17JG","","img/set1/S1.jpg","83","1","structured_normal","83","structured_normal,random,structured_load,structured_incentive","1,2,4,2,2,3","4,2,1,3","true","","",""
"null","","html-keyboard-response","302","149595","0.0-302.0","3PDJHANYK62H329MYCRK4LYHSD16HW","AV22FQTJNBUZT","3G9UA71JVVGUCOKNEKUVXTI6SA17JG","","<img src=""img/set1/S1.jpg"" width=""540"" height = ""360"" style=""border:16px solid orange"">","null","","","","","","","","","",""
"null","","html-keyboard-response","303","149798","0.0-303.0","3PDJHANYK62H329MYCRK4LYHSD16HW","AV22FQTJNBUZT","3G9UA71JVVGUCOKNEKUVXTI6SA17JG","","","null","","","","","","","","","",""
"560.5","","image-keyboard-response","304","150361","0.0-304.0","3PDJHANYK62H329MYCRK4LYHSD16HW","AV22FQTJNBUZT","3G9UA71JVVGUCOKNEKUVXTI6SA17JG","","img/set1/S2.jpg","68","2","structured_normal","68","structured_normal,random,structured_load,structured_incentive","1,2,4,2,2,3","4,2,1,3","true","","",""
"null","","html-keyboard-response","305","150714","0.0-305.0","3PDJHANYK62H329MYCRK4LYHSD16HW","AV22FQTJNBUZT","3G9UA71JVVGUCOKNEKUVXTI6SA17JG","","<img src=""img/set1/S2.jpg"" width=""540"" height = ""360"" style=""border:16px solid orange"">","null","","","","","","","","","",""
"null","","html-keyboard-response","306","150917","0.0-306.0","3PDJHANYK62H329MYCRK4LYHSD16HW","AV22FQTJNBUZT","3G9UA71JVVGUCOKNEKUVXTI6SA17JG","","","null","","","","","","","","","",""
"593.5999999642372","","image-keyboard-response","307","151512","0.0-307.0","3PDJHANYK62H329MYCRK4LYHSD16HW","AV22FQTJNBUZT","3G9UA71JVVGUCOKNEKUVXTI6SA17JG","","img/set1/S4.jpg","74","4","structured_normal","74","structured_normal,random,structured_load,structured_incentive","1,2,4,2,2,3","4,2,1,3","true","","",""
"null","","html-keyboard-response","308","151864","0.0-308.0","3PDJHANYK62H329MYCRK4LYHSD16HW","AV22FQTJNBUZT","3G9UA71JVVGUCOKNEKUVXTI6SA17JG","","<img src=""img/set1/S4.jpg"" width=""540"" height = ""360"" style=""border:16px solid orange"">","null","","","","","","","","","",""
"null","","html-keyboard-response","309","152065","0.0-309.0","3PDJHANYK62H329MYCRK4LYHSD16HW","AV22FQTJNBUZT","3G9UA71JVVGUCOKNEKUVXTI6SA17JG","","","null","","","","","","","","","",""
"462.5","","image-keyboard-response","310","152530","0.0-310.0","3PDJHANYK62H329MYCRK4LYHSD16HW","AV22FQTJNBUZT","3G9UA71JVVGUCOKNEKUVXTI6SA17JG","","img/set1/S4.jpg","74","4","structured_normal","74","structured_normal,random,structured_load,structured_incentive","1,2,4,2,2,3","4,2,1,3","true","","",""
"null","","html-keyboard-response","311","152884","0.0-311.0","3PDJHANYK62H329MYCRK4LYHSD16HW","AV22FQTJNBUZT","3G9UA71JVVGUCOKNEKUVXTI6SA17JG","","<img src=""img/set1/S4.jpg"" width=""540"" height = ""360"" style=""border:16px solid orange"">","null","","","","","","","","","",""
"null","","html-keyboard-response","312","153086","0.0-312.0","3PDJHANYK62H329MYCRK4LYHSD16HW","AV22FQTJNBUZT","3G9UA71JVVGUCOKNEKUVXTI6SA17JG","","","null","","","","","","","","","",""
"522.1000000238419","","image-keyboard-response","313","153610","0.0-313.0","3PDJHANYK62H329MYCRK4LYHSD16HW","AV22FQTJNBUZT","3G9UA71JVVGUCOKNEKUVXTI6SA17JG","","img/set1/S3.jpg","72","3","structured_normal","72","structured_normal,random,structured_load,structured_incentive","1,2,4,2,2,3","4,2,1,3","true","","",""
"null","","html-keyboard-response","314","153963","0.0-314.0","3PDJHANYK62H329MYCRK4LYHSD16HW","AV22FQTJNBUZT","3G9UA71JVVGUCOKNEKUVXTI6SA17JG","","<img src=""img/set1/S3.jpg"" width=""540"" height = ""360"" style=""border:16px solid orange"">","null","","","","","","","","","",""
"null","","html-keyboard-response","315","154165","0.0-315.0","3PDJHANYK62H329MYCRK4LYHSD16HW","AV22FQTJNBUZT","3G9UA71JVVGUCOKNEKUVXTI6SA17JG","","","null","","","","","","","","","",""
"626.5999999642372","","image-keyboard-response","316","154794","0.0-316.0","3PDJHANYK62H329MYCRK4LYHSD16HW","AV22FQTJNBUZT","3G9UA71JVVGUCOKNEKUVXTI6SA17JG","","img/set1/S1.jpg","83","1","structured_normal","83","structured_normal,random,structured_load,structured_incentive","1,2,4,2,2,3","4,2,1,3","true","","",""
"null","","html-keyboard-response","317","155148","0.0-317.0","3PDJHANYK62H329MYCRK4LYHSD16HW","AV22FQTJNBUZT","3G9UA71JVVGUCOKNEKUVXTI6SA17JG","","<img src=""img/set1/S1.jpg"" width=""540"" height = ""360"" style=""border:16px solid orange"">","null","","","","","","","","","",""
"null","","html-keyboard-response","318","155350","0.0-318.0","3PDJHANYK62H329MYCRK4LYHSD16HW","AV22FQTJNBUZT","3G9UA71JVVGUCOKNEKUVXTI6SA17JG","","","null","","","","","","","","","",""
"569.7999999523163","","image-keyboard-response","319","155922","0.0-319.0","3PDJHANYK62H329MYCRK4LYHSD16HW","AV22FQTJNBUZT","3G9UA71JVVGUCOKNEKUVXTI6SA17JG","","img/set1/S4.jpg","74","4","structured_normal","74","structured_normal,random,structured_load,structured_incentive","1,2,4,2,2,3","4,2,1,3","true","","",""
"null","","html-keyboard-response","320","156275","0.0-320.0","3PDJHANYK62H329MYCRK4LYHSD16HW","AV22FQTJNBUZT","3G9UA71JVVGUCOKNEKUVXTI6SA17JG","","<img src=""img/set1/S4.jpg"" width=""540"" height = ""360"" style=""border:16px solid orange"">","null","","","","","","","","","",""
"null","","html-keyboard-response","321","156477","0.0-321.0","3PDJHANYK62H329MYCRK4LYHSD16HW","AV22FQTJNBUZT","3G9UA71JVVGUCOKNEKUVXTI6SA17JG","","","null","","","","","","","","","",""
"386.5999999642372","","image-keyboard-response","322","156866","0.0-322.0","3PDJHANYK62H329MYCRK4LYHSD16HW","AV22FQTJNBUZT","3G9UA71JVVGUCOKNEKUVXTI6SA17JG","","img/set1/S4.jpg","74","4","structured_normal","74","structured_normal,random,structured_load,structured_incentive","1,2,4,2,2,3","4,2,1,3","true","","",""
"null","","html-keyboard-response","323","157220","0.0-323.0","3PDJHANYK62H329MYCRK4LYHSD16HW","AV22FQTJNBUZT","3G9UA71JVVGUCOKNEKUVXTI6SA17JG","","<img src=""img/set1/S4.jpg"" width=""540"" height = ""360"" style=""border:16px solid orange"">","null","","","","","","","","","",""
"null","","html-keyboard-response","324","157423","0.0-324.0","3PDJHANYK62H329MYCRK4LYHSD16HW","AV22FQTJNBUZT","3G9UA71JVVGUCOKNEKUVXTI6SA17JG","","","null","","","","","","","","","",""
"831.5","","image-keyboard-response","325","158256","0.0-325.0","3PDJHANYK62H329MYCRK4LYHSD16HW","AV22FQTJNBUZT","3G9UA71JVVGUCOKNEKUVXTI6SA17JG","","img/set1/S3.jpg","72","3","structured_normal","72","structured_normal,random,structured_load,structured_incentive","1,2,4,2,2,3","4,2,1,3","true","","",""
"null","","html-keyboard-response","326","158609","0.0-326.0","3PDJHANYK62H329MYCRK4LYHSD16HW","AV22FQTJNBUZT","3G9UA71JVVGUCOKNEKUVXTI6SA17JG","","<img src=""img/set1/S3.jpg"" width=""540"" height = ""360"" style=""border:16px solid orange"">","null","","","","","","","","","",""
"null","","html-keyboard-response","327","158811","0.0-327.0","3PDJHANYK62H329MYCRK4LYHSD16HW","AV22FQTJNBUZT","3G9UA71JVVGUCOKNEKUVXTI6SA17JG","","","null","","","","","","","","","",""
"427.30000001192093","","image-keyboard-response","328","159240","0.0-328.0","3PDJHANYK62H329MYCRK4LYHSD16HW","AV22FQTJNBUZT","3G9UA71JVVGUCOKNEKUVXTI6SA17JG","","img/set1/S3.jpg","72","3","structured_normal","72","structured_normal,random,structured_load,structured_incentive","1,2,4,2,2,3","4,2,1,3","true","","",""
"null","","html-keyboard-response","329","159593","0.0-329.0","3PDJHANYK62H329MYCRK4LYHSD16HW","AV22FQTJNBUZT","3G9UA71JVVGUCOKNEKUVXTI6SA17JG","","<img src=""img/set1/S3.jpg"" width=""540"" height = ""360"" style=""border:16px solid orange"">","null","","","","","","","","","",""
"null","","html-keyboard-response","330","159796","0.0-330.0","3PDJHANYK62H329MYCRK4LYHSD16HW","AV22FQTJNBUZT","3G9UA71JVVGUCOKNEKUVXTI6SA17JG","","","null","","","","","","","","","",""
"611.1999999880791","","image-keyboard-response","331","160410","0.0-331.0","3PDJHANYK62H329MYCRK4LYHSD16HW","AV22FQTJNBUZT","3G9UA71JVVGUCOKNEKUVXTI6SA17JG","","img/set1/S1.jpg","83","1","structured_normal","83","structured_normal,random,structured_load,structured_incentive","1,2,4,2,2,3","4,2,1,3","true","","",""
"null","","html-keyboard-response","332","160763","0.0-332.0","3PDJHANYK62H329MYCRK4LYHSD16HW","AV22FQTJNBUZT","3G9UA71JVVGUCOKNEKUVXTI6SA17JG","","<img src=""img/set1/S1.jpg"" width=""540"" height = ""360"" style=""border:16px solid orange"">","null","","","","","","","","","",""
"null","","html-keyboard-response","333","160967","0.0-333.0","3PDJHANYK62H329MYCRK4LYHSD16HW","AV22FQTJNBUZT","3G9UA71JVVGUCOKNEKUVXTI6SA17JG","","","null","","","","","","","","","",""
"663.5999999642372","","image-keyboard-response","334","161633","0.0-334.0","3PDJHANYK62H329MYCRK4LYHSD16HW","AV22FQTJNBUZT","3G9UA71JVVGUCOKNEKUVXTI6SA17JG","","img/set1/S2.jpg","68","2","structured_normal","68","structured_normal,random,structured_load,structured_incentive","1,2,4,2,2,3","4,2,1,3","true","","",""
"null","","html-keyboard-response","335","161985","0.0-335.0","3PDJHANYK62H329MYCRK4LYHSD16HW","AV22FQTJNBUZT","3G9UA71JVVGUCOKNEKUVXTI6SA17JG","","<img src=""img/set1/S2.jpg"" width=""540"" height = ""360"" style=""border:16px solid orange"">","null","","","","","","","","","",""
"null","","html-keyboard-response","336","162188","0.0-336.0","3PDJHANYK62H329MYCRK4LYHSD16HW","AV22FQTJNBUZT","3G9UA71JVVGUCOKNEKUVXTI6SA17JG","","","null","","","","","","","","","",""
"571.6999999880791","","image-keyboard-response","337","162762","0.0-337.0","3PDJHANYK62H329MYCRK4LYHSD16HW","AV22FQTJNBUZT","3G9UA71JVVGUCOKNEKUVXTI6SA17JG","","img/set1/S3.jpg","72","3","structured_normal","72","structured_normal,random,structured_load,structured_incentive","1,2,4,2,2,3","4,2,1,3","true","","",""
"null","","html-keyboard-response","338","163115","0.0-338.0","3PDJHANYK62H329MYCRK4LYHSD16HW","AV22FQTJNBUZT","3G9UA71JVVGUCOKNEKUVXTI6SA17JG","","<img src=""img/set1/S3.jpg"" width=""540"" height = ""360"" style=""border:16px solid orange"">","null","","","","","","","","","",""
"null","","html-keyboard-response","339","163318","0.0-339.0","3PDJHANYK62H329MYCRK4LYHSD16HW","AV22FQTJNBUZT","3G9UA71JVVGUCOKNEKUVXTI6SA17JG","","","null","","","","","","","","","",""
"584.6000000238419","","image-keyboard-response","340","163904","0.0-340.0","3PDJHANYK62H329MYCRK4LYHSD16HW","AV22FQTJNBUZT","3G9UA71JVVGUCOKNEKUVXTI6SA17JG","","img/set1/S4.jpg","74","4","structured_normal","74","structured_normal,random,structured_load,structured_incentive","1,2,4,2,2,3","4,2,1,3","true","","",""
"null","","html-keyboard-response","341","164256","0.0-341.0","3PDJHANYK62H329MYCRK4LYHSD16HW","AV22FQTJNBUZT","3G9UA71JVVGUCOKNEKUVXTI6SA17JG","","<img src=""img/set1/S4.jpg"" width=""540"" height = ""360"" style=""border:16px solid orange"">","null","","","","","","","","","",""
"null","","html-keyboard-response","342","164458","0.0-342.0","3PDJHANYK62H329MYCRK4LYHSD16HW","AV22FQTJNBUZT","3G9UA71JVVGUCOKNEKUVXTI6SA17JG","","","null","","","","","","","","","",""
"629.8000000119209","","image-keyboard-response","343","165089","0.0-343.0","3PDJHANYK62H329MYCRK4LYHSD16HW","AV22FQTJNBUZT","3G9UA71JVVGUCOKNEKUVXTI6SA17JG","","img/set1/S3.jpg","72","3","structured_normal","72","structured_normal,random,structured_load,structured_incentive","1,2,4,2,2,3","4,2,1,3","true","","",""
"null","","html-keyboard-response","344","165443","0.0-344.0","3PDJHANYK62H329MYCRK4LYHSD16HW","AV22FQTJNBUZT","3G9UA71JVVGUCOKNEKUVXTI6SA17JG","","<img src=""img/set1/S3.jpg"" width=""540"" height = ""360"" style=""border:16px solid orange"">","null","","","","","","","","","",""
"null","","html-keyboard-response","345","165644","0.0-345.0","3PDJHANYK62H329MYCRK4LYHSD16HW","AV22FQTJNBUZT","3G9UA71JVVGUCOKNEKUVXTI6SA17JG","","","null","","","","","","","","","",""
"602.5","","image-keyboard-response","346","166248","0.0-346.0","3PDJHANYK62H329MYCRK4LYHSD16HW","AV22FQTJNBUZT","3G9UA71JVVGUCOKNEKUVXTI6SA17JG","","img/set1/S1.jpg","83","1","structured_normal","83","structured_normal,random,structured_load,structured_incentive","1,2,4,2,2,3","4,2,1,3","true","","",""
"null","","html-keyboard-response","347","166601","0.0-347.0","3PDJHANYK62H329MYCRK4LYHSD16HW","AV22FQTJNBUZT","3G9UA71JVVGUCOKNEKUVXTI6SA17JG","","<img src=""img/set1/S1.jpg"" width=""540"" height = ""360"" style=""border:16px solid orange"">","null","","","","","","","","","",""
"null","","html-keyboard-response","348","166803","0.0-348.0","3PDJHANYK62H329MYCRK4LYHSD16HW","AV22FQTJNBUZT","3G9UA71JVVGUCOKNEKUVXTI6SA17JG","","","null","","","","","","","","","",""
"660.1000000238419","","image-keyboard-response","349","167465","0.0-349.0","3PDJHANYK62H329MYCRK4LYHSD16HW","AV22FQTJNBUZT","3G9UA71JVVGUCOKNEKUVXTI6SA17JG","","img/set1/S2.jpg","68","2","structured_normal","68","structured_normal,random,structured_load,structured_incentive","1,2,4,2,2,3","4,2,1,3","true","","",""
"null","","html-keyboard-response","350","167826","0.0-350.0","3PDJHANYK62H329MYCRK4LYHSD16HW","AV22FQTJNBUZT","3G9UA71JVVGUCOKNEKUVXTI6SA17JG","","<img src=""img/set1/S2.jpg"" width=""540"" height = ""360"" style=""border:16px solid orange"">","null","","","","","","","","","",""
"null","","html-keyboard-response","351","168029","0.0-351.0","3PDJHANYK62H329MYCRK4LYHSD16HW","AV22FQTJNBUZT","3G9UA71JVVGUCOKNEKUVXTI6SA17JG","","","null","","","","","","","","","",""
"385.10000002384186","","image-keyboard-response","352","168417","0.0-352.0","3PDJHANYK62H329MYCRK4LYHSD16HW","AV22FQTJNBUZT","3G9UA71JVVGUCOKNEKUVXTI6SA17JG","","img/set1/S2.jpg","68","2","structured_normal","68","structured_normal,random,structured_load,structured_incentive","1,2,4,2,2,3","4,2,1,3","true","","",""
"null","","html-keyboard-response","353","168771","0.0-353.0","3PDJHANYK62H329MYCRK4LYHSD16HW","AV22FQTJNBUZT","3G9UA71JVVGUCOKNEKUVXTI6SA17JG","","<img src=""img/set1/S2.jpg"" width=""540"" height = ""360"" style=""border:16px solid orange"">","null","","","","","","","","","",""
"null","","html-keyboard-response","354","168974","0.0-354.0","3PDJHANYK62H329MYCRK4LYHSD16HW","AV22FQTJNBUZT","3G9UA71JVVGUCOKNEKUVXTI6SA17JG","","","null","","","","","","","","","",""
"608.5","","image-keyboard-response","355","169584","0.0-355.0","3PDJHANYK62H329MYCRK4LYHSD16HW","AV22FQTJNBUZT","3G9UA71JVVGUCOKNEKUVXTI6SA17JG","","img/set1/S4.jpg","74","4","structured_normal","74","structured_normal,random,structured_load,structured_incentive","1,2,4,2,2,3","4,2,1,3","true","","",""
"null","","html-keyboard-response","356","169937","0.0-356.0","3PDJHANYK62H329MYCRK4LYHSD16HW","AV22FQTJNBUZT","3G9UA71JVVGUCOKNEKUVXTI6SA17JG","","<img src=""img/set1/S4.jpg"" width=""540"" height = ""360"" style=""border:16px solid orange"">","null","","","","","","","","","",""
"null","","html-keyboard-response","357","170139","0.0-357.0","3PDJHANYK62H329MYCRK4LYHSD16HW","AV22FQTJNBUZT","3G9UA71JVVGUCOKNEKUVXTI6SA17JG","","","null","","","","","","","","","",""
"716.1000000238419","","image-keyboard-response","358","170857","0.0-358.0","3PDJHANYK62H329MYCRK4LYHSD16HW","AV22FQTJNBUZT","3G9UA71JVVGUCOKNEKUVXTI6SA17JG","","img/set1/S1.jpg","83","1","structured_normal","83","structured_normal,random,structured_load,structured_incentive","1,2,4,2,2,3","4,2,1,3","true","","",""
"null","","html-keyboard-response","359","171211","0.0-359.0","3PDJHANYK62H329MYCRK4LYHSD16HW","AV22FQTJNBUZT","3G9UA71JVVGUCOKNEKUVXTI6SA17JG","","<img src=""img/set1/S1.jpg"" width=""540"" height = ""360"" style=""border:16px solid orange"">","null","","","","","","","","","",""
"null","","html-keyboard-response","360","171414","0.0-360.0","3PDJHANYK62H329MYCRK4LYHSD16HW","AV22FQTJNBUZT","3G9UA71JVVGUCOKNEKUVXTI6SA17JG","","","null","","","","","","","","","",""
"600.5","","image-keyboard-response","361","172018","0.0-361.0","3PDJHANYK62H329MYCRK4LYHSD16HW","AV22FQTJNBUZT","3G9UA71JVVGUCOKNEKUVXTI6SA17JG","","img/set1/S2.jpg","68","2","structured_normal","68","structured_normal,random,structured_load,structured_incentive","1,2,4,2,2,3","4,2,1,3","true","","",""
"null","","html-keyboard-response","362","172371","0.0-362.0","3PDJHANYK62H329MYCRK4LYHSD16HW","AV22FQTJNBUZT","3G9UA71JVVGUCOKNEKUVXTI6SA17JG","","<img src=""img/set1/S2.jpg"" width=""540"" height = ""360"" style=""border:16px solid orange"">","null","","","","","","","","","",""
"null","","html-keyboard-response","363","172574","0.0-363.0","3PDJHANYK62H329MYCRK4LYHSD16HW","AV22FQTJNBUZT","3G9UA71JVVGUCOKNEKUVXTI6SA17JG","","","null","","","","","","","","","",""
"473.60000002384186","","image-keyboard-response","364","173049","0.0-364.0","3PDJHANYK62H329MYCRK4LYHSD16HW","AV22FQTJNBUZT","3G9UA71JVVGUCOKNEKUVXTI6SA17JG","","img/set1/S2.jpg","68","2","structured_normal","68","structured_normal,random,structured_load,structured_incentive","1,2,4,2,2,3","4,2,1,3","true","","",""
"null","","html-keyboard-response","365","173403","0.0-365.0","3PDJHANYK62H329MYCRK4LYHSD16HW","AV22FQTJNBUZT","3G9UA71JVVGUCOKNEKUVXTI6SA17JG","","<img src=""img/set1/S2.jpg"" width=""540"" height = ""360"" style=""border:16px solid orange"">","null","","","","","","","","","",""
"null","","html-keyboard-response","366","173606","0.0-366.0","3PDJHANYK62H329MYCRK4LYHSD16HW","AV22FQTJNBUZT","3G9UA71JVVGUCOKNEKUVXTI6SA17JG","","","null","","","","","","","","","",""
"776.3999999761581","","image-keyboard-response","367","174384","0.0-367.0","3PDJHANYK62H329MYCRK4LYHSD16HW","AV22FQTJNBUZT","3G9UA71JVVGUCOKNEKUVXTI6SA17JG","","img/set1/S1.jpg","83","1","structured_normal","83","structured_normal,random,structured_load,structured_incentive","1,2,4,2,2,3","4,2,1,3","true","","",""
"null","","html-keyboard-response","368","174735","0.0-368.0","3PDJHANYK62H329MYCRK4LYHSD16HW","AV22FQTJNBUZT","3G9UA71JVVGUCOKNEKUVXTI6SA17JG","","<img src=""img/set1/S1.jpg"" width=""540"" height = ""360"" style=""border:16px solid orange"">","null","","","","","","","","","",""
"null","","html-keyboard-response","369","174937","0.0-369.0","3PDJHANYK62H329MYCRK4LYHSD16HW","AV22FQTJNBUZT","3G9UA71JVVGUCOKNEKUVXTI6SA17JG","","","null","","","","","","","","","",""
"607.5","","image-keyboard-response","370","175546","0.0-370.0","3PDJHANYK62H329MYCRK4LYHSD16HW","AV22FQTJNBUZT","3G9UA71JVVGUCOKNEKUVXTI6SA17JG","","img/set1/S2.jpg","68","2","structured_normal","68","structured_normal,random,structured_load,structured_incentive","1,2,4,2,2,3","4,2,1,3","true","","",""
"null","","html-keyboard-response","371","175899","0.0-371.0","3PDJHANYK62H329MYCRK4LYHSD16HW","AV22FQTJNBUZT","3G9UA71JVVGUCOKNEKUVXTI6SA17JG","","<img src=""img/set1/S2.jpg"" width=""540"" height = ""360"" style=""border:16px solid orange"">","null","","","","","","","","","",""
"null","","html-keyboard-response","372","176101","0.0-372.0","3PDJHANYK62H329MYCRK4LYHSD16HW","AV22FQTJNBUZT","3G9UA71JVVGUCOKNEKUVXTI6SA17JG","","","null","","","","","","","","","",""
"713","","image-keyboard-response","373","176816","0.0-373.0","3PDJHANYK62H329MYCRK4LYHSD16HW","AV22FQTJNBUZT","3G9UA71JVVGUCOKNEKUVXTI6SA17JG","","img/set1/S1.jpg","83","1","structured_normal","83","structured_normal,random,structured_load,structured_incentive","1,2,4,2,2,3","4,2,1,3","true","","",""
"null","","html-keyboard-response","374","177170","0.0-374.0","3PDJHANYK62H329MYCRK4LYHSD16HW","AV22FQTJNBUZT","3G9UA71JVVGUCOKNEKUVXTI6SA17JG","","<img src=""img/set1/S1.jpg"" width=""540"" height = ""360"" style=""border:16px solid orange"">","null","","","","","","","","","",""
"null","","html-keyboard-response","375","177372","0.0-375.0","3PDJHANYK62H329MYCRK4LYHSD16HW","AV22FQTJNBUZT","3G9UA71JVVGUCOKNEKUVXTI6SA17JG","","","null","","","","","","","","","",""
"618","","image-keyboard-response","376","177993","0.0-376.0","3PDJHANYK62H329MYCRK4LYHSD16HW","AV22FQTJNBUZT","3G9UA71JVVGUCOKNEKUVXTI6SA17JG","","img/set1/S2.jpg","68","2","structured_normal","68","structured_normal,random,structured_load,structured_incentive","1,2,4,2,2,3","4,2,1,3","true","","",""
"null","","html-keyboard-response","377","178346","0.0-377.0","3PDJHANYK62H329MYCRK4LYHSD16HW","AV22FQTJNBUZT","3G9UA71JVVGUCOKNEKUVXTI6SA17JG","","<img src=""img/set1/S2.jpg"" width=""540"" height = ""360"" style=""border:16px solid orange"">","null","","","","","","","","","",""
"null","","html-keyboard-response","378","178549","0.0-378.0","3PDJHANYK62H329MYCRK4LYHSD16HW","AV22FQTJNBUZT","3G9UA71JVVGUCOKNEKUVXTI6SA17JG","","","null","","","","","","","","","",""
"930.5","","image-keyboard-response","379","179482","0.0-379.0","3PDJHANYK62H329MYCRK4LYHSD16HW","AV22FQTJNBUZT","3G9UA71JVVGUCOKNEKUVXTI6SA17JG","","img/set1/S4.jpg","74","4","structured_normal","74","structured_normal,random,structured_load,structured_incentive","1,2,4,2,2,3","4,2,1,3","true","","",""
"null","","html-keyboard-response","380","179836","0.0-380.0","3PDJHANYK62H329MYCRK4LYHSD16HW","AV22FQTJNBUZT","3G9UA71JVVGUCOKNEKUVXTI6SA17JG","","<img src=""img/set1/S4.jpg"" width=""540"" height = ""360"" style=""border:16px solid orange"">","null","","","","","","","","","",""
"null","","html-keyboard-response","381","180040","0.0-381.0","3PDJHANYK62H329MYCRK4LYHSD16HW","AV22FQTJNBUZT","3G9UA71JVVGUCOKNEKUVXTI6SA17JG","","","null","","","","","","","","","",""
"816.1999999880791","","image-keyboard-response","382","180858","0.0-382.0","3PDJHANYK62H329MYCRK4LYHSD16HW","AV22FQTJNBUZT","3G9UA71JVVGUCOKNEKUVXTI6SA17JG","","img/set1/S1.jpg","83","1","structured_normal","83","structured_normal,random,structured_load,structured_incentive","1,2,4,2,2,3","4,2,1,3","true","","",""
