"rt","url","trial_type","trial_index","time_elapsed","internal_node_id","assignmentID","mturkID","hitID","view_history","stimulus","key_press","state","test_part","correct_response","order_block","order_chunk","order_freq","correct","responses","question_order","bonus"
"3100","consent.html","external-html","0","3177","0.0-0.0","3ATTHHXXWBAUIC425HIV4ACGOIYIXP","AV5FCKI1TTSKR","3RSBJ6YZECCLSSQQCGKCTHC9OPAFOK","","","","","","","","","","","","",""
"50419.5","","instructions","1","53599","0.0-1.0","3ATTHHXXWBAUIC425HIV4ACGOIYIXP","AV5FCKI1TTSKR","3RSBJ6YZECCLSSQQCGKCTHC9OPAFOK","[{""page_index"":0,""viewing_time"":3931.899999856949},{""page_index"":1,""viewing_time"":5068.600000143051},{""page_index"":2,""viewing_time"":5947.700000047684},{""page_index"":3,""viewing_time"":11476.799999952316},{""page_index"":4,""viewing_time"":5355.200000047684},{""page_index"":5,""viewing_time"":9655.299999952316},{""page_index"":6,""viewing_time"":8983.099999904633}]","","","","","","","","","","","",""
"11413.399999856949","","instructions","2","65014","0.0-2.0","3ATTHHXXWBAUIC425HIV4ACGOIYIXP","AV5FCKI1TTSKR","3RSBJ6YZECCLSSQQCGKCTHC9OPAFOK","[{""page_index"":0,""viewing_time"":11413}]","","","","","","","","","","","",""
"6070.799999952316","","instructions","3","71085","0.0-3.0","3ATTHHXXWBAUIC425HIV4ACGOIYIXP","AV5FCKI1TTSKR","3RSBJ6YZECCLSSQQCGKCTHC9OPAFOK","[{""page_index"":0,""viewing_time"":6070.299999952316}]","","","","","","","","","","","",""
"732","","image-keyboard-response","4","71820","0.0-4.0","3ATTHHXXWBAUIC425HIV4ACGOIYIXP","AV5FCKI1TTSKR","3RSBJ6YZECCLSSQQCGKCTHC9OPAFOK","","img/set1/S2.jpg","83","2","random","68","random,structured_normal,structured_incentive,structured_load","4,2,2,3,1,2","2,4,3,1","false","","",""
"null","","html-keyboard-response","5","72177","0.0-5.0","3ATTHHXXWBAUIC425HIV4ACGOIYIXP","AV5FCKI1TTSKR","3RSBJ6YZECCLSSQQCGKCTHC9OPAFOK","","<img src=""img/set1/S2.jpg"" width=""540"" height = ""360"">","null","","","","","","","","","",""
"null","","html-keyboard-response","6","72390","0.0-6.0","3ATTHHXXWBAUIC425HIV4ACGOIYIXP","AV5FCKI1TTSKR","3RSBJ6YZECCLSSQQCGKCTHC9OPAFOK","","","null","","","","","","","","","",""
"2468.2999999523163","","image-keyboard-response","7","74860","0.0-7.0","3ATTHHXXWBAUIC425HIV4ACGOIYIXP","AV5FCKI1TTSKR","3RSBJ6YZECCLSSQQCGKCTHC9OPAFOK","","img/set1/S4.jpg","74","4","random","74","random,structured_normal,structured_incentive,structured_load","4,2,2,3,1,2","2,4,3,1","true","","",""
"null","","html-keyboard-response","8","75223","0.0-8.0","3ATTHHXXWBAUIC425HIV4ACGOIYIXP","AV5FCKI1TTSKR","3RSBJ6YZECCLSSQQCGKCTHC9OPAFOK","","<img src=""img/set1/S4.jpg"" width=""540"" height = ""360"" style=""border:16px solid orange"">","null","","","","","","","","","",""
"null","","html-keyboard-response","9","75431","0.0-9.0","3ATTHHXXWBAUIC425HIV4ACGOIYIXP","AV5FCKI1TTSKR","3RSBJ6YZECCLSSQQCGKCTHC9OPAFOK","","","null","","","","","","","","","",""
"1063.9000000953674","","image-keyboard-response","10","76496","0.0-10.0","3ATTHHXXWBAUIC425HIV4ACGOIYIXP","AV5FCKI1TTSKR","3RSBJ6YZECCLSSQQCGKCTHC9OPAFOK","","img/set1/S3.jpg","83","3","random","72","random,structured_normal,structured_incentive,structured_load","4,2,2,3,1,2","2,4,3,1","false","","",""
"null","","html-keyboard-response","11","76855","0.0-11.0","3ATTHHXXWBAUIC425HIV4ACGOIYIXP","AV5FCKI1TTSKR","3RSBJ6YZECCLSSQQCGKCTHC9OPAFOK","","<img src=""img/set1/S3.jpg"" width=""540"" height = ""360"">","null","","","","","","","","","",""
"null","","html-keyboard-response","12","77064","0.0-12.0","3ATTHHXXWBAUIC425HIV4ACGOIYIXP","AV5FCKI1TTSKR","3RSBJ6YZECCLSSQQCGKCTHC9OPAFOK","","","null","","","","","","","","","",""
"1027.7999999523163","","image-keyboard-response","13","78092","0.0-13.0","3ATTHHXXWBAUIC425HIV4ACGOIYIXP","AV5FCKI1TTSKR","3RSBJ6YZECCLSSQQCGKCTHC9OPAFOK","","img/set1/S4.jpg","74","4","random","74","random,structured_normal,structured_incentive,structured_load","4,2,2,3,1,2","2,4,3,1","true","","",""
"null","","html-keyboard-response","14","78450","0.0-14.0","3ATTHHXXWBAUIC425HIV4ACGOIYIXP","AV5FCKI1TTSKR","3RSBJ6YZECCLSSQQCGKCTHC9OPAFOK","","<img src=""img/set1/S4.jpg"" width=""540"" height = ""360"" style=""border:16px solid orange"">","null","","","","","","","","","",""
"null","","html-keyboard-response","15","78656","0.0-15.0","3ATTHHXXWBAUIC425HIV4ACGOIYIXP","AV5FCKI1TTSKR","3RSBJ6YZECCLSSQQCGKCTHC9OPAFOK","","","null","","","","","","","","","",""
"751.0999999046326","","image-keyboard-response","16","79408","0.0-16.0","3ATTHHXXWBAUIC425HIV4ACGOIYIXP","AV5FCKI1TTSKR","3RSBJ6YZECCLSSQQCGKCTHC9OPAFOK","","img/set1/S2.jpg","68","2","random","68","random,structured_normal,structured_incentive,structured_load","4,2,2,3,1,2","2,4,3,1","true","","",""
"null","","html-keyboard-response","17","79768","0.0-17.0","3ATTHHXXWBAUIC425HIV4ACGOIYIXP","AV5FCKI1TTSKR","3RSBJ6YZECCLSSQQCGKCTHC9OPAFOK","","<img src=""img/set1/S2.jpg"" width=""540"" height = ""360"" style=""border:16px solid orange"">","null","","","","","","","","","",""
"null","","html-keyboard-response","18","79977","0.0-18.0","3ATTHHXXWBAUIC425HIV4ACGOIYIXP","AV5FCKI1TTSKR","3RSBJ6YZECCLSSQQCGKCTHC9OPAFOK","","","null","","","","","","","","","",""
"445.2999999523163","","image-keyboard-response","19","80424","0.0-19.0","3ATTHHXXWBAUIC425HIV4ACGOIYIXP","AV5FCKI1TTSKR","3RSBJ6YZECCLSSQQCGKCTHC9OPAFOK","","img/set1/S4.jpg","74","4","random","74","random,structured_normal,structured_incentive,structured_load","4,2,2,3,1,2","2,4,3,1","true","","",""
"null","","html-keyboard-response","20","80784","0.0-20.0","3ATTHHXXWBAUIC425HIV4ACGOIYIXP","AV5FCKI1TTSKR","3RSBJ6YZECCLSSQQCGKCTHC9OPAFOK","","<img src=""img/set1/S4.jpg"" width=""540"" height = ""360"" style=""border:16px solid orange"">","null","","","","","","","","","",""
"null","","html-keyboard-response","21","80993","0.0-21.0","3ATTHHXXWBAUIC425HIV4ACGOIYIXP","AV5FCKI1TTSKR","3RSBJ6YZECCLSSQQCGKCTHC9OPAFOK","","","null","","","","","","","","","",""
"748.7999999523163","","image-keyboard-response","22","81743","0.0-22.0","3ATTHHXXWBAUIC425HIV4ACGOIYIXP","AV5FCKI1TTSKR","3RSBJ6YZECCLSSQQCGKCTHC9OPAFOK","","img/set1/S1.jpg","68","1","random","83","random,structured_normal,structured_incentive,structured_load","4,2,2,3,1,2","2,4,3,1","false","","",""
"null","","html-keyboard-response","23","82102","0.0-23.0","3ATTHHXXWBAUIC425HIV4ACGOIYIXP","AV5FCKI1TTSKR","3RSBJ6YZECCLSSQQCGKCTHC9OPAFOK","","<img src=""img/set1/S1.jpg"" width=""540"" height = ""360"">","null","","","","","","","","","",""
"null","","html-keyboard-response","24","82304","0.0-24.0","3ATTHHXXWBAUIC425HIV4ACGOIYIXP","AV5FCKI1TTSKR","3RSBJ6YZECCLSSQQCGKCTHC9OPAFOK","","","null","","","","","","","","","",""
"1230.7000000476837","","image-keyboard-response","25","83536","0.0-25.0","3ATTHHXXWBAUIC425HIV4ACGOIYIXP","AV5FCKI1TTSKR","3RSBJ6YZECCLSSQQCGKCTHC9OPAFOK","","img/set1/S2.jpg","74","2","random","68","random,structured_normal,structured_incentive,structured_load","4,2,2,3,1,2","2,4,3,1","false","","",""
"null","","html-keyboard-response","26","83897","0.0-26.0","3ATTHHXXWBAUIC425HIV4ACGOIYIXP","AV5FCKI1TTSKR","3RSBJ6YZECCLSSQQCGKCTHC9OPAFOK","","<img src=""img/set1/S2.jpg"" width=""540"" height = ""360"">","null","","","","","","","","","",""
"null","","html-keyboard-response","27","84106","0.0-27.0","3ATTHHXXWBAUIC425HIV4ACGOIYIXP","AV5FCKI1TTSKR","3RSBJ6YZECCLSSQQCGKCTHC9OPAFOK","","","null","","","","","","","","","",""
"524.5999999046326","","image-keyboard-response","28","84632","0.0-28.0","3ATTHHXXWBAUIC425HIV4ACGOIYIXP","AV5FCKI1TTSKR","3RSBJ6YZECCLSSQQCGKCTHC9OPAFOK","","img/set1/S1.jpg","68","1","random","83","random,structured_normal,structured_incentive,structured_load","4,2,2,3,1,2","2,4,3,1","false","","",""
"null","","html-keyboard-response","29","84990","0.0-29.0","3ATTHHXXWBAUIC425HIV4ACGOIYIXP","AV5FCKI1TTSKR","3RSBJ6YZECCLSSQQCGKCTHC9OPAFOK","","<img src=""img/set1/S1.jpg"" width=""540"" height = ""360"">","null","","","","","","","","","",""
"null","","html-keyboard-response","30","85192","0.0-30.0","3ATTHHXXWBAUIC425HIV4ACGOIYIXP","AV5FCKI1TTSKR","3RSBJ6YZECCLSSQQCGKCTHC9OPAFOK","","","null","","","","","","","","","",""
"1008.0999999046326","","image-keyboard-response","31","86201","0.0-31.0","3ATTHHXXWBAUIC425HIV4ACGOIYIXP","AV5FCKI1TTSKR","3RSBJ6YZECCLSSQQCGKCTHC9OPAFOK","","img/set1/S2.jpg","83","2","random","68","random,structured_normal,structured_incentive,structured_load","4,2,2,3,1,2","2,4,3,1","false","","",""
"null","","html-keyboard-response","32","86562","0.0-32.0","3ATTHHXXWBAUIC425HIV4ACGOIYIXP","AV5FCKI1TTSKR","3RSBJ6YZECCLSSQQCGKCTHC9OPAFOK","","<img src=""img/set1/S2.jpg"" width=""540"" height = ""360"">","null","","","","","","","","","",""
"null","","html-keyboard-response","33","86770","0.0-33.0","3ATTHHXXWBAUIC425HIV4ACGOIYIXP","AV5FCKI1TTSKR","3RSBJ6YZECCLSSQQCGKCTHC9OPAFOK","","","null","","","","","","","","","",""
"607.7999999523163","","image-keyboard-response","34","87379","0.0-34.0","3ATTHHXXWBAUIC425HIV4ACGOIYIXP","AV5FCKI1TTSKR","3RSBJ6YZECCLSSQQCGKCTHC9OPAFOK","","img/set1/S4.jpg","74","4","random","74","random,structured_normal,structured_incentive,structured_load","4,2,2,3,1,2","2,4,3,1","true","","",""
"null","","html-keyboard-response","35","87733","0.0-35.0","3ATTHHXXWBAUIC425HIV4ACGOIYIXP","AV5FCKI1TTSKR","3RSBJ6YZECCLSSQQCGKCTHC9OPAFOK","","<img src=""img/set1/S4.jpg"" width=""540"" height = ""360"" style=""border:16px solid orange"">","null","","","","","","","","","",""
"null","","html-keyboard-response","36","87937","0.0-36.0","3ATTHHXXWBAUIC425HIV4ACGOIYIXP","AV5FCKI1TTSKR","3RSBJ6YZECCLSSQQCGKCTHC9OPAFOK","","","null","","","","","","","","","",""
"596.2000000476837","","image-keyboard-response","37","88534","0.0-37.0","3ATTHHXXWBAUIC425HIV4ACGOIYIXP","AV5FCKI1TTSKR","3RSBJ6YZECCLSSQQCGKCTHC9OPAFOK","","img/set1/S4.jpg","74","4","random","74","random,structured_normal,structured_incentive,structured_load","4,2,2,3,1,2","2,4,3,1","true","","",""
"null","","html-keyboard-response","38","88892","0.0-38.0","3ATTHHXXWBAUIC425HIV4ACGOIYIXP","AV5FCKI1TTSKR","3RSBJ6YZECCLSSQQCGKCTHC9OPAFOK","","<img src=""img/set1/S4.jpg"" width=""540"" height = ""360"" style=""border:16px solid orange"">","null","","","","","","","","","",""
"null","","html-keyboard-response","39","89101","0.0-39.0","3ATTHHXXWBAUIC425HIV4ACGOIYIXP","AV5FCKI1TTSKR","3RSBJ6YZECCLSSQQCGKCTHC9OPAFOK","","","null","","","","","","","","","",""
"382.40000009536743","","image-keyboard-response","40","89485","0.0-40.0","3ATTHHXXWBAUIC425HIV4ACGOIYIXP","AV5FCKI1TTSKR","3RSBJ6YZECCLSSQQCGKCTHC9OPAFOK","","img/set1/S4.jpg","74","4","random","74","random,structured_normal,structured_incentive,structured_load","4,2,2,3,1,2","2,4,3,1","true","","",""
"null","","html-keyboard-response","41","89842","0.0-41.0","3ATTHHXXWBAUIC425HIV4ACGOIYIXP","AV5FCKI1TTSKR","3RSBJ6YZECCLSSQQCGKCTHC9OPAFOK","","<img src=""img/set1/S4.jpg"" width=""540"" height = ""360"" style=""border:16px solid orange"">","null","","","","","","","","","",""
"null","","html-keyboard-response","42","90050","0.0-42.0","3ATTHHXXWBAUIC425HIV4ACGOIYIXP","AV5FCKI1TTSKR","3RSBJ6YZECCLSSQQCGKCTHC9OPAFOK","","","null","","","","","","","","","",""
"508.09999990463257","","image-keyboard-response","43","90560","0.0-43.0","3ATTHHXXWBAUIC425HIV4ACGOIYIXP","AV5FCKI1TTSKR","3RSBJ6YZECCLSSQQCGKCTHC9OPAFOK","","img/set1/S3.jpg","68","3","random","72","random,structured_normal,structured_incentive,structured_load","4,2,2,3,1,2","2,4,3,1","false","","",""
"null","","html-keyboard-response","44","90916","0.0-44.0","3ATTHHXXWBAUIC425HIV4ACGOIYIXP","AV5FCKI1TTSKR","3RSBJ6YZECCLSSQQCGKCTHC9OPAFOK","","<img src=""img/set1/S3.jpg"" width=""540"" height = ""360"">","null","","","","","","","","","",""
"null","","html-keyboard-response","45","91118","0.0-45.0","3ATTHHXXWBAUIC425HIV4ACGOIYIXP","AV5FCKI1TTSKR","3RSBJ6YZECCLSSQQCGKCTHC9OPAFOK","","","null","","","","","","","","","",""
"722.5999999046326","","image-keyboard-response","46","91842","0.0-46.0","3ATTHHXXWBAUIC425HIV4ACGOIYIXP","AV5FCKI1TTSKR","3RSBJ6YZECCLSSQQCGKCTHC9OPAFOK","","img/set1/S1.jpg","74","1","random","83","random,structured_normal,structured_incentive,structured_load","4,2,2,3,1,2","2,4,3,1","false","","",""
"null","","html-keyboard-response","47","92201","0.0-47.0","3ATTHHXXWBAUIC425HIV4ACGOIYIXP","AV5FCKI1TTSKR","3RSBJ6YZECCLSSQQCGKCTHC9OPAFOK","","<img src=""img/set1/S1.jpg"" width=""540"" height = ""360"">","null","","","","","","","","","",""
"null","","html-keyboard-response","48","92403","0.0-48.0","3ATTHHXXWBAUIC425HIV4ACGOIYIXP","AV5FCKI1TTSKR","3RSBJ6YZECCLSSQQCGKCTHC9OPAFOK","","","null","","","","","","","","","",""
"566.3999998569489","","image-keyboard-response","49","92971","0.0-49.0","3ATTHHXXWBAUIC425HIV4ACGOIYIXP","AV5FCKI1TTSKR","3RSBJ6YZECCLSSQQCGKCTHC9OPAFOK","","img/set1/S3.jpg","72","3","random","72","random,structured_normal,structured_incentive,structured_load","4,2,2,3,1,2","2,4,3,1","true","","",""
"null","","html-keyboard-response","50","93337","0.0-50.0","3ATTHHXXWBAUIC425HIV4ACGOIYIXP","AV5FCKI1TTSKR","3RSBJ6YZECCLSSQQCGKCTHC9OPAFOK","","<img src=""img/set1/S3.jpg"" width=""540"" height = ""360"" style=""border:16px solid orange"">","null","","","","","","","","","",""
"null","","html-keyboard-response","51","93540","0.0-51.0","3ATTHHXXWBAUIC425HIV4ACGOIYIXP","AV5FCKI1TTSKR","3RSBJ6YZECCLSSQQCGKCTHC9OPAFOK","","","null","","","","","","","","","",""
"779.5","","image-keyboard-response","52","94321","0.0-52.0","3ATTHHXXWBAUIC425HIV4ACGOIYIXP","AV5FCKI1TTSKR","3RSBJ6YZECCLSSQQCGKCTHC9OPAFOK","","img/set1/S2.jpg","72","2","random","68","random,structured_normal,structured_incentive,structured_load","4,2,2,3,1,2","2,4,3,1","false","","",""
"null","","html-keyboard-response","53","94685","0.0-53.0","3ATTHHXXWBAUIC425HIV4ACGOIYIXP","AV5FCKI1TTSKR","3RSBJ6YZECCLSSQQCGKCTHC9OPAFOK","","<img src=""img/set1/S2.jpg"" width=""540"" height = ""360"">","null","","","","","","","","","",""
"null","","html-keyboard-response","54","94895","0.0-54.0","3ATTHHXXWBAUIC425HIV4ACGOIYIXP","AV5FCKI1TTSKR","3RSBJ6YZECCLSSQQCGKCTHC9OPAFOK","","","null","","","","","","","","","",""
"507.10000014305115","","image-keyboard-response","55","95403","0.0-55.0","3ATTHHXXWBAUIC425HIV4ACGOIYIXP","AV5FCKI1TTSKR","3RSBJ6YZECCLSSQQCGKCTHC9OPAFOK","","img/set1/S3.jpg","74","3","random","72","random,structured_normal,structured_incentive,structured_load","4,2,2,3,1,2","2,4,3,1","false","","",""
"null","","html-keyboard-response","56","95768","0.0-56.0","3ATTHHXXWBAUIC425HIV4ACGOIYIXP","AV5FCKI1TTSKR","3RSBJ6YZECCLSSQQCGKCTHC9OPAFOK","","<img src=""img/set1/S3.jpg"" width=""540"" height = ""360"">","null","","","","","","","","","",""
"null","","html-keyboard-response","57","95978","0.0-57.0","3ATTHHXXWBAUIC425HIV4ACGOIYIXP","AV5FCKI1TTSKR","3RSBJ6YZECCLSSQQCGKCTHC9OPAFOK","","","null","","","","","","","","","",""
"437.2999999523163","","image-keyboard-response","58","96416","0.0-58.0","3ATTHHXXWBAUIC425HIV4ACGOIYIXP","AV5FCKI1TTSKR","3RSBJ6YZECCLSSQQCGKCTHC9OPAFOK","","img/set1/S3.jpg","72","3","random","72","random,structured_normal,structured_incentive,structured_load","4,2,2,3,1,2","2,4,3,1","true","","",""
"null","","html-keyboard-response","59","96768","0.0-59.0","3ATTHHXXWBAUIC425HIV4ACGOIYIXP","AV5FCKI1TTSKR","3RSBJ6YZECCLSSQQCGKCTHC9OPAFOK","","<img src=""img/set1/S3.jpg"" width=""540"" height = ""360"" style=""border:16px solid orange"">","null","","","","","","","","","",""
"null","","html-keyboard-response","60","96983","0.0-60.0","3ATTHHXXWBAUIC425HIV4ACGOIYIXP","AV5FCKI1TTSKR","3RSBJ6YZECCLSSQQCGKCTHC9OPAFOK","","","null","","","","","","","","","",""
"730.4000000953674","","image-keyboard-response","61","97715","0.0-61.0","3ATTHHXXWBAUIC425HIV4ACGOIYIXP","AV5FCKI1TTSKR","3RSBJ6YZECCLSSQQCGKCTHC9OPAFOK","","img/set1/S1.jpg","68","1","random","83","random,structured_normal,structured_incentive,structured_load","4,2,2,3,1,2","2,4,3,1","false","","",""
"null","","html-keyboard-response","62","98069","0.0-62.0","3ATTHHXXWBAUIC425HIV4ACGOIYIXP","AV5FCKI1TTSKR","3RSBJ6YZECCLSSQQCGKCTHC9OPAFOK","","<img src=""img/set1/S1.jpg"" width=""540"" height = ""360"">","null","","","","","","","","","",""
"null","","html-keyboard-response","63","98276","0.0-63.0","3ATTHHXXWBAUIC425HIV4ACGOIYIXP","AV5FCKI1TTSKR","3RSBJ6YZECCLSSQQCGKCTHC9OPAFOK","","","null","","","","","","","","","",""
"555","","image-keyboard-response","64","98832","0.0-64.0","3ATTHHXXWBAUIC425HIV4ACGOIYIXP","AV5FCKI1TTSKR","3RSBJ6YZECCLSSQQCGKCTHC9OPAFOK","","img/set1/S3.jpg","72","3","random","72","random,structured_normal,structured_incentive,structured_load","4,2,2,3,1,2","2,4,3,1","true","","",""
"null","","html-keyboard-response","65","99198","0.0-65.0","3ATTHHXXWBAUIC425HIV4ACGOIYIXP","AV5FCKI1TTSKR","3RSBJ6YZECCLSSQQCGKCTHC9OPAFOK","","<img src=""img/set1/S3.jpg"" width=""540"" height = ""360"" style=""border:16px solid orange"">","null","","","","","","","","","",""
"null","","html-keyboard-response","66","99406","0.0-66.0","3ATTHHXXWBAUIC425HIV4ACGOIYIXP","AV5FCKI1TTSKR","3RSBJ6YZECCLSSQQCGKCTHC9OPAFOK","","","null","","","","","","","","","",""
"443.7999999523163","","image-keyboard-response","67","99851","0.0-67.0","3ATTHHXXWBAUIC425HIV4ACGOIYIXP","AV5FCKI1TTSKR","3RSBJ6YZECCLSSQQCGKCTHC9OPAFOK","","img/set1/S3.jpg","72","3","random","72","random,structured_normal,structured_incentive,structured_load","4,2,2,3,1,2","2,4,3,1","true","","",""
"null","","html-keyboard-response","68","100212","0.0-68.0","3ATTHHXXWBAUIC425HIV4ACGOIYIXP","AV5FCKI1TTSKR","3RSBJ6YZECCLSSQQCGKCTHC9OPAFOK","","<img src=""img/set1/S3.jpg"" width=""540"" height = ""360"" style=""border:16px solid orange"">","null","","","","","","","","","",""
"null","","html-keyboard-response","69","100421","0.0-69.0","3ATTHHXXWBAUIC425HIV4ACGOIYIXP","AV5FCKI1TTSKR","3RSBJ6YZECCLSSQQCGKCTHC9OPAFOK","","","null","","","","","","","","","",""
"439","","image-keyboard-response","70","100862","0.0-70.0","3ATTHHXXWBAUIC425HIV4ACGOIYIXP","AV5FCKI1TTSKR","3RSBJ6YZECCLSSQQCGKCTHC9OPAFOK","","img/set1/S1.jpg","74","1","random","83","random,structured_normal,structured_incentive,structured_load","4,2,2,3,1,2","2,4,3,1","false","","",""
"null","","html-keyboard-response","71","101229","0.0-71.0","3ATTHHXXWBAUIC425HIV4ACGOIYIXP","AV5FCKI1TTSKR","3RSBJ6YZECCLSSQQCGKCTHC9OPAFOK","","<img src=""img/set1/S1.jpg"" width=""540"" height = ""360"">","null","","","","","","","","","",""
"null","","html-keyboard-response","72","101439","0.0-72.0","3ATTHHXXWBAUIC425HIV4ACGOIYIXP","AV5FCKI1TTSKR","3RSBJ6YZECCLSSQQCGKCTHC9OPAFOK","","","null","","","","","","","","","",""
"642.7999999523163","","image-keyboard-response","73","102082","0.0-73.0","3ATTHHXXWBAUIC425HIV4ACGOIYIXP","AV5FCKI1TTSKR","3RSBJ6YZECCLSSQQCGKCTHC9OPAFOK","","img/set1/S3.jpg","68","3","random","72","random,structured_normal,structured_incentive,structured_load","4,2,2,3,1,2","2,4,3,1","false","","",""
"null","","html-keyboard-response","74","102443","0.0-74.0","3ATTHHXXWBAUIC425HIV4ACGOIYIXP","AV5FCKI1TTSKR","3RSBJ6YZECCLSSQQCGKCTHC9OPAFOK","","<img src=""img/set1/S3.jpg"" width=""540"" height = ""360"">","null","","","","","","","","","",""
"null","","html-keyboard-response","75","102646","0.0-75.0","3ATTHHXXWBAUIC425HIV4ACGOIYIXP","AV5FCKI1TTSKR","3RSBJ6YZECCLSSQQCGKCTHC9OPAFOK","","","null","","","","","","","","","",""
"620.2000000476837","","image-keyboard-response","76","103267","0.0-76.0","3ATTHHXXWBAUIC425HIV4ACGOIYIXP","AV5FCKI1TTSKR","3RSBJ6YZECCLSSQQCGKCTHC9OPAFOK","","img/set1/S4.jpg","74","4","random","74","random,structured_normal,structured_incentive,structured_load","4,2,2,3,1,2","2,4,3,1","true","","",""
"null","","html-keyboard-response","77","103627","0.0-77.0","3ATTHHXXWBAUIC425HIV4ACGOIYIXP","AV5FCKI1TTSKR","3RSBJ6YZECCLSSQQCGKCTHC9OPAFOK","","<img src=""img/set1/S4.jpg"" width=""540"" height = ""360"" style=""border:16px solid orange"">","null","","","","","","","","","",""
"null","","html-keyboard-response","78","103836","0.0-78.0","3ATTHHXXWBAUIC425HIV4ACGOIYIXP","AV5FCKI1TTSKR","3RSBJ6YZECCLSSQQCGKCTHC9OPAFOK","","","null","","","","","","","","","",""
"530.5999999046326","","image-keyboard-response","79","104368","0.0-79.0","3ATTHHXXWBAUIC425HIV4ACGOIYIXP","AV5FCKI1TTSKR","3RSBJ6YZECCLSSQQCGKCTHC9OPAFOK","","img/set1/S1.jpg","72","1","random","83","random,structured_normal,structured_incentive,structured_load","4,2,2,3,1,2","2,4,3,1","false","","",""
"null","","html-keyboard-response","80","104726","0.0-80.0","3ATTHHXXWBAUIC425HIV4ACGOIYIXP","AV5FCKI1TTSKR","3RSBJ6YZECCLSSQQCGKCTHC9OPAFOK","","<img src=""img/set1/S1.jpg"" width=""540"" height = ""360"">","null","","","","","","","","","",""
"null","","html-keyboard-response","81","104935","0.0-81.0","3ATTHHXXWBAUIC425HIV4ACGOIYIXP","AV5FCKI1TTSKR","3RSBJ6YZECCLSSQQCGKCTHC9OPAFOK","","","null","","","","","","","","","",""
"957.5","","image-keyboard-response","82","105893","0.0-82.0","3ATTHHXXWBAUIC425HIV4ACGOIYIXP","AV5FCKI1TTSKR","3RSBJ6YZECCLSSQQCGKCTHC9OPAFOK","","img/set1/S2.jpg","72","2","random","68","random,structured_normal,structured_incentive,structured_load","4,2,2,3,1,2","2,4,3,1","false","","",""
"null","","html-keyboard-response","83","106257","0.0-83.0","3ATTHHXXWBAUIC425HIV4ACGOIYIXP","AV5FCKI1TTSKR","3RSBJ6YZECCLSSQQCGKCTHC9OPAFOK","","<img src=""img/set1/S2.jpg"" width=""540"" height = ""360"">","null","","","","","","","","","",""
"null","","html-keyboard-response","84","106467","0.0-84.0","3ATTHHXXWBAUIC425HIV4ACGOIYIXP","AV5FCKI1TTSKR","3RSBJ6YZECCLSSQQCGKCTHC9OPAFOK","","","null","","","","","","","","","",""
"733.4000000953674","","image-keyboard-response","85","107202","0.0-85.0","3ATTHHXXWBAUIC425HIV4ACGOIYIXP","AV5FCKI1TTSKR","3RSBJ6YZECCLSSQQCGKCTHC9OPAFOK","","img/set1/S3.jpg","72","3","random","72","random,structured_normal,structured_incentive,structured_load","4,2,2,3,1,2","2,4,3,1","true","","",""
"null","","html-keyboard-response","86","107556","0.0-86.0","3ATTHHXXWBAUIC425HIV4ACGOIYIXP","AV5FCKI1TTSKR","3RSBJ6YZECCLSSQQCGKCTHC9OPAFOK","","<img src=""img/set1/S3.jpg"" width=""540"" height = ""360"" style=""border:16px solid orange"">","null","","","","","","","","","",""
"null","","html-keyboard-response","87","107765","0.0-87.0","3ATTHHXXWBAUIC425HIV4ACGOIYIXP","AV5FCKI1TTSKR","3RSBJ6YZECCLSSQQCGKCTHC9OPAFOK","","","null","","","","","","","","","",""
"366.89999985694885","","image-keyboard-response","88","108133","0.0-88.0","3ATTHHXXWBAUIC425HIV4ACGOIYIXP","AV5FCKI1TTSKR","3RSBJ6YZECCLSSQQCGKCTHC9OPAFOK","","img/set1/S3.jpg","72","3","random","72","random,structured_normal,structured_incentive,structured_load","4,2,2,3,1,2","2,4,3,1","true","","",""
"null","","html-keyboard-response","89","108488","0.0-89.0","3ATTHHXXWBAUIC425HIV4ACGOIYIXP","AV5FCKI1TTSKR","3RSBJ6YZECCLSSQQCGKCTHC9OPAFOK","","<img src=""img/set1/S3.jpg"" width=""540"" height = ""360"" style=""border:16px solid orange"">","null","","","","","","","","","",""
"null","","html-keyboard-response","90","108690","0.0-90.0","3ATTHHXXWBAUIC425HIV4ACGOIYIXP","AV5FCKI1TTSKR","3RSBJ6YZECCLSSQQCGKCTHC9OPAFOK","","","null","","","","","","","","","",""
"899.4000000953674","","image-keyboard-response","91","109591","0.0-91.0","3ATTHHXXWBAUIC425HIV4ACGOIYIXP","AV5FCKI1TTSKR","3RSBJ6YZECCLSSQQCGKCTHC9OPAFOK","","img/set1/S2.jpg","83","2","random","68","random,structured_normal,structured_incentive,structured_load","4,2,2,3,1,2","2,4,3,1","false","","",""
"null","","html-keyboard-response","92","109954","0.0-92.0","3ATTHHXXWBAUIC425HIV4ACGOIYIXP","AV5FCKI1TTSKR","3RSBJ6YZECCLSSQQCGKCTHC9OPAFOK","","<img src=""img/set1/S2.jpg"" width=""540"" height = ""360"">","null","","","","","","","","","",""
"null","","html-keyboard-response","93","110163","0.0-93.0","3ATTHHXXWBAUIC425HIV4ACGOIYIXP","AV5FCKI1TTSKR","3RSBJ6YZECCLSSQQCGKCTHC9OPAFOK","","","null","","","","","","","","","",""
"663.8999998569489","","image-keyboard-response","94","110828","0.0-94.0","3ATTHHXXWBAUIC425HIV4ACGOIYIXP","AV5FCKI1TTSKR","3RSBJ6YZECCLSSQQCGKCTHC9OPAFOK","","img/set1/S4.jpg","74","4","random","74","random,structured_normal,structured_incentive,structured_load","4,2,2,3,1,2","2,4,3,1","true","","",""
"null","","html-keyboard-response","95","111186","0.0-95.0","3ATTHHXXWBAUIC425HIV4ACGOIYIXP","AV5FCKI1TTSKR","3RSBJ6YZECCLSSQQCGKCTHC9OPAFOK","","<img src=""img/set1/S4.jpg"" width=""540"" height = ""360"" style=""border:16px solid orange"">","null","","","","","","","","","",""
"null","","html-keyboard-response","96","111394","0.0-96.0","3ATTHHXXWBAUIC425HIV4ACGOIYIXP","AV5FCKI1TTSKR","3RSBJ6YZECCLSSQQCGKCTHC9OPAFOK","","","null","","","","","","","","","",""
"665.9000000953674","","image-keyboard-response","97","112061","0.0-97.0","3ATTHHXXWBAUIC425HIV4ACGOIYIXP","AV5FCKI1TTSKR","3RSBJ6YZECCLSSQQCGKCTHC9OPAFOK","","img/set1/S1.jpg","68","1","random","83","random,structured_normal,structured_incentive,structured_load","4,2,2,3,1,2","2,4,3,1","false","","",""
"null","","html-keyboard-response","98","112421","0.0-98.0","3ATTHHXXWBAUIC425HIV4ACGOIYIXP","AV5FCKI1TTSKR","3RSBJ6YZECCLSSQQCGKCTHC9OPAFOK","","<img src=""img/set1/S1.jpg"" width=""540"" height = ""360"">","null","","","","","","","","","",""
"null","","html-keyboard-response","99","112628","0.0-99.0","3ATTHHXXWBAUIC425HIV4ACGOIYIXP","AV5FCKI1TTSKR","3RSBJ6YZECCLSSQQCGKCTHC9OPAFOK","","","null","","","","","","","","","",""
"710.3999998569489","","image-keyboard-response","100","113340","0.0-100.0","3ATTHHXXWBAUIC425HIV4ACGOIYIXP","AV5FCKI1TTSKR","3RSBJ6YZECCLSSQQCGKCTHC9OPAFOK","","img/set1/S4.jpg","74","4","random","74","random,structured_normal,structured_incentive,structured_load","4,2,2,3,1,2","2,4,3,1","true","","",""
"null","","html-keyboard-response","101","113701","0.0-101.0","3ATTHHXXWBAUIC425HIV4ACGOIYIXP","AV5FCKI1TTSKR","3RSBJ6YZECCLSSQQCGKCTHC9OPAFOK","","<img src=""img/set1/S4.jpg"" width=""540"" height = ""360"" style=""border:16px solid orange"">","null","","","","","","","","","",""
"null","","html-keyboard-response","102","113909","0.0-102.0","3ATTHHXXWBAUIC425HIV4ACGOIYIXP","AV5FCKI1TTSKR","3RSBJ6YZECCLSSQQCGKCTHC9OPAFOK","","","null","","","","","","","","","",""
"532.4000000953674","","image-keyboard-response","103","114442","0.0-103.0","3ATTHHXXWBAUIC425HIV4ACGOIYIXP","AV5FCKI1TTSKR","3RSBJ6YZECCLSSQQCGKCTHC9OPAFOK","","img/set1/S1.jpg","72","1","random","83","random,structured_normal,structured_incentive,structured_load","4,2,2,3,1,2","2,4,3,1","false","","",""
"null","","html-keyboard-response","104","114798","0.0-104.0","3ATTHHXXWBAUIC425HIV4ACGOIYIXP","AV5FCKI1TTSKR","3RSBJ6YZECCLSSQQCGKCTHC9OPAFOK","","<img src=""img/set1/S1.jpg"" width=""540"" height = ""360"">","null","","","","","","","","","",""
"null","","html-keyboard-response","105","115001","0.0-105.0","3ATTHHXXWBAUIC425HIV4ACGOIYIXP","AV5FCKI1TTSKR","3RSBJ6YZECCLSSQQCGKCTHC9OPAFOK","","","null","","","","","","","","","",""
"532","","image-keyboard-response","106","115534","0.0-106.0","3ATTHHXXWBAUIC425HIV4ACGOIYIXP","AV5FCKI1TTSKR","3RSBJ6YZECCLSSQQCGKCTHC9OPAFOK","","img/set1/S1.jpg","74","1","random","83","random,structured_normal,structured_incentive,structured_load","4,2,2,3,1,2","2,4,3,1","false","","",""
"null","","html-keyboard-response","107","115898","0.0-107.0","3ATTHHXXWBAUIC425HIV4ACGOIYIXP","AV5FCKI1TTSKR","3RSBJ6YZECCLSSQQCGKCTHC9OPAFOK","","<img src=""img/set1/S1.jpg"" width=""540"" height = ""360"">","null","","","","","","","","","",""
"null","","html-keyboard-response","108","116114","0.0-108.0","3ATTHHXXWBAUIC425HIV4ACGOIYIXP","AV5FCKI1TTSKR","3RSBJ6YZECCLSSQQCGKCTHC9OPAFOK","","","null","","","","","","","","","",""
"414.09999990463257","","image-keyboard-response","109","116529","0.0-109.0","3ATTHHXXWBAUIC425HIV4ACGOIYIXP","AV5FCKI1TTSKR","3RSBJ6YZECCLSSQQCGKCTHC9OPAFOK","","img/set1/S2.jpg","68","2","random","68","random,structured_normal,structured_incentive,structured_load","4,2,2,3,1,2","2,4,3,1","true","","",""
"null","","html-keyboard-response","110","116881","0.0-110.0","3ATTHHXXWBAUIC425HIV4ACGOIYIXP","AV5FCKI1TTSKR","3RSBJ6YZECCLSSQQCGKCTHC9OPAFOK","","<img src=""img/set1/S2.jpg"" width=""540"" height = ""360"" style=""border:16px solid orange"">","null","","","","","","","","","",""
"null","","html-keyboard-response","111","117089","0.0-111.0","3ATTHHXXWBAUIC425HIV4ACGOIYIXP","AV5FCKI1TTSKR","3RSBJ6YZECCLSSQQCGKCTHC9OPAFOK","","","null","","","","","","","","","",""
"713.9000000953674","","image-keyboard-response","112","117804","0.0-112.0","3ATTHHXXWBAUIC425HIV4ACGOIYIXP","AV5FCKI1TTSKR","3RSBJ6YZECCLSSQQCGKCTHC9OPAFOK","","img/set1/S4.jpg","74","4","random","74","random,structured_normal,structured_incentive,structured_load","4,2,2,3,1,2","2,4,3,1","true","","",""
"null","","html-keyboard-response","113","118162","0.0-113.0","3ATTHHXXWBAUIC425HIV4ACGOIYIXP","AV5FCKI1TTSKR","3RSBJ6YZECCLSSQQCGKCTHC9OPAFOK","","<img src=""img/set1/S4.jpg"" width=""540"" height = ""360"" style=""border:16px solid orange"">","null","","","","","","","","","",""
"null","","html-keyboard-response","114","118375","0.0-114.0","3ATTHHXXWBAUIC425HIV4ACGOIYIXP","AV5FCKI1TTSKR","3RSBJ6YZECCLSSQQCGKCTHC9OPAFOK","","","null","","","","","","","","","",""
"384.39999985694885","","image-keyboard-response","115","118760","0.0-115.0","3ATTHHXXWBAUIC425HIV4ACGOIYIXP","AV5FCKI1TTSKR","3RSBJ6YZECCLSSQQCGKCTHC9OPAFOK","","img/set1/S2.jpg","68","2","random","68","random,structured_normal,structured_incentive,structured_load","4,2,2,3,1,2","2,4,3,1","true","","",""
"null","","html-keyboard-response","116","119127","0.0-116.0","3ATTHHXXWBAUIC425HIV4ACGOIYIXP","AV5FCKI1TTSKR","3RSBJ6YZECCLSSQQCGKCTHC9OPAFOK","","<img src=""img/set1/S2.jpg"" width=""540"" height = ""360"" style=""border:16px solid orange"">","null","","","","","","","","","",""
"null","","html-keyboard-response","117","119337","0.0-117.0","3ATTHHXXWBAUIC425HIV4ACGOIYIXP","AV5FCKI1TTSKR","3RSBJ6YZECCLSSQQCGKCTHC9OPAFOK","","","null","","","","","","","","","",""
"539.6999998092651","","image-keyboard-response","118","119878","0.0-118.0","3ATTHHXXWBAUIC425HIV4ACGOIYIXP","AV5FCKI1TTSKR","3RSBJ6YZECCLSSQQCGKCTHC9OPAFOK","","img/set1/S4.jpg","74","4","random","74","random,structured_normal,structured_incentive,structured_load","4,2,2,3,1,2","2,4,3,1","true","","",""
"null","","html-keyboard-response","119","120243","0.0-119.0","3ATTHHXXWBAUIC425HIV4ACGOIYIXP","AV5FCKI1TTSKR","3RSBJ6YZECCLSSQQCGKCTHC9OPAFOK","","<img src=""img/set1/S4.jpg"" width=""540"" height = ""360"" style=""border:16px solid orange"">","null","","","","","","","","","",""
"null","","html-keyboard-response","120","120451","0.0-120.0","3ATTHHXXWBAUIC425HIV4ACGOIYIXP","AV5FCKI1TTSKR","3RSBJ6YZECCLSSQQCGKCTHC9OPAFOK","","","null","","","","","","","","","",""
"1229.5","","image-keyboard-response","121","121681","0.0-121.0","3ATTHHXXWBAUIC425HIV4ACGOIYIXP","AV5FCKI1TTSKR","3RSBJ6YZECCLSSQQCGKCTHC9OPAFOK","","img/set1/S1.jpg","83","1","random","83","random,structured_normal,structured_incentive,structured_load","4,2,2,3,1,2","2,4,3,1","true","","",""
"null","","html-keyboard-response","122","122044","0.0-122.0","3ATTHHXXWBAUIC425HIV4ACGOIYIXP","AV5FCKI1TTSKR","3RSBJ6YZECCLSSQQCGKCTHC9OPAFOK","","<img src=""img/set1/S1.jpg"" width=""540"" height = ""360"" style=""border:16px solid orange"">","null","","","","","","","","","",""
"null","","html-keyboard-response","123","122260","0.0-123.0","3ATTHHXXWBAUIC425HIV4ACGOIYIXP","AV5FCKI1TTSKR","3RSBJ6YZECCLSSQQCGKCTHC9OPAFOK","","","null","","","","","","","","","",""
"734.7999999523163","","image-keyboard-response","124","122996","0.0-124.0","3ATTHHXXWBAUIC425HIV4ACGOIYIXP","AV5FCKI1TTSKR","3RSBJ6YZECCLSSQQCGKCTHC9OPAFOK","","img/set1/S3.jpg","72","3","random","72","random,structured_normal,structured_incentive,structured_load","4,2,2,3,1,2","2,4,3,1","true","","",""
"null","","html-keyboard-response","125","123358","0.0-125.0","3ATTHHXXWBAUIC425HIV4ACGOIYIXP","AV5FCKI1TTSKR","3RSBJ6YZECCLSSQQCGKCTHC9OPAFOK","","<img src=""img/set1/S3.jpg"" width=""540"" height = ""360"" style=""border:16px solid orange"">","null","","","","","","","","","",""
"null","","html-keyboard-response","126","123573","0.0-126.0","3ATTHHXXWBAUIC425HIV4ACGOIYIXP","AV5FCKI1TTSKR","3RSBJ6YZECCLSSQQCGKCTHC9OPAFOK","","","null","","","","","","","","","",""
"544.5999999046326","","image-keyboard-response","127","124119","0.0-127.0","3ATTHHXXWBAUIC425HIV4ACGOIYIXP","AV5FCKI1TTSKR","3RSBJ6YZECCLSSQQCGKCTHC9OPAFOK","","img/set1/S4.jpg","74","4","random","74","random,structured_normal,structured_incentive,structured_load","4,2,2,3,1,2","2,4,3,1","true","","",""
"null","","html-keyboard-response","128","124484","0.0-128.0","3ATTHHXXWBAUIC425HIV4ACGOIYIXP","AV5FCKI1TTSKR","3RSBJ6YZECCLSSQQCGKCTHC9OPAFOK","","<img src=""img/set1/S4.jpg"" width=""540"" height = ""360"" style=""border:16px solid orange"">","null","","","","","","","","","",""
"null","","html-keyboard-response","129","124698","0.0-129.0","3ATTHHXXWBAUIC425HIV4ACGOIYIXP","AV5FCKI1TTSKR","3RSBJ6YZECCLSSQQCGKCTHC9OPAFOK","","","null","","","","","","","","","",""
"636.7000000476837","","image-keyboard-response","130","125336","0.0-130.0","3ATTHHXXWBAUIC425HIV4ACGOIYIXP","AV5FCKI1TTSKR","3RSBJ6YZECCLSSQQCGKCTHC9OPAFOK","","img/set1/S1.jpg","68","1","random","83","random,structured_normal,structured_incentive,structured_load","4,2,2,3,1,2","2,4,3,1","false","","",""
"null","","html-keyboard-response","131","125688","0.0-131.0","3ATTHHXXWBAUIC425HIV4ACGOIYIXP","AV5FCKI1TTSKR","3RSBJ6YZECCLSSQQCGKCTHC9OPAFOK","","<img src=""img/set1/S1.jpg"" width=""540"" height = ""360"">","null","","","","","","","","","",""
"null","","html-keyboard-response","132","125897","0.0-132.0","3ATTHHXXWBAUIC425HIV4ACGOIYIXP","AV5FCKI1TTSKR","3RSBJ6YZECCLSSQQCGKCTHC9OPAFOK","","","null","","","","","","","","","",""
"645.1000001430511","","image-keyboard-response","133","126543","0.0-133.0","3ATTHHXXWBAUIC425HIV4ACGOIYIXP","AV5FCKI1TTSKR","3RSBJ6YZECCLSSQQCGKCTHC9OPAFOK","","img/set1/S4.jpg","74","4","random","74","random,structured_normal,structured_incentive,structured_load","4,2,2,3,1,2","2,4,3,1","true","","",""
"null","","html-keyboard-response","134","126907","0.0-134.0","3ATTHHXXWBAUIC425HIV4ACGOIYIXP","AV5FCKI1TTSKR","3RSBJ6YZECCLSSQQCGKCTHC9OPAFOK","","<img src=""img/set1/S4.jpg"" width=""540"" height = ""360"" style=""border:16px solid orange"">","null","","","","","","","","","",""
"null","","html-keyboard-response","135","127122","0.0-135.0","3ATTHHXXWBAUIC425HIV4ACGOIYIXP","AV5FCKI1TTSKR","3RSBJ6YZECCLSSQQCGKCTHC9OPAFOK","","","null","","","","","","","","","",""
"619.4000000953674","","image-keyboard-response","136","127743","0.0-136.0","3ATTHHXXWBAUIC425HIV4ACGOIYIXP","AV5FCKI1TTSKR","3RSBJ6YZECCLSSQQCGKCTHC9OPAFOK","","img/set1/S4.jpg","74","4","random","74","random,structured_normal,structured_incentive,structured_load","4,2,2,3,1,2","2,4,3,1","true","","",""
"null","","html-keyboard-response","137","128102","0.0-137.0","3ATTHHXXWBAUIC425HIV4ACGOIYIXP","AV5FCKI1TTSKR","3RSBJ6YZECCLSSQQCGKCTHC9OPAFOK","","<img src=""img/set1/S4.jpg"" width=""540"" height = ""360"" style=""border:16px solid orange"">","null","","","","","","","","","",""
"null","","html-keyboard-response","138","128312","0.0-138.0","3ATTHHXXWBAUIC425HIV4ACGOIYIXP","AV5FCKI1TTSKR","3RSBJ6YZECCLSSQQCGKCTHC9OPAFOK","","","null","","","","","","","","","",""
"832","","image-keyboard-response","139","129145","0.0-139.0","3ATTHHXXWBAUIC425HIV4ACGOIYIXP","AV5FCKI1TTSKR","3RSBJ6YZECCLSSQQCGKCTHC9OPAFOK","","img/set1/S2.jpg","83","2","random","68","random,structured_normal,structured_incentive,structured_load","4,2,2,3,1,2","2,4,3,1","false","","",""
"null","","html-keyboard-response","140","129499","0.0-140.0","3ATTHHXXWBAUIC425HIV4ACGOIYIXP","AV5FCKI1TTSKR","3RSBJ6YZECCLSSQQCGKCTHC9OPAFOK","","<img src=""img/set1/S2.jpg"" width=""540"" height = ""360"">","null","","","","","","","","","",""
"null","","html-keyboard-response","141","129710","0.0-141.0","3ATTHHXXWBAUIC425HIV4ACGOIYIXP","AV5FCKI1TTSKR","3RSBJ6YZECCLSSQQCGKCTHC9OPAFOK","","","null","","","","","","","","","",""
"954.2999999523163","","image-keyboard-response","142","130665","0.0-142.0","3ATTHHXXWBAUIC425HIV4ACGOIYIXP","AV5FCKI1TTSKR","3RSBJ6YZECCLSSQQCGKCTHC9OPAFOK","","img/set1/S1.jpg","68","1","random","83","random,structured_normal,structured_incentive,structured_load","4,2,2,3,1,2","2,4,3,1","false","","",""
"null","","html-keyboard-response","143","131031","0.0-143.0","3ATTHHXXWBAUIC425HIV4ACGOIYIXP","AV5FCKI1TTSKR","3RSBJ6YZECCLSSQQCGKCTHC9OPAFOK","","<img src=""img/set1/S1.jpg"" width=""540"" height = ""360"">","null","","","","","","","","","",""
"null","","html-keyboard-response","144","131241","0.0-144.0","3ATTHHXXWBAUIC425HIV4ACGOIYIXP","AV5FCKI1TTSKR","3RSBJ6YZECCLSSQQCGKCTHC9OPAFOK","","","null","","","","","","","","","",""
"785.4000000953674","","image-keyboard-response","145","132028","0.0-145.0","3ATTHHXXWBAUIC425HIV4ACGOIYIXP","AV5FCKI1TTSKR","3RSBJ6YZECCLSSQQCGKCTHC9OPAFOK","","img/set1/S2.jpg","72","2","random","68","random,structured_normal,structured_incentive,structured_load","4,2,2,3,1,2","2,4,3,1","false","","",""
"null","","html-keyboard-response","146","132382","0.0-146.0","3ATTHHXXWBAUIC425HIV4ACGOIYIXP","AV5FCKI1TTSKR","3RSBJ6YZECCLSSQQCGKCTHC9OPAFOK","","<img src=""img/set1/S2.jpg"" width=""540"" height = ""360"">","null","","","","","","","","","",""
"null","","html-keyboard-response","147","132599","0.0-147.0","3ATTHHXXWBAUIC425HIV4ACGOIYIXP","AV5FCKI1TTSKR","3RSBJ6YZECCLSSQQCGKCTHC9OPAFOK","","","null","","","","","","","","","",""
"1063.5999999046326","","image-keyboard-response","148","133664","0.0-148.0","3ATTHHXXWBAUIC425HIV4ACGOIYIXP","AV5FCKI1TTSKR","3RSBJ6YZECCLSSQQCGKCTHC9OPAFOK","","img/set1/S3.jpg","72","3","random","72","random,structured_normal,structured_incentive,structured_load","4,2,2,3,1,2","2,4,3,1","true","","",""
"null","","html-keyboard-response","149","134028","0.0-149.0","3ATTHHXXWBAUIC425HIV4ACGOIYIXP","AV5FCKI1TTSKR","3RSBJ6YZECCLSSQQCGKCTHC9OPAFOK","","<img src=""img/set1/S3.jpg"" width=""540"" height = ""360"" style=""border:16px solid orange"">","null","","","","","","","","","",""
"null","","html-keyboard-response","150","134238","0.0-150.0","3ATTHHXXWBAUIC425HIV4ACGOIYIXP","AV5FCKI1TTSKR","3RSBJ6YZECCLSSQQCGKCTHC9OPAFOK","","","null","","","","","","","","","",""
"807.6999998092651","","image-keyboard-response","151","135047","0.0-151.0","3ATTHHXXWBAUIC425HIV4ACGOIYIXP","AV5FCKI1TTSKR","3RSBJ6YZECCLSSQQCGKCTHC9OPAFOK","","img/set1/S1.jpg","72","1","random","83","random,structured_normal,structured_incentive,structured_load","4,2,2,3,1,2","2,4,3,1","false","","",""
"null","","html-keyboard-response","152","135410","0.0-152.0","3ATTHHXXWBAUIC425HIV4ACGOIYIXP","AV5FCKI1TTSKR","3RSBJ6YZECCLSSQQCGKCTHC9OPAFOK","","<img src=""img/set1/S1.jpg"" width=""540"" height = ""360"">","null","","","","","","","","","",""
"null","","html-keyboard-response","153","135624","0.0-153.0","3ATTHHXXWBAUIC425HIV4ACGOIYIXP","AV5FCKI1TTSKR","3RSBJ6YZECCLSSQQCGKCTHC9OPAFOK","","","null","","","","","","","","","",""
"499.90000009536743","","image-keyboard-response","154","136125","0.0-154.0","3ATTHHXXWBAUIC425HIV4ACGOIYIXP","AV5FCKI1TTSKR","3RSBJ6YZECCLSSQQCGKCTHC9OPAFOK","","img/set1/S3.jpg","72","3","random","72","random,structured_normal,structured_incentive,structured_load","4,2,2,3,1,2","2,4,3,1","true","","",""
"null","","html-keyboard-response","155","136483","0.0-155.0","3ATTHHXXWBAUIC425HIV4ACGOIYIXP","AV5FCKI1TTSKR","3RSBJ6YZECCLSSQQCGKCTHC9OPAFOK","","<img src=""img/set1/S3.jpg"" width=""540"" height = ""360"" style=""border:16px solid orange"">","null","","","","","","","","","",""
"null","","html-keyboard-response","156","136687","0.0-156.0","3ATTHHXXWBAUIC425HIV4ACGOIYIXP","AV5FCKI1TTSKR","3RSBJ6YZECCLSSQQCGKCTHC9OPAFOK","","","null","","","","","","","","","",""
"725.5","","image-keyboard-response","157","137413","0.0-157.0","3ATTHHXXWBAUIC425HIV4ACGOIYIXP","AV5FCKI1TTSKR","3RSBJ6YZECCLSSQQCGKCTHC9OPAFOK","","img/set1/S2.jpg","68","2","random","68","random,structured_normal,structured_incentive,structured_load","4,2,2,3,1,2","2,4,3,1","true","","",""
"null","","html-keyboard-response","158","137775","0.0-158.0","3ATTHHXXWBAUIC425HIV4ACGOIYIXP","AV5FCKI1TTSKR","3RSBJ6YZECCLSSQQCGKCTHC9OPAFOK","","<img src=""img/set1/S2.jpg"" width=""540"" height = ""360"" style=""border:16px solid orange"">","null","","","","","","","","","",""
"null","","html-keyboard-response","159","137984","0.0-159.0","3ATTHHXXWBAUIC425HIV4ACGOIYIXP","AV5FCKI1TTSKR","3RSBJ6YZECCLSSQQCGKCTHC9OPAFOK","","","null","","","","","","","","","",""
"543.7000000476837","","image-keyboard-response","160","138529","0.0-160.0","3ATTHHXXWBAUIC425HIV4ACGOIYIXP","AV5FCKI1TTSKR","3RSBJ6YZECCLSSQQCGKCTHC9OPAFOK","","img/set1/S3.jpg","72","3","random","72","random,structured_normal,structured_incentive,structured_load","4,2,2,3,1,2","2,4,3,1","true","","",""
"null","","html-keyboard-response","161","138887","0.0-161.0","3ATTHHXXWBAUIC425HIV4ACGOIYIXP","AV5FCKI1TTSKR","3RSBJ6YZECCLSSQQCGKCTHC9OPAFOK","","<img src=""img/set1/S3.jpg"" width=""540"" height = ""360"" style=""border:16px solid orange"">","null","","","","","","","","","",""
"null","","html-keyboard-response","162","139103","0.0-162.0","3ATTHHXXWBAUIC425HIV4ACGOIYIXP","AV5FCKI1TTSKR","3RSBJ6YZECCLSSQQCGKCTHC9OPAFOK","","","null","","","","","","","","","",""
"759.3999998569489","","image-keyboard-response","163","139864","0.0-163.0","3ATTHHXXWBAUIC425HIV4ACGOIYIXP","AV5FCKI1TTSKR","3RSBJ6YZECCLSSQQCGKCTHC9OPAFOK","","img/set1/S1.jpg","83","1","random","83","random,structured_normal,structured_incentive,structured_load","4,2,2,3,1,2","2,4,3,1","true","","",""
"null","","html-keyboard-response","164","140223","0.0-164.0","3ATTHHXXWBAUIC425HIV4ACGOIYIXP","AV5FCKI1TTSKR","3RSBJ6YZECCLSSQQCGKCTHC9OPAFOK","","<img src=""img/set1/S1.jpg"" width=""540"" height = ""360"" style=""border:16px solid orange"">","null","","","","","","","","","",""
"null","","html-keyboard-response","165","140432","0.0-165.0","3ATTHHXXWBAUIC425HIV4ACGOIYIXP","AV5FCKI1TTSKR","3RSBJ6YZECCLSSQQCGKCTHC9OPAFOK","","","null","","","","","","","","","",""
"499.7000000476837","","image-keyboard-response","166","140932","0.0-166.0","3ATTHHXXWBAUIC425HIV4ACGOIYIXP","AV5FCKI1TTSKR","3RSBJ6YZECCLSSQQCGKCTHC9OPAFOK","","img/set1/S3.jpg","72","3","random","72","random,structured_normal,structured_incentive,structured_load","4,2,2,3,1,2","2,4,3,1","true","","",""
"null","","html-keyboard-response","167","141288","0.0-167.0","3ATTHHXXWBAUIC425HIV4ACGOIYIXP","AV5FCKI1TTSKR","3RSBJ6YZECCLSSQQCGKCTHC9OPAFOK","","<img src=""img/set1/S3.jpg"" width=""540"" height = ""360"" style=""border:16px solid orange"">","null","","","","","","","","","",""
"null","","html-keyboard-response","168","141491","0.0-168.0","3ATTHHXXWBAUIC425HIV4ACGOIYIXP","AV5FCKI1TTSKR","3RSBJ6YZECCLSSQQCGKCTHC9OPAFOK","","","null","","","","","","","","","",""
"520.6000001430511","","image-keyboard-response","169","142013","0.0-169.0","3ATTHHXXWBAUIC425HIV4ACGOIYIXP","AV5FCKI1TTSKR","3RSBJ6YZECCLSSQQCGKCTHC9OPAFOK","","img/set1/S1.jpg","83","1","random","83","random,structured_normal,structured_incentive,structured_load","4,2,2,3,1,2","2,4,3,1","true","","",""
"null","","html-keyboard-response","170","142374","0.0-170.0","3ATTHHXXWBAUIC425HIV4ACGOIYIXP","AV5FCKI1TTSKR","3RSBJ6YZECCLSSQQCGKCTHC9OPAFOK","","<img src=""img/set1/S1.jpg"" width=""540"" height = ""360"" style=""border:16px solid orange"">","null","","","","","","","","","",""
"null","","html-keyboard-response","171","142581","0.0-171.0","3ATTHHXXWBAUIC425HIV4ACGOIYIXP","AV5FCKI1TTSKR","3RSBJ6YZECCLSSQQCGKCTHC9OPAFOK","","","null","","","","","","","","","",""
"588.5","","image-keyboard-response","172","143170","0.0-172.0","3ATTHHXXWBAUIC425HIV4ACGOIYIXP","AV5FCKI1TTSKR","3RSBJ6YZECCLSSQQCGKCTHC9OPAFOK","","img/set1/S2.jpg","68","2","random","68","random,structured_normal,structured_incentive,structured_load","4,2,2,3,1,2","2,4,3,1","true","","",""
"null","","html-keyboard-response","173","143536","0.0-173.0","3ATTHHXXWBAUIC425HIV4ACGOIYIXP","AV5FCKI1TTSKR","3RSBJ6YZECCLSSQQCGKCTHC9OPAFOK","","<img src=""img/set1/S2.jpg"" width=""540"" height = ""360"" style=""border:16px solid orange"">","null","","","","","","","","","",""
"null","","html-keyboard-response","174","143745","0.0-174.0","3ATTHHXXWBAUIC425HIV4ACGOIYIXP","AV5FCKI1TTSKR","3RSBJ6YZECCLSSQQCGKCTHC9OPAFOK","","","null","","","","","","","","","",""
"533.1000001430511","","image-keyboard-response","175","144279","0.0-175.0","3ATTHHXXWBAUIC425HIV4ACGOIYIXP","AV5FCKI1TTSKR","3RSBJ6YZECCLSSQQCGKCTHC9OPAFOK","","img/set1/S3.jpg","72","3","random","72","random,structured_normal,structured_incentive,structured_load","4,2,2,3,1,2","2,4,3,1","true","","",""
"null","","html-keyboard-response","176","144646","0.0-176.0","3ATTHHXXWBAUIC425HIV4ACGOIYIXP","AV5FCKI1TTSKR","3RSBJ6YZECCLSSQQCGKCTHC9OPAFOK","","<img src=""img/set1/S3.jpg"" width=""540"" height = ""360"" style=""border:16px solid orange"">","null","","","","","","","","","",""
"null","","html-keyboard-response","177","144849","0.0-177.0","3ATTHHXXWBAUIC425HIV4ACGOIYIXP","AV5FCKI1TTSKR","3RSBJ6YZECCLSSQQCGKCTHC9OPAFOK","","","null","","","","","","","","","",""
"781.5999999046326","","image-keyboard-response","178","145632","0.0-178.0","3ATTHHXXWBAUIC425HIV4ACGOIYIXP","AV5FCKI1TTSKR","3RSBJ6YZECCLSSQQCGKCTHC9OPAFOK","","img/set1/S1.jpg","83","1","random","83","random,structured_normal,structured_incentive,structured_load","4,2,2,3,1,2","2,4,3,1","true","","",""
"null","","html-keyboard-response","179","145984","0.0-179.0","3ATTHHXXWBAUIC425HIV4ACGOIYIXP","AV5FCKI1TTSKR","3RSBJ6YZECCLSSQQCGKCTHC9OPAFOK","","<img src=""img/set1/S1.jpg"" width=""540"" height = ""360"" style=""border:16px solid orange"">","null","","","","","","","","","",""
"null","","html-keyboard-response","180","146193","0.0-180.0","3ATTHHXXWBAUIC425HIV4ACGOIYIXP","AV5FCKI1TTSKR","3RSBJ6YZECCLSSQQCGKCTHC9OPAFOK","","","null","","","","","","","","","",""
"473.2000000476837","","image-keyboard-response","181","146667","0.0-181.0","3ATTHHXXWBAUIC425HIV4ACGOIYIXP","AV5FCKI1TTSKR","3RSBJ6YZECCLSSQQCGKCTHC9OPAFOK","","img/set1/S1.jpg","83","1","random","83","random,structured_normal,structured_incentive,structured_load","4,2,2,3,1,2","2,4,3,1","true","","",""
"null","","html-keyboard-response","182","147031","0.0-182.0","3ATTHHXXWBAUIC425HIV4ACGOIYIXP","AV5FCKI1TTSKR","3RSBJ6YZECCLSSQQCGKCTHC9OPAFOK","","<img src=""img/set1/S1.jpg"" width=""540"" height = ""360"" style=""border:16px solid orange"">","null","","","","","","","","","",""
"null","","html-keyboard-response","183","147241","0.0-183.0","3ATTHHXXWBAUIC425HIV4ACGOIYIXP","AV5FCKI1TTSKR","3RSBJ6YZECCLSSQQCGKCTHC9OPAFOK","","","null","","","","","","","","","",""
"433.40000009536743","","image-keyboard-response","184","147676","0.0-184.0","3ATTHHXXWBAUIC425HIV4ACGOIYIXP","AV5FCKI1TTSKR","3RSBJ6YZECCLSSQQCGKCTHC9OPAFOK","","img/set1/S1.jpg","83","1","random","83","random,structured_normal,structured_incentive,structured_load","4,2,2,3,1,2","2,4,3,1","true","","",""
"null","","html-keyboard-response","185","148030","0.0-185.0","3ATTHHXXWBAUIC425HIV4ACGOIYIXP","AV5FCKI1TTSKR","3RSBJ6YZECCLSSQQCGKCTHC9OPAFOK","","<img src=""img/set1/S1.jpg"" width=""540"" height = ""360"" style=""border:16px solid orange"">","null","","","","","","","","","",""
"null","","html-keyboard-response","186","148237","0.0-186.0","3ATTHHXXWBAUIC425HIV4ACGOIYIXP","AV5FCKI1TTSKR","3RSBJ6YZECCLSSQQCGKCTHC9OPAFOK","","","null","","","","","","","","","",""
"465.5","","image-keyboard-response","187","148703","0.0-187.0","3ATTHHXXWBAUIC425HIV4ACGOIYIXP","AV5FCKI1TTSKR","3RSBJ6YZECCLSSQQCGKCTHC9OPAFOK","","img/set1/S4.jpg","72","4","random","74","random,structured_normal,structured_incentive,structured_load","4,2,2,3,1,2","2,4,3,1","false","","",""
"null","","html-keyboard-response","188","149057","0.0-188.0","3ATTHHXXWBAUIC425HIV4ACGOIYIXP","AV5FCKI1TTSKR","3RSBJ6YZECCLSSQQCGKCTHC9OPAFOK","","<img src=""img/set1/S4.jpg"" width=""540"" height = ""360"">","null","","","","","","","","","",""
"null","","html-keyboard-response","189","149273","0.0-189.0","3ATTHHXXWBAUIC425HIV4ACGOIYIXP","AV5FCKI1TTSKR","3RSBJ6YZECCLSSQQCGKCTHC9OPAFOK","","","null","","","","","","","","","",""
"461.09999990463257","","image-keyboard-response","190","149735","0.0-190.0","3ATTHHXXWBAUIC425HIV4ACGOIYIXP","AV5FCKI1TTSKR","3RSBJ6YZECCLSSQQCGKCTHC9OPAFOK","","img/set1/S4.jpg","83","4","random","74","random,structured_normal,structured_incentive,structured_load","4,2,2,3,1,2","2,4,3,1","false","","",""
"null","","html-keyboard-response","191","150096","0.0-191.0","3ATTHHXXWBAUIC425HIV4ACGOIYIXP","AV5FCKI1TTSKR","3RSBJ6YZECCLSSQQCGKCTHC9OPAFOK","","<img src=""img/set1/S4.jpg"" width=""540"" height = ""360"">","null","","","","","","","","","",""
"null","","html-keyboard-response","192","150305","0.0-192.0","3ATTHHXXWBAUIC425HIV4ACGOIYIXP","AV5FCKI1TTSKR","3RSBJ6YZECCLSSQQCGKCTHC9OPAFOK","","","null","","","","","","","","","",""
"754.1000001430511","","image-keyboard-response","193","151060","0.0-193.0","3ATTHHXXWBAUIC425HIV4ACGOIYIXP","AV5FCKI1TTSKR","3RSBJ6YZECCLSSQQCGKCTHC9OPAFOK","","img/set1/S1.jpg","83","1","random","83","random,structured_normal,structured_incentive,structured_load","4,2,2,3,1,2","2,4,3,1","true","","",""
"null","","html-keyboard-response","194","151420","0.0-194.0","3ATTHHXXWBAUIC425HIV4ACGOIYIXP","AV5FCKI1TTSKR","3RSBJ6YZECCLSSQQCGKCTHC9OPAFOK","","<img src=""img/set1/S1.jpg"" width=""540"" height = ""360"" style=""border:16px solid orange"">","null","","","","","","","","","",""
"null","","html-keyboard-response","195","151623","0.0-195.0","3ATTHHXXWBAUIC425HIV4ACGOIYIXP","AV5FCKI1TTSKR","3RSBJ6YZECCLSSQQCGKCTHC9OPAFOK","","","null","","","","","","","","","",""
"738.7999999523163","","image-keyboard-response","196","152363","0.0-196.0","3ATTHHXXWBAUIC425HIV4ACGOIYIXP","AV5FCKI1TTSKR","3RSBJ6YZECCLSSQQCGKCTHC9OPAFOK","","img/set1/S2.jpg","68","2","random","68","random,structured_normal,structured_incentive,structured_load","4,2,2,3,1,2","2,4,3,1","true","","",""
"null","","html-keyboard-response","197","152726","0.0-197.0","3ATTHHXXWBAUIC425HIV4ACGOIYIXP","AV5FCKI1TTSKR","3RSBJ6YZECCLSSQQCGKCTHC9OPAFOK","","<img src=""img/set1/S2.jpg"" width=""540"" height = ""360"" style=""border:16px solid orange"">","null","","","","","","","","","",""
"null","","html-keyboard-response","198","152936","0.0-198.0","3ATTHHXXWBAUIC425HIV4ACGOIYIXP","AV5FCKI1TTSKR","3RSBJ6YZECCLSSQQCGKCTHC9OPAFOK","","","null","","","","","","","","","",""
"386.7000000476837","","image-keyboard-response","199","153324","0.0-199.0","3ATTHHXXWBAUIC425HIV4ACGOIYIXP","AV5FCKI1TTSKR","3RSBJ6YZECCLSSQQCGKCTHC9OPAFOK","","img/set1/S3.jpg","72","3","random","72","random,structured_normal,structured_incentive,structured_load","4,2,2,3,1,2","2,4,3,1","true","","",""
"null","","html-keyboard-response","200","153689","0.0-200.0","3ATTHHXXWBAUIC425HIV4ACGOIYIXP","AV5FCKI1TTSKR","3RSBJ6YZECCLSSQQCGKCTHC9OPAFOK","","<img src=""img/set1/S3.jpg"" width=""540"" height = ""360"" style=""border:16px solid orange"">","null","","","","","","","","","",""
"null","","html-keyboard-response","201","153906","0.0-201.0","3ATTHHXXWBAUIC425HIV4ACGOIYIXP","AV5FCKI1TTSKR","3RSBJ6YZECCLSSQQCGKCTHC9OPAFOK","","","null","","","","","","","","","",""
"656.7000000476837","","image-keyboard-response","202","154564","0.0-202.0","3ATTHHXXWBAUIC425HIV4ACGOIYIXP","AV5FCKI1TTSKR","3RSBJ6YZECCLSSQQCGKCTHC9OPAFOK","","img/set1/S2.jpg","68","2","random","68","random,structured_normal,structured_incentive,structured_load","4,2,2,3,1,2","2,4,3,1","true","","",""
"null","","html-keyboard-response","203","154924","0.0-203.0","3ATTHHXXWBAUIC425HIV4ACGOIYIXP","AV5FCKI1TTSKR","3RSBJ6YZECCLSSQQCGKCTHC9OPAFOK","","<img src=""img/set1/S2.jpg"" width=""540"" height = ""360"" style=""border:16px solid orange"">","null","","","","","","","","","",""
"null","","html-keyboard-response","204","155133","0.0-204.0","3ATTHHXXWBAUIC425HIV4ACGOIYIXP","AV5FCKI1TTSKR","3RSBJ6YZECCLSSQQCGKCTHC9OPAFOK","","","null","","","","","","","","","",""
"510","","image-keyboard-response","205","155644","0.0-205.0","3ATTHHXXWBAUIC425HIV4ACGOIYIXP","AV5FCKI1TTSKR","3RSBJ6YZECCLSSQQCGKCTHC9OPAFOK","","img/set1/S2.jpg","72","2","random","68","random,structured_normal,structured_incentive,structured_load","4,2,2,3,1,2","2,4,3,1","false","","",""
"null","","html-keyboard-response","206","156006","0.0-206.0","3ATTHHXXWBAUIC425HIV4ACGOIYIXP","AV5FCKI1TTSKR","3RSBJ6YZECCLSSQQCGKCTHC9OPAFOK","","<img src=""img/set1/S2.jpg"" width=""540"" height = ""360"">","null","","","","","","","","","",""
"null","","html-keyboard-response","207","156215","0.0-207.0","3ATTHHXXWBAUIC425HIV4ACGOIYIXP","AV5FCKI1TTSKR","3RSBJ6YZECCLSSQQCGKCTHC9OPAFOK","","","null","","","","","","","","","",""
"583.7999999523163","","image-keyboard-response","208","156800","0.0-208.0","3ATTHHXXWBAUIC425HIV4ACGOIYIXP","AV5FCKI1TTSKR","3RSBJ6YZECCLSSQQCGKCTHC9OPAFOK","","img/set1/S1.jpg","83","1","random","83","random,structured_normal,structured_incentive,structured_load","4,2,2,3,1,2","2,4,3,1","true","","",""
"null","","html-keyboard-response","209","157162","0.0-209.0","3ATTHHXXWBAUIC425HIV4ACGOIYIXP","AV5FCKI1TTSKR","3RSBJ6YZECCLSSQQCGKCTHC9OPAFOK","","<img src=""img/set1/S1.jpg"" width=""540"" height = ""360"" style=""border:16px solid orange"">","null","","","","","","","","","",""
"null","","html-keyboard-response","210","157374","0.0-210.0","3ATTHHXXWBAUIC425HIV4ACGOIYIXP","AV5FCKI1TTSKR","3RSBJ6YZECCLSSQQCGKCTHC9OPAFOK","","","null","","","","","","","","","",""
"384.39999985694885","","image-keyboard-response","211","157759","0.0-211.0","3ATTHHXXWBAUIC425HIV4ACGOIYIXP","AV5FCKI1TTSKR","3RSBJ6YZECCLSSQQCGKCTHC9OPAFOK","","img/set1/S1.jpg","68","1","random","83","random,structured_normal,structured_incentive,structured_load","4,2,2,3,1,2","2,4,3,1","false","","",""
"null","","html-keyboard-response","212","158121","0.0-212.0","3ATTHHXXWBAUIC425HIV4ACGOIYIXP","AV5FCKI1TTSKR","3RSBJ6YZECCLSSQQCGKCTHC9OPAFOK","","<img src=""img/set1/S1.jpg"" width=""540"" height = ""360"">","null","","","","","","","","","",""
"null","","html-keyboard-response","213","158330","0.0-213.0","3ATTHHXXWBAUIC425HIV4ACGOIYIXP","AV5FCKI1TTSKR","3RSBJ6YZECCLSSQQCGKCTHC9OPAFOK","","","null","","","","","","","","","",""
"579.9000000953674","","image-keyboard-response","214","158911","0.0-214.0","3ATTHHXXWBAUIC425HIV4ACGOIYIXP","AV5FCKI1TTSKR","3RSBJ6YZECCLSSQQCGKCTHC9OPAFOK","","img/set1/S4.jpg","74","4","random","74","random,structured_normal,structured_incentive,structured_load","4,2,2,3,1,2","2,4,3,1","true","","",""
"null","","html-keyboard-response","215","159270","0.0-215.0","3ATTHHXXWBAUIC425HIV4ACGOIYIXP","AV5FCKI1TTSKR","3RSBJ6YZECCLSSQQCGKCTHC9OPAFOK","","<img src=""img/set1/S4.jpg"" width=""540"" height = ""360"" style=""border:16px solid orange"">","null","","","","","","","","","",""
"null","","html-keyboard-response","216","159479","0.0-216.0","3ATTHHXXWBAUIC425HIV4ACGOIYIXP","AV5FCKI1TTSKR","3RSBJ6YZECCLSSQQCGKCTHC9OPAFOK","","","null","","","","","","","","","",""
"610.7000000476837","","image-keyboard-response","217","160091","0.0-217.0","3ATTHHXXWBAUIC425HIV4ACGOIYIXP","AV5FCKI1TTSKR","3RSBJ6YZECCLSSQQCGKCTHC9OPAFOK","","img/set1/S2.jpg","83","2","random","68","random,structured_normal,structured_incentive,structured_load","4,2,2,3,1,2","2,4,3,1","false","","",""
"null","","html-keyboard-response","218","160452","0.0-218.0","3ATTHHXXWBAUIC425HIV4ACGOIYIXP","AV5FCKI1TTSKR","3RSBJ6YZECCLSSQQCGKCTHC9OPAFOK","","<img src=""img/set1/S2.jpg"" width=""540"" height = ""360"">","null","","","","","","","","","",""
"null","","html-keyboard-response","219","160661","0.0-219.0","3ATTHHXXWBAUIC425HIV4ACGOIYIXP","AV5FCKI1TTSKR","3RSBJ6YZECCLSSQQCGKCTHC9OPAFOK","","","null","","","","","","","","","",""
"761.5","","image-keyboard-response","220","161425","0.0-220.0","3ATTHHXXWBAUIC425HIV4ACGOIYIXP","AV5FCKI1TTSKR","3RSBJ6YZECCLSSQQCGKCTHC9OPAFOK","","img/set1/S1.jpg","83","1","random","83","random,structured_normal,structured_incentive,structured_load","4,2,2,3,1,2","2,4,3,1","true","","",""
"null","","html-keyboard-response","221","161784","0.0-221.0","3ATTHHXXWBAUIC425HIV4ACGOIYIXP","AV5FCKI1TTSKR","3RSBJ6YZECCLSSQQCGKCTHC9OPAFOK","","<img src=""img/set1/S1.jpg"" width=""540"" height = ""360"" style=""border:16px solid orange"">","null","","","","","","","","","",""
"null","","html-keyboard-response","222","161993","0.0-222.0","3ATTHHXXWBAUIC425HIV4ACGOIYIXP","AV5FCKI1TTSKR","3RSBJ6YZECCLSSQQCGKCTHC9OPAFOK","","","null","","","","","","","","","",""
"510","","image-keyboard-response","223","162504","0.0-223.0","3ATTHHXXWBAUIC425HIV4ACGOIYIXP","AV5FCKI1TTSKR","3RSBJ6YZECCLSSQQCGKCTHC9OPAFOK","","img/set1/S4.jpg","72","4","random","74","random,structured_normal,structured_incentive,structured_load","4,2,2,3,1,2","2,4,3,1","false","","",""
"null","","html-keyboard-response","224","162857","0.0-224.0","3ATTHHXXWBAUIC425HIV4ACGOIYIXP","AV5FCKI1TTSKR","3RSBJ6YZECCLSSQQCGKCTHC9OPAFOK","","<img src=""img/set1/S4.jpg"" width=""540"" height = ""360"">","null","","","","","","","","","",""
"null","","html-keyboard-response","225","163058","0.0-225.0","3ATTHHXXWBAUIC425HIV4ACGOIYIXP","AV5FCKI1TTSKR","3RSBJ6YZECCLSSQQCGKCTHC9OPAFOK","","","null","","","","","","","","","",""
"660.8999998569489","","image-keyboard-response","226","163720","0.0-226.0","3ATTHHXXWBAUIC425HIV4ACGOIYIXP","AV5FCKI1TTSKR","3RSBJ6YZECCLSSQQCGKCTHC9OPAFOK","","img/set1/S1.jpg","68","1","random","83","random,structured_normal,structured_incentive,structured_load","4,2,2,3,1,2","2,4,3,1","false","","",""
"null","","html-keyboard-response","227","164081","0.0-227.0","3ATTHHXXWBAUIC425HIV4ACGOIYIXP","AV5FCKI1TTSKR","3RSBJ6YZECCLSSQQCGKCTHC9OPAFOK","","<img src=""img/set1/S1.jpg"" width=""540"" height = ""360"">","null","","","","","","","","","",""
"null","","html-keyboard-response","228","164291","0.0-228.0","3ATTHHXXWBAUIC425HIV4ACGOIYIXP","AV5FCKI1TTSKR","3RSBJ6YZECCLSSQQCGKCTHC9OPAFOK","","","null","","","","","","","","","",""
"654.5","","image-keyboard-response","229","164946","0.0-229.0","3ATTHHXXWBAUIC425HIV4ACGOIYIXP","AV5FCKI1TTSKR","3RSBJ6YZECCLSSQQCGKCTHC9OPAFOK","","img/set1/S2.jpg","68","2","random","68","random,structured_normal,structured_incentive,structured_load","4,2,2,3,1,2","2,4,3,1","true","","",""
"null","","html-keyboard-response","230","165312","0.0-230.0","3ATTHHXXWBAUIC425HIV4ACGOIYIXP","AV5FCKI1TTSKR","3RSBJ6YZECCLSSQQCGKCTHC9OPAFOK","","<img src=""img/set1/S2.jpg"" width=""540"" height = ""360"" style=""border:16px solid orange"">","null","","","","","","","","","",""
"null","","html-keyboard-response","231","165515","0.0-231.0","3ATTHHXXWBAUIC425HIV4ACGOIYIXP","AV5FCKI1TTSKR","3RSBJ6YZECCLSSQQCGKCTHC9OPAFOK","","","null","","","","","","","","","",""
"552.5","","image-keyboard-response","232","166068","0.0-232.0","3ATTHHXXWBAUIC425HIV4ACGOIYIXP","AV5FCKI1TTSKR","3RSBJ6YZECCLSSQQCGKCTHC9OPAFOK","","img/set1/S4.jpg","74","4","random","74","random,structured_normal,structured_incentive,structured_load","4,2,2,3,1,2","2,4,3,1","true","","",""
"null","","html-keyboard-response","233","166421","0.0-233.0","3ATTHHXXWBAUIC425HIV4ACGOIYIXP","AV5FCKI1TTSKR","3RSBJ6YZECCLSSQQCGKCTHC9OPAFOK","","<img src=""img/set1/S4.jpg"" width=""540"" height = ""360"" style=""border:16px solid orange"">","null","","","","","","","","","",""
"null","","html-keyboard-response","234","166623","0.0-234.0","3ATTHHXXWBAUIC425HIV4ACGOIYIXP","AV5FCKI1TTSKR","3RSBJ6YZECCLSSQQCGKCTHC9OPAFOK","","","null","","","","","","","","","",""
"562.3999998569489","","image-keyboard-response","235","167186","0.0-235.0","3ATTHHXXWBAUIC425HIV4ACGOIYIXP","AV5FCKI1TTSKR","3RSBJ6YZECCLSSQQCGKCTHC9OPAFOK","","img/set1/S1.jpg","83","1","random","83","random,structured_normal,structured_incentive,structured_load","4,2,2,3,1,2","2,4,3,1","true","","",""
"null","","html-keyboard-response","236","167545","0.0-236.0","3ATTHHXXWBAUIC425HIV4ACGOIYIXP","AV5FCKI1TTSKR","3RSBJ6YZECCLSSQQCGKCTHC9OPAFOK","","<img src=""img/set1/S1.jpg"" width=""540"" height = ""360"" style=""border:16px solid orange"">","null","","","","","","","","","",""
"null","","html-keyboard-response","237","167757","0.0-237.0","3ATTHHXXWBAUIC425HIV4ACGOIYIXP","AV5FCKI1TTSKR","3RSBJ6YZECCLSSQQCGKCTHC9OPAFOK","","","null","","","","","","","","","",""
"567","","image-keyboard-response","238","168325","0.0-238.0","3ATTHHXXWBAUIC425HIV4ACGOIYIXP","AV5FCKI1TTSKR","3RSBJ6YZECCLSSQQCGKCTHC9OPAFOK","","img/set1/S2.jpg","74","2","random","68","random,structured_normal,structured_incentive,structured_load","4,2,2,3,1,2","2,4,3,1","false","","",""
"null","","html-keyboard-response","239","168686","0.0-239.0","3ATTHHXXWBAUIC425HIV4ACGOIYIXP","AV5FCKI1TTSKR","3RSBJ6YZECCLSSQQCGKCTHC9OPAFOK","","<img src=""img/set1/S2.jpg"" width=""540"" height = ""360"">","null","","","","","","","","","",""
"null","","html-keyboard-response","240","168901","0.0-240.0","3ATTHHXXWBAUIC425HIV4ACGOIYIXP","AV5FCKI1TTSKR","3RSBJ6YZECCLSSQQCGKCTHC9OPAFOK","","","null","","","","","","","","","",""
"742.5","","image-keyboard-response","241","169645","0.0-241.0","3ATTHHXXWBAUIC425HIV4ACGOIYIXP","AV5FCKI1TTSKR","3RSBJ6YZECCLSSQQCGKCTHC9OPAFOK","","img/set1/S1.jpg","83","1","random","83","random,structured_normal,structured_incentive,structured_load","4,2,2,3,1,2","2,4,3,1","true","","",""
"null","","html-keyboard-response","242","170009","0.0-242.0","3ATTHHXXWBAUIC425HIV4ACGOIYIXP","AV5FCKI1TTSKR","3RSBJ6YZECCLSSQQCGKCTHC9OPAFOK","","<img src=""img/set1/S1.jpg"" width=""540"" height = ""360"" style=""border:16px solid orange"">","null","","","","","","","","","",""
"null","","html-keyboard-response","243","170218","0.0-243.0","3ATTHHXXWBAUIC425HIV4ACGOIYIXP","AV5FCKI1TTSKR","3RSBJ6YZECCLSSQQCGKCTHC9OPAFOK","","","null","","","","","","","","","",""
"782.5","","image-keyboard-response","244","171001","0.0-244.0","3ATTHHXXWBAUIC425HIV4ACGOIYIXP","AV5FCKI1TTSKR","3RSBJ6YZECCLSSQQCGKCTHC9OPAFOK","","img/set1/S3.jpg","72","3","random","72","random,structured_normal,structured_incentive,structured_load","4,2,2,3,1,2","2,4,3,1","true","","",""
"null","","html-keyboard-response","245","171357","0.0-245.0","3ATTHHXXWBAUIC425HIV4ACGOIYIXP","AV5FCKI1TTSKR","3RSBJ6YZECCLSSQQCGKCTHC9OPAFOK","","<img src=""img/set1/S3.jpg"" width=""540"" height = ""360"" style=""border:16px solid orange"">","null","","","","","","","","","",""
"null","","html-keyboard-response","246","171559","0.0-246.0","3ATTHHXXWBAUIC425HIV4ACGOIYIXP","AV5FCKI1TTSKR","3RSBJ6YZECCLSSQQCGKCTHC9OPAFOK","","","null","","","","","","","","","",""
"521","","image-keyboard-response","247","172081","0.0-247.0","3ATTHHXXWBAUIC425HIV4ACGOIYIXP","AV5FCKI1TTSKR","3RSBJ6YZECCLSSQQCGKCTHC9OPAFOK","","img/set1/S3.jpg","72","3","random","72","random,structured_normal,structured_incentive,structured_load","4,2,2,3,1,2","2,4,3,1","true","","",""
"null","","html-keyboard-response","248","172437","0.0-248.0","3ATTHHXXWBAUIC425HIV4ACGOIYIXP","AV5FCKI1TTSKR","3RSBJ6YZECCLSSQQCGKCTHC9OPAFOK","","<img src=""img/set1/S3.jpg"" width=""540"" height = ""360"" style=""border:16px solid orange"">","null","","","","","","","","","",""
"null","","html-keyboard-response","249","172649","0.0-249.0","3ATTHHXXWBAUIC425HIV4ACGOIYIXP","AV5FCKI1TTSKR","3RSBJ6YZECCLSSQQCGKCTHC9OPAFOK","","","null","","","","","","","","","",""
"583","","image-keyboard-response","250","173233","0.0-250.0","3ATTHHXXWBAUIC425HIV4ACGOIYIXP","AV5FCKI1TTSKR","3RSBJ6YZECCLSSQQCGKCTHC9OPAFOK","","img/set1/S4.jpg","74","4","random","74","random,structured_normal,structured_incentive,structured_load","4,2,2,3,1,2","2,4,3,1","true","","",""
"null","","html-keyboard-response","251","173588","0.0-251.0","3ATTHHXXWBAUIC425HIV4ACGOIYIXP","AV5FCKI1TTSKR","3RSBJ6YZECCLSSQQCGKCTHC9OPAFOK","","<img src=""img/set1/S4.jpg"" width=""540"" height = ""360"" style=""border:16px solid orange"">","null","","","","","","","","","",""
"null","","html-keyboard-response","252","173797","0.0-252.0","3ATTHHXXWBAUIC425HIV4ACGOIYIXP","AV5FCKI1TTSKR","3RSBJ6YZECCLSSQQCGKCTHC9OPAFOK","","","null","","","","","","","","","",""
"639.5999999046326","","image-keyboard-response","253","174438","0.0-253.0","3ATTHHXXWBAUIC425HIV4ACGOIYIXP","AV5FCKI1TTSKR","3RSBJ6YZECCLSSQQCGKCTHC9OPAFOK","","img/set1/S1.jpg","83","1","random","83","random,structured_normal,structured_incentive,structured_load","4,2,2,3,1,2","2,4,3,1","true","","",""
"null","","html-keyboard-response","254","174793","0.0-254.0","3ATTHHXXWBAUIC425HIV4ACGOIYIXP","AV5FCKI1TTSKR","3RSBJ6YZECCLSSQQCGKCTHC9OPAFOK","","<img src=""img/set1/S1.jpg"" width=""540"" height = ""360"" style=""border:16px solid orange"">","null","","","","","","","","","",""
"null","","html-keyboard-response","255","174997","0.0-255.0","3ATTHHXXWBAUIC425HIV4ACGOIYIXP","AV5FCKI1TTSKR","3RSBJ6YZECCLSSQQCGKCTHC9OPAFOK","","","null","","","","","","","","","",""
"568","","image-keyboard-response","256","175566","0.0-256.0","3ATTHHXXWBAUIC425HIV4ACGOIYIXP","AV5FCKI1TTSKR","3RSBJ6YZECCLSSQQCGKCTHC9OPAFOK","","img/set1/S3.jpg","68","3","random","72","random,structured_normal,structured_incentive,structured_load","4,2,2,3,1,2","2,4,3,1","false","","",""
"null","","html-keyboard-response","257","175919","0.0-257.0","3ATTHHXXWBAUIC425HIV4ACGOIYIXP","AV5FCKI1TTSKR","3RSBJ6YZECCLSSQQCGKCTHC9OPAFOK","","<img src=""img/set1/S3.jpg"" width=""540"" height = ""360"">","null","","","","","","","","","",""
"null","","html-keyboard-response","258","176128","0.0-258.0","3ATTHHXXWBAUIC425HIV4ACGOIYIXP","AV5FCKI1TTSKR","3RSBJ6YZECCLSSQQCGKCTHC9OPAFOK","","","null","","","","","","","","","",""
"936.4000000953674","","image-keyboard-response","259","177066","0.0-259.0","3ATTHHXXWBAUIC425HIV4ACGOIYIXP","AV5FCKI1TTSKR","3RSBJ6YZECCLSSQQCGKCTHC9OPAFOK","","img/set1/S2.jpg","83","2","random","68","random,structured_normal,structured_incentive,structured_load","4,2,2,3,1,2","2,4,3,1","false","","",""
"null","","html-keyboard-response","260","177422","0.0-260.0","3ATTHHXXWBAUIC425HIV4ACGOIYIXP","AV5FCKI1TTSKR","3RSBJ6YZECCLSSQQCGKCTHC9OPAFOK","","<img src=""img/set1/S2.jpg"" width=""540"" height = ""360"">","null","","","","","","","","","",""
"null","","html-keyboard-response","261","177629","0.0-261.0","3ATTHHXXWBAUIC425HIV4ACGOIYIXP","AV5FCKI1TTSKR","3RSBJ6YZECCLSSQQCGKCTHC9OPAFOK","","","null","","","","","","","","","",""
"562.4000000953674","","image-keyboard-response","262","178193","0.0-262.0","3ATTHHXXWBAUIC425HIV4ACGOIYIXP","AV5FCKI1TTSKR","3RSBJ6YZECCLSSQQCGKCTHC9OPAFOK","","img/set1/S4.jpg","74","4","random","74","random,structured_normal,structured_incentive,structured_load","4,2,2,3,1,2","2,4,3,1","true","","",""
"null","","html-keyboard-response","263","178546","0.0-263.0","3ATTHHXXWBAUIC425HIV4ACGOIYIXP","AV5FCKI1TTSKR","3RSBJ6YZECCLSSQQCGKCTHC9OPAFOK","","<img src=""img/set1/S4.jpg"" width=""540"" height = ""360"" style=""border:16px solid orange"">","null","","","","","","","","","",""
"null","","html-keyboard-response","264","178759","0.0-264.0","3ATTHHXXWBAUIC425HIV4ACGOIYIXP","AV5FCKI1TTSKR","3RSBJ6YZECCLSSQQCGKCTHC9OPAFOK","","","null","","","","","","","","","",""
"654","","image-keyboard-response","265","179414","0.0-265.0","3ATTHHXXWBAUIC425HIV4ACGOIYIXP","AV5FCKI1TTSKR","3RSBJ6YZECCLSSQQCGKCTHC9OPAFOK","","img/set1/S3.jpg","72","3","random","72","random,structured_normal,structured_incentive,structured_load","4,2,2,3,1,2","2,4,3,1","true","","",""
"null","","html-keyboard-response","266","179765","0.0-266.0","3ATTHHXXWBAUIC425HIV4ACGOIYIXP","AV5FCKI1TTSKR","3RSBJ6YZECCLSSQQCGKCTHC9OPAFOK","","<img src=""img/set1/S3.jpg"" width=""540"" height = ""360"" style=""border:16px solid orange"">","null","","","","","","","","","",""
"null","","html-keyboard-response","267","179974","0.0-267.0","3ATTHHXXWBAUIC425HIV4ACGOIYIXP","AV5FCKI1TTSKR","3RSBJ6YZECCLSSQQCGKCTHC9OPAFOK","","","null","","","","","","","","","",""
"612.5","","image-keyboard-response","268","180588","0.0-268.0","3ATTHHXXWBAUIC425HIV4ACGOIYIXP","AV5FCKI1TTSKR","3RSBJ6YZECCLSSQQCGKCTHC9OPAFOK","","img/set1/S4.jpg","74","4","random","74","random,structured_normal,structured_incentive,structured_load","4,2,2,3,1,2","2,4,3,1","true","","",""
"null","","html-keyboard-response","269","180939","0.0-269.0","3ATTHHXXWBAUIC425HIV4ACGOIYIXP","AV5FCKI1TTSKR","3RSBJ6YZECCLSSQQCGKCTHC9OPAFOK","","<img src=""img/set1/S4.jpg"" width=""540"" height = ""360"" style=""border:16px solid orange"">","null","","","","","","","","","",""
"null","","html-keyboard-response","270","181141","0.0-270.0","3ATTHHXXWBAUIC425HIV4ACGOIYIXP","AV5FCKI1TTSKR","3RSBJ6YZECCLSSQQCGKCTHC9OPAFOK","","","null","","","","","","","","","",""
"610.5999999046326","","image-keyboard-response","271","181753","0.0-271.0","3ATTHHXXWBAUIC425HIV4ACGOIYIXP","AV5FCKI1TTSKR","3RSBJ6YZECCLSSQQCGKCTHC9OPAFOK","","img/set1/S3.jpg","72","3","random","72","random,structured_normal,structured_incentive,structured_load","4,2,2,3,1,2","2,4,3,1","true","","",""
"null","","html-keyboard-response","272","182110","0.0-272.0","3ATTHHXXWBAUIC425HIV4ACGOIYIXP","AV5FCKI1TTSKR","3RSBJ6YZECCLSSQQCGKCTHC9OPAFOK","","<img src=""img/set1/S3.jpg"" width=""540"" height = ""360"" style=""border:16px solid orange"">","null","","","","","","","","","",""
"null","","html-keyboard-response","273","182312","0.0-273.0","3ATTHHXXWBAUIC425HIV4ACGOIYIXP","AV5FCKI1TTSKR","3RSBJ6YZECCLSSQQCGKCTHC9OPAFOK","","","null","","","","","","","","","",""
"839.2999999523163","","image-keyboard-response","274","183153","0.0-274.0","3ATTHHXXWBAUIC425HIV4ACGOIYIXP","AV5FCKI1TTSKR","3RSBJ6YZECCLSSQQCGKCTHC9OPAFOK","","img/set1/S2.jpg","68","2","random","68","random,structured_normal,structured_incentive,structured_load","4,2,2,3,1,2","2,4,3,1","true","","",""
"null","","html-keyboard-response","275","183509","0.0-275.0","3ATTHHXXWBAUIC425HIV4ACGOIYIXP","AV5FCKI1TTSKR","3RSBJ6YZECCLSSQQCGKCTHC9OPAFOK","","<img src=""img/set1/S2.jpg"" width=""540"" height = ""360"" style=""border:16px solid orange"">","null","","","","","","","","","",""
"null","","html-keyboard-response","276","183714","0.0-276.0","3ATTHHXXWBAUIC425HIV4ACGOIYIXP","AV5FCKI1TTSKR","3RSBJ6YZECCLSSQQCGKCTHC9OPAFOK","","","null","","","","","","","","","",""
"487.59999990463257","","image-keyboard-response","277","184203","0.0-277.0","3ATTHHXXWBAUIC425HIV4ACGOIYIXP","AV5FCKI1TTSKR","3RSBJ6YZECCLSSQQCGKCTHC9OPAFOK","","img/set1/S1.jpg","83","1","random","83","random,structured_normal,structured_incentive,structured_load","4,2,2,3,1,2","2,4,3,1","true","","",""
"null","","html-keyboard-response","278","184563","0.0-278.0","3ATTHHXXWBAUIC425HIV4ACGOIYIXP","AV5FCKI1TTSKR","3RSBJ6YZECCLSSQQCGKCTHC9OPAFOK","","<img src=""img/set1/S1.jpg"" width=""540"" height = ""360"" style=""border:16px solid orange"">","null","","","","","","","","","",""
"null","","html-keyboard-response","279","184771","0.0-279.0","3ATTHHXXWBAUIC425HIV4ACGOIYIXP","AV5FCKI1TTSKR","3RSBJ6YZECCLSSQQCGKCTHC9OPAFOK","","","null","","","","","","","","","",""
"788.6999998092651","","image-keyboard-response","280","185560","0.0-280.0","3ATTHHXXWBAUIC425HIV4ACGOIYIXP","AV5FCKI1TTSKR","3RSBJ6YZECCLSSQQCGKCTHC9OPAFOK","","img/set1/S3.jpg","72","3","random","72","random,structured_normal,structured_incentive,structured_load","4,2,2,3,1,2","2,4,3,1","true","","",""
"null","","html-keyboard-response","281","185926","0.0-281.0","3ATTHHXXWBAUIC425HIV4ACGOIYIXP","AV5FCKI1TTSKR","3RSBJ6YZECCLSSQQCGKCTHC9OPAFOK","","<img src=""img/set1/S3.jpg"" width=""540"" height = ""360"" style=""border:16px solid orange"">","null","","","","","","","","","",""
"null","","html-keyboard-response","282","186135","0.0-282.0","3ATTHHXXWBAUIC425HIV4ACGOIYIXP","AV5FCKI1TTSKR","3RSBJ6YZECCLSSQQCGKCTHC9OPAFOK","","","null","","","","","","","","","",""
"543.3000001907349","","image-keyboard-response","283","186679","0.0-283.0","3ATTHHXXWBAUIC425HIV4ACGOIYIXP","AV5FCKI1TTSKR","3RSBJ6YZECCLSSQQCGKCTHC9OPAFOK","","img/set1/S4.jpg","74","4","random","74","random,structured_normal,structured_incentive,structured_load","4,2,2,3,1,2","2,4,3,1","true","","",""
"null","","html-keyboard-response","284","187042","0.0-284.0","3ATTHHXXWBAUIC425HIV4ACGOIYIXP","AV5FCKI1TTSKR","3RSBJ6YZECCLSSQQCGKCTHC9OPAFOK","","<img src=""img/set1/S4.jpg"" width=""540"" height = ""360"" style=""border:16px solid orange"">","null","","","","","","","","","",""
"null","","html-keyboard-response","285","187248","0.0-285.0","3ATTHHXXWBAUIC425HIV4ACGOIYIXP","AV5FCKI1TTSKR","3RSBJ6YZECCLSSQQCGKCTHC9OPAFOK","","","null","","","","","","","","","",""
"675.6000001430511","","image-keyboard-response","286","187925","0.0-286.0","3ATTHHXXWBAUIC425HIV4ACGOIYIXP","AV5FCKI1TTSKR","3RSBJ6YZECCLSSQQCGKCTHC9OPAFOK","","img/set1/S1.jpg","83","1","random","83","random,structured_normal,structured_incentive,structured_load","4,2,2,3,1,2","2,4,3,1","true","","",""
"null","","html-keyboard-response","287","188290","0.0-287.0","3ATTHHXXWBAUIC425HIV4ACGOIYIXP","AV5FCKI1TTSKR","3RSBJ6YZECCLSSQQCGKCTHC9OPAFOK","","<img src=""img/set1/S1.jpg"" width=""540"" height = ""360"" style=""border:16px solid orange"">","null","","","","","","","","","",""
"null","","html-keyboard-response","288","188500","0.0-288.0","3ATTHHXXWBAUIC425HIV4ACGOIYIXP","AV5FCKI1TTSKR","3RSBJ6YZECCLSSQQCGKCTHC9OPAFOK","","","null","","","","","","","","","",""
"542.6000001430511","","image-keyboard-response","289","189044","0.0-289.0","3ATTHHXXWBAUIC425HIV4ACGOIYIXP","AV5FCKI1TTSKR","3RSBJ6YZECCLSSQQCGKCTHC9OPAFOK","","img/set1/S1.jpg","83","1","random","83","random,structured_normal,structured_incentive,structured_load","4,2,2,3,1,2","2,4,3,1","true","","",""
"null","","html-keyboard-response","290","189406","0.0-290.0","3ATTHHXXWBAUIC425HIV4ACGOIYIXP","AV5FCKI1TTSKR","3RSBJ6YZECCLSSQQCGKCTHC9OPAFOK","","<img src=""img/set1/S1.jpg"" width=""540"" height = ""360"" style=""border:16px solid orange"">","null","","","","","","","","","",""
"null","","html-keyboard-response","291","189612","0.0-291.0","3ATTHHXXWBAUIC425HIV4ACGOIYIXP","AV5FCKI1TTSKR","3RSBJ6YZECCLSSQQCGKCTHC9OPAFOK","","","null","","","","","","","","","",""
"616.6999998092651","","image-keyboard-response","292","190229","0.0-292.0","3ATTHHXXWBAUIC425HIV4ACGOIYIXP","AV5FCKI1TTSKR","3RSBJ6YZECCLSSQQCGKCTHC9OPAFOK","","img/set1/S4.jpg","74","4","random","74","random,structured_normal,structured_incentive,structured_load","4,2,2,3,1,2","2,4,3,1","true","","",""
"null","","html-keyboard-response","293","190594","0.0-293.0","3ATTHHXXWBAUIC425HIV4ACGOIYIXP","AV5FCKI1TTSKR","3RSBJ6YZECCLSSQQCGKCTHC9OPAFOK","","<img src=""img/set1/S4.jpg"" width=""540"" height = ""360"" style=""border:16px solid orange"">","null","","","","","","","","","",""
"null","","html-keyboard-response","294","190798","0.0-294.0","3ATTHHXXWBAUIC425HIV4ACGOIYIXP","AV5FCKI1TTSKR","3RSBJ6YZECCLSSQQCGKCTHC9OPAFOK","","","null","","","","","","","","","",""
"481.2000000476837","","image-keyboard-response","295","191280","0.0-295.0","3ATTHHXXWBAUIC425HIV4ACGOIYIXP","AV5FCKI1TTSKR","3RSBJ6YZECCLSSQQCGKCTHC9OPAFOK","","img/set1/S4.jpg","74","4","random","74","random,structured_normal,structured_incentive,structured_load","4,2,2,3,1,2","2,4,3,1","true","","",""
"null","","html-keyboard-response","296","191637","0.0-296.0","3ATTHHXXWBAUIC425HIV4ACGOIYIXP","AV5FCKI1TTSKR","3RSBJ6YZECCLSSQQCGKCTHC9OPAFOK","","<img src=""img/set1/S4.jpg"" width=""540"" height = ""360"" style=""border:16px solid orange"">","null","","","","","","","","","",""
"null","","html-keyboard-response","297","191846","0.0-297.0","3ATTHHXXWBAUIC425HIV4ACGOIYIXP","AV5FCKI1TTSKR","3RSBJ6YZECCLSSQQCGKCTHC9OPAFOK","","","null","","","","","","","","","",""
"603.9000000953674","","image-keyboard-response","298","192451","0.0-298.0","3ATTHHXXWBAUIC425HIV4ACGOIYIXP","AV5FCKI1TTSKR","3RSBJ6YZECCLSSQQCGKCTHC9OPAFOK","","img/set1/S3.jpg","72","3","random","72","random,structured_normal,structured_incentive,structured_load","4,2,2,3,1,2","2,4,3,1","true","","",""
"null","","html-keyboard-response","299","192814","0.0-299.0","3ATTHHXXWBAUIC425HIV4ACGOIYIXP","AV5FCKI1TTSKR","3RSBJ6YZECCLSSQQCGKCTHC9OPAFOK","","<img src=""img/set1/S3.jpg"" width=""540"" height = ""360"" style=""border:16px solid orange"">","null","","","","","","","","","",""
"null","","html-keyboard-response","300","193018","0.0-300.0","3ATTHHXXWBAUIC425HIV4ACGOIYIXP","AV5FCKI1TTSKR","3RSBJ6YZECCLSSQQCGKCTHC9OPAFOK","","","null","","","","","","","","","",""
"603.5","","image-keyboard-response","301","193623","0.0-301.0","3ATTHHXXWBAUIC425HIV4ACGOIYIXP","AV5FCKI1TTSKR","3RSBJ6YZECCLSSQQCGKCTHC9OPAFOK","","img/set1/S1.jpg","83","1","random","83","random,structured_normal,structured_incentive,structured_load","4,2,2,3,1,2","2,4,3,1","true","","",""
"null","","html-keyboard-response","302","193984","0.0-302.0","3ATTHHXXWBAUIC425HIV4ACGOIYIXP","AV5FCKI1TTSKR","3RSBJ6YZECCLSSQQCGKCTHC9OPAFOK","","<img src=""img/set1/S1.jpg"" width=""540"" height = ""360"" style=""border:16px solid orange"">","null","","","","","","","","","",""
"null","","html-keyboard-response","303","194193","0.0-303.0","3ATTHHXXWBAUIC425HIV4ACGOIYIXP","AV5FCKI1TTSKR","3RSBJ6YZECCLSSQQCGKCTHC9OPAFOK","","","null","","","","","","","","","",""
"565.4000000953674","","image-keyboard-response","304","194760","0.0-304.0","3ATTHHXXWBAUIC425HIV4ACGOIYIXP","AV5FCKI1TTSKR","3RSBJ6YZECCLSSQQCGKCTHC9OPAFOK","","img/set1/S3.jpg","72","3","random","72","random,structured_normal,structured_incentive,structured_load","4,2,2,3,1,2","2,4,3,1","true","","",""
"null","","html-keyboard-response","305","195127","0.0-305.0","3ATTHHXXWBAUIC425HIV4ACGOIYIXP","AV5FCKI1TTSKR","3RSBJ6YZECCLSSQQCGKCTHC9OPAFOK","","<img src=""img/set1/S3.jpg"" width=""540"" height = ""360"" style=""border:16px solid orange"">","null","","","","","","","","","",""
"null","","html-keyboard-response","306","195342","0.0-306.0","3ATTHHXXWBAUIC425HIV4ACGOIYIXP","AV5FCKI1TTSKR","3RSBJ6YZECCLSSQQCGKCTHC9OPAFOK","","","null","","","","","","","","","",""
"554.5","","image-keyboard-response","307","195897","0.0-307.0","3ATTHHXXWBAUIC425HIV4ACGOIYIXP","AV5FCKI1TTSKR","3RSBJ6YZECCLSSQQCGKCTHC9OPAFOK","","img/set1/S2.jpg","83","2","random","68","random,structured_normal,structured_incentive,structured_load","4,2,2,3,1,2","2,4,3,1","false","","",""
"null","","html-keyboard-response","308","196252","0.0-308.0","3ATTHHXXWBAUIC425HIV4ACGOIYIXP","AV5FCKI1TTSKR","3RSBJ6YZECCLSSQQCGKCTHC9OPAFOK","","<img src=""img/set1/S2.jpg"" width=""540"" height = ""360"">","null","","","","","","","","","",""
"null","","html-keyboard-response","309","196468","0.0-309.0","3ATTHHXXWBAUIC425HIV4ACGOIYIXP","AV5FCKI1TTSKR","3RSBJ6YZECCLSSQQCGKCTHC9OPAFOK","","","null","","","","","","","","","",""
"473.10000014305115","","image-keyboard-response","310","196942","0.0-310.0","3ATTHHXXWBAUIC425HIV4ACGOIYIXP","AV5FCKI1TTSKR","3RSBJ6YZECCLSSQQCGKCTHC9OPAFOK","","img/set1/S2.jpg","68","2","random","68","random,structured_normal,structured_incentive,structured_load","4,2,2,3,1,2","2,4,3,1","true","","",""
"null","","html-keyboard-response","311","197297","0.0-311.0","3ATTHHXXWBAUIC425HIV4ACGOIYIXP","AV5FCKI1TTSKR","3RSBJ6YZECCLSSQQCGKCTHC9OPAFOK","","<img src=""img/set1/S2.jpg"" width=""540"" height = ""360"" style=""border:16px solid orange"">","null","","","","","","","","","",""
"null","","html-keyboard-response","312","197506","0.0-312.0","3ATTHHXXWBAUIC425HIV4ACGOIYIXP","AV5FCKI1TTSKR","3RSBJ6YZECCLSSQQCGKCTHC9OPAFOK","","","null","","","","","","","","","",""
"401.59999990463257","","image-keyboard-response","313","197909","0.0-313.0","3ATTHHXXWBAUIC425HIV4ACGOIYIXP","AV5FCKI1TTSKR","3RSBJ6YZECCLSSQQCGKCTHC9OPAFOK","","img/set1/S2.jpg","68","2","random","68","random,structured_normal,structured_incentive,structured_load","4,2,2,3,1,2","2,4,3,1","true","","",""
"null","","html-keyboard-response","314","198263","0.0-314.0","3ATTHHXXWBAUIC425HIV4ACGOIYIXP","AV5FCKI1TTSKR","3RSBJ6YZECCLSSQQCGKCTHC9OPAFOK","","<img src=""img/set1/S2.jpg"" width=""540"" height = ""360"" style=""border:16px solid orange"">","null","","","","","","","","","",""
"null","","html-keyboard-response","315","198471","0.0-315.0","3ATTHHXXWBAUIC425HIV4ACGOIYIXP","AV5FCKI1TTSKR","3RSBJ6YZECCLSSQQCGKCTHC9OPAFOK","","","null","","","","","","","","","",""
"419.2999999523163","","image-keyboard-response","316","198892","0.0-316.0","3ATTHHXXWBAUIC425HIV4ACGOIYIXP","AV5FCKI1TTSKR","3RSBJ6YZECCLSSQQCGKCTHC9OPAFOK","","img/set1/S2.jpg","68","2","random","68","random,structured_normal,structured_incentive,structured_load","4,2,2,3,1,2","2,4,3,1","true","","",""
"null","","html-keyboard-response","317","199255","0.0-317.0","3ATTHHXXWBAUIC425HIV4ACGOIYIXP","AV5FCKI1TTSKR","3RSBJ6YZECCLSSQQCGKCTHC9OPAFOK","","<img src=""img/set1/S2.jpg"" width=""540"" height = ""360"" style=""border:16px solid orange"">","null","","","","","","","","","",""
"null","","html-keyboard-response","318","199468","0.0-318.0","3ATTHHXXWBAUIC425HIV4ACGOIYIXP","AV5FCKI1TTSKR","3RSBJ6YZECCLSSQQCGKCTHC9OPAFOK","","","null","","","","","","","","","",""
"427.59999990463257","","image-keyboard-response","319","199896","0.0-319.0","3ATTHHXXWBAUIC425HIV4ACGOIYIXP","AV5FCKI1TTSKR","3RSBJ6YZECCLSSQQCGKCTHC9OPAFOK","","img/set1/S2.jpg","68","2","random","68","random,structured_normal,structured_incentive,structured_load","4,2,2,3,1,2","2,4,3,1","true","","",""
"null","","html-keyboard-response","320","200261","0.0-320.0","3ATTHHXXWBAUIC425HIV4ACGOIYIXP","AV5FCKI1TTSKR","3RSBJ6YZECCLSSQQCGKCTHC9OPAFOK","","<img src=""img/set1/S2.jpg"" width=""540"" height = ""360"" style=""border:16px solid orange"">","null","","","","","","","","","",""
"null","","html-keyboard-response","321","200470","0.0-321.0","3ATTHHXXWBAUIC425HIV4ACGOIYIXP","AV5FCKI1TTSKR","3RSBJ6YZECCLSSQQCGKCTHC9OPAFOK","","","null","","","","","","","","","",""
"552.3999998569489","","image-keyboard-response","322","201024","0.0-322.0","3ATTHHXXWBAUIC425HIV4ACGOIYIXP","AV5FCKI1TTSKR","3RSBJ6YZECCLSSQQCGKCTHC9OPAFOK","","img/set1/S3.jpg","72","3","random","72","random,structured_normal,structured_incentive,structured_load","4,2,2,3,1,2","2,4,3,1","true","","",""
"null","","html-keyboard-response","323","201377","0.0-323.0","3ATTHHXXWBAUIC425HIV4ACGOIYIXP","AV5FCKI1TTSKR","3RSBJ6YZECCLSSQQCGKCTHC9OPAFOK","","<img src=""img/set1/S3.jpg"" width=""540"" height = ""360"" style=""border:16px solid orange"">","null","","","","","","","","","",""
"null","","html-keyboard-response","324","201592","0.0-324.0","3ATTHHXXWBAUIC425HIV4ACGOIYIXP","AV5FCKI1TTSKR","3RSBJ6YZECCLSSQQCGKCTHC9OPAFOK","","","null","","","","","","","","","",""
"547.2999999523163","","image-keyboard-response","325","202140","0.0-325.0","3ATTHHXXWBAUIC425HIV4ACGOIYIXP","AV5FCKI1TTSKR","3RSBJ6YZECCLSSQQCGKCTHC9OPAFOK","","img/set1/S1.jpg","83","1","random","83","random,structured_normal,structured_incentive,structured_load","4,2,2,3,1,2","2,4,3,1","true","","",""
"null","","html-keyboard-response","326","202499","0.0-326.0","3ATTHHXXWBAUIC425HIV4ACGOIYIXP","AV5FCKI1TTSKR","3RSBJ6YZECCLSSQQCGKCTHC9OPAFOK","","<img src=""img/set1/S1.jpg"" width=""540"" height = ""360"" style=""border:16px solid orange"">","null","","","","","","","","","",""
"null","","html-keyboard-response","327","202702","0.0-327.0","3ATTHHXXWBAUIC425HIV4ACGOIYIXP","AV5FCKI1TTSKR","3RSBJ6YZECCLSSQQCGKCTHC9OPAFOK","","","null","","","","","","","","","",""
"393.90000009536743","","image-keyboard-response","328","203097","0.0-328.0","3ATTHHXXWBAUIC425HIV4ACGOIYIXP","AV5FCKI1TTSKR","3RSBJ6YZECCLSSQQCGKCTHC9OPAFOK","","img/set1/S1.jpg","83","1","random","83","random,structured_normal,structured_incentive,structured_load","4,2,2,3,1,2","2,4,3,1","true","","",""
"null","","html-keyboard-response","329","203458","0.0-329.0","3ATTHHXXWBAUIC425HIV4ACGOIYIXP","AV5FCKI1TTSKR","3RSBJ6YZECCLSSQQCGKCTHC9OPAFOK","","<img src=""img/set1/S1.jpg"" width=""540"" height = ""360"" style=""border:16px solid orange"">","null","","","","","","","","","",""
"null","","html-keyboard-response","330","203667","0.0-330.0","3ATTHHXXWBAUIC425HIV4ACGOIYIXP","AV5FCKI1TTSKR","3RSBJ6YZECCLSSQQCGKCTHC9OPAFOK","","","null","","","","","","","","","",""
"478.80000019073486","","image-keyboard-response","331","204147","0.0-331.0","3ATTHHXXWBAUIC425HIV4ACGOIYIXP","AV5FCKI1TTSKR","3RSBJ6YZECCLSSQQCGKCTHC9OPAFOK","","img/set1/S4.jpg","72","4","random","74","random,structured_normal,structured_incentive,structured_load","4,2,2,3,1,2","2,4,3,1","false","","",""
"null","","html-keyboard-response","332","204505","0.0-332.0","3ATTHHXXWBAUIC425HIV4ACGOIYIXP","AV5FCKI1TTSKR","3RSBJ6YZECCLSSQQCGKCTHC9OPAFOK","","<img src=""img/set1/S4.jpg"" width=""540"" height = ""360"">","null","","","","","","","","","",""
"null","","html-keyboard-response","333","204709","0.0-333.0","3ATTHHXXWBAUIC425HIV4ACGOIYIXP","AV5FCKI1TTSKR","3RSBJ6YZECCLSSQQCGKCTHC9OPAFOK","","","null","","","","","","","","","",""
"694.1000001430511","","image-keyboard-response","334","205404","0.0-334.0","3ATTHHXXWBAUIC425HIV4ACGOIYIXP","AV5FCKI1TTSKR","3RSBJ6YZECCLSSQQCGKCTHC9OPAFOK","","img/set1/S2.jpg","68","2","random","68","random,structured_normal,structured_incentive,structured_load","4,2,2,3,1,2","2,4,3,1","true","","",""
"null","","html-keyboard-response","335","205755","0.0-335.0","3ATTHHXXWBAUIC425HIV4ACGOIYIXP","AV5FCKI1TTSKR","3RSBJ6YZECCLSSQQCGKCTHC9OPAFOK","","<img src=""img/set1/S2.jpg"" width=""540"" height = ""360"" style=""border:16px solid orange"">","null","","","","","","","","","",""
"null","","html-keyboard-response","336","205964","0.0-336.0","3ATTHHXXWBAUIC425HIV4ACGOIYIXP","AV5FCKI1TTSKR","3RSBJ6YZECCLSSQQCGKCTHC9OPAFOK","","","null","","","","","","","","","",""
"461.09999990463257","","image-keyboard-response","337","206427","0.0-337.0","3ATTHHXXWBAUIC425HIV4ACGOIYIXP","AV5FCKI1TTSKR","3RSBJ6YZECCLSSQQCGKCTHC9OPAFOK","","img/set1/S3.jpg","72","3","random","72","random,structured_normal,structured_incentive,structured_load","4,2,2,3,1,2","2,4,3,1","true","","",""
"null","","html-keyboard-response","338","206788","0.0-338.0","3ATTHHXXWBAUIC425HIV4ACGOIYIXP","AV5FCKI1TTSKR","3RSBJ6YZECCLSSQQCGKCTHC9OPAFOK","","<img src=""img/set1/S3.jpg"" width=""540"" height = ""360"" style=""border:16px solid orange"">","null","","","","","","","","","",""
"null","","html-keyboard-response","339","206997","0.0-339.0","3ATTHHXXWBAUIC425HIV4ACGOIYIXP","AV5FCKI1TTSKR","3RSBJ6YZECCLSSQQCGKCTHC9OPAFOK","","","null","","","","","","","","","",""
"502.90000009536743","","image-keyboard-response","340","207501","0.0-340.0","3ATTHHXXWBAUIC425HIV4ACGOIYIXP","AV5FCKI1TTSKR","3RSBJ6YZECCLSSQQCGKCTHC9OPAFOK","","img/set1/S1.jpg","68","1","random","83","random,structured_normal,structured_incentive,structured_load","4,2,2,3,1,2","2,4,3,1","false","","",""
"null","","html-keyboard-response","341","207855","0.0-341.0","3ATTHHXXWBAUIC425HIV4ACGOIYIXP","AV5FCKI1TTSKR","3RSBJ6YZECCLSSQQCGKCTHC9OPAFOK","","<img src=""img/set1/S1.jpg"" width=""540"" height = ""360"">","null","","","","","","","","","",""
"null","","html-keyboard-response","342","208057","0.0-342.0","3ATTHHXXWBAUIC425HIV4ACGOIYIXP","AV5FCKI1TTSKR","3RSBJ6YZECCLSSQQCGKCTHC9OPAFOK","","","null","","","","","","","","","",""
"638","","image-keyboard-response","343","208696","0.0-343.0","3ATTHHXXWBAUIC425HIV4ACGOIYIXP","AV5FCKI1TTSKR","3RSBJ6YZECCLSSQQCGKCTHC9OPAFOK","","img/set1/S2.jpg","68","2","random","68","random,structured_normal,structured_incentive,structured_load","4,2,2,3,1,2","2,4,3,1","true","","",""
"null","","html-keyboard-response","344","209052","0.0-344.0","3ATTHHXXWBAUIC425HIV4ACGOIYIXP","AV5FCKI1TTSKR","3RSBJ6YZECCLSSQQCGKCTHC9OPAFOK","","<img src=""img/set1/S2.jpg"" width=""540"" height = ""360"" style=""border:16px solid orange"">","null","","","","","","","","","",""
"null","","html-keyboard-response","345","209261","0.0-345.0","3ATTHHXXWBAUIC425HIV4ACGOIYIXP","AV5FCKI1TTSKR","3RSBJ6YZECCLSSQQCGKCTHC9OPAFOK","","","null","","","","","","","","","",""
"584.5","","image-keyboard-response","346","209846","0.0-346.0","3ATTHHXXWBAUIC425HIV4ACGOIYIXP","AV5FCKI1TTSKR","3RSBJ6YZECCLSSQQCGKCTHC9OPAFOK","","img/set1/S1.jpg","83","1","random","83","random,structured_normal,structured_incentive,structured_load","4,2,2,3,1,2","2,4,3,1","true","","",""
"null","","html-keyboard-response","347","210201","0.0-347.0","3ATTHHXXWBAUIC425HIV4ACGOIYIXP","AV5FCKI1TTSKR","3RSBJ6YZECCLSSQQCGKCTHC9OPAFOK","","<img src=""img/set1/S1.jpg"" width=""540"" height = ""360"" style=""border:16px solid orange"">","null","","","","","","","","","",""
"null","","html-keyboard-response","348","210410","0.0-348.0","3ATTHHXXWBAUIC425HIV4ACGOIYIXP","AV5FCKI1TTSKR","3RSBJ6YZECCLSSQQCGKCTHC9OPAFOK","","","null","","","","","","","","","",""
"380.09999990463257","","image-keyboard-response","349","210791","0.0-349.0","3ATTHHXXWBAUIC425HIV4ACGOIYIXP","AV5FCKI1TTSKR","3RSBJ6YZECCLSSQQCGKCTHC9OPAFOK","","img/set1/S1.jpg","83","1","random","83","random,structured_normal,structured_incentive,structured_load","4,2,2,3,1,2","2,4,3,1","true","","",""
"null","","html-keyboard-response","350","211145","0.0-350.0","3ATTHHXXWBAUIC425HIV4ACGOIYIXP","AV5FCKI1TTSKR","3RSBJ6YZECCLSSQQCGKCTHC9OPAFOK","","<img src=""img/set1/S1.jpg"" width=""540"" height = ""360"" style=""border:16px solid orange"">","null","","","","","","","","","",""
"null","","html-keyboard-response","351","211359","0.0-351.0","3ATTHHXXWBAUIC425HIV4ACGOIYIXP","AV5FCKI1TTSKR","3RSBJ6YZECCLSSQQCGKCTHC9OPAFOK","","","null","","","","","","","","","",""
"568.8000001907349","","image-keyboard-response","352","211930","0.0-352.0","3ATTHHXXWBAUIC425HIV4ACGOIYIXP","AV5FCKI1TTSKR","3RSBJ6YZECCLSSQQCGKCTHC9OPAFOK","","img/set1/S3.jpg","72","3","random","72","random,structured_normal,structured_incentive,structured_load","4,2,2,3,1,2","2,4,3,1","true","","",""
"null","","html-keyboard-response","353","212294","0.0-353.0","3ATTHHXXWBAUIC425HIV4ACGOIYIXP","AV5FCKI1TTSKR","3RSBJ6YZECCLSSQQCGKCTHC9OPAFOK","","<img src=""img/set1/S3.jpg"" width=""540"" height = ""360"" style=""border:16px solid orange"">","null","","","","","","","","","",""
"null","","html-keyboard-response","354","212509","0.0-354.0","3ATTHHXXWBAUIC425HIV4ACGOIYIXP","AV5FCKI1TTSKR","3RSBJ6YZECCLSSQQCGKCTHC9OPAFOK","","","null","","","","","","","","","",""
"475.5","","image-keyboard-response","355","212986","0.0-355.0","3ATTHHXXWBAUIC425HIV4ACGOIYIXP","AV5FCKI1TTSKR","3RSBJ6YZECCLSSQQCGKCTHC9OPAFOK","","img/set1/S4.jpg","74","4","random","74","random,structured_normal,structured_incentive,structured_load","4,2,2,3,1,2","2,4,3,1","true","","",""
"null","","html-keyboard-response","356","213348","0.0-356.0","3ATTHHXXWBAUIC425HIV4ACGOIYIXP","AV5FCKI1TTSKR","3RSBJ6YZECCLSSQQCGKCTHC9OPAFOK","","<img src=""img/set1/S4.jpg"" width=""540"" height = ""360"" style=""border:16px solid orange"">","null","","","","","","","","","",""
"null","","html-keyboard-response","357","213564","0.0-357.0","3ATTHHXXWBAUIC425HIV4ACGOIYIXP","AV5FCKI1TTSKR","3RSBJ6YZECCLSSQQCGKCTHC9OPAFOK","","","null","","","","","","","","","",""
"435.69999980926514","","image-keyboard-response","358","214000","0.0-358.0","3ATTHHXXWBAUIC425HIV4ACGOIYIXP","AV5FCKI1TTSKR","3RSBJ6YZECCLSSQQCGKCTHC9OPAFOK","","img/set1/S4.jpg","74","4","random","74","random,structured_normal,structured_incentive,structured_load","4,2,2,3,1,2","2,4,3,1","true","","",""
"null","","html-keyboard-response","359","214358","0.0-359.0","3ATTHHXXWBAUIC425HIV4ACGOIYIXP","AV5FCKI1TTSKR","3RSBJ6YZECCLSSQQCGKCTHC9OPAFOK","","<img src=""img/set1/S4.jpg"" width=""540"" height = ""360"" style=""border:16px solid orange"">","null","","","","","","","","","",""
"null","","html-keyboard-response","360","214572","0.0-360.0","3ATTHHXXWBAUIC425HIV4ACGOIYIXP","AV5FCKI1TTSKR","3RSBJ6YZECCLSSQQCGKCTHC9OPAFOK","","","null","","","","","","","","","",""
"589.4000000953674","","image-keyboard-response","361","215163","0.0-361.0","3ATTHHXXWBAUIC425HIV4ACGOIYIXP","AV5FCKI1TTSKR","3RSBJ6YZECCLSSQQCGKCTHC9OPAFOK","","img/set1/S1.jpg","83","1","random","83","random,structured_normal,structured_incentive,structured_load","4,2,2,3,1,2","2,4,3,1","true","","",""
"null","","html-keyboard-response","362","215528","0.0-362.0","3ATTHHXXWBAUIC425HIV4ACGOIYIXP","AV5FCKI1TTSKR","3RSBJ6YZECCLSSQQCGKCTHC9OPAFOK","","<img src=""img/set1/S1.jpg"" width=""540"" height = ""360"" style=""border:16px solid orange"">","null","","","","","","","","","",""
"null","","html-keyboard-response","363","215738","0.0-363.0","3ATTHHXXWBAUIC425HIV4ACGOIYIXP","AV5FCKI1TTSKR","3RSBJ6YZECCLSSQQCGKCTHC9OPAFOK","","","null","","","","","","","","","",""
"505.30000019073486","","image-keyboard-response","364","216244","0.0-364.0","3ATTHHXXWBAUIC425HIV4ACGOIYIXP","AV5FCKI1TTSKR","3RSBJ6YZECCLSSQQCGKCTHC9OPAFOK","","img/set1/S3.jpg","68","3","random","72","random,structured_normal,structured_incentive,structured_load","4,2,2,3,1,2","2,4,3,1","false","","",""
"null","","html-keyboard-response","365","216609","0.0-365.0","3ATTHHXXWBAUIC425HIV4ACGOIYIXP","AV5FCKI1TTSKR","3RSBJ6YZECCLSSQQCGKCTHC9OPAFOK","","<img src=""img/set1/S3.jpg"" width=""540"" height = ""360"">","null","","","","","","","","","",""
"null","","html-keyboard-response","366","216811","0.0-366.0","3ATTHHXXWBAUIC425HIV4ACGOIYIXP","AV5FCKI1TTSKR","3RSBJ6YZECCLSSQQCGKCTHC9OPAFOK","","","null","","","","","","","","","",""
"587.4000000953674","","image-keyboard-response","367","217399","0.0-367.0","3ATTHHXXWBAUIC425HIV4ACGOIYIXP","AV5FCKI1TTSKR","3RSBJ6YZECCLSSQQCGKCTHC9OPAFOK","","img/set1/S4.jpg","74","4","random","74","random,structured_normal,structured_incentive,structured_load","4,2,2,3,1,2","2,4,3,1","true","","",""
"null","","html-keyboard-response","368","217760","0.0-368.0","3ATTHHXXWBAUIC425HIV4ACGOIYIXP","AV5FCKI1TTSKR","3RSBJ6YZECCLSSQQCGKCTHC9OPAFOK","","<img src=""img/set1/S4.jpg"" width=""540"" height = ""360"" style=""border:16px solid orange"">","null","","","","","","","","","",""
"null","","html-keyboard-response","369","217969","0.0-369.0","3ATTHHXXWBAUIC425HIV4ACGOIYIXP","AV5FCKI1TTSKR","3RSBJ6YZECCLSSQQCGKCTHC9OPAFOK","","","null","","","","","","","","","",""
"540.4000000953674","","image-keyboard-response","370","218510","0.0-370.0","3ATTHHXXWBAUIC425HIV4ACGOIYIXP","AV5FCKI1TTSKR","3RSBJ6YZECCLSSQQCGKCTHC9OPAFOK","","img/set1/S1.jpg","83","1","random","83","random,structured_normal,structured_incentive,structured_load","4,2,2,3,1,2","2,4,3,1","true","","",""
"null","","html-keyboard-response","371","218875","0.0-371.0","3ATTHHXXWBAUIC425HIV4ACGOIYIXP","AV5FCKI1TTSKR","3RSBJ6YZECCLSSQQCGKCTHC9OPAFOK","","<img src=""img/set1/S1.jpg"" width=""540"" height = ""360"" style=""border:16px solid orange"">","null","","","","","","","","","",""
"null","","html-keyboard-response","372","219084","0.0-372.0","3ATTHHXXWBAUIC425HIV4ACGOIYIXP","AV5FCKI1TTSKR","3RSBJ6YZECCLSSQQCGKCTHC9OPAFOK","","","null","","","","","","","","","",""
"424.30000019073486","","image-keyboard-response","373","219510","0.0-373.0","3ATTHHXXWBAUIC425HIV4ACGOIYIXP","AV5FCKI1TTSKR","3RSBJ6YZECCLSSQQCGKCTHC9OPAFOK","","img/set1/S3.jpg","72","3","random","72","random,structured_normal,structured_incentive,structured_load","4,2,2,3,1,2","2,4,3,1","true","","",""
"null","","html-keyboard-response","374","219875","0.0-374.0","3ATTHHXXWBAUIC425HIV4ACGOIYIXP","AV5FCKI1TTSKR","3RSBJ6YZECCLSSQQCGKCTHC9OPAFOK","","<img src=""img/set1/S3.jpg"" width=""540"" height = ""360"" style=""border:16px solid orange"">","null","","","","","","","","","",""
"null","","html-keyboard-response","375","220076","0.0-375.0","3ATTHHXXWBAUIC425HIV4ACGOIYIXP","AV5FCKI1TTSKR","3RSBJ6YZECCLSSQQCGKCTHC9OPAFOK","","","null","","","","","","","","","",""
"495.7999999523163","","image-keyboard-response","376","220573","0.0-376.0","3ATTHHXXWBAUIC425HIV4ACGOIYIXP","AV5FCKI1TTSKR","3RSBJ6YZECCLSSQQCGKCTHC9OPAFOK","","img/set1/S3.jpg","72","3","random","72","random,structured_normal,structured_incentive,structured_load","4,2,2,3,1,2","2,4,3,1","true","","",""
"null","","html-keyboard-response","377","220939","0.0-377.0","3ATTHHXXWBAUIC425HIV4ACGOIYIXP","AV5FCKI1TTSKR","3RSBJ6YZECCLSSQQCGKCTHC9OPAFOK","","<img src=""img/set1/S3.jpg"" width=""540"" height = ""360"" style=""border:16px solid orange"">","null","","","","","","","","","",""
"null","","html-keyboard-response","378","221149","0.0-378.0","3ATTHHXXWBAUIC425HIV4ACGOIYIXP","AV5FCKI1TTSKR","3RSBJ6YZECCLSSQQCGKCTHC9OPAFOK","","","null","","","","","","","","","",""
"607.8999998569489","","image-keyboard-response","379","221758","0.0-379.0","3ATTHHXXWBAUIC425HIV4ACGOIYIXP","AV5FCKI1TTSKR","3RSBJ6YZECCLSSQQCGKCTHC9OPAFOK","","img/set1/S2.jpg","68","2","random","68","random,structured_normal,structured_incentive,structured_load","4,2,2,3,1,2","2,4,3,1","true","","",""
"null","","html-keyboard-response","380","222122","0.0-380.0","3ATTHHXXWBAUIC425HIV4ACGOIYIXP","AV5FCKI1TTSKR","3RSBJ6YZECCLSSQQCGKCTHC9OPAFOK","","<img src=""img/set1/S2.jpg"" width=""540"" height = ""360"" style=""border:16px solid orange"">","null","","","","","","","","","",""
"null","","html-keyboard-response","381","222325","0.0-381.0","3ATTHHXXWBAUIC425HIV4ACGOIYIXP","AV5FCKI1TTSKR","3RSBJ6YZECCLSSQQCGKCTHC9OPAFOK","","","null","","","","","","","","","",""
"564.9000000953674","","image-keyboard-response","382","222891","0.0-382.0","3ATTHHXXWBAUIC425HIV4ACGOIYIXP","AV5FCKI1TTSKR","3RSBJ6YZECCLSSQQCGKCTHC9OPAFOK","","img/set1/S3.jpg","72","3","random","72","random,structured_normal,structured_incentive,structured_load","4,2,2,3,1,2","2,4,3,1","true","","",""
"null","","html-keyboard-response","383","223245","0.0-383.0","3ATTHHXXWBAUIC425HIV4ACGOIYIXP","AV5FCKI1TTSKR","3RSBJ6YZECCLSSQQCGKCTHC9OPAFOK","","<img src=""img/set1/S3.jpg"" width=""540"" height = ""360"" style=""border:16px solid orange"">","null","","","","","","","","","",""
"null","","html-keyboard-response","384","223453","0.0-384.0","3ATTHHXXWBAUIC425HIV4ACGOIYIXP","AV5FCKI1TTSKR","3RSBJ6YZECCLSSQQCGKCTHC9OPAFOK","","","null","","","","","","","","","",""
"519.1999998092651","","image-keyboard-response","385","223973","0.0-385.0","3ATTHHXXWBAUIC425HIV4ACGOIYIXP","AV5FCKI1TTSKR","3RSBJ6YZECCLSSQQCGKCTHC9OPAFOK","","img/set1/S4.jpg","74","4","random","74","random,structured_normal,structured_incentive,structured_load","4,2,2,3,1,2","2,4,3,1","true","","",""
"null","","html-keyboard-response","386","224336","0.0-386.0","3ATTHHXXWBAUIC425HIV4ACGOIYIXP","AV5FCKI1TTSKR","3RSBJ6YZECCLSSQQCGKCTHC9OPAFOK","","<img src=""img/set1/S4.jpg"" width=""540"" height = ""360"" style=""border:16px solid orange"">","null","","","","","","","","","",""
"null","","html-keyboard-response","387","224545","0.0-387.0","3ATTHHXXWBAUIC425HIV4ACGOIYIXP","AV5FCKI1TTSKR","3RSBJ6YZECCLSSQQCGKCTHC9OPAFOK","","","null","","","","","","","","","",""
"477","","image-keyboard-response","388","225023","0.0-388.0","3ATTHHXXWBAUIC425HIV4ACGOIYIXP","AV5FCKI1TTSKR","3RSBJ6YZECCLSSQQCGKCTHC9OPAFOK","","img/set1/S4.jpg","74","4","random","74","random,structured_normal,structured_incentive,structured_load","4,2,2,3,1,2","2,4,3,1","true","","",""
"null","","html-keyboard-response","389","225377","0.0-389.0","3ATTHHXXWBAUIC425HIV4ACGOIYIXP","AV5FCKI1TTSKR","3RSBJ6YZECCLSSQQCGKCTHC9OPAFOK","","<img src=""img/set1/S4.jpg"" width=""540"" height = ""360"" style=""border:16px solid orange"">","null","","","","","","","","","",""
"null","","html-keyboard-response","390","225588","0.0-390.0","3ATTHHXXWBAUIC425HIV4ACGOIYIXP","AV5FCKI1TTSKR","3RSBJ6YZECCLSSQQCGKCTHC9OPAFOK","","","null","","","","","","","","","",""
