"rt","url","trial_type","trial_index","time_elapsed","internal_node_id","view_history","stimulus","key_press","state","test_part","correct_response","order_block","order_chunk","correct","responses","bonus"
"4273.5","consent.html","external-html","0","4475","0.0-0.0","","","","","","","","","","",""
"18868.699999809265","","instructions","1","23346","0.0-1.0","[{""page_index"":0,""viewing_time"":1883.4000000953674},{""page_index"":1,""viewing_time"":3505.5999999046326},{""page_index"":2,""viewing_time"":1196.1999998092651},{""page_index"":3,""viewing_time"":7107.60000038147},{""page_index"":4,""viewing_time"":1532.2999997138977},{""page_index"":5,""viewing_time"":2168.9000000953674},{""page_index"":6,""viewing_time"":1473.9000000953674}]","","","","","","","","","",""
"2723.1000003814697","","instructions","2","26071","0.0-2.0","[{""page_index"":0,""viewing_time"":2722.7000002861023}]","","","","","","","","","",""
"1358.5","","instructions","3","27430","0.0-3.0","[{""page_index"":0,""viewing_time"":1358}]","","","","","","","","","",""
"null","","image-keyboard-response","4","29935","0.0-4.0","","img/set1/S3.jpg","null","3","random","72","random,structured_normal,structured_incentive,structured_load","2,1,3,4,2,3","false","",""
"null","","html-keyboard-response","5","30295","0.0-5.0","","<img src=""img/set1/S3.jpg"" width=""540"" height = ""360"">","null","","","","","","","",""
"null","","html-keyboard-response","6","30498","0.0-6.0","","","null","","","","","","","",""
"324.69999980926514","","image-keyboard-response","7","30824","0.0-7.0","","img/set1/S1.jpg","68","1","random","83","random,structured_normal,structured_incentive,structured_load","2,1,3,4,2,3","false","",""
"null","","html-keyboard-response","8","31183","0.0-8.0","","<img src=""img/set1/S1.jpg"" width=""540"" height = ""360"">","null","","","","","","","",""
"null","","html-keyboard-response","9","31385","0.0-9.0","","","null","","","","","","","",""
"284.90000009536743","","image-keyboard-response","10","31671","0.0-10.0","","img/set1/S1.jpg","68","1","random","83","random,structured_normal,structured_incentive,structured_load","2,1,3,4,2,3","false","",""
"null","","html-keyboard-response","11","32024","0.0-11.0","","<img src=""img/set1/S1.jpg"" width=""540"" height = ""360"">","null","","","","","","","",""
"null","","html-keyboard-response","12","32225","0.0-12.0","","","null","","","","","","","",""
"289.69999980926514","","image-keyboard-response","13","32516","0.0-13.0","","img/set1/S2.jpg","68","2","random","68","random,structured_normal,structured_incentive,structured_load","2,1,3,4,2,3","true","",""
"null","","html-keyboard-response","14","32874","0.0-14.0","","<img src=""img/set1/S2.jpg"" width=""540"" height = ""360"" style=""border:16px solid orange"">","null","","","","","","","",""
"null","","html-keyboard-response","15","33075","0.0-15.0","","","null","","","","","","","",""
"722.9000000953674","","image-keyboard-response","16","33799","0.0-16.0","","img/set1/S1.jpg","72","1","random","83","random,structured_normal,structured_incentive,structured_load","2,1,3,4,2,3","false","",""
"null","","html-keyboard-response","17","34161","0.0-17.0","","<img src=""img/set1/S1.jpg"" width=""540"" height = ""360"">","null","","","","","","","",""
"null","","html-keyboard-response","18","34365","0.0-18.0","","","null","","","","","","","",""
"920","","image-keyboard-response","19","35286","0.0-19.0","","img/set1/S4.jpg","83","4","random","74","random,structured_normal,structured_incentive,structured_load","2,1,3,4,2,3","false","",""
"null","","html-keyboard-response","20","35641","0.0-20.0","","<img src=""img/set1/S4.jpg"" width=""540"" height = ""360"">","null","","","","","","","",""
"null","","html-keyboard-response","21","35853","0.0-21.0","","","null","","","","","","","",""
"156.2999997138977","","image-keyboard-response","22","36011","0.0-22.0","","img/set1/S2.jpg","68","2","random","68","random,structured_normal,structured_incentive,structured_load","2,1,3,4,2,3","true","",""
"null","","html-keyboard-response","23","36370","0.0-23.0","","<img src=""img/set1/S2.jpg"" width=""540"" height = ""360"" style=""border:16px solid orange"">","null","","","","","","","",""
"null","","html-keyboard-response","24","36600","0.0-24.0","","","null","","","","","","","",""
"20.09999990463257","","image-keyboard-response","25","36621","0.0-25.0","","img/set1/S4.jpg","74","4","random","74","random,structured_normal,structured_incentive,structured_load","2,1,3,4,2,3","true","",""
"null","","html-keyboard-response","26","36985","0.0-26.0","","<img src=""img/set1/S4.jpg"" width=""540"" height = ""360"" style=""border:16px solid orange"">","null","","","","","","","",""
"null","","html-keyboard-response","27","37196","0.0-27.0","","","null","","","","","","","",""
"221.80000019073486","","image-keyboard-response","28","37419","0.0-28.0","","img/set1/S1.jpg","68","1","random","83","random,structured_normal,structured_incentive,structured_load","2,1,3,4,2,3","false","",""
"null","","html-keyboard-response","29","37786","0.0-29.0","","<img src=""img/set1/S1.jpg"" width=""540"" height = ""360"">","null","","","","","","","",""
"null","","html-keyboard-response","30","37987","0.0-30.0","","","null","","","","","","","",""
"2.0999999046325684","","image-keyboard-response","31","37991","0.0-31.0","","img/set1/S1.jpg","68","1","random","83","random,structured_normal,structured_incentive,structured_load","2,1,3,4,2,3","false","",""
"null","","html-keyboard-response","32","38342","0.0-32.0","","<img src=""img/set1/S1.jpg"" width=""540"" height = ""360"">","null","","","","","","","",""
"null","","html-keyboard-response","33","38543","0.0-33.0","","","null","","","","","","","",""
"213.2999997138977","","image-keyboard-response","34","38758","0.0-34.0","","img/set1/S3.jpg","83","3","random","72","random,structured_normal,structured_incentive,structured_load","2,1,3,4,2,3","false","",""
"null","","html-keyboard-response","35","39117","0.0-35.0","","<img src=""img/set1/S3.jpg"" width=""540"" height = ""360"">","null","","","","","","","",""
"null","","html-keyboard-response","36","39323","0.0-36.0","","","null","","","","","","","",""
"780.5","","image-keyboard-response","37","40105","0.0-37.0","","img/set1/S4.jpg","72","4","random","74","random,structured_normal,structured_incentive,structured_load","2,1,3,4,2,3","false","",""
"null","","html-keyboard-response","38","40484","0.0-38.0","","<img src=""img/set1/S4.jpg"" width=""540"" height = ""360"">","null","","","","","","","",""
"null","","html-keyboard-response","39","40687","0.0-39.0","","","null","","","","","","","",""
"147.09999990463257","","image-keyboard-response","40","40835","0.0-40.0","","img/set1/S1.jpg","74","1","random","83","random,structured_normal,structured_incentive,structured_load","2,1,3,4,2,3","false","",""
"null","","html-keyboard-response","41","41188","0.0-41.0","","<img src=""img/set1/S1.jpg"" width=""540"" height = ""360"">","null","","","","","","","",""
"null","","html-keyboard-response","42","41389","0.0-42.0","","","null","","","","","","","",""
"50.40000009536743","","image-keyboard-response","43","41441","0.0-43.0","","img/set1/S4.jpg","74","4","random","74","random,structured_normal,structured_incentive,structured_load","2,1,3,4,2,3","true","",""
"null","","html-keyboard-response","44","41793","0.0-44.0","","<img src=""img/set1/S4.jpg"" width=""540"" height = ""360"" style=""border:16px solid orange"">","null","","","","","","","",""
"null","","html-keyboard-response","45","42016","0.0-45.0","","","null","","","","","","","",""
"695.0999999046326","","image-keyboard-response","46","42713","0.0-46.0","","img/set1/S3.jpg","72","3","random","72","random,structured_normal,structured_incentive,structured_load","2,1,3,4,2,3","true","",""
"null","","html-keyboard-response","47","43073","0.0-47.0","","<img src=""img/set1/S3.jpg"" width=""540"" height = ""360"" style=""border:16px solid orange"">","null","","","","","","","",""
"null","","html-keyboard-response","48","43280","0.0-48.0","","","null","","","","","","","",""
"9.899999618530273","","image-keyboard-response","49","43291","0.0-49.0","","img/set1/S3.jpg","68","3","random","72","random,structured_normal,structured_incentive,structured_load","2,1,3,4,2,3","false","",""
"null","","html-keyboard-response","50","43668","0.0-50.0","","<img src=""img/set1/S3.jpg"" width=""540"" height = ""360"">","null","","","","","","","",""
"null","","html-keyboard-response","51","43877","0.0-51.0","","","null","","","","","","","",""
"119.59999990463257","","image-keyboard-response","52","43998","0.0-52.0","","img/set1/S1.jpg","68","1","random","83","random,structured_normal,structured_incentive,structured_load","2,1,3,4,2,3","false","",""
"null","","html-keyboard-response","53","44350","0.0-53.0","","<img src=""img/set1/S1.jpg"" width=""540"" height = ""360"">","null","","","","","","","",""
"null","","html-keyboard-response","54","44602","0.0-54.0","","","null","","","","","","","",""
"88","","image-keyboard-response","55","44692","0.0-55.0","","img/set1/S3.jpg","68","3","random","72","random,structured_normal,structured_incentive,structured_load","2,1,3,4,2,3","false","",""
"null","","html-keyboard-response","56","45054","0.0-56.0","","<img src=""img/set1/S3.jpg"" width=""540"" height = ""360"">","null","","","","","","","",""
"null","","html-keyboard-response","57","45256","0.0-57.0","","","null","","","","","","","",""
"104.2000002861023","","image-keyboard-response","58","45361","0.0-58.0","","img/set1/S1.jpg","68","1","random","83","random,structured_normal,structured_incentive,structured_load","2,1,3,4,2,3","false","",""
"null","","html-keyboard-response","59","45726","0.0-59.0","","<img src=""img/set1/S1.jpg"" width=""540"" height = ""360"">","null","","","","","","","",""
"null","","html-keyboard-response","60","45939","0.0-60.0","","","null","","","","","","","",""
"11.600000381469727","","image-keyboard-response","61","45952","0.0-61.0","","img/set1/S3.jpg","74","3","random","72","random,structured_normal,structured_incentive,structured_load","2,1,3,4,2,3","false","",""
"null","","html-keyboard-response","62","46319","0.0-62.0","","<img src=""img/set1/S3.jpg"" width=""540"" height = ""360"">","null","","","","","","","",""
"null","","html-keyboard-response","63","46597","0.0-63.0","","","null","","","","","","","",""
"165.2000002861023","","image-keyboard-response","64","46763","0.0-64.0","","img/set1/S2.jpg","74","2","random","68","random,structured_normal,structured_incentive,structured_load","2,1,3,4,2,3","false","",""
"null","","html-keyboard-response","65","47115","0.0-65.0","","<img src=""img/set1/S2.jpg"" width=""540"" height = ""360"">","null","","","","","","","",""
"null","","html-keyboard-response","66","47317","0.0-66.0","","","null","","","","","","","",""
"56.90000009536743","","image-keyboard-response","67","47375","0.0-67.0","","img/set1/S3.jpg","74","3","random","72","random,structured_normal,structured_incentive,structured_load","2,1,3,4,2,3","false","",""
"null","","html-keyboard-response","68","47775","0.0-68.0","","<img src=""img/set1/S3.jpg"" width=""540"" height = ""360"">","null","","","","","","","",""
"null","","html-keyboard-response","69","47987","0.0-69.0","","","null","","","","","","","",""
"2","","image-keyboard-response","70","48007","0.0-70.0","","img/set1/S2.jpg","83","2","random","68","random,structured_normal,structured_incentive,structured_load","2,1,3,4,2,3","false","",""
"null","","html-keyboard-response","71","48373","0.0-71.0","","<img src=""img/set1/S2.jpg"" width=""540"" height = ""360"">","null","","","","","","","",""
"null","","html-keyboard-response","72","48578","0.0-72.0","","","null","","","","","","","",""
"70.5","","image-keyboard-response","73","48650","0.0-73.0","","img/set1/S1.jpg","83","1","random","83","random,structured_normal,structured_incentive,structured_load","2,1,3,4,2,3","true","",""
"null","","html-keyboard-response","74","49016","0.0-74.0","","<img src=""img/set1/S1.jpg"" width=""540"" height = ""360"" style=""border:16px solid orange"">","null","","","","","","","",""
"null","","html-keyboard-response","75","49220","0.0-75.0","","","null","","","","","","","",""
"105.5","","image-keyboard-response","76","49327","0.0-76.0","","img/set1/S3.jpg","68","3","random","72","random,structured_normal,structured_incentive,structured_load","2,1,3,4,2,3","false","",""
"null","","html-keyboard-response","77","49683","0.0-77.0","","<img src=""img/set1/S3.jpg"" width=""540"" height = ""360"">","null","","","","","","","",""
"null","","html-keyboard-response","78","49888","0.0-78.0","","","null","","","","","","","",""
"722.5","","image-keyboard-response","79","50612","0.0-79.0","","img/set1/S2.jpg","74","2","random","68","random,structured_normal,structured_incentive,structured_load","2,1,3,4,2,3","false","",""
"null","","html-keyboard-response","80","50970","0.0-80.0","","<img src=""img/set1/S2.jpg"" width=""540"" height = ""360"">","null","","","","","","","",""
"null","","html-keyboard-response","81","51174","0.0-81.0","","","null","","","","","","","",""
"345.7000002861023","","image-keyboard-response","82","51520","0.0-82.0","","img/set1/S2.jpg","74","2","random","68","random,structured_normal,structured_incentive,structured_load","2,1,3,4,2,3","false","",""
"null","","html-keyboard-response","83","51882","0.0-83.0","","<img src=""img/set1/S2.jpg"" width=""540"" height = ""360"">","null","","","","","","","",""
"null","","html-keyboard-response","84","52084","0.0-84.0","","","null","","","","","","","",""
"754.7000002861023","","image-keyboard-response","85","52840","0.0-85.0","","img/set1/S4.jpg","72","4","random","74","random,structured_normal,structured_incentive,structured_load","2,1,3,4,2,3","false","",""
"null","","html-keyboard-response","86","53199","0.0-86.0","","<img src=""img/set1/S4.jpg"" width=""540"" height = ""360"">","null","","","","","","","",""
"null","","html-keyboard-response","87","53411","0.0-87.0","","","null","","","","","","","",""
"164.09999990463257","","image-keyboard-response","88","53577","0.0-88.0","","img/set1/S4.jpg","83","4","random","74","random,structured_normal,structured_incentive,structured_load","2,1,3,4,2,3","false","",""
"null","","html-keyboard-response","89","53943","0.0-89.0","","<img src=""img/set1/S4.jpg"" width=""540"" height = ""360"">","null","","","","","","","",""
"null","","html-keyboard-response","90","54150","0.0-90.0","","","null","","","","","","","",""
"510.8999996185303","","image-keyboard-response","91","54662","0.0-91.0","","img/set1/S4.jpg","83","4","random","74","random,structured_normal,structured_incentive,structured_load","2,1,3,4,2,3","false","",""
"null","","html-keyboard-response","92","55014","0.0-92.0","","<img src=""img/set1/S4.jpg"" width=""540"" height = ""360"">","null","","","","","","","",""
"null","","html-keyboard-response","93","55215","0.0-93.0","","","null","","","","","","","",""
"279.40000009536743","","image-keyboard-response","94","55496","0.0-94.0","","img/set1/S2.jpg","74","2","random","68","random,structured_normal,structured_incentive,structured_load","2,1,3,4,2,3","false","",""
"null","","html-keyboard-response","95","55847","0.0-95.0","","<img src=""img/set1/S2.jpg"" width=""540"" height = ""360"">","null","","","","","","","",""
"null","","html-keyboard-response","96","56052","0.0-96.0","","","null","","","","","","","",""
"441.90000009536743","","image-keyboard-response","97","56495","0.0-97.0","","img/set1/S1.jpg","74","1","random","83","random,structured_normal,structured_incentive,structured_load","2,1,3,4,2,3","false","",""
"null","","html-keyboard-response","98","56856","0.0-98.0","","<img src=""img/set1/S1.jpg"" width=""540"" height = ""360"">","null","","","","","","","",""
"null","","html-keyboard-response","99","57063","0.0-99.0","","","null","","","","","","","",""
"201","","image-keyboard-response","100","57265","0.0-100.0","","img/set1/S4.jpg","68","4","random","74","random,structured_normal,structured_incentive,structured_load","2,1,3,4,2,3","false","",""
"null","","html-keyboard-response","101","57630","0.0-101.0","","<img src=""img/set1/S4.jpg"" width=""540"" height = ""360"">","null","","","","","","","",""
"null","","html-keyboard-response","102","57832","0.0-102.0","","","null","","","","","","","",""
"291.5","","image-keyboard-response","103","58125","0.0-103.0","","img/set1/S1.jpg","68","1","random","83","random,structured_normal,structured_incentive,structured_load","2,1,3,4,2,3","false","",""
"null","","html-keyboard-response","104","58484","0.0-104.0","","<img src=""img/set1/S1.jpg"" width=""540"" height = ""360"">","null","","","","","","","",""
"null","","html-keyboard-response","105","58705","0.0-105.0","","","null","","","","","","","",""
"52.40000009536743","","image-keyboard-response","106","58759","0.0-106.0","","img/set1/S3.jpg","68","3","random","72","random,structured_normal,structured_incentive,structured_load","2,1,3,4,2,3","false","",""
"null","","html-keyboard-response","107","59126","0.0-107.0","","<img src=""img/set1/S3.jpg"" width=""540"" height = ""360"">","null","","","","","","","",""
"null","","html-keyboard-response","108","59328","0.0-108.0","","","null","","","","","","","",""
"498.90000009536743","","image-keyboard-response","109","59828","0.0-109.0","","img/set1/S3.jpg","72","3","random","72","random,structured_normal,structured_incentive,structured_load","2,1,3,4,2,3","true","",""
"null","","html-keyboard-response","110","60181","0.0-110.0","","<img src=""img/set1/S3.jpg"" width=""540"" height = ""360"" style=""border:16px solid orange"">","null","","","","","","","",""
"null","","html-keyboard-response","111","60396","0.0-111.0","","","null","","","","","","","",""
"311.2999997138977","","image-keyboard-response","112","60709","0.0-112.0","","img/set1/S4.jpg","74","4","random","74","random,structured_normal,structured_incentive,structured_load","2,1,3,4,2,3","true","",""
"null","","html-keyboard-response","113","61061","0.0-113.0","","<img src=""img/set1/S4.jpg"" width=""540"" height = ""360"" style=""border:16px solid orange"">","null","","","","","","","",""
"null","","html-keyboard-response","114","61262","0.0-114.0","","","null","","","","","","","",""
"333.40000009536743","","image-keyboard-response","115","61597","0.0-115.0","","img/set1/S4.jpg","74","4","random","74","random,structured_normal,structured_incentive,structured_load","2,1,3,4,2,3","true","",""
"null","","html-keyboard-response","116","61949","0.0-116.0","","<img src=""img/set1/S4.jpg"" width=""540"" height = ""360"" style=""border:16px solid orange"">","null","","","","","","","",""
"null","","html-keyboard-response","117","62166","0.0-117.0","","","null","","","","","","","",""
"173.90000009536743","","image-keyboard-response","118","62341","0.0-118.0","","img/set1/S4.jpg","83","4","random","74","random,structured_normal,structured_incentive,structured_load","2,1,3,4,2,3","false","",""
"null","","html-keyboard-response","119","62704","0.0-119.0","","<img src=""img/set1/S4.jpg"" width=""540"" height = ""360"">","null","","","","","","","",""
"null","","html-keyboard-response","120","62906","0.0-120.0","","","null","","","","","","","",""
"525.1999998092651","","image-keyboard-response","121","63433","0.0-121.0","","img/set1/S4.jpg","83","4","random","74","random,structured_normal,structured_incentive,structured_load","2,1,3,4,2,3","false","",""
"null","","html-keyboard-response","122","63786","0.0-122.0","","<img src=""img/set1/S4.jpg"" width=""540"" height = ""360"">","null","","","","","","","",""
"null","","html-keyboard-response","123","63999","0.0-123.0","","","null","","","","","","","",""
"634","","image-keyboard-response","124","64635","0.0-124.0","","img/set1/S3.jpg","74","3","random","72","random,structured_normal,structured_incentive,structured_load","2,1,3,4,2,3","false","",""
"null","","html-keyboard-response","125","64990","0.0-125.0","","<img src=""img/set1/S3.jpg"" width=""540"" height = ""360"">","null","","","","","","","",""
"null","","html-keyboard-response","126","65193","0.0-126.0","","","null","","","","","","","",""
"287.19999980926514","","image-keyboard-response","127","65481","0.0-127.0","","img/set1/S2.jpg","68","2","random","68","random,structured_normal,structured_incentive,structured_load","2,1,3,4,2,3","true","",""
"null","","html-keyboard-response","128","65839","0.0-128.0","","<img src=""img/set1/S2.jpg"" width=""540"" height = ""360"" style=""border:16px solid orange"">","null","","","","","","","",""
"null","","html-keyboard-response","129","66044","0.0-129.0","","","null","","","","","","","",""
"365.6000003814697","","image-keyboard-response","130","66411","0.0-130.0","","img/set1/S2.jpg","72","2","random","68","random,structured_normal,structured_incentive,structured_load","2,1,3,4,2,3","false","",""
"null","","html-keyboard-response","131","66764","0.0-131.0","","<img src=""img/set1/S2.jpg"" width=""540"" height = ""360"">","null","","","","","","","",""
"null","","html-keyboard-response","132","66966","0.0-132.0","","","null","","","","","","","",""
"239.40000009536743","","image-keyboard-response","133","67207","0.0-133.0","","img/set1/S3.jpg","72","3","random","72","random,structured_normal,structured_incentive,structured_load","2,1,3,4,2,3","true","",""
"null","","html-keyboard-response","134","67682","0.0-134.0","","<img src=""img/set1/S3.jpg"" width=""540"" height = ""360"" style=""border:16px solid orange"">","null","","","","","","","",""
"null","","html-keyboard-response","135","67887","0.0-135.0","","","null","","","","","","","",""
"124.90000009536743","","image-keyboard-response","136","68014","0.0-136.0","","img/set1/S2.jpg","74","2","random","68","random,structured_normal,structured_incentive,structured_load","2,1,3,4,2,3","false","",""
"null","","html-keyboard-response","137","68375","0.0-137.0","","<img src=""img/set1/S2.jpg"" width=""540"" height = ""360"">","null","","","","","","","",""
"null","","html-keyboard-response","138","68613","0.0-138.0","","","null","","","","","","","",""
"232","","image-keyboard-response","139","68846","0.0-139.0","","img/set1/S2.jpg","74","2","random","68","random,structured_normal,structured_incentive,structured_load","2,1,3,4,2,3","false","",""
"null","","html-keyboard-response","140","69198","0.0-140.0","","<img src=""img/set1/S2.jpg"" width=""540"" height = ""360"">","null","","","","","","","",""
"null","","html-keyboard-response","141","69399","0.0-141.0","","","null","","","","","","","",""
"269","","image-keyboard-response","142","69669","0.0-142.0","","img/set1/S2.jpg","74","2","random","68","random,structured_normal,structured_incentive,structured_load","2,1,3,4,2,3","false","",""
"null","","html-keyboard-response","143","70022","0.0-143.0","","<img src=""img/set1/S2.jpg"" width=""540"" height = ""360"">","null","","","","","","","",""
"null","","html-keyboard-response","144","70228","0.0-144.0","","","null","","","","","","","",""
"150.5","","image-keyboard-response","145","70380","0.0-145.0","","img/set1/S4.jpg","74","4","random","74","random,structured_normal,structured_incentive,structured_load","2,1,3,4,2,3","true","",""
"null","","html-keyboard-response","146","70796","0.0-146.0","","<img src=""img/set1/S4.jpg"" width=""540"" height = ""360"" style=""border:16px solid orange"">","null","","","","","","","",""
"null","","html-keyboard-response","147","71014","0.0-147.0","","","null","","","","","","","",""
"119.7000002861023","","image-keyboard-response","148","71134","0.0-148.0","","img/set1/S1.jpg","83","1","random","83","random,structured_normal,structured_incentive,structured_load","2,1,3,4,2,3","true","",""
"null","","html-keyboard-response","149","71487","0.0-149.0","","<img src=""img/set1/S1.jpg"" width=""540"" height = ""360"" style=""border:16px solid orange"">","null","","","","","","","",""
"null","","html-keyboard-response","150","71703","0.0-150.0","","","null","","","","","","","",""
"555.9000000953674","","image-keyboard-response","151","72260","0.0-151.0","","img/set1/S1.jpg","83","1","random","83","random,structured_normal,structured_incentive,structured_load","2,1,3,4,2,3","true","",""
"null","","html-keyboard-response","152","72635","0.0-152.0","","<img src=""img/set1/S1.jpg"" width=""540"" height = ""360"" style=""border:16px solid orange"">","null","","","","","","","",""
"null","","html-keyboard-response","153","72838","0.0-153.0","","","null","","","","","","","",""
"454.59999990463257","","image-keyboard-response","154","73293","0.0-154.0","","img/set1/S3.jpg","74","3","random","72","random,structured_normal,structured_incentive,structured_load","2,1,3,4,2,3","false","",""
"null","","html-keyboard-response","155","73709","0.0-155.0","","<img src=""img/set1/S3.jpg"" width=""540"" height = ""360"">","null","","","","","","","",""
"null","","html-keyboard-response","156","73911","0.0-156.0","","","null","","","","","","","",""
"81.19999980926514","","image-keyboard-response","157","73994","0.0-157.0","","img/set1/S1.jpg","72","1","random","83","random,structured_normal,structured_incentive,structured_load","2,1,3,4,2,3","false","",""
"null","","html-keyboard-response","158","74356","0.0-158.0","","<img src=""img/set1/S1.jpg"" width=""540"" height = ""360"">","null","","","","","","","",""
"null","","html-keyboard-response","159","74689","0.0-159.0","","","null","","","","","","","",""
"292.5","","image-keyboard-response","160","74984","0.0-160.0","","img/set1/S3.jpg","72","3","random","72","random,structured_normal,structured_incentive,structured_load","2,1,3,4,2,3","true","",""
"null","","html-keyboard-response","161","75343","0.0-161.0","","<img src=""img/set1/S3.jpg"" width=""540"" height = ""360"" style=""border:16px solid orange"">","null","","","","","","","",""
"null","","html-keyboard-response","162","75580","0.0-162.0","","","null","","","","","","","",""
"250.09999990463257","","image-keyboard-response","163","75832","0.0-163.0","","img/set1/S1.jpg","72","1","random","83","random,structured_normal,structured_incentive,structured_load","2,1,3,4,2,3","false","",""
"null","","html-keyboard-response","164","76189","0.0-164.0","","<img src=""img/set1/S1.jpg"" width=""540"" height = ""360"">","null","","","","","","","",""
"null","","html-keyboard-response","165","76394","0.0-165.0","","","null","","","","","","","",""
"218.5","","image-keyboard-response","166","76614","0.0-166.0","","img/set1/S4.jpg","72","4","random","74","random,structured_normal,structured_incentive,structured_load","2,1,3,4,2,3","false","",""
"null","","html-keyboard-response","167","76967","0.0-167.0","","<img src=""img/set1/S4.jpg"" width=""540"" height = ""360"">","null","","","","","","","",""
"null","","html-keyboard-response","168","77175","0.0-168.0","","","null","","","","","","","",""
"55.799999713897705","","image-keyboard-response","169","77232","0.0-169.0","","img/set1/S2.jpg","72","2","random","68","random,structured_normal,structured_incentive,structured_load","2,1,3,4,2,3","false","",""
"null","","html-keyboard-response","170","77594","0.0-170.0","","<img src=""img/set1/S2.jpg"" width=""540"" height = ""360"">","null","","","","","","","",""
"null","","html-keyboard-response","171","77799","0.0-171.0","","","null","","","","","","","",""
"137.59999990463257","","image-keyboard-response","172","77938","0.0-172.0","","img/set1/S4.jpg","72","4","random","74","random,structured_normal,structured_incentive,structured_load","2,1,3,4,2,3","false","",""
"null","","html-keyboard-response","173","78333","0.0-173.0","","<img src=""img/set1/S4.jpg"" width=""540"" height = ""360"">","null","","","","","","","",""
"null","","html-keyboard-response","174","78588","0.0-174.0","","","null","","","","","","","",""
"93.5","","image-keyboard-response","175","78684","0.0-175.0","","img/set1/S4.jpg","72","4","random","74","random,structured_normal,structured_incentive,structured_load","2,1,3,4,2,3","false","",""
"null","","html-keyboard-response","176","79039","0.0-176.0","","<img src=""img/set1/S4.jpg"" width=""540"" height = ""360"">","null","","","","","","","",""
"null","","html-keyboard-response","177","79248","0.0-177.0","","","null","","","","","","","",""
"125.7000002861023","","image-keyboard-response","178","79374","0.0-178.0","","img/set1/S3.jpg","72","3","random","72","random,structured_normal,structured_incentive,structured_load","2,1,3,4,2,3","true","",""
"null","","html-keyboard-response","179","79743","0.0-179.0","","<img src=""img/set1/S3.jpg"" width=""540"" height = ""360"" style=""border:16px solid orange"">","null","","","","","","","",""
"null","","html-keyboard-response","180","79954","0.0-180.0","","","null","","","","","","","",""
"74.90000009536743","","image-keyboard-response","181","80030","0.0-181.0","","img/set1/S1.jpg","72","1","random","83","random,structured_normal,structured_incentive,structured_load","2,1,3,4,2,3","false","",""
"null","","html-keyboard-response","182","80383","0.0-182.0","","<img src=""img/set1/S1.jpg"" width=""540"" height = ""360"">","null","","","","","","","",""
"null","","html-keyboard-response","183","80596","0.0-183.0","","","null","","","","","","","",""
"69.40000009536743","","image-keyboard-response","184","80666","0.0-184.0","","img/set1/S4.jpg","72","4","random","74","random,structured_normal,structured_incentive,structured_load","2,1,3,4,2,3","false","",""
"null","","html-keyboard-response","185","81021","0.0-185.0","","<img src=""img/set1/S4.jpg"" width=""540"" height = ""360"">","null","","","","","","","",""
"null","","html-keyboard-response","186","81234","0.0-186.0","","","null","","","","","","","",""
"127.5","","image-keyboard-response","187","81362","0.0-187.0","","img/set1/S3.jpg","72","3","random","72","random,structured_normal,structured_incentive,structured_load","2,1,3,4,2,3","true","",""
"null","","html-keyboard-response","188","81736","0.0-188.0","","<img src=""img/set1/S3.jpg"" width=""540"" height = ""360"" style=""border:16px solid orange"">","null","","","","","","","",""
"null","","html-keyboard-response","189","81949","0.0-189.0","","","null","","","","","","","",""
"284.59999990463257","","image-keyboard-response","190","82235","0.0-190.0","","img/set1/S4.jpg","83","4","random","74","random,structured_normal,structured_incentive,structured_load","2,1,3,4,2,3","false","",""
"null","","html-keyboard-response","191","82610","0.0-191.0","","<img src=""img/set1/S4.jpg"" width=""540"" height = ""360"">","null","","","","","","","",""
"null","","html-keyboard-response","192","82818","0.0-192.0","","","null","","","","","","","",""
"427.19999980926514","","image-keyboard-response","193","83247","0.0-193.0","","img/set1/S3.jpg","68","3","random","72","random,structured_normal,structured_incentive,structured_load","2,1,3,4,2,3","false","",""
"null","","html-keyboard-response","194","83681","0.0-194.0","","<img src=""img/set1/S3.jpg"" width=""540"" height = ""360"">","null","","","","","","","",""
"null","","html-keyboard-response","195","83893","0.0-195.0","","","null","","","","","","","",""
"386.19999980926514","","image-keyboard-response","196","84282","0.0-196.0","","img/set1/S4.jpg","68","4","random","74","random,structured_normal,structured_incentive,structured_load","2,1,3,4,2,3","false","",""
"null","","html-keyboard-response","197","84659","0.0-197.0","","<img src=""img/set1/S4.jpg"" width=""540"" height = ""360"">","null","","","","","","","",""
"null","","html-keyboard-response","198","84870","0.0-198.0","","","null","","","","","","","",""
"430.69999980926514","","image-keyboard-response","199","85302","0.0-199.0","","img/set1/S3.jpg","72","3","random","72","random,structured_normal,structured_incentive,structured_load","2,1,3,4,2,3","true","",""
"null","","html-keyboard-response","200","85676","0.0-200.0","","<img src=""img/set1/S3.jpg"" width=""540"" height = ""360"" style=""border:16px solid orange"">","null","","","","","","","",""
"null","","html-keyboard-response","201","85879","0.0-201.0","","","null","","","","","","","",""
"149.40000009536743","","image-keyboard-response","202","86034","0.0-202.0","","img/set1/S1.jpg","72","1","random","83","random,structured_normal,structured_incentive,structured_load","2,1,3,4,2,3","false","",""
"null","","html-keyboard-response","203","86387","0.0-203.0","","<img src=""img/set1/S1.jpg"" width=""540"" height = ""360"">","null","","","","","","","",""
"null","","html-keyboard-response","204","86593","0.0-204.0","","","null","","","","","","","",""
"276.5","","image-keyboard-response","205","86871","0.0-205.0","","img/set1/S2.jpg","74","2","random","68","random,structured_normal,structured_incentive,structured_load","2,1,3,4,2,3","false","",""
"null","","html-keyboard-response","206","87244","0.0-206.0","","<img src=""img/set1/S2.jpg"" width=""540"" height = ""360"">","null","","","","","","","",""
"null","","html-keyboard-response","207","87451","0.0-207.0","","","null","","","","","","","",""
"314.40000009536743","","image-keyboard-response","208","87767","0.0-208.0","","img/set1/S1.jpg","72","1","random","83","random,structured_normal,structured_incentive,structured_load","2,1,3,4,2,3","false","",""
"null","","html-keyboard-response","209","88127","0.0-209.0","","<img src=""img/set1/S1.jpg"" width=""540"" height = ""360"">","null","","","","","","","",""
"null","","html-keyboard-response","210","88329","0.0-210.0","","","null","","","","","","","",""
"53.89999961853027","","image-keyboard-response","211","88385","0.0-211.0","","img/set1/S3.jpg","74","3","random","72","random,structured_normal,structured_incentive,structured_load","2,1,3,4,2,3","false","",""
"null","","html-keyboard-response","212","88762","0.0-212.0","","<img src=""img/set1/S3.jpg"" width=""540"" height = ""360"">","null","","","","","","","",""
"null","","html-keyboard-response","213","88966","0.0-213.0","","","null","","","","","","","",""
"362.90000009536743","","image-keyboard-response","214","89330","0.0-214.0","","img/set1/S1.jpg","72","1","random","83","random,structured_normal,structured_incentive,structured_load","2,1,3,4,2,3","false","",""
"null","","html-keyboard-response","215","89726","0.0-215.0","","<img src=""img/set1/S1.jpg"" width=""540"" height = ""360"">","null","","","","","","","",""
"null","","html-keyboard-response","216","89941","0.0-216.0","","","null","","","","","","","",""
"364.40000009536743","","image-keyboard-response","217","90307","0.0-217.0","","img/set1/S2.jpg","74","2","random","68","random,structured_normal,structured_incentive,structured_load","2,1,3,4,2,3","false","",""
"null","","html-keyboard-response","218","90687","0.0-218.0","","<img src=""img/set1/S2.jpg"" width=""540"" height = ""360"">","null","","","","","","","",""
"null","","html-keyboard-response","219","90895","0.0-219.0","","","null","","","","","","","",""
"293.80000019073486","","image-keyboard-response","220","91190","0.0-220.0","","img/set1/S2.jpg","72","2","random","68","random,structured_normal,structured_incentive,structured_load","2,1,3,4,2,3","false","",""
"null","","html-keyboard-response","221","91603","0.0-221.0","","<img src=""img/set1/S2.jpg"" width=""540"" height = ""360"">","null","","","","","","","",""
"null","","html-keyboard-response","222","91804","0.0-222.0","","","null","","","","","","","",""
"38.200000286102295","","image-keyboard-response","223","91843","0.0-223.0","","img/set1/S4.jpg","72","4","random","74","random,structured_normal,structured_incentive,structured_load","2,1,3,4,2,3","false","",""
"null","","html-keyboard-response","224","92202","0.0-224.0","","<img src=""img/set1/S4.jpg"" width=""540"" height = ""360"">","null","","","","","","","",""
"null","","html-keyboard-response","225","92408","0.0-225.0","","","null","","","","","","","",""
"78.89999961853027","","image-keyboard-response","226","92488","0.0-226.0","","img/set1/S1.jpg","72","1","random","83","random,structured_normal,structured_incentive,structured_load","2,1,3,4,2,3","false","",""
"null","","html-keyboard-response","227","92845","0.0-227.0","","<img src=""img/set1/S1.jpg"" width=""540"" height = ""360"">","null","","","","","","","",""
"null","","html-keyboard-response","228","93059","0.0-228.0","","","null","","","","","","","",""
"212.2000002861023","","image-keyboard-response","229","93332","0.0-229.0","","img/set1/S3.jpg","72","3","random","72","random,structured_normal,structured_incentive,structured_load","2,1,3,4,2,3","true","",""
"null","","html-keyboard-response","230","93688","0.0-230.0","","<img src=""img/set1/S3.jpg"" width=""540"" height = ""360"" style=""border:16px solid orange"">","null","","","","","","","",""
"null","","html-keyboard-response","231","93895","0.0-231.0","","","null","","","","","","","",""
"42.89999961853027","","image-keyboard-response","232","93939","0.0-232.0","","img/set1/S1.jpg","72","1","random","83","random,structured_normal,structured_incentive,structured_load","2,1,3,4,2,3","false","",""
"null","","html-keyboard-response","233","94293","0.0-233.0","","<img src=""img/set1/S1.jpg"" width=""540"" height = ""360"">","null","","","","","","","",""
"null","","html-keyboard-response","234","94494","0.0-234.0","","","null","","","","","","","",""
"174.40000009536743","","image-keyboard-response","235","94670","0.0-235.0","","img/set1/S2.jpg","74","2","random","68","random,structured_normal,structured_incentive,structured_load","2,1,3,4,2,3","false","",""
"null","","html-keyboard-response","236","95024","0.0-236.0","","<img src=""img/set1/S2.jpg"" width=""540"" height = ""360"">","null","","","","","","","",""
"null","","html-keyboard-response","237","95234","0.0-237.0","","","null","","","","","","","",""
"111.39999961853027","","image-keyboard-response","238","95346","0.0-238.0","","img/set1/S2.jpg","72","2","random","68","random,structured_normal,structured_incentive,structured_load","2,1,3,4,2,3","false","",""
"null","","html-keyboard-response","239","95707","0.0-239.0","","<img src=""img/set1/S2.jpg"" width=""540"" height = ""360"">","null","","","","","","","",""
"null","","html-keyboard-response","240","95912","0.0-240.0","","","null","","","","","","","",""
"11.699999809265137","","image-keyboard-response","241","95925","0.0-241.0","","img/set1/S2.jpg","72","2","random","68","random,structured_normal,structured_incentive,structured_load","2,1,3,4,2,3","false","",""
"null","","html-keyboard-response","242","96315","0.0-242.0","","<img src=""img/set1/S2.jpg"" width=""540"" height = ""360"">","null","","","","","","","",""
"null","","html-keyboard-response","243","96517","0.0-243.0","","","null","","","","","","","",""
"134.80000019073486","","image-keyboard-response","244","96654","0.0-244.0","","img/set1/S2.jpg","68","2","random","68","random,structured_normal,structured_incentive,structured_load","2,1,3,4,2,3","true","",""
"null","","html-keyboard-response","245","97015","0.0-245.0","","<img src=""img/set1/S2.jpg"" width=""540"" height = ""360"" style=""border:16px solid orange"">","null","","","","","","","",""
"null","","html-keyboard-response","246","97223","0.0-246.0","","","null","","","","","","","",""
"125.39999961853027","","image-keyboard-response","247","97349","0.0-247.0","","img/set1/S3.jpg","68","3","random","72","random,structured_normal,structured_incentive,structured_load","2,1,3,4,2,3","false","",""
"null","","html-keyboard-response","248","97723","0.0-248.0","","<img src=""img/set1/S3.jpg"" width=""540"" height = ""360"">","null","","","","","","","",""
"null","","html-keyboard-response","249","97935","0.0-249.0","","","null","","","","","","","",""
"115.60000038146973","","image-keyboard-response","250","98052","0.0-250.0","","img/set1/S4.jpg","83","4","random","74","random,structured_normal,structured_incentive,structured_load","2,1,3,4,2,3","false","",""
"null","","html-keyboard-response","251","98413","0.0-251.0","","<img src=""img/set1/S4.jpg"" width=""540"" height = ""360"">","null","","","","","","","",""
"null","","html-keyboard-response","252","98616","0.0-252.0","","","null","","","","","","","",""
"107.59999990463257","","image-keyboard-response","253","98725","0.0-253.0","","img/set1/S3.jpg","83","3","random","72","random,structured_normal,structured_incentive,structured_load","2,1,3,4,2,3","false","",""
"null","","html-keyboard-response","254","99078","0.0-254.0","","<img src=""img/set1/S3.jpg"" width=""540"" height = ""360"">","null","","","","","","","",""
"null","","html-keyboard-response","255","99310","0.0-255.0","","","null","","","","","","","",""
"102","","image-keyboard-response","256","99420","0.0-256.0","","img/set1/S4.jpg","68","4","random","74","random,structured_normal,structured_incentive,structured_load","2,1,3,4,2,3","false","",""
"null","","html-keyboard-response","257","99772","0.0-257.0","","<img src=""img/set1/S4.jpg"" width=""540"" height = ""360"">","null","","","","","","","",""
"null","","html-keyboard-response","258","99978","0.0-258.0","","","null","","","","","","","",""
"34.299999713897705","","image-keyboard-response","259","100014","0.0-259.0","","img/set1/S1.jpg","72","1","random","83","random,structured_normal,structured_incentive,structured_load","2,1,3,4,2,3","false","",""
"null","","html-keyboard-response","260","100367","0.0-260.0","","<img src=""img/set1/S1.jpg"" width=""540"" height = ""360"">","null","","","","","","","",""
"null","","html-keyboard-response","261","100577","0.0-261.0","","","null","","","","","","","",""
"107.59999990463257","","image-keyboard-response","262","100686","0.0-262.0","","img/set1/S3.jpg","72","3","random","72","random,structured_normal,structured_incentive,structured_load","2,1,3,4,2,3","true","",""
"null","","html-keyboard-response","263","101045","0.0-263.0","","<img src=""img/set1/S3.jpg"" width=""540"" height = ""360"" style=""border:16px solid orange"">","null","","","","","","","",""
"null","","html-keyboard-response","264","101252","0.0-264.0","","","null","","","","","","","",""
"219.5","","image-keyboard-response","265","101472","0.0-265.0","","img/set1/S1.jpg","72","1","random","83","random,structured_normal,structured_incentive,structured_load","2,1,3,4,2,3","false","",""
"null","","html-keyboard-response","266","101824","0.0-266.0","","<img src=""img/set1/S1.jpg"" width=""540"" height = ""360"">","null","","","","","","","",""
"null","","html-keyboard-response","267","102033","0.0-267.0","","","null","","","","","","","",""
"333.59999990463257","","image-keyboard-response","268","102368","0.0-268.0","","img/set1/S3.jpg","72","3","random","72","random,structured_normal,structured_incentive,structured_load","2,1,3,4,2,3","true","",""
"null","","html-keyboard-response","269","102738","0.0-269.0","","<img src=""img/set1/S3.jpg"" width=""540"" height = ""360"" style=""border:16px solid orange"">","null","","","","","","","",""
"null","","html-keyboard-response","270","102944","0.0-270.0","","","null","","","","","","","",""
"61.60000038146973","","image-keyboard-response","271","103007","0.0-271.0","","img/set1/S1.jpg","74","1","random","83","random,structured_normal,structured_incentive,structured_load","2,1,3,4,2,3","false","",""
"null","","html-keyboard-response","272","103360","0.0-272.0","","<img src=""img/set1/S1.jpg"" width=""540"" height = ""360"">","null","","","","","","","",""
"null","","html-keyboard-response","273","103561","0.0-273.0","","","null","","","","","","","",""
"32.10000038146973","","image-keyboard-response","274","103594","0.0-274.0","","img/set1/S2.jpg","83","2","random","68","random,structured_normal,structured_incentive,structured_load","2,1,3,4,2,3","false","",""
"null","","html-keyboard-response","275","103947","0.0-275.0","","<img src=""img/set1/S2.jpg"" width=""540"" height = ""360"">","null","","","","","","","",""
"null","","html-keyboard-response","276","104149","0.0-276.0","","","null","","","","","","","",""
"79.19999980926514","","image-keyboard-response","277","104230","0.0-277.0","","img/set1/S2.jpg","68","2","random","68","random,structured_normal,structured_incentive,structured_load","2,1,3,4,2,3","true","",""
"null","","html-keyboard-response","278","104587","0.0-278.0","","<img src=""img/set1/S2.jpg"" width=""540"" height = ""360"" style=""border:16px solid orange"">","null","","","","","","","",""
"null","","html-keyboard-response","279","104790","0.0-279.0","","","null","","","","","","","",""
"59.10000038146973","","image-keyboard-response","280","104850","0.0-280.0","","img/set1/S3.jpg","68","3","random","72","random,structured_normal,structured_incentive,structured_load","2,1,3,4,2,3","false","",""
"null","","html-keyboard-response","281","105217","0.0-281.0","","<img src=""img/set1/S3.jpg"" width=""540"" height = ""360"">","null","","","","","","","",""
"null","","html-keyboard-response","282","105427","0.0-282.0","","","null","","","","","","","",""
"63.60000038146973","","image-keyboard-response","283","105492","0.0-283.0","","img/set1/S1.jpg","68","1","random","83","random,structured_normal,structured_incentive,structured_load","2,1,3,4,2,3","false","",""
"null","","html-keyboard-response","284","105853","0.0-284.0","","<img src=""img/set1/S1.jpg"" width=""540"" height = ""360"">","null","","","","","","","",""
"null","","html-keyboard-response","285","106059","0.0-285.0","","","null","","","","","","","",""
"66.09999990463257","","image-keyboard-response","286","106126","0.0-286.0","","img/set1/S4.jpg","68","4","random","74","random,structured_normal,structured_incentive,structured_load","2,1,3,4,2,3","false","",""
"null","","html-keyboard-response","287","106489","0.0-287.0","","<img src=""img/set1/S4.jpg"" width=""540"" height = ""360"">","null","","","","","","","",""
"null","","html-keyboard-response","288","106699","0.0-288.0","","","null","","","","","","","",""
"139","","image-keyboard-response","289","106840","0.0-289.0","","img/set1/S1.jpg","72","1","random","83","random,structured_normal,structured_incentive,structured_load","2,1,3,4,2,3","false","",""
"null","","html-keyboard-response","290","107202","0.0-290.0","","<img src=""img/set1/S1.jpg"" width=""540"" height = ""360"">","null","","","","","","","",""
"null","","html-keyboard-response","291","107411","0.0-291.0","","","null","","","","","","","",""
"34.5","","image-keyboard-response","292","107446","0.0-292.0","","img/set1/S2.jpg","74","2","random","68","random,structured_normal,structured_incentive,structured_load","2,1,3,4,2,3","false","",""
"null","","html-keyboard-response","293","107807","0.0-293.0","","<img src=""img/set1/S2.jpg"" width=""540"" height = ""360"">","null","","","","","","","",""
"null","","html-keyboard-response","294","108009","0.0-294.0","","","null","","","","","","","",""
"260.80000019073486","","image-keyboard-response","295","108270","0.0-295.0","","img/set1/S3.jpg","72","3","random","72","random,structured_normal,structured_incentive,structured_load","2,1,3,4,2,3","true","",""
"null","","html-keyboard-response","296","108773","0.0-296.0","","<img src=""img/set1/S3.jpg"" width=""540"" height = ""360"" style=""border:16px solid orange"">","null","","","","","","","",""
"null","","html-keyboard-response","297","108976","0.0-297.0","","","null","","","","","","","",""
"211.10000038146973","","image-keyboard-response","298","109188","0.0-298.0","","img/set1/S1.jpg","72","1","random","83","random,structured_normal,structured_incentive,structured_load","2,1,3,4,2,3","false","",""
"null","","html-keyboard-response","299","109541","0.0-299.0","","<img src=""img/set1/S1.jpg"" width=""540"" height = ""360"">","null","","","","","","","",""
"null","","html-keyboard-response","300","109752","0.0-300.0","","","null","","","","","","","",""
"16.899999618530273","","image-keyboard-response","301","109770","0.0-301.0","","img/set1/S2.jpg","72","2","random","68","random,structured_normal,structured_incentive,structured_load","2,1,3,4,2,3","false","",""
"null","","html-keyboard-response","302","110137","0.0-302.0","","<img src=""img/set1/S2.jpg"" width=""540"" height = ""360"">","null","","","","","","","",""
"null","","html-keyboard-response","303","110341","0.0-303.0","","","null","","","","","","","",""
"107.7000002861023","","image-keyboard-response","304","110450","0.0-304.0","","img/set1/S2.jpg","83","2","random","68","random,structured_normal,structured_incentive,structured_load","2,1,3,4,2,3","false","",""
"null","","html-keyboard-response","305","110810","0.0-305.0","","<img src=""img/set1/S2.jpg"" width=""540"" height = ""360"">","null","","","","","","","",""
"null","","html-keyboard-response","306","111015","0.0-306.0","","","null","","","","","","","",""
"65.5","","image-keyboard-response","307","111082","0.0-307.0","","img/set1/S4.jpg","68","4","random","74","random,structured_normal,structured_incentive,structured_load","2,1,3,4,2,3","false","",""
"null","","html-keyboard-response","308","111448","0.0-308.0","","<img src=""img/set1/S4.jpg"" width=""540"" height = ""360"">","null","","","","","","","",""
"null","","html-keyboard-response","309","111760","0.0-309.0","","","null","","","","","","","",""
"10.699999809265137","","image-keyboard-response","310","111772","0.0-310.0","","img/set1/S2.jpg","68","2","random","68","random,structured_normal,structured_incentive,structured_load","2,1,3,4,2,3","true","",""
"null","","html-keyboard-response","311","112133","0.0-311.0","","<img src=""img/set1/S2.jpg"" width=""540"" height = ""360"" style=""border:16px solid orange"">","null","","","","","","","",""
"null","","html-keyboard-response","312","112338","0.0-312.0","","","null","","","","","","","",""
"197.69999980926514","","image-keyboard-response","313","112537","0.0-313.0","","img/set1/S4.jpg","68","4","random","74","random,structured_normal,structured_incentive,structured_load","2,1,3,4,2,3","false","",""
"null","","html-keyboard-response","314","112899","0.0-314.0","","<img src=""img/set1/S4.jpg"" width=""540"" height = ""360"">","null","","","","","","","",""
"null","","html-keyboard-response","315","113131","0.0-315.0","","","null","","","","","","","",""
"289.40000009536743","","image-keyboard-response","316","113422","0.0-316.0","","img/set1/S4.jpg","72","4","random","74","random,structured_normal,structured_incentive,structured_load","2,1,3,4,2,3","false","",""
"null","","html-keyboard-response","317","113774","0.0-317.0","","<img src=""img/set1/S4.jpg"" width=""540"" height = ""360"">","null","","","","","","","",""
"null","","html-keyboard-response","318","113983","0.0-318.0","","","null","","","","","","","",""
"92","","image-keyboard-response","319","114077","0.0-319.0","","img/set1/S2.jpg","72","2","random","68","random,structured_normal,structured_incentive,structured_load","2,1,3,4,2,3","false","",""
"null","","html-keyboard-response","320","114432","0.0-320.0","","<img src=""img/set1/S2.jpg"" width=""540"" height = ""360"">","null","","","","","","","",""
"null","","html-keyboard-response","321","114724","0.0-321.0","","","null","","","","","","","",""
"236.40000009536743","","image-keyboard-response","322","114962","0.0-322.0","","img/set1/S2.jpg","74","2","random","68","random,structured_normal,structured_incentive,structured_load","2,1,3,4,2,3","false","",""
"null","","html-keyboard-response","323","115313","0.0-323.0","","<img src=""img/set1/S2.jpg"" width=""540"" height = ""360"">","null","","","","","","","",""
"null","","html-keyboard-response","324","115516","0.0-324.0","","","null","","","","","","","",""
"103.7999997138977","","image-keyboard-response","325","115622","0.0-325.0","","img/set1/S3.jpg","74","3","random","72","random,structured_normal,structured_incentive,structured_load","2,1,3,4,2,3","false","",""
"null","","html-keyboard-response","326","115989","0.0-326.0","","<img src=""img/set1/S3.jpg"" width=""540"" height = ""360"">","null","","","","","","","",""
"null","","html-keyboard-response","327","116205","0.0-327.0","","","null","","","","","","","",""
"220.59999990463257","","image-keyboard-response","328","116427","0.0-328.0","","img/set1/S4.jpg","74","4","random","74","random,structured_normal,structured_incentive,structured_load","2,1,3,4,2,3","true","",""
"null","","html-keyboard-response","329","116783","0.0-329.0","","<img src=""img/set1/S4.jpg"" width=""540"" height = ""360"" style=""border:16px solid orange"">","null","","","","","","","",""
"null","","html-keyboard-response","330","116991","0.0-330.0","","","null","","","","","","","",""
"173.09999990463257","","image-keyboard-response","331","117170","0.0-331.0","","img/set1/S2.jpg","72","2","random","68","random,structured_normal,structured_incentive,structured_load","2,1,3,4,2,3","false","",""
"null","","html-keyboard-response","332","117522","0.0-332.0","","<img src=""img/set1/S2.jpg"" width=""540"" height = ""360"">","null","","","","","","","",""
"null","","html-keyboard-response","333","117734","0.0-333.0","","","null","","","","","","","",""
"242.59999990463257","","image-keyboard-response","334","117979","0.0-334.0","","img/set1/S3.jpg","68","3","random","72","random,structured_normal,structured_incentive,structured_load","2,1,3,4,2,3","false","",""
"null","","html-keyboard-response","335","118331","0.0-335.0","","<img src=""img/set1/S3.jpg"" width=""540"" height = ""360"">","null","","","","","","","",""
"null","","html-keyboard-response","336","118533","0.0-336.0","","","null","","","","","","","",""
"195.80000019073486","","image-keyboard-response","337","118730","0.0-337.0","","img/set1/S1.jpg","83","1","random","83","random,structured_normal,structured_incentive,structured_load","2,1,3,4,2,3","true","",""
"null","","html-keyboard-response","338","119084","0.0-338.0","","<img src=""img/set1/S1.jpg"" width=""540"" height = ""360"" style=""border:16px solid orange"">","null","","","","","","","",""
"null","","html-keyboard-response","339","119296","0.0-339.0","","","null","","","","","","","",""
"161","","image-keyboard-response","340","119458","0.0-340.0","","img/set1/S4.jpg","68","4","random","74","random,structured_normal,structured_incentive,structured_load","2,1,3,4,2,3","false","",""
"null","","html-keyboard-response","341","119824","0.0-341.0","","<img src=""img/set1/S4.jpg"" width=""540"" height = ""360"">","null","","","","","","","",""
"null","","html-keyboard-response","342","120038","0.0-342.0","","","null","","","","","","","",""
"21.40000009536743","","image-keyboard-response","343","120061","0.0-343.0","","img/set1/S4.jpg","68","4","random","74","random,structured_normal,structured_incentive,structured_load","2,1,3,4,2,3","false","",""
"null","","html-keyboard-response","344","120443","0.0-344.0","","<img src=""img/set1/S4.jpg"" width=""540"" height = ""360"">","null","","","","","","","",""
"null","","html-keyboard-response","345","120645","0.0-345.0","","","null","","","","","","","",""
"67","","image-keyboard-response","346","120714","0.0-346.0","","img/set1/S2.jpg","72","2","random","68","random,structured_normal,structured_incentive,structured_load","2,1,3,4,2,3","false","",""
"null","","html-keyboard-response","347","121078","0.0-347.0","","<img src=""img/set1/S2.jpg"" width=""540"" height = ""360"">","null","","","","","","","",""
"null","","html-keyboard-response","348","121285","0.0-348.0","","","null","","","","","","","",""
"91","","image-keyboard-response","349","121377","0.0-349.0","","img/set1/S1.jpg","83","1","random","83","random,structured_normal,structured_incentive,structured_load","2,1,3,4,2,3","true","",""
"null","","html-keyboard-response","350","121744","0.0-350.0","","<img src=""img/set1/S1.jpg"" width=""540"" height = ""360"" style=""border:16px solid orange"">","null","","","","","","","",""
"null","","html-keyboard-response","351","121953","0.0-351.0","","","null","","","","","","","",""
"384.19999980926514","","image-keyboard-response","352","122338","0.0-352.0","","img/set1/S1.jpg","83","1","random","83","random,structured_normal,structured_incentive,structured_load","2,1,3,4,2,3","true","",""
"null","","html-keyboard-response","353","122768","0.0-353.0","","<img src=""img/set1/S1.jpg"" width=""540"" height = ""360"" style=""border:16px solid orange"">","null","","","","","","","",""
"null","","html-keyboard-response","354","122974","0.0-354.0","","","null","","","","","","","",""
"274.09999990463257","","image-keyboard-response","355","123250","0.0-355.0","","img/set1/S3.jpg","74","3","random","72","random,structured_normal,structured_incentive,structured_load","2,1,3,4,2,3","false","",""
"null","","html-keyboard-response","356","123620","0.0-356.0","","<img src=""img/set1/S3.jpg"" width=""540"" height = ""360"">","null","","","","","","","",""
"null","","html-keyboard-response","357","123821","0.0-357.0","","","null","","","","","","","",""
"203.7000002861023","","image-keyboard-response","358","124026","0.0-358.0","","img/set1/S4.jpg","83","4","random","74","random,structured_normal,structured_incentive,structured_load","2,1,3,4,2,3","false","",""
"null","","html-keyboard-response","359","124392","0.0-359.0","","<img src=""img/set1/S4.jpg"" width=""540"" height = ""360"">","null","","","","","","","",""
"null","","html-keyboard-response","360","124609","0.0-360.0","","","null","","","","","","","",""
"1.8000001907348633","","image-keyboard-response","361","124612","0.0-361.0","","img/set1/S3.jpg","83","3","random","72","random,structured_normal,structured_incentive,structured_load","2,1,3,4,2,3","false","",""
"null","","html-keyboard-response","362","124970","0.0-362.0","","<img src=""img/set1/S3.jpg"" width=""540"" height = ""360"">","null","","","","","","","",""
"null","","html-keyboard-response","363","125184","0.0-363.0","","","null","","","","","","","",""
"25.299999713897705","","html-keyboard-response","364","125211","0.0-364.0","","<p class=""center-content"">You have completed a block! </p><p class=""center-content"">Press any key on the keyboard to continue, </p><p class=""center-content"">or wait for the automatic progression to the next block after one minute.</p>","83","","","","","","","",""
"7997.800000190735","","instructions","365","133209","0.0-365.0","[{""page_index"":0,""viewing_time"":7996.5}]","","","","","","","","","",""
"2858.5","","instructions","366","136069","0.0-366.0","[{""page_index"":0,""viewing_time"":2858.0999999046326}]","","","","","","","","","",""
"1923","","image-keyboard-response","367","137993","0.0-367.0","","img/set2/S3.jpg","83","3","structured_normal","72","random,structured_normal,structured_incentive,structured_load","2,1,3,4,2,3","false","",""
"null","","html-keyboard-response","368","138349","0.0-368.0","","<img src=""img/set2/S3.jpg"" width=""540"" height = ""360"">","null","","","","","","","",""
"null","","html-keyboard-response","369","138592","0.0-369.0","","","null","","","","","","","",""
"773.9000000953674","","image-keyboard-response","370","139368","0.0-370.0","","img/set2/S2.jpg","83","2","structured_normal","68","random,structured_normal,structured_incentive,structured_load","2,1,3,4,2,3","false","",""
"null","","html-keyboard-response","371","139729","0.0-371.0","","<img src=""img/set2/S2.jpg"" width=""540"" height = ""360"">","null","","","","","","","",""
"null","","html-keyboard-response","372","139934","0.0-372.0","","","null","","","","","","","",""
"186","","image-keyboard-response","373","140121","0.0-373.0","","img/set2/S1.jpg","68","1","structured_normal","83","random,structured_normal,structured_incentive,structured_load","2,1,3,4,2,3","false","",""
"null","","html-keyboard-response","374","140488","0.0-374.0","","<img src=""img/set2/S1.jpg"" width=""540"" height = ""360"">","null","","","","","","","",""
"null","","html-keyboard-response","375","140702","0.0-375.0","","","null","","","","","","","",""
"744.5","","image-keyboard-response","376","141448","0.0-376.0","","img/set2/S2.jpg","68","2","structured_normal","68","random,structured_normal,structured_incentive,structured_load","2,1,3,4,2,3","true","",""
"null","","html-keyboard-response","377","141811","0.0-377.0","","<img src=""img/set2/S2.jpg"" width=""540"" height = ""360"" style=""border:16px solid orange"">","null","","","","","","","",""
"null","","html-keyboard-response","378","142012","0.0-378.0","","","null","","","","","","","",""
"2200.7999997138977","","image-keyboard-response","379","144215","0.0-379.0","","img/set2/S1.jpg","74","1","structured_normal","83","random,structured_normal,structured_incentive,structured_load","2,1,3,4,2,3","false","",""
"null","","html-keyboard-response","380","144605","0.0-380.0","","<img src=""img/set2/S1.jpg"" width=""540"" height = ""360"">","null","","","","","","","",""
"null","","html-keyboard-response","381","144813","0.0-381.0","","","null","","","","","","","",""
"177.7000002861023","","image-keyboard-response","382","144992","0.0-382.0","","img/set2/S2.jpg","74","2","structured_normal","68","random,structured_normal,structured_incentive,structured_load","2,1,3,4,2,3","false","",""
"null","","html-keyboard-response","383","145346","0.0-383.0","","<img src=""img/set2/S2.jpg"" width=""540"" height = ""360"">","null","","","","","","","",""
"null","","html-keyboard-response","384","145615","0.0-384.0","","","null","","","","","","","",""
"395.7000002861023","","image-keyboard-response","385","146013","0.0-385.0","","img/set2/S1.jpg","74","1","structured_normal","83","random,structured_normal,structured_incentive,structured_load","2,1,3,4,2,3","false","",""
"null","","html-keyboard-response","386","146374","0.0-386.0","","<img src=""img/set2/S1.jpg"" width=""540"" height = ""360"">","null","","","","","","","",""
"null","","html-keyboard-response","387","146591","0.0-387.0","","","null","","","","","","","",""
"null","","image-keyboard-response","388","149092","0.0-388.0","","img/set2/S4.jpg","null","4","structured_normal","74","random,structured_normal,structured_incentive,structured_load","2,1,3,4,2,3","false","",""
"null","","html-keyboard-response","389","149445","0.0-389.0","","<img src=""img/set2/S4.jpg"" width=""540"" height = ""360"">","null","","","","","","","",""
"null","","html-keyboard-response","390","149647","0.0-390.0","","","null","","","","","","","",""
"1132.5999999046326","","image-keyboard-response","391","150782","0.0-391.0","","img/set2/S2.jpg","74","2","structured_normal","68","random,structured_normal,structured_incentive,structured_load","2,1,3,4,2,3","false","",""
"null","","html-keyboard-response","392","151139","0.0-392.0","","<img src=""img/set2/S2.jpg"" width=""540"" height = ""360"">","null","","","","","","","",""
"null","","html-keyboard-response","393","151341","0.0-393.0","","","null","","","","","","","",""
"181.60000038146973","","image-keyboard-response","394","151524","0.0-394.0","","img/set2/S1.jpg","74","1","structured_normal","83","random,structured_normal,structured_incentive,structured_load","2,1,3,4,2,3","false","",""
"null","","html-keyboard-response","395","151881","0.0-395.0","","<img src=""img/set2/S1.jpg"" width=""540"" height = ""360"">","null","","","","","","","",""
"null","","html-keyboard-response","396","152084","0.0-396.0","","","null","","","","","","","",""
"224.89999961853027","","image-keyboard-response","397","152310","0.0-397.0","","img/set2/S2.jpg","83","2","structured_normal","68","random,structured_normal,structured_incentive,structured_load","2,1,3,4,2,3","false","",""
"null","","html-keyboard-response","398","152677","0.0-398.0","","<img src=""img/set2/S2.jpg"" width=""540"" height = ""360"">","null","","","","","","","",""
"null","","html-keyboard-response","399","152885","0.0-399.0","","","null","","","","","","","",""
"593.8000001907349","","image-keyboard-response","400","153480","0.0-400.0","","img/set2/S1.jpg","68","1","structured_normal","83","random,structured_normal,structured_incentive,structured_load","2,1,3,4,2,3","false","",""
"null","","html-keyboard-response","401","153848","0.0-401.0","","<img src=""img/set2/S1.jpg"" width=""540"" height = ""360"">","null","","","","","","","",""
"null","","html-keyboard-response","402","154054","0.0-402.0","","","null","","","","","","","",""
"468.6000003814697","","image-keyboard-response","403","154524","0.0-403.0","","img/set2/S2.jpg","68","2","structured_normal","68","random,structured_normal,structured_incentive,structured_load","2,1,3,4,2,3","true","",""
"null","","html-keyboard-response","404","154882","0.0-404.0","","<img src=""img/set2/S2.jpg"" width=""540"" height = ""360"" style=""border:16px solid orange"">","null","","","","","","","",""
"null","","html-keyboard-response","405","155089","0.0-405.0","","","null","","","","","","","",""
"583.2000002861023","","image-keyboard-response","406","155674","0.0-406.0","","img/set2/S1.jpg","68","1","structured_normal","83","random,structured_normal,structured_incentive,structured_load","2,1,3,4,2,3","false","",""
"null","","html-keyboard-response","407","156029","0.0-407.0","","<img src=""img/set2/S1.jpg"" width=""540"" height = ""360"">","null","","","","","","","",""
"null","","html-keyboard-response","408","156230","0.0-408.0","","","null","","","","","","","",""
"41.39999961853027","","image-keyboard-response","409","156273","0.0-409.0","","img/set2/S4.jpg","83","4","structured_normal","74","random,structured_normal,structured_incentive,structured_load","2,1,3,4,2,3","false","",""
"null","","html-keyboard-response","410","156637","0.0-410.0","","<img src=""img/set2/S4.jpg"" width=""540"" height = ""360"">","null","","","","","","","",""
"null","","html-keyboard-response","411","156855","0.0-411.0","","","null","","","","","","","",""
"409.80000019073486","","image-keyboard-response","412","157266","0.0-412.0","","img/set2/S2.jpg","74","2","structured_normal","68","random,structured_normal,structured_incentive,structured_load","2,1,3,4,2,3","false","",""
"null","","html-keyboard-response","413","157656","0.0-413.0","","<img src=""img/set2/S2.jpg"" width=""540"" height = ""360"">","null","","","","","","","",""
"null","","html-keyboard-response","414","157869","0.0-414.0","","","null","","","","","","","",""
"1387.5999999046326","","image-keyboard-response","415","159258","0.0-415.0","","img/set2/S1.jpg","74","1","structured_normal","83","random,structured_normal,structured_incentive,structured_load","2,1,3,4,2,3","false","",""
"null","","html-keyboard-response","416","159653","0.0-416.0","","<img src=""img/set2/S1.jpg"" width=""540"" height = ""360"">","null","","","","","","","",""
"null","","html-keyboard-response","417","159864","0.0-417.0","","","null","","","","","","","",""
"123.09999990463257","","image-keyboard-response","418","159989","0.0-418.0","","img/set2/S4.jpg","74","4","structured_normal","74","random,structured_normal,structured_incentive,structured_load","2,1,3,4,2,3","true","",""
"null","","html-keyboard-response","419","160352","0.0-419.0","","<img src=""img/set2/S4.jpg"" width=""540"" height = ""360"" style=""border:16px solid orange"">","null","","","","","","","",""
"null","","html-keyboard-response","420","160691","0.0-420.0","","","null","","","","","","","",""
"368.09999990463257","","image-keyboard-response","421","161060","0.0-421.0","","img/set2/S3.jpg","68","3","structured_normal","72","random,structured_normal,structured_incentive,structured_load","2,1,3,4,2,3","false","",""
"null","","html-keyboard-response","422","161426","0.0-422.0","","<img src=""img/set2/S3.jpg"" width=""540"" height = ""360"">","null","","","","","","","",""
"null","","html-keyboard-response","423","161629","0.0-423.0","","","null","","","","","","","",""
"385.40000009536743","","image-keyboard-response","424","162016","0.0-424.0","","img/set2/S2.jpg","83","2","structured_normal","68","random,structured_normal,structured_incentive,structured_load","2,1,3,4,2,3","false","",""
"null","","html-keyboard-response","425","162378","0.0-425.0","","<img src=""img/set2/S2.jpg"" width=""540"" height = ""360"">","null","","","","","","","",""
"null","","html-keyboard-response","426","162662","0.0-426.0","","","null","","","","","","","",""
"275.40000009536743","","image-keyboard-response","427","162939","0.0-427.0","","img/set2/S1.jpg","68","1","structured_normal","83","random,structured_normal,structured_incentive,structured_load","2,1,3,4,2,3","false","",""
"null","","html-keyboard-response","428","163299","0.0-428.0","","<img src=""img/set2/S1.jpg"" width=""540"" height = ""360"">","null","","","","","","","",""
"null","","html-keyboard-response","429","163501","0.0-429.0","","","null","","","","","","","",""
"284.8999996185303","","image-keyboard-response","430","163788","0.0-430.0","","img/set2/S4.jpg","68","4","structured_normal","74","random,structured_normal,structured_incentive,structured_load","2,1,3,4,2,3","false","",""
"null","","html-keyboard-response","431","164144","0.0-431.0","","<img src=""img/set2/S4.jpg"" width=""540"" height = ""360"">","null","","","","","","","",""
"null","","html-keyboard-response","432","164357","0.0-432.0","","","null","","","","","","","",""
"114.09999990463257","","image-keyboard-response","433","164473","0.0-433.0","","img/set2/S3.jpg","68","3","structured_normal","72","random,structured_normal,structured_incentive,structured_load","2,1,3,4,2,3","false","",""
"null","","html-keyboard-response","434","164838","0.0-434.0","","<img src=""img/set2/S3.jpg"" width=""540"" height = ""360"">","null","","","","","","","",""
"null","","html-keyboard-response","435","165040","0.0-435.0","","","null","","","","","","","",""
"105.30000019073486","","image-keyboard-response","436","165147","0.0-436.0","","img/set2/S4.jpg","68","4","structured_normal","74","random,structured_normal,structured_incentive,structured_load","2,1,3,4,2,3","false","",""
"null","","html-keyboard-response","437","165500","0.0-437.0","","<img src=""img/set2/S4.jpg"" width=""540"" height = ""360"">","null","","","","","","","",""
"null","","html-keyboard-response","438","165702","0.0-438.0","","","null","","","","","","","",""
"548.4000000953674","","image-keyboard-response","439","166251","0.0-439.0","","img/set2/S4.jpg","74","4","structured_normal","74","random,structured_normal,structured_incentive,structured_load","2,1,3,4,2,3","true","",""
"null","","html-keyboard-response","440","166609","0.0-440.0","","<img src=""img/set2/S4.jpg"" width=""540"" height = ""360"" style=""border:16px solid orange"">","null","","","","","","","",""
"null","","html-keyboard-response","441","166825","0.0-441.0","","","null","","","","","","","",""
"393.59999990463257","","image-keyboard-response","442","167220","0.0-442.0","","img/set2/S2.jpg","74","2","structured_normal","68","random,structured_normal,structured_incentive,structured_load","2,1,3,4,2,3","false","",""
"null","","html-keyboard-response","443","167583","0.0-443.0","","<img src=""img/set2/S2.jpg"" width=""540"" height = ""360"">","null","","","","","","","",""
"null","","html-keyboard-response","444","167792","0.0-444.0","","","null","","","","","","","",""
"211.2000002861023","","image-keyboard-response","445","168005","0.0-445.0","","img/set2/S1.jpg","74","1","structured_normal","83","random,structured_normal,structured_incentive,structured_load","2,1,3,4,2,3","false","",""
"null","","html-keyboard-response","446","168370","0.0-446.0","","<img src=""img/set2/S1.jpg"" width=""540"" height = ""360"">","null","","","","","","","",""
"null","","html-keyboard-response","447","168642","0.0-447.0","","","null","","","","","","","",""
"1340.0999999046326","","image-keyboard-response","448","169996","0.0-448.0","","img/set2/S3.jpg","83","3","structured_normal","72","random,structured_normal,structured_incentive,structured_load","2,1,3,4,2,3","false","",""
"null","","html-keyboard-response","449","170352","0.0-449.0","","<img src=""img/set2/S3.jpg"" width=""540"" height = ""360"">","null","","","","","","","",""
"null","","html-keyboard-response","450","170565","0.0-450.0","","","null","","","","","","","",""
"170.2000002861023","","image-keyboard-response","451","170736","0.0-451.0","","img/set2/S3.jpg","83","3","structured_normal","72","random,structured_normal,structured_incentive,structured_load","2,1,3,4,2,3","false","",""
"null","","html-keyboard-response","452","171103","0.0-452.0","","<img src=""img/set2/S3.jpg"" width=""540"" height = ""360"">","null","","","","","","","",""
"null","","html-keyboard-response","453","171310","0.0-453.0","","","null","","","","","","","",""
"27.40000009536743","","image-keyboard-response","454","171338","0.0-454.0","","img/set2/S2.jpg","68","2","structured_normal","68","random,structured_normal,structured_incentive,structured_load","2,1,3,4,2,3","true","",""
"null","","html-keyboard-response","455","171735","0.0-455.0","","<img src=""img/set2/S2.jpg"" width=""540"" height = ""360"" style=""border:16px solid orange"">","null","","","","","","","",""
"null","","html-keyboard-response","456","171943","0.0-456.0","","","null","","","","","","","",""
"151.30000019073486","","image-keyboard-response","457","172097","0.0-457.0","","img/set2/S1.jpg","68","1","structured_normal","83","random,structured_normal,structured_incentive,structured_load","2,1,3,4,2,3","false","",""
"null","","html-keyboard-response","458","172458","0.0-458.0","","<img src=""img/set2/S1.jpg"" width=""540"" height = ""360"">","null","","","","","","","",""
"null","","html-keyboard-response","459","172675","0.0-459.0","","","null","","","","","","","",""
"128.80000019073486","","image-keyboard-response","460","172805","0.0-460.0","","img/set2/S2.jpg","68","2","structured_normal","68","random,structured_normal,structured_incentive,structured_load","2,1,3,4,2,3","true","",""
"null","","html-keyboard-response","461","173171","0.0-461.0","","<img src=""img/set2/S2.jpg"" width=""540"" height = ""360"" style=""border:16px solid orange"">","null","","","","","","","",""
"null","","html-keyboard-response","462","173378","0.0-462.0","","","null","","","","","","","",""
"288.59999990463257","","image-keyboard-response","463","173668","0.0-463.0","","img/set2/S1.jpg","68","1","structured_normal","83","random,structured_normal,structured_incentive,structured_load","2,1,3,4,2,3","false","",""
"null","","html-keyboard-response","464","174023","0.0-464.0","","<img src=""img/set2/S1.jpg"" width=""540"" height = ""360"">","null","","","","","","","",""
"null","","html-keyboard-response","465","174231","0.0-465.0","","","null","","","","","","","",""
"97","","image-keyboard-response","466","174329","0.0-466.0","","img/set2/S4.jpg","74","4","structured_normal","74","random,structured_normal,structured_incentive,structured_load","2,1,3,4,2,3","true","",""
"null","","html-keyboard-response","467","174686","0.0-467.0","","<img src=""img/set2/S4.jpg"" width=""540"" height = ""360"" style=""border:16px solid orange"">","null","","","","","","","",""
"null","","html-keyboard-response","468","174897","0.0-468.0","","","null","","","","","","","",""
"311.19999980926514","","image-keyboard-response","469","175209","0.0-469.0","","img/set2/S3.jpg","74","3","structured_normal","72","random,structured_normal,structured_incentive,structured_load","2,1,3,4,2,3","false","",""
"null","","html-keyboard-response","470","175662","0.0-470.0","","<img src=""img/set2/S3.jpg"" width=""540"" height = ""360"">","null","","","","","","","",""
"null","","html-keyboard-response","471","175866","0.0-471.0","","","null","","","","","","","",""
"80.2000002861023","","image-keyboard-response","472","175947","0.0-472.0","","img/set2/S4.jpg","74","4","structured_normal","74","random,structured_normal,structured_incentive,structured_load","2,1,3,4,2,3","true","",""
"null","","html-keyboard-response","473","176310","0.0-473.0","","<img src=""img/set2/S4.jpg"" width=""540"" height = ""360"" style=""border:16px solid orange"">","null","","","","","","","",""
"null","","html-keyboard-response","474","176512","0.0-474.0","","","null","","","","","","","",""
"260.09999990463257","","image-keyboard-response","475","176773","0.0-475.0","","img/set2/S4.jpg","74","4","structured_normal","74","random,structured_normal,structured_incentive,structured_load","2,1,3,4,2,3","true","",""
"null","","html-keyboard-response","476","177131","0.0-476.0","","<img src=""img/set2/S4.jpg"" width=""540"" height = ""360"" style=""border:16px solid orange"">","null","","","","","","","",""
"null","","html-keyboard-response","477","177343","0.0-477.0","","","null","","","","","","","",""
"200","","image-keyboard-response","478","177544","0.0-478.0","","img/set2/S4.jpg","74","4","structured_normal","74","random,structured_normal,structured_incentive,structured_load","2,1,3,4,2,3","true","",""
"null","","html-keyboard-response","479","177898","0.0-479.0","","<img src=""img/set2/S4.jpg"" width=""540"" height = ""360"" style=""border:16px solid orange"">","null","","","","","","","",""
"null","","html-keyboard-response","480","178105","0.0-480.0","","","null","","","","","","","",""
"332.3999996185303","","image-keyboard-response","481","178438","0.0-481.0","","img/set2/S3.jpg","74","3","structured_normal","72","random,structured_normal,structured_incentive,structured_load","2,1,3,4,2,3","false","",""
"null","","html-keyboard-response","482","178801","0.0-482.0","","<img src=""img/set2/S3.jpg"" width=""540"" height = ""360"">","null","","","","","","","",""
"null","","html-keyboard-response","483","179015","0.0-483.0","","","null","","","","","","","",""
"816.9000000953674","","image-keyboard-response","484","179833","0.0-484.0","","img/set2/S2.jpg","74","2","structured_normal","68","random,structured_normal,structured_incentive,structured_load","2,1,3,4,2,3","false","",""
"null","","html-keyboard-response","485","180199","0.0-485.0","","<img src=""img/set2/S2.jpg"" width=""540"" height = ""360"">","null","","","","","","","",""
"null","","html-keyboard-response","486","180412","0.0-486.0","","","null","","","","","","","",""
"108.69999980926514","","image-keyboard-response","487","180522","0.0-487.0","","img/set2/S1.jpg","74","1","structured_normal","83","random,structured_normal,structured_incentive,structured_load","2,1,3,4,2,3","false","",""
"null","","html-keyboard-response","488","180880","0.0-488.0","","<img src=""img/set2/S1.jpg"" width=""540"" height = ""360"">","null","","","","","","","",""
"null","","html-keyboard-response","489","181081","0.0-489.0","","","null","","","","","","","",""
"210.09999990463257","","image-keyboard-response","490","181293","0.0-490.0","","img/set2/S4.jpg","74","4","structured_normal","74","random,structured_normal,structured_incentive,structured_load","2,1,3,4,2,3","true","",""
"null","","html-keyboard-response","491","181648","0.0-491.0","","<img src=""img/set2/S4.jpg"" width=""540"" height = ""360"" style=""border:16px solid orange"">","null","","","","","","","",""
"null","","html-keyboard-response","492","181851","0.0-492.0","","","null","","","","","","","",""
"205.90000009536743","","image-keyboard-response","493","182058","0.0-493.0","","img/set2/S4.jpg","68","4","structured_normal","74","random,structured_normal,structured_incentive,structured_load","2,1,3,4,2,3","false","",""
"null","","html-keyboard-response","494","182416","0.0-494.0","","<img src=""img/set2/S4.jpg"" width=""540"" height = ""360"">","null","","","","","","","",""
"null","","html-keyboard-response","495","182636","0.0-495.0","","","null","","","","","","","",""
"288.7999997138977","","image-keyboard-response","496","182927","0.0-496.0","","img/set2/S4.jpg","68","4","structured_normal","74","random,structured_normal,structured_incentive,structured_load","2,1,3,4,2,3","false","",""
"null","","html-keyboard-response","497","183288","0.0-497.0","","<img src=""img/set2/S4.jpg"" width=""540"" height = ""360"">","null","","","","","","","",""
"null","","html-keyboard-response","498","183490","0.0-498.0","","","null","","","","","","","",""
"242.5","","image-keyboard-response","499","183734","0.0-499.0","","img/set2/S2.jpg","68","2","structured_normal","68","random,structured_normal,structured_incentive,structured_load","2,1,3,4,2,3","true","",""
"null","","html-keyboard-response","500","184091","0.0-500.0","","<img src=""img/set2/S2.jpg"" width=""540"" height = ""360"" style=""border:16px solid orange"">","null","","","","","","","",""
"null","","html-keyboard-response","501","184297","0.0-501.0","","","null","","","","","","","",""
"313.59999990463257","","image-keyboard-response","502","184612","0.0-502.0","","img/set2/S1.jpg","83","1","structured_normal","83","random,structured_normal,structured_incentive,structured_load","2,1,3,4,2,3","true","",""
"null","","html-keyboard-response","503","184971","0.0-503.0","","<img src=""img/set2/S1.jpg"" width=""540"" height = ""360"" style=""border:16px solid orange"">","null","","","","","","","",""
"null","","html-keyboard-response","504","185186","0.0-504.0","","","null","","","","","","","",""
"11.800000190734863","","image-keyboard-response","505","185202","0.0-505.0","","img/set2/S3.jpg","83","3","structured_normal","72","random,structured_normal,structured_incentive,structured_load","2,1,3,4,2,3","false","",""
"null","","html-keyboard-response","506","185556","0.0-506.0","","<img src=""img/set2/S3.jpg"" width=""540"" height = ""360"">","null","","","","","","","",""
"null","","html-keyboard-response","507","185762","0.0-507.0","","","null","","","","","","","",""
"174.2999997138977","","image-keyboard-response","508","185937","0.0-508.0","","img/set2/S3.jpg","68","3","structured_normal","72","random,structured_normal,structured_incentive,structured_load","2,1,3,4,2,3","false","",""
"null","","html-keyboard-response","509","186297","0.0-509.0","","<img src=""img/set2/S3.jpg"" width=""540"" height = ""360"">","null","","","","","","","",""
"null","","html-keyboard-response","510","186500","0.0-510.0","","","null","","","","","","","",""
"12.799999713897705","","image-keyboard-response","511","186514","0.0-511.0","","img/set2/S3.jpg","68","3","structured_normal","72","random,structured_normal,structured_incentive,structured_load","2,1,3,4,2,3","false","",""
"null","","html-keyboard-response","512","186876","0.0-512.0","","<img src=""img/set2/S3.jpg"" width=""540"" height = ""360"">","null","","","","","","","",""
"null","","html-keyboard-response","513","187077","0.0-513.0","","","null","","","","","","","",""
"132.10000038146973","","image-keyboard-response","514","187211","0.0-514.0","","img/set2/S2.jpg","74","2","structured_normal","68","random,structured_normal,structured_incentive,structured_load","2,1,3,4,2,3","false","",""
"null","","html-keyboard-response","515","187565","0.0-515.0","","<img src=""img/set2/S2.jpg"" width=""540"" height = ""360"">","null","","","","","","","",""
"null","","html-keyboard-response","516","187780","0.0-516.0","","","null","","","","","","","",""
"987","","image-keyboard-response","517","188769","0.0-517.0","","img/set2/S1.jpg","74","1","structured_normal","83","random,structured_normal,structured_incentive,structured_load","2,1,3,4,2,3","false","",""
"null","","html-keyboard-response","518","189132","0.0-518.0","","<img src=""img/set2/S1.jpg"" width=""540"" height = ""360"">","null","","","","","","","",""
"null","","html-keyboard-response","519","189337","0.0-519.0","","","null","","","","","","","",""
"75.5","","image-keyboard-response","520","189414","0.0-520.0","","img/set2/S2.jpg","74","2","structured_normal","68","random,structured_normal,structured_incentive,structured_load","2,1,3,4,2,3","false","",""
"null","","html-keyboard-response","521","189772","0.0-521.0","","<img src=""img/set2/S2.jpg"" width=""540"" height = ""360"">","null","","","","","","","",""
"null","","html-keyboard-response","522","189981","0.0-522.0","","","null","","","","","","","",""
"242.5","","image-keyboard-response","523","190225","0.0-523.0","","img/set2/S1.jpg","74","1","structured_normal","83","random,structured_normal,structured_incentive,structured_load","2,1,3,4,2,3","false","",""
"null","","html-keyboard-response","524","190579","0.0-524.0","","<img src=""img/set2/S1.jpg"" width=""540"" height = ""360"">","null","","","","","","","",""
"null","","html-keyboard-response","525","190781","0.0-525.0","","","null","","","","","","","",""
"1228.4000000953674","","image-keyboard-response","526","192010","0.0-526.0","","img/set2/S4.jpg","83","4","structured_normal","74","random,structured_normal,structured_incentive,structured_load","2,1,3,4,2,3","false","",""
"null","","html-keyboard-response","527","192371","0.0-527.0","","<img src=""img/set2/S4.jpg"" width=""540"" height = ""360"">","null","","","","","","","",""
"null","","html-keyboard-response","528","192679","0.0-528.0","","","null","","","","","","","",""
"224.19999980926514","","image-keyboard-response","529","192905","0.0-529.0","","img/set2/S3.jpg","68","3","structured_normal","72","random,structured_normal,structured_incentive,structured_load","2,1,3,4,2,3","false","",""
"null","","html-keyboard-response","530","193263","0.0-530.0","","<img src=""img/set2/S3.jpg"" width=""540"" height = ""360"">","null","","","","","","","",""
"null","","html-keyboard-response","531","193470","0.0-531.0","","","null","","","","","","","",""
"149.59999990463257","","image-keyboard-response","532","193621","0.0-532.0","","img/set2/S4.jpg","68","4","structured_normal","74","random,structured_normal,structured_incentive,structured_load","2,1,3,4,2,3","false","",""
"null","","html-keyboard-response","533","193975","0.0-533.0","","<img src=""img/set2/S4.jpg"" width=""540"" height = ""360"">","null","","","","","","","",""
"null","","html-keyboard-response","534","194183","0.0-534.0","","","null","","","","","","","",""
"62.89999961853027","","image-keyboard-response","535","194247","0.0-535.0","","img/set2/S3.jpg","68","3","structured_normal","72","random,structured_normal,structured_incentive,structured_load","2,1,3,4,2,3","false","",""
"null","","html-keyboard-response","536","194665","0.0-536.0","","<img src=""img/set2/S3.jpg"" width=""540"" height = ""360"">","null","","","","","","","",""
"null","","html-keyboard-response","537","194882","0.0-537.0","","","null","","","","","","","",""
"109","","image-keyboard-response","538","194993","0.0-538.0","","img/set2/S2.jpg","74","2","structured_normal","68","random,structured_normal,structured_incentive,structured_load","2,1,3,4,2,3","false","",""
"null","","html-keyboard-response","539","195359","0.0-539.0","","<img src=""img/set2/S2.jpg"" width=""540"" height = ""360"">","null","","","","","","","",""
"null","","html-keyboard-response","540","195561","0.0-540.0","","","null","","","","","","","",""
"274.1000003814697","","image-keyboard-response","541","195837","0.0-541.0","","img/set2/S1.jpg","74","1","structured_normal","83","random,structured_normal,structured_incentive,structured_load","2,1,3,4,2,3","false","",""
"null","","html-keyboard-response","542","196200","0.0-542.0","","<img src=""img/set2/S1.jpg"" width=""540"" height = ""360"">","null","","","","","","","",""
"null","","html-keyboard-response","543","196414","0.0-543.0","","","null","","","","","","","",""
"237.90000009536743","","image-keyboard-response","544","196653","0.0-544.0","","img/set2/S3.jpg","74","3","structured_normal","72","random,structured_normal,structured_incentive,structured_load","2,1,3,4,2,3","false","",""
"null","","html-keyboard-response","545","197014","0.0-545.0","","<img src=""img/set2/S3.jpg"" width=""540"" height = ""360"">","null","","","","","","","",""
"null","","html-keyboard-response","546","197250","0.0-546.0","","","null","","","","","","","",""
"143.80000019073486","","image-keyboard-response","547","197397","0.0-547.0","","img/set2/S4.jpg","74","4","structured_normal","74","random,structured_normal,structured_incentive,structured_load","2,1,3,4,2,3","true","",""
"null","","html-keyboard-response","548","197759","0.0-548.0","","<img src=""img/set2/S4.jpg"" width=""540"" height = ""360"" style=""border:16px solid orange"">","null","","","","","","","",""
"null","","html-keyboard-response","549","197964","0.0-549.0","","","null","","","","","","","",""
"295.90000009536743","","image-keyboard-response","550","198261","0.0-550.0","","img/set2/S3.jpg","74","3","structured_normal","72","random,structured_normal,structured_incentive,structured_load","2,1,3,4,2,3","false","",""
"null","","html-keyboard-response","551","198614","0.0-551.0","","<img src=""img/set2/S3.jpg"" width=""540"" height = ""360"">","null","","","","","","","",""
"null","","html-keyboard-response","552","198827","0.0-552.0","","","null","","","","","","","",""
"1877.7000002861023","","image-keyboard-response","553","200706","0.0-553.0","","img/set2/S4.jpg","68","4","structured_normal","74","random,structured_normal,structured_incentive,structured_load","2,1,3,4,2,3","false","",""
"null","","html-keyboard-response","554","201073","0.0-554.0","","<img src=""img/set2/S4.jpg"" width=""540"" height = ""360"">","null","","","","","","","",""
"null","","html-keyboard-response","555","201286","0.0-555.0","","","null","","","","","","","",""
"13.900000095367432","","image-keyboard-response","556","201301","0.0-556.0","","img/set2/S3.jpg","68","3","structured_normal","72","random,structured_normal,structured_incentive,structured_load","2,1,3,4,2,3","false","",""
"null","","html-keyboard-response","557","201692","0.0-557.0","","<img src=""img/set2/S3.jpg"" width=""540"" height = ""360"">","null","","","","","","","",""
"null","","html-keyboard-response","558","201904","0.0-558.0","","","null","","","","","","","",""
"239.60000038146973","","image-keyboard-response","559","202145","0.0-559.0","","img/set2/S4.jpg","83","4","structured_normal","74","random,structured_normal,structured_incentive,structured_load","2,1,3,4,2,3","false","",""
"null","","html-keyboard-response","560","202497","0.0-560.0","","<img src=""img/set2/S4.jpg"" width=""540"" height = ""360"">","null","","","","","","","",""
"null","","html-keyboard-response","561","202705","0.0-561.0","","","null","","","","","","","",""
"170.7999997138977","","image-keyboard-response","562","202877","0.0-562.0","","img/set2/S4.jpg","83","4","structured_normal","74","random,structured_normal,structured_incentive,structured_load","2,1,3,4,2,3","false","",""
"null","","html-keyboard-response","563","203243","0.0-563.0","","<img src=""img/set2/S4.jpg"" width=""540"" height = ""360"">","null","","","","","","","",""
"null","","html-keyboard-response","564","203453","0.0-564.0","","","null","","","","","","","",""
"335","","image-keyboard-response","565","203789","0.0-565.0","","img/set2/S2.jpg","68","2","structured_normal","68","random,structured_normal,structured_incentive,structured_load","2,1,3,4,2,3","true","",""
"null","","html-keyboard-response","566","204155","0.0-566.0","","<img src=""img/set2/S2.jpg"" width=""540"" height = ""360"" style=""border:16px solid orange"">","null","","","","","","","",""
"null","","html-keyboard-response","567","204360","0.0-567.0","","","null","","","","","","","",""
"95.5","","image-keyboard-response","568","204457","0.0-568.0","","img/set2/S1.jpg","68","1","structured_normal","83","random,structured_normal,structured_incentive,structured_load","2,1,3,4,2,3","false","",""
"null","","html-keyboard-response","569","204819","0.0-569.0","","<img src=""img/set2/S1.jpg"" width=""540"" height = ""360"">","null","","","","","","","",""
"null","","html-keyboard-response","570","205024","0.0-570.0","","","null","","","","","","","",""
"65.69999980926514","","image-keyboard-response","571","205091","0.0-571.0","","img/set2/S4.jpg","74","4","structured_normal","74","random,structured_normal,structured_incentive,structured_load","2,1,3,4,2,3","true","",""
"null","","html-keyboard-response","572","205456","0.0-572.0","","<img src=""img/set2/S4.jpg"" width=""540"" height = ""360"" style=""border:16px solid orange"">","null","","","","","","","",""
"null","","html-keyboard-response","573","205676","0.0-573.0","","","null","","","","","","","",""
"185.7000002861023","","image-keyboard-response","574","205863","0.0-574.0","","img/set2/S2.jpg","74","2","structured_normal","68","random,structured_normal,structured_incentive,structured_load","2,1,3,4,2,3","false","",""
"null","","html-keyboard-response","575","206230","0.0-575.0","","<img src=""img/set2/S2.jpg"" width=""540"" height = ""360"">","null","","","","","","","",""
"null","","html-keyboard-response","576","206444","0.0-576.0","","","null","","","","","","","",""
"275.90000009536743","","image-keyboard-response","577","206722","0.0-577.0","","img/set2/S1.jpg","74","1","structured_normal","83","random,structured_normal,structured_incentive,structured_load","2,1,3,4,2,3","false","",""
"null","","html-keyboard-response","578","207074","0.0-578.0","","<img src=""img/set2/S1.jpg"" width=""540"" height = ""360"">","null","","","","","","","",""
"null","","html-keyboard-response","579","207282","0.0-579.0","","","null","","","","","","","",""
"484.90000009536743","","image-keyboard-response","580","207769","0.0-580.0","","img/set2/S3.jpg","74","3","structured_normal","72","random,structured_normal,structured_incentive,structured_load","2,1,3,4,2,3","false","",""
"null","","html-keyboard-response","581","208130","0.0-581.0","","<img src=""img/set2/S3.jpg"" width=""540"" height = ""360"">","null","","","","","","","",""
"null","","html-keyboard-response","582","208332","0.0-582.0","","","null","","","","","","","",""
"295.7999997138977","","image-keyboard-response","583","208630","0.0-583.0","","img/set2/S3.jpg","68","3","structured_normal","72","random,structured_normal,structured_incentive,structured_load","2,1,3,4,2,3","false","",""
"null","","html-keyboard-response","584","208997","0.0-584.0","","<img src=""img/set2/S3.jpg"" width=""540"" height = ""360"">","null","","","","","","","",""
"null","","html-keyboard-response","585","209205","0.0-585.0","","","null","","","","","","","",""
"202.09999990463257","","image-keyboard-response","586","209409","0.0-586.0","","img/set2/S3.jpg","68","3","structured_normal","72","random,structured_normal,structured_incentive,structured_load","2,1,3,4,2,3","false","",""
"null","","html-keyboard-response","587","209772","0.0-587.0","","<img src=""img/set2/S3.jpg"" width=""540"" height = ""360"">","null","","","","","","","",""
"null","","html-keyboard-response","588","209974","0.0-588.0","","","null","","","","","","","",""
"265","","image-keyboard-response","589","210240","0.0-589.0","","img/set2/S3.jpg","74","3","structured_normal","72","random,structured_normal,structured_incentive,structured_load","2,1,3,4,2,3","false","",""
"null","","html-keyboard-response","590","210627","0.0-590.0","","<img src=""img/set2/S3.jpg"" width=""540"" height = ""360"">","null","","","","","","","",""
"null","","html-keyboard-response","591","210833","0.0-591.0","","","null","","","","","","","",""
"155.69999980926514","","image-keyboard-response","592","210991","0.0-592.0","","img/set2/S3.jpg","74","3","structured_normal","72","random,structured_normal,structured_incentive,structured_load","2,1,3,4,2,3","false","",""
"null","","html-keyboard-response","593","211352","0.0-593.0","","<img src=""img/set2/S3.jpg"" width=""540"" height = ""360"">","null","","","","","","","",""
"null","","html-keyboard-response","594","211553","0.0-594.0","","","null","","","","","","","",""
"1455.5999999046326","","image-keyboard-response","595","213012","0.0-595.0","","img/set2/S4.jpg","83","4","structured_normal","74","random,structured_normal,structured_incentive,structured_load","2,1,3,4,2,3","false","",""
"null","","html-keyboard-response","596","213371","0.0-596.0","","<img src=""img/set2/S4.jpg"" width=""540"" height = ""360"">","null","","","","","","","",""
"null","","html-keyboard-response","597","213619","0.0-597.0","","","null","","","","","","","",""
"171.09999990463257","","image-keyboard-response","598","213792","0.0-598.0","","img/set2/S2.jpg","83","2","structured_normal","68","random,structured_normal,structured_incentive,structured_load","2,1,3,4,2,3","false","",""
"null","","html-keyboard-response","599","214144","0.0-599.0","","<img src=""img/set2/S2.jpg"" width=""540"" height = ""360"">","null","","","","","","","",""
"null","","html-keyboard-response","600","214351","0.0-600.0","","","null","","","","","","","",""
"158.10000038146973","","image-keyboard-response","601","214510","0.0-601.0","","img/set2/S1.jpg","68","1","structured_normal","83","random,structured_normal,structured_incentive,structured_load","2,1,3,4,2,3","false","",""
"null","","html-keyboard-response","602","214878","0.0-602.0","","<img src=""img/set2/S1.jpg"" width=""540"" height = ""360"">","null","","","","","","","",""
"null","","html-keyboard-response","603","215085","0.0-603.0","","","null","","","","","","","",""
"152.90000009536743","","image-keyboard-response","604","215240","0.0-604.0","","img/set2/S2.jpg","68","2","structured_normal","68","random,structured_normal,structured_incentive,structured_load","2,1,3,4,2,3","true","",""
"null","","html-keyboard-response","605","215618","0.0-605.0","","<img src=""img/set2/S2.jpg"" width=""540"" height = ""360"" style=""border:16px solid orange"">","null","","","","","","","",""
"null","","html-keyboard-response","606","215834","0.0-606.0","","","null","","","","","","","",""
"41.09999990463257","","image-keyboard-response","607","215877","0.0-607.0","","img/set2/S1.jpg","68","1","structured_normal","83","random,structured_normal,structured_incentive,structured_load","2,1,3,4,2,3","false","",""
"null","","html-keyboard-response","608","216242","0.0-608.0","","<img src=""img/set2/S1.jpg"" width=""540"" height = ""360"">","null","","","","","","","",""
"null","","html-keyboard-response","609","216444","0.0-609.0","","","null","","","","","","","",""
"30.59999990463257","","image-keyboard-response","610","216476","0.0-610.0","","img/set2/S3.jpg","68","3","structured_normal","72","random,structured_normal,structured_incentive,structured_load","2,1,3,4,2,3","false","",""
"null","","html-keyboard-response","611","216829","0.0-611.0","","<img src=""img/set2/S3.jpg"" width=""540"" height = ""360"">","null","","","","","","","",""
"null","","html-keyboard-response","612","217039","0.0-612.0","","","null","","","","","","","",""
"161.19999980926514","","image-keyboard-response","613","217201","0.0-613.0","","img/set2/S2.jpg","68","2","structured_normal","68","random,structured_normal,structured_incentive,structured_load","2,1,3,4,2,3","true","",""
"null","","html-keyboard-response","614","217563","0.0-614.0","","<img src=""img/set2/S2.jpg"" width=""540"" height = ""360"" style=""border:16px solid orange"">","null","","","","","","","",""
"null","","html-keyboard-response","615","217776","0.0-615.0","","","null","","","","","","","",""
"128","","image-keyboard-response","616","217905","0.0-616.0","","img/set2/S1.jpg","83","1","structured_normal","83","random,structured_normal,structured_incentive,structured_load","2,1,3,4,2,3","true","",""
"null","","html-keyboard-response","617","218263","0.0-617.0","","<img src=""img/set2/S1.jpg"" width=""540"" height = ""360"" style=""border:16px solid orange"">","null","","","","","","","",""
"null","","html-keyboard-response","618","218464","0.0-618.0","","","null","","","","","","","",""
