"rt","url","trial_type","trial_index","time_elapsed","internal_node_id","assignmentID","mturkID","hitID","view_history","stimulus","key_press","state","test_part","correct_response","order_block","order_chunk","order_freq","correct","responses","question_order","bonus"
"442263.59999999404","consent.html","external-html","0","442428","0.0-0.0","37FMASSAYDDN59110LQDFDLO6RRBIF","AW0MG225VXWCN","3G9UA71JVVGUCOKNEKUVXTI6SA17JG","","","","","","","","","","","","",""
"48538.5","","instructions","1","490968","0.0-1.0","37FMASSAYDDN59110LQDFDLO6RRBIF","AW0MG225VXWCN","3G9UA71JVVGUCOKNEKUVXTI6SA17JG","[{""page_index"":0,""viewing_time"":5089.399999976158},{""page_index"":1,""viewing_time"":5741.600000023842},{""page_index"":2,""viewing_time"":6740.299999982119},{""page_index"":3,""viewing_time"":13681.700000017881},{""page_index"":4,""viewing_time"":6564},{""page_index"":5,""viewing_time"":6153.5},{""page_index"":6,""viewing_time"":4567.5}]","","","","","","","","","","","",""
"7681.5","","instructions","2","498650","0.0-2.0","37FMASSAYDDN59110LQDFDLO6RRBIF","AW0MG225VXWCN","3G9UA71JVVGUCOKNEKUVXTI6SA17JG","[{""page_index"":0,""viewing_time"":7681.200000017881}]","","","","","","","","","","","",""
"3808.699999988079","","instructions","3","502459","0.0-3.0","37FMASSAYDDN59110LQDFDLO6RRBIF","AW0MG225VXWCN","3G9UA71JVVGUCOKNEKUVXTI6SA17JG","[{""page_index"":0,""viewing_time"":3808.5}]","","","","","","","","","","","",""
"701.2000000178814","","image-keyboard-response","4","503162","0.0-4.0","37FMASSAYDDN59110LQDFDLO6RRBIF","AW0MG225VXWCN","3G9UA71JVVGUCOKNEKUVXTI6SA17JG","","img/set1/S3.jpg","83","3","random","72","random,structured_incentive,structured_normal,structured_load","1,2,2,3,4,2","2,1,3,4","false","","",""
"null","","html-keyboard-response","5","503519","0.0-5.0","37FMASSAYDDN59110LQDFDLO6RRBIF","AW0MG225VXWCN","3G9UA71JVVGUCOKNEKUVXTI6SA17JG","","<img src=""img/set1/S3.jpg"" width=""540"" height = ""360"">","null","","","","","","","","","",""
"null","","html-keyboard-response","6","503729","0.0-6.0","37FMASSAYDDN59110LQDFDLO6RRBIF","AW0MG225VXWCN","3G9UA71JVVGUCOKNEKUVXTI6SA17JG","","","null","","","","","","","","","",""
"697.2999999821186","","image-keyboard-response","7","504430","0.0-7.0","37FMASSAYDDN59110LQDFDLO6RRBIF","AW0MG225VXWCN","3G9UA71JVVGUCOKNEKUVXTI6SA17JG","","img/set1/S3.jpg","68","3","random","72","random,structured_incentive,structured_normal,structured_load","1,2,2,3,4,2","2,1,3,4","false","","",""
"null","","html-keyboard-response","8","504794","0.0-8.0","37FMASSAYDDN59110LQDFDLO6RRBIF","AW0MG225VXWCN","3G9UA71JVVGUCOKNEKUVXTI6SA17JG","","<img src=""img/set1/S3.jpg"" width=""540"" height = ""360"">","null","","","","","","","","","",""
"null","","html-keyboard-response","9","505004","0.0-9.0","37FMASSAYDDN59110LQDFDLO6RRBIF","AW0MG225VXWCN","3G9UA71JVVGUCOKNEKUVXTI6SA17JG","","","null","","","","","","","","","",""
"845.7999999821186","","image-keyboard-response","10","505852","0.0-10.0","37FMASSAYDDN59110LQDFDLO6RRBIF","AW0MG225VXWCN","3G9UA71JVVGUCOKNEKUVXTI6SA17JG","","img/set1/S4.jpg","72","4","random","74","random,structured_incentive,structured_normal,structured_load","1,2,2,3,4,2","2,1,3,4","false","","",""
"null","","html-keyboard-response","11","506215","0.0-11.0","37FMASSAYDDN59110LQDFDLO6RRBIF","AW0MG225VXWCN","3G9UA71JVVGUCOKNEKUVXTI6SA17JG","","<img src=""img/set1/S4.jpg"" width=""540"" height = ""360"">","null","","","","","","","","","",""
"null","","html-keyboard-response","12","506425","0.0-12.0","37FMASSAYDDN59110LQDFDLO6RRBIF","AW0MG225VXWCN","3G9UA71JVVGUCOKNEKUVXTI6SA17JG","","","null","","","","","","","","","",""
"478.40000000596046","","image-keyboard-response","13","506905","0.0-13.0","37FMASSAYDDN59110LQDFDLO6RRBIF","AW0MG225VXWCN","3G9UA71JVVGUCOKNEKUVXTI6SA17JG","","img/set1/S2.jpg","74","2","random","68","random,structured_incentive,structured_normal,structured_load","1,2,2,3,4,2","2,1,3,4","false","","",""
"null","","html-keyboard-response","14","507259","0.0-14.0","37FMASSAYDDN59110LQDFDLO6RRBIF","AW0MG225VXWCN","3G9UA71JVVGUCOKNEKUVXTI6SA17JG","","<img src=""img/set1/S2.jpg"" width=""540"" height = ""360"">","null","","","","","","","","","",""
"null","","html-keyboard-response","15","507474","0.0-15.0","37FMASSAYDDN59110LQDFDLO6RRBIF","AW0MG225VXWCN","3G9UA71JVVGUCOKNEKUVXTI6SA17JG","","","null","","","","","","","","","",""
"630.1000000238419","","image-keyboard-response","16","508105","0.0-16.0","37FMASSAYDDN59110LQDFDLO6RRBIF","AW0MG225VXWCN","3G9UA71JVVGUCOKNEKUVXTI6SA17JG","","img/set1/S1.jpg","83","1","random","83","random,structured_incentive,structured_normal,structured_load","1,2,2,3,4,2","2,1,3,4","true","","",""
"null","","html-keyboard-response","17","508470","0.0-17.0","37FMASSAYDDN59110LQDFDLO6RRBIF","AW0MG225VXWCN","3G9UA71JVVGUCOKNEKUVXTI6SA17JG","","<img src=""img/set1/S1.jpg"" width=""540"" height = ""360"" style=""border:16px solid orange"">","null","","","","","","","","","",""
"null","","html-keyboard-response","18","508675","0.0-18.0","37FMASSAYDDN59110LQDFDLO6RRBIF","AW0MG225VXWCN","3G9UA71JVVGUCOKNEKUVXTI6SA17JG","","","null","","","","","","","","","",""
"694.9000000059605","","image-keyboard-response","19","509372","0.0-19.0","37FMASSAYDDN59110LQDFDLO6RRBIF","AW0MG225VXWCN","3G9UA71JVVGUCOKNEKUVXTI6SA17JG","","img/set1/S3.jpg","68","3","random","72","random,structured_incentive,structured_normal,structured_load","1,2,2,3,4,2","2,1,3,4","false","","",""
"null","","html-keyboard-response","20","509729","0.0-20.0","37FMASSAYDDN59110LQDFDLO6RRBIF","AW0MG225VXWCN","3G9UA71JVVGUCOKNEKUVXTI6SA17JG","","<img src=""img/set1/S3.jpg"" width=""540"" height = ""360"">","null","","","","","","","","","",""
"null","","html-keyboard-response","21","509943","0.0-21.0","37FMASSAYDDN59110LQDFDLO6RRBIF","AW0MG225VXWCN","3G9UA71JVVGUCOKNEKUVXTI6SA17JG","","","null","","","","","","","","","",""
"552.5999999940395","","image-keyboard-response","22","510497","0.0-22.0","37FMASSAYDDN59110LQDFDLO6RRBIF","AW0MG225VXWCN","3G9UA71JVVGUCOKNEKUVXTI6SA17JG","","img/set1/S1.jpg","83","1","random","83","random,structured_incentive,structured_normal,structured_load","1,2,2,3,4,2","2,1,3,4","true","","",""
"null","","html-keyboard-response","23","510860","0.0-23.0","37FMASSAYDDN59110LQDFDLO6RRBIF","AW0MG225VXWCN","3G9UA71JVVGUCOKNEKUVXTI6SA17JG","","<img src=""img/set1/S1.jpg"" width=""540"" height = ""360"" style=""border:16px solid orange"">","null","","","","","","","","","",""
"null","","html-keyboard-response","24","511069","0.0-24.0","37FMASSAYDDN59110LQDFDLO6RRBIF","AW0MG225VXWCN","3G9UA71JVVGUCOKNEKUVXTI6SA17JG","","","null","","","","","","","","","",""
"786.9000000059605","","image-keyboard-response","25","511857","0.0-25.0","37FMASSAYDDN59110LQDFDLO6RRBIF","AW0MG225VXWCN","3G9UA71JVVGUCOKNEKUVXTI6SA17JG","","img/set1/S3.jpg","72","3","random","72","random,structured_incentive,structured_normal,structured_load","1,2,2,3,4,2","2,1,3,4","true","","",""
"null","","html-keyboard-response","26","512220","0.0-26.0","37FMASSAYDDN59110LQDFDLO6RRBIF","AW0MG225VXWCN","3G9UA71JVVGUCOKNEKUVXTI6SA17JG","","<img src=""img/set1/S3.jpg"" width=""540"" height = ""360"" style=""border:16px solid orange"">","null","","","","","","","","","",""
"null","","html-keyboard-response","27","512430","0.0-27.0","37FMASSAYDDN59110LQDFDLO6RRBIF","AW0MG225VXWCN","3G9UA71JVVGUCOKNEKUVXTI6SA17JG","","","null","","","","","","","","","",""
"578.5999999940395","","image-keyboard-response","28","513009","0.0-28.0","37FMASSAYDDN59110LQDFDLO6RRBIF","AW0MG225VXWCN","3G9UA71JVVGUCOKNEKUVXTI6SA17JG","","img/set1/S3.jpg","72","3","random","72","random,structured_incentive,structured_normal,structured_load","1,2,2,3,4,2","2,1,3,4","true","","",""
"null","","html-keyboard-response","29","513365","0.0-29.0","37FMASSAYDDN59110LQDFDLO6RRBIF","AW0MG225VXWCN","3G9UA71JVVGUCOKNEKUVXTI6SA17JG","","<img src=""img/set1/S3.jpg"" width=""540"" height = ""360"" style=""border:16px solid orange"">","null","","","","","","","","","",""
"null","","html-keyboard-response","30","513580","0.0-30.0","37FMASSAYDDN59110LQDFDLO6RRBIF","AW0MG225VXWCN","3G9UA71JVVGUCOKNEKUVXTI6SA17JG","","","null","","","","","","","","","",""
"492.19999998807907","","image-keyboard-response","31","514074","0.0-31.0","37FMASSAYDDN59110LQDFDLO6RRBIF","AW0MG225VXWCN","3G9UA71JVVGUCOKNEKUVXTI6SA17JG","","img/set1/S3.jpg","72","3","random","72","random,structured_incentive,structured_normal,structured_load","1,2,2,3,4,2","2,1,3,4","true","","",""
"null","","html-keyboard-response","32","514435","0.0-32.0","37FMASSAYDDN59110LQDFDLO6RRBIF","AW0MG225VXWCN","3G9UA71JVVGUCOKNEKUVXTI6SA17JG","","<img src=""img/set1/S3.jpg"" width=""540"" height = ""360"" style=""border:16px solid orange"">","null","","","","","","","","","",""
"null","","html-keyboard-response","33","514650","0.0-33.0","37FMASSAYDDN59110LQDFDLO6RRBIF","AW0MG225VXWCN","3G9UA71JVVGUCOKNEKUVXTI6SA17JG","","","null","","","","","","","","","",""
"655.5999999940395","","image-keyboard-response","34","515307","0.0-34.0","37FMASSAYDDN59110LQDFDLO6RRBIF","AW0MG225VXWCN","3G9UA71JVVGUCOKNEKUVXTI6SA17JG","","img/set1/S1.jpg","83","1","random","83","random,structured_incentive,structured_normal,structured_load","1,2,2,3,4,2","2,1,3,4","true","","",""
"null","","html-keyboard-response","35","515665","0.0-35.0","37FMASSAYDDN59110LQDFDLO6RRBIF","AW0MG225VXWCN","3G9UA71JVVGUCOKNEKUVXTI6SA17JG","","<img src=""img/set1/S1.jpg"" width=""540"" height = ""360"" style=""border:16px solid orange"">","null","","","","","","","","","",""
"null","","html-keyboard-response","36","515876","0.0-36.0","37FMASSAYDDN59110LQDFDLO6RRBIF","AW0MG225VXWCN","3G9UA71JVVGUCOKNEKUVXTI6SA17JG","","","null","","","","","","","","","",""
"524.3000000119209","","image-keyboard-response","37","516403","0.0-37.0","37FMASSAYDDN59110LQDFDLO6RRBIF","AW0MG225VXWCN","3G9UA71JVVGUCOKNEKUVXTI6SA17JG","","img/set1/S1.jpg","83","1","random","83","random,structured_incentive,structured_normal,structured_load","1,2,2,3,4,2","2,1,3,4","true","","",""
"null","","html-keyboard-response","38","516770","0.0-38.0","37FMASSAYDDN59110LQDFDLO6RRBIF","AW0MG225VXWCN","3G9UA71JVVGUCOKNEKUVXTI6SA17JG","","<img src=""img/set1/S1.jpg"" width=""540"" height = ""360"" style=""border:16px solid orange"">","null","","","","","","","","","",""
"null","","html-keyboard-response","39","516986","0.0-39.0","37FMASSAYDDN59110LQDFDLO6RRBIF","AW0MG225VXWCN","3G9UA71JVVGUCOKNEKUVXTI6SA17JG","","","null","","","","","","","","","",""
"496.30000001192093","","image-keyboard-response","40","517483","0.0-40.0","37FMASSAYDDN59110LQDFDLO6RRBIF","AW0MG225VXWCN","3G9UA71JVVGUCOKNEKUVXTI6SA17JG","","img/set1/S1.jpg","83","1","random","83","random,structured_incentive,structured_normal,structured_load","1,2,2,3,4,2","2,1,3,4","true","","",""
"null","","html-keyboard-response","41","517841","0.0-41.0","37FMASSAYDDN59110LQDFDLO6RRBIF","AW0MG225VXWCN","3G9UA71JVVGUCOKNEKUVXTI6SA17JG","","<img src=""img/set1/S1.jpg"" width=""540"" height = ""360"" style=""border:16px solid orange"">","null","","","","","","","","","",""
"null","","html-keyboard-response","42","518045","0.0-42.0","37FMASSAYDDN59110LQDFDLO6RRBIF","AW0MG225VXWCN","3G9UA71JVVGUCOKNEKUVXTI6SA17JG","","","null","","","","","","","","","",""
"444.80000001192093","","image-keyboard-response","43","518491","0.0-43.0","37FMASSAYDDN59110LQDFDLO6RRBIF","AW0MG225VXWCN","3G9UA71JVVGUCOKNEKUVXTI6SA17JG","","img/set1/S1.jpg","83","1","random","83","random,structured_incentive,structured_normal,structured_load","1,2,2,3,4,2","2,1,3,4","true","","",""
"null","","html-keyboard-response","44","518846","0.0-44.0","37FMASSAYDDN59110LQDFDLO6RRBIF","AW0MG225VXWCN","3G9UA71JVVGUCOKNEKUVXTI6SA17JG","","<img src=""img/set1/S1.jpg"" width=""540"" height = ""360"" style=""border:16px solid orange"">","null","","","","","","","","","",""
"null","","html-keyboard-response","45","519060","0.0-45.0","37FMASSAYDDN59110LQDFDLO6RRBIF","AW0MG225VXWCN","3G9UA71JVVGUCOKNEKUVXTI6SA17JG","","","null","","","","","","","","","",""
"700.4000000059605","","image-keyboard-response","46","519761","0.0-46.0","37FMASSAYDDN59110LQDFDLO6RRBIF","AW0MG225VXWCN","3G9UA71JVVGUCOKNEKUVXTI6SA17JG","","img/set1/S4.jpg","74","4","random","74","random,structured_incentive,structured_normal,structured_load","1,2,2,3,4,2","2,1,3,4","true","","",""
"null","","html-keyboard-response","47","520119","0.0-47.0","37FMASSAYDDN59110LQDFDLO6RRBIF","AW0MG225VXWCN","3G9UA71JVVGUCOKNEKUVXTI6SA17JG","","<img src=""img/set1/S4.jpg"" width=""540"" height = ""360"" style=""border:16px solid orange"">","null","","","","","","","","","",""
"null","","html-keyboard-response","48","520335","0.0-48.0","37FMASSAYDDN59110LQDFDLO6RRBIF","AW0MG225VXWCN","3G9UA71JVVGUCOKNEKUVXTI6SA17JG","","","null","","","","","","","","","",""
"761.7000000178814","","image-keyboard-response","49","521097","0.0-49.0","37FMASSAYDDN59110LQDFDLO6RRBIF","AW0MG225VXWCN","3G9UA71JVVGUCOKNEKUVXTI6SA17JG","","img/set1/S3.jpg","72","3","random","72","random,structured_incentive,structured_normal,structured_load","1,2,2,3,4,2","2,1,3,4","true","","",""
"null","","html-keyboard-response","50","521454","0.0-50.0","37FMASSAYDDN59110LQDFDLO6RRBIF","AW0MG225VXWCN","3G9UA71JVVGUCOKNEKUVXTI6SA17JG","","<img src=""img/set1/S3.jpg"" width=""540"" height = ""360"" style=""border:16px solid orange"">","null","","","","","","","","","",""
"null","","html-keyboard-response","51","521665","0.0-51.0","37FMASSAYDDN59110LQDFDLO6RRBIF","AW0MG225VXWCN","3G9UA71JVVGUCOKNEKUVXTI6SA17JG","","","null","","","","","","","","","",""
"463.5","","image-keyboard-response","52","522129","0.0-52.0","37FMASSAYDDN59110LQDFDLO6RRBIF","AW0MG225VXWCN","3G9UA71JVVGUCOKNEKUVXTI6SA17JG","","img/set1/S4.jpg","74","4","random","74","random,structured_incentive,structured_normal,structured_load","1,2,2,3,4,2","2,1,3,4","true","","",""
"null","","html-keyboard-response","53","522484","0.0-53.0","37FMASSAYDDN59110LQDFDLO6RRBIF","AW0MG225VXWCN","3G9UA71JVVGUCOKNEKUVXTI6SA17JG","","<img src=""img/set1/S4.jpg"" width=""540"" height = ""360"" style=""border:16px solid orange"">","null","","","","","","","","","",""
"null","","html-keyboard-response","54","522690","0.0-54.0","37FMASSAYDDN59110LQDFDLO6RRBIF","AW0MG225VXWCN","3G9UA71JVVGUCOKNEKUVXTI6SA17JG","","","null","","","","","","","","","",""
"672","","image-keyboard-response","55","523363","0.0-55.0","37FMASSAYDDN59110LQDFDLO6RRBIF","AW0MG225VXWCN","3G9UA71JVVGUCOKNEKUVXTI6SA17JG","","img/set1/S3.jpg","72","3","random","72","random,structured_incentive,structured_normal,structured_load","1,2,2,3,4,2","2,1,3,4","true","","",""
"null","","html-keyboard-response","56","523731","0.0-56.0","37FMASSAYDDN59110LQDFDLO6RRBIF","AW0MG225VXWCN","3G9UA71JVVGUCOKNEKUVXTI6SA17JG","","<img src=""img/set1/S3.jpg"" width=""540"" height = ""360"" style=""border:16px solid orange"">","null","","","","","","","","","",""
"null","","html-keyboard-response","57","523945","0.0-57.0","37FMASSAYDDN59110LQDFDLO6RRBIF","AW0MG225VXWCN","3G9UA71JVVGUCOKNEKUVXTI6SA17JG","","","null","","","","","","","","","",""
"558.6999999880791","","image-keyboard-response","58","524506","0.0-58.0","37FMASSAYDDN59110LQDFDLO6RRBIF","AW0MG225VXWCN","3G9UA71JVVGUCOKNEKUVXTI6SA17JG","","img/set1/S3.jpg","72","3","random","72","random,structured_incentive,structured_normal,structured_load","1,2,2,3,4,2","2,1,3,4","true","","",""
"null","","html-keyboard-response","59","524864","0.0-59.0","37FMASSAYDDN59110LQDFDLO6RRBIF","AW0MG225VXWCN","3G9UA71JVVGUCOKNEKUVXTI6SA17JG","","<img src=""img/set1/S3.jpg"" width=""540"" height = ""360"" style=""border:16px solid orange"">","null","","","","","","","","","",""
"null","","html-keyboard-response","60","525073","0.0-60.0","37FMASSAYDDN59110LQDFDLO6RRBIF","AW0MG225VXWCN","3G9UA71JVVGUCOKNEKUVXTI6SA17JG","","","null","","","","","","","","","",""
"591.5999999940395","","image-keyboard-response","61","525666","0.0-61.0","37FMASSAYDDN59110LQDFDLO6RRBIF","AW0MG225VXWCN","3G9UA71JVVGUCOKNEKUVXTI6SA17JG","","img/set1/S4.jpg","74","4","random","74","random,structured_incentive,structured_normal,structured_load","1,2,2,3,4,2","2,1,3,4","true","","",""
"null","","html-keyboard-response","62","526023","0.0-62.0","37FMASSAYDDN59110LQDFDLO6RRBIF","AW0MG225VXWCN","3G9UA71JVVGUCOKNEKUVXTI6SA17JG","","<img src=""img/set1/S4.jpg"" width=""540"" height = ""360"" style=""border:16px solid orange"">","null","","","","","","","","","",""
"null","","html-keyboard-response","63","526239","0.0-63.0","37FMASSAYDDN59110LQDFDLO6RRBIF","AW0MG225VXWCN","3G9UA71JVVGUCOKNEKUVXTI6SA17JG","","","null","","","","","","","","","",""
"457.80000001192093","","image-keyboard-response","64","526698","0.0-64.0","37FMASSAYDDN59110LQDFDLO6RRBIF","AW0MG225VXWCN","3G9UA71JVVGUCOKNEKUVXTI6SA17JG","","img/set1/S4.jpg","74","4","random","74","random,structured_incentive,structured_normal,structured_load","1,2,2,3,4,2","2,1,3,4","true","","",""
"null","","html-keyboard-response","65","527054","0.0-65.0","37FMASSAYDDN59110LQDFDLO6RRBIF","AW0MG225VXWCN","3G9UA71JVVGUCOKNEKUVXTI6SA17JG","","<img src=""img/set1/S4.jpg"" width=""540"" height = ""360"" style=""border:16px solid orange"">","null","","","","","","","","","",""
"null","","html-keyboard-response","66","527264","0.0-66.0","37FMASSAYDDN59110LQDFDLO6RRBIF","AW0MG225VXWCN","3G9UA71JVVGUCOKNEKUVXTI6SA17JG","","","null","","","","","","","","","",""
"600.9000000059605","","image-keyboard-response","67","527867","0.0-67.0","37FMASSAYDDN59110LQDFDLO6RRBIF","AW0MG225VXWCN","3G9UA71JVVGUCOKNEKUVXTI6SA17JG","","img/set1/S1.jpg","68","1","random","83","random,structured_incentive,structured_normal,structured_load","1,2,2,3,4,2","2,1,3,4","false","","",""
"null","","html-keyboard-response","68","528233","0.0-68.0","37FMASSAYDDN59110LQDFDLO6RRBIF","AW0MG225VXWCN","3G9UA71JVVGUCOKNEKUVXTI6SA17JG","","<img src=""img/set1/S1.jpg"" width=""540"" height = ""360"">","null","","","","","","","","","",""
"null","","html-keyboard-response","69","528443","0.0-69.0","37FMASSAYDDN59110LQDFDLO6RRBIF","AW0MG225VXWCN","3G9UA71JVVGUCOKNEKUVXTI6SA17JG","","","null","","","","","","","","","",""
"682.5","","image-keyboard-response","70","529129","0.0-70.0","37FMASSAYDDN59110LQDFDLO6RRBIF","AW0MG225VXWCN","3G9UA71JVVGUCOKNEKUVXTI6SA17JG","","img/set1/S2.jpg","68","2","random","68","random,structured_incentive,structured_normal,structured_load","1,2,2,3,4,2","2,1,3,4","true","","",""
"null","","html-keyboard-response","71","529488","0.0-71.0","37FMASSAYDDN59110LQDFDLO6RRBIF","AW0MG225VXWCN","3G9UA71JVVGUCOKNEKUVXTI6SA17JG","","<img src=""img/set1/S2.jpg"" width=""540"" height = ""360"" style=""border:16px solid orange"">","null","","","","","","","","","",""
"null","","html-keyboard-response","72","529703","0.0-72.0","37FMASSAYDDN59110LQDFDLO6RRBIF","AW0MG225VXWCN","3G9UA71JVVGUCOKNEKUVXTI6SA17JG","","","null","","","","","","","","","",""
"793.5999999940395","","image-keyboard-response","73","530497","0.0-73.0","37FMASSAYDDN59110LQDFDLO6RRBIF","AW0MG225VXWCN","3G9UA71JVVGUCOKNEKUVXTI6SA17JG","","img/set1/S3.jpg","72","3","random","72","random,structured_incentive,structured_normal,structured_load","1,2,2,3,4,2","2,1,3,4","true","","",""
"null","","html-keyboard-response","74","530863","0.0-74.0","37FMASSAYDDN59110LQDFDLO6RRBIF","AW0MG225VXWCN","3G9UA71JVVGUCOKNEKUVXTI6SA17JG","","<img src=""img/set1/S3.jpg"" width=""540"" height = ""360"" style=""border:16px solid orange"">","null","","","","","","","","","",""
"null","","html-keyboard-response","75","531068","0.0-75.0","37FMASSAYDDN59110LQDFDLO6RRBIF","AW0MG225VXWCN","3G9UA71JVVGUCOKNEKUVXTI6SA17JG","","","null","","","","","","","","","",""
"676.5999999940395","","image-keyboard-response","76","531745","0.0-76.0","37FMASSAYDDN59110LQDFDLO6RRBIF","AW0MG225VXWCN","3G9UA71JVVGUCOKNEKUVXTI6SA17JG","","img/set1/S3.jpg","72","3","random","72","random,structured_incentive,structured_normal,structured_load","1,2,2,3,4,2","2,1,3,4","true","","",""
"null","","html-keyboard-response","77","532098","0.0-77.0","37FMASSAYDDN59110LQDFDLO6RRBIF","AW0MG225VXWCN","3G9UA71JVVGUCOKNEKUVXTI6SA17JG","","<img src=""img/set1/S3.jpg"" width=""540"" height = ""360"" style=""border:16px solid orange"">","null","","","","","","","","","",""
"null","","html-keyboard-response","78","532314","0.0-78.0","37FMASSAYDDN59110LQDFDLO6RRBIF","AW0MG225VXWCN","3G9UA71JVVGUCOKNEKUVXTI6SA17JG","","","null","","","","","","","","","",""
"702.4000000059605","","image-keyboard-response","79","533017","0.0-79.0","37FMASSAYDDN59110LQDFDLO6RRBIF","AW0MG225VXWCN","3G9UA71JVVGUCOKNEKUVXTI6SA17JG","","img/set1/S2.jpg","74","2","random","68","random,structured_incentive,structured_normal,structured_load","1,2,2,3,4,2","2,1,3,4","false","","",""
"null","","html-keyboard-response","80","533383","0.0-80.0","37FMASSAYDDN59110LQDFDLO6RRBIF","AW0MG225VXWCN","3G9UA71JVVGUCOKNEKUVXTI6SA17JG","","<img src=""img/set1/S2.jpg"" width=""540"" height = ""360"">","null","","","","","","","","","",""
"null","","html-keyboard-response","81","533599","0.0-81.0","37FMASSAYDDN59110LQDFDLO6RRBIF","AW0MG225VXWCN","3G9UA71JVVGUCOKNEKUVXTI6SA17JG","","","null","","","","","","","","","",""
"617","","image-keyboard-response","82","534217","0.0-82.0","37FMASSAYDDN59110LQDFDLO6RRBIF","AW0MG225VXWCN","3G9UA71JVVGUCOKNEKUVXTI6SA17JG","","img/set1/S4.jpg","74","4","random","74","random,structured_incentive,structured_normal,structured_load","1,2,2,3,4,2","2,1,3,4","true","","",""
"null","","html-keyboard-response","83","534583","0.0-83.0","37FMASSAYDDN59110LQDFDLO6RRBIF","AW0MG225VXWCN","3G9UA71JVVGUCOKNEKUVXTI6SA17JG","","<img src=""img/set1/S4.jpg"" width=""540"" height = ""360"" style=""border:16px solid orange"">","null","","","","","","","","","",""
"null","","html-keyboard-response","84","534788","0.0-84.0","37FMASSAYDDN59110LQDFDLO6RRBIF","AW0MG225VXWCN","3G9UA71JVVGUCOKNEKUVXTI6SA17JG","","","null","","","","","","","","","",""
"491","","image-keyboard-response","85","535281","0.0-85.0","37FMASSAYDDN59110LQDFDLO6RRBIF","AW0MG225VXWCN","3G9UA71JVVGUCOKNEKUVXTI6SA17JG","","img/set1/S2.jpg","68","2","random","68","random,structured_incentive,structured_normal,structured_load","1,2,2,3,4,2","2,1,3,4","true","","",""
"null","","html-keyboard-response","86","535643","0.0-86.0","37FMASSAYDDN59110LQDFDLO6RRBIF","AW0MG225VXWCN","3G9UA71JVVGUCOKNEKUVXTI6SA17JG","","<img src=""img/set1/S2.jpg"" width=""540"" height = ""360"" style=""border:16px solid orange"">","null","","","","","","","","","",""
"null","","html-keyboard-response","87","535850","0.0-87.0","37FMASSAYDDN59110LQDFDLO6RRBIF","AW0MG225VXWCN","3G9UA71JVVGUCOKNEKUVXTI6SA17JG","","","null","","","","","","","","","",""
"855.5999999940395","","image-keyboard-response","88","536707","0.0-88.0","37FMASSAYDDN59110LQDFDLO6RRBIF","AW0MG225VXWCN","3G9UA71JVVGUCOKNEKUVXTI6SA17JG","","img/set1/S3.jpg","72","3","random","72","random,structured_incentive,structured_normal,structured_load","1,2,2,3,4,2","2,1,3,4","true","","",""
"null","","html-keyboard-response","89","537073","0.0-89.0","37FMASSAYDDN59110LQDFDLO6RRBIF","AW0MG225VXWCN","3G9UA71JVVGUCOKNEKUVXTI6SA17JG","","<img src=""img/set1/S3.jpg"" width=""540"" height = ""360"" style=""border:16px solid orange"">","null","","","","","","","","","",""
"null","","html-keyboard-response","90","537283","0.0-90.0","37FMASSAYDDN59110LQDFDLO6RRBIF","AW0MG225VXWCN","3G9UA71JVVGUCOKNEKUVXTI6SA17JG","","","null","","","","","","","","","",""
"638.0999999940395","","image-keyboard-response","91","537923","0.0-91.0","37FMASSAYDDN59110LQDFDLO6RRBIF","AW0MG225VXWCN","3G9UA71JVVGUCOKNEKUVXTI6SA17JG","","img/set1/S2.jpg","68","2","random","68","random,structured_incentive,structured_normal,structured_load","1,2,2,3,4,2","2,1,3,4","true","","",""
"null","","html-keyboard-response","92","538288","0.0-92.0","37FMASSAYDDN59110LQDFDLO6RRBIF","AW0MG225VXWCN","3G9UA71JVVGUCOKNEKUVXTI6SA17JG","","<img src=""img/set1/S2.jpg"" width=""540"" height = ""360"" style=""border:16px solid orange"">","null","","","","","","","","","",""
"null","","html-keyboard-response","93","538498","0.0-93.0","37FMASSAYDDN59110LQDFDLO6RRBIF","AW0MG225VXWCN","3G9UA71JVVGUCOKNEKUVXTI6SA17JG","","","null","","","","","","","","","",""
"470.5","","image-keyboard-response","94","538969","0.0-94.0","37FMASSAYDDN59110LQDFDLO6RRBIF","AW0MG225VXWCN","3G9UA71JVVGUCOKNEKUVXTI6SA17JG","","img/set1/S2.jpg","68","2","random","68","random,structured_incentive,structured_normal,structured_load","1,2,2,3,4,2","2,1,3,4","true","","",""
"null","","html-keyboard-response","95","539333","0.0-95.0","37FMASSAYDDN59110LQDFDLO6RRBIF","AW0MG225VXWCN","3G9UA71JVVGUCOKNEKUVXTI6SA17JG","","<img src=""img/set1/S2.jpg"" width=""540"" height = ""360"" style=""border:16px solid orange"">","null","","","","","","","","","",""
"null","","html-keyboard-response","96","539538","0.0-96.0","37FMASSAYDDN59110LQDFDLO6RRBIF","AW0MG225VXWCN","3G9UA71JVVGUCOKNEKUVXTI6SA17JG","","","null","","","","","","","","","",""
"742.6999999880791","","image-keyboard-response","97","540281","0.0-97.0","37FMASSAYDDN59110LQDFDLO6RRBIF","AW0MG225VXWCN","3G9UA71JVVGUCOKNEKUVXTI6SA17JG","","img/set1/S4.jpg","74","4","random","74","random,structured_incentive,structured_normal,structured_load","1,2,2,3,4,2","2,1,3,4","true","","",""
"null","","html-keyboard-response","98","540640","0.0-98.0","37FMASSAYDDN59110LQDFDLO6RRBIF","AW0MG225VXWCN","3G9UA71JVVGUCOKNEKUVXTI6SA17JG","","<img src=""img/set1/S4.jpg"" width=""540"" height = ""360"" style=""border:16px solid orange"">","null","","","","","","","","","",""
"null","","html-keyboard-response","99","540850","0.0-99.0","37FMASSAYDDN59110LQDFDLO6RRBIF","AW0MG225VXWCN","3G9UA71JVVGUCOKNEKUVXTI6SA17JG","","","null","","","","","","","","","",""
"639.5999999940395","","image-keyboard-response","100","541490","0.0-100.0","37FMASSAYDDN59110LQDFDLO6RRBIF","AW0MG225VXWCN","3G9UA71JVVGUCOKNEKUVXTI6SA17JG","","img/set1/S1.jpg","83","1","random","83","random,structured_incentive,structured_normal,structured_load","1,2,2,3,4,2","2,1,3,4","true","","",""
"null","","html-keyboard-response","101","541849","0.0-101.0","37FMASSAYDDN59110LQDFDLO6RRBIF","AW0MG225VXWCN","3G9UA71JVVGUCOKNEKUVXTI6SA17JG","","<img src=""img/set1/S1.jpg"" width=""540"" height = ""360"" style=""border:16px solid orange"">","null","","","","","","","","","",""
"null","","html-keyboard-response","102","542064","0.0-102.0","37FMASSAYDDN59110LQDFDLO6RRBIF","AW0MG225VXWCN","3G9UA71JVVGUCOKNEKUVXTI6SA17JG","","","null","","","","","","","","","",""
"673","","image-keyboard-response","103","542739","0.0-103.0","37FMASSAYDDN59110LQDFDLO6RRBIF","AW0MG225VXWCN","3G9UA71JVVGUCOKNEKUVXTI6SA17JG","","img/set1/S2.jpg","74","2","random","68","random,structured_incentive,structured_normal,structured_load","1,2,2,3,4,2","2,1,3,4","false","","",""
"null","","html-keyboard-response","104","543101","0.0-104.0","37FMASSAYDDN59110LQDFDLO6RRBIF","AW0MG225VXWCN","3G9UA71JVVGUCOKNEKUVXTI6SA17JG","","<img src=""img/set1/S2.jpg"" width=""540"" height = ""360"">","null","","","","","","","","","",""
"null","","html-keyboard-response","105","543305","0.0-105.0","37FMASSAYDDN59110LQDFDLO6RRBIF","AW0MG225VXWCN","3G9UA71JVVGUCOKNEKUVXTI6SA17JG","","","null","","","","","","","","","",""
"825.1999999880791","","image-keyboard-response","106","544132","0.0-106.0","37FMASSAYDDN59110LQDFDLO6RRBIF","AW0MG225VXWCN","3G9UA71JVVGUCOKNEKUVXTI6SA17JG","","img/set1/S4.jpg","74","4","random","74","random,structured_incentive,structured_normal,structured_load","1,2,2,3,4,2","2,1,3,4","true","","",""
"null","","html-keyboard-response","107","544493","0.0-107.0","37FMASSAYDDN59110LQDFDLO6RRBIF","AW0MG225VXWCN","3G9UA71JVVGUCOKNEKUVXTI6SA17JG","","<img src=""img/set1/S4.jpg"" width=""540"" height = ""360"" style=""border:16px solid orange"">","null","","","","","","","","","",""
"null","","html-keyboard-response","108","544699","0.0-108.0","37FMASSAYDDN59110LQDFDLO6RRBIF","AW0MG225VXWCN","3G9UA71JVVGUCOKNEKUVXTI6SA17JG","","","null","","","","","","","","","",""
"604.5999999940395","","image-keyboard-response","109","545305","0.0-109.0","37FMASSAYDDN59110LQDFDLO6RRBIF","AW0MG225VXWCN","3G9UA71JVVGUCOKNEKUVXTI6SA17JG","","img/set1/S1.jpg","83","1","random","83","random,structured_incentive,structured_normal,structured_load","1,2,2,3,4,2","2,1,3,4","true","","",""
"null","","html-keyboard-response","110","545667","0.0-110.0","37FMASSAYDDN59110LQDFDLO6RRBIF","AW0MG225VXWCN","3G9UA71JVVGUCOKNEKUVXTI6SA17JG","","<img src=""img/set1/S1.jpg"" width=""540"" height = ""360"" style=""border:16px solid orange"">","null","","","","","","","","","",""
"null","","html-keyboard-response","111","545883","0.0-111.0","37FMASSAYDDN59110LQDFDLO6RRBIF","AW0MG225VXWCN","3G9UA71JVVGUCOKNEKUVXTI6SA17JG","","","null","","","","","","","","","",""
"781.9000000059605","","image-keyboard-response","112","546666","0.0-112.0","37FMASSAYDDN59110LQDFDLO6RRBIF","AW0MG225VXWCN","3G9UA71JVVGUCOKNEKUVXTI6SA17JG","","img/set1/S2.jpg","68","2","random","68","random,structured_incentive,structured_normal,structured_load","1,2,2,3,4,2","2,1,3,4","true","","",""
"null","","html-keyboard-response","113","547018","0.0-113.0","37FMASSAYDDN59110LQDFDLO6RRBIF","AW0MG225VXWCN","3G9UA71JVVGUCOKNEKUVXTI6SA17JG","","<img src=""img/set1/S2.jpg"" width=""540"" height = ""360"" style=""border:16px solid orange"">","null","","","","","","","","","",""
"null","","html-keyboard-response","114","547222","0.0-114.0","37FMASSAYDDN59110LQDFDLO6RRBIF","AW0MG225VXWCN","3G9UA71JVVGUCOKNEKUVXTI6SA17JG","","","null","","","","","","","","","",""
"810.8000000119209","","image-keyboard-response","115","548033","0.0-115.0","37FMASSAYDDN59110LQDFDLO6RRBIF","AW0MG225VXWCN","3G9UA71JVVGUCOKNEKUVXTI6SA17JG","","img/set1/S1.jpg","83","1","random","83","random,structured_incentive,structured_normal,structured_load","1,2,2,3,4,2","2,1,3,4","true","","",""
"null","","html-keyboard-response","116","548399","0.0-116.0","37FMASSAYDDN59110LQDFDLO6RRBIF","AW0MG225VXWCN","3G9UA71JVVGUCOKNEKUVXTI6SA17JG","","<img src=""img/set1/S1.jpg"" width=""540"" height = ""360"" style=""border:16px solid orange"">","null","","","","","","","","","",""
"null","","html-keyboard-response","117","548605","0.0-117.0","37FMASSAYDDN59110LQDFDLO6RRBIF","AW0MG225VXWCN","3G9UA71JVVGUCOKNEKUVXTI6SA17JG","","","null","","","","","","","","","",""
"490.80000001192093","","image-keyboard-response","118","549097","0.0-118.0","37FMASSAYDDN59110LQDFDLO6RRBIF","AW0MG225VXWCN","3G9UA71JVVGUCOKNEKUVXTI6SA17JG","","img/set1/S1.jpg","83","1","random","83","random,structured_incentive,structured_normal,structured_load","1,2,2,3,4,2","2,1,3,4","true","","",""
"null","","html-keyboard-response","119","549454","0.0-119.0","37FMASSAYDDN59110LQDFDLO6RRBIF","AW0MG225VXWCN","3G9UA71JVVGUCOKNEKUVXTI6SA17JG","","<img src=""img/set1/S1.jpg"" width=""540"" height = ""360"" style=""border:16px solid orange"">","null","","","","","","","","","",""
"null","","html-keyboard-response","120","549657","0.0-120.0","37FMASSAYDDN59110LQDFDLO6RRBIF","AW0MG225VXWCN","3G9UA71JVVGUCOKNEKUVXTI6SA17JG","","","null","","","","","","","","","",""
"616.6000000238419","","image-keyboard-response","121","550274","0.0-121.0","37FMASSAYDDN59110LQDFDLO6RRBIF","AW0MG225VXWCN","3G9UA71JVVGUCOKNEKUVXTI6SA17JG","","img/set1/S4.jpg","74","4","random","74","random,structured_incentive,structured_normal,structured_load","1,2,2,3,4,2","2,1,3,4","true","","",""
"null","","html-keyboard-response","122","550630","0.0-122.0","37FMASSAYDDN59110LQDFDLO6RRBIF","AW0MG225VXWCN","3G9UA71JVVGUCOKNEKUVXTI6SA17JG","","<img src=""img/set1/S4.jpg"" width=""540"" height = ""360"" style=""border:16px solid orange"">","null","","","","","","","","","",""
"null","","html-keyboard-response","123","550844","0.0-123.0","37FMASSAYDDN59110LQDFDLO6RRBIF","AW0MG225VXWCN","3G9UA71JVVGUCOKNEKUVXTI6SA17JG","","","null","","","","","","","","","",""
"620.5","","image-keyboard-response","124","551466","0.0-124.0","37FMASSAYDDN59110LQDFDLO6RRBIF","AW0MG225VXWCN","3G9UA71JVVGUCOKNEKUVXTI6SA17JG","","img/set1/S3.jpg","72","3","random","72","random,structured_incentive,structured_normal,structured_load","1,2,2,3,4,2","2,1,3,4","true","","",""
"null","","html-keyboard-response","125","551830","0.0-125.0","37FMASSAYDDN59110LQDFDLO6RRBIF","AW0MG225VXWCN","3G9UA71JVVGUCOKNEKUVXTI6SA17JG","","<img src=""img/set1/S3.jpg"" width=""540"" height = ""360"" style=""border:16px solid orange"">","null","","","","","","","","","",""
"null","","html-keyboard-response","126","552046","0.0-126.0","37FMASSAYDDN59110LQDFDLO6RRBIF","AW0MG225VXWCN","3G9UA71JVVGUCOKNEKUVXTI6SA17JG","","","null","","","","","","","","","",""
"650.7000000178814","","image-keyboard-response","127","552698","0.0-127.0","37FMASSAYDDN59110LQDFDLO6RRBIF","AW0MG225VXWCN","3G9UA71JVVGUCOKNEKUVXTI6SA17JG","","img/set1/S4.jpg","74","4","random","74","random,structured_incentive,structured_normal,structured_load","1,2,2,3,4,2","2,1,3,4","true","","",""
"null","","html-keyboard-response","128","553056","0.0-128.0","37FMASSAYDDN59110LQDFDLO6RRBIF","AW0MG225VXWCN","3G9UA71JVVGUCOKNEKUVXTI6SA17JG","","<img src=""img/set1/S4.jpg"" width=""540"" height = ""360"" style=""border:16px solid orange"">","null","","","","","","","","","",""
"null","","html-keyboard-response","129","553262","0.0-129.0","37FMASSAYDDN59110LQDFDLO6RRBIF","AW0MG225VXWCN","3G9UA71JVVGUCOKNEKUVXTI6SA17JG","","","null","","","","","","","","","",""
"674.2000000178814","","image-keyboard-response","130","553937","0.0-130.0","37FMASSAYDDN59110LQDFDLO6RRBIF","AW0MG225VXWCN","3G9UA71JVVGUCOKNEKUVXTI6SA17JG","","img/set1/S4.jpg","74","4","random","74","random,structured_incentive,structured_normal,structured_load","1,2,2,3,4,2","2,1,3,4","true","","",""
"null","","html-keyboard-response","131","554298","0.0-131.0","37FMASSAYDDN59110LQDFDLO6RRBIF","AW0MG225VXWCN","3G9UA71JVVGUCOKNEKUVXTI6SA17JG","","<img src=""img/set1/S4.jpg"" width=""540"" height = ""360"" style=""border:16px solid orange"">","null","","","","","","","","","",""
"null","","html-keyboard-response","132","554504","0.0-132.0","37FMASSAYDDN59110LQDFDLO6RRBIF","AW0MG225VXWCN","3G9UA71JVVGUCOKNEKUVXTI6SA17JG","","","null","","","","","","","","","",""
"824.5","","image-keyboard-response","133","555329","0.0-133.0","37FMASSAYDDN59110LQDFDLO6RRBIF","AW0MG225VXWCN","3G9UA71JVVGUCOKNEKUVXTI6SA17JG","","img/set1/S1.jpg","83","1","random","83","random,structured_incentive,structured_normal,structured_load","1,2,2,3,4,2","2,1,3,4","true","","",""
"null","","html-keyboard-response","134","555687","0.0-134.0","37FMASSAYDDN59110LQDFDLO6RRBIF","AW0MG225VXWCN","3G9UA71JVVGUCOKNEKUVXTI6SA17JG","","<img src=""img/set1/S1.jpg"" width=""540"" height = ""360"" style=""border:16px solid orange"">","null","","","","","","","","","",""
"null","","html-keyboard-response","135","555896","0.0-135.0","37FMASSAYDDN59110LQDFDLO6RRBIF","AW0MG225VXWCN","3G9UA71JVVGUCOKNEKUVXTI6SA17JG","","","null","","","","","","","","","",""
"833.8000000119209","","image-keyboard-response","136","556731","0.0-136.0","37FMASSAYDDN59110LQDFDLO6RRBIF","AW0MG225VXWCN","3G9UA71JVVGUCOKNEKUVXTI6SA17JG","","img/set1/S3.jpg","72","3","random","72","random,structured_incentive,structured_normal,structured_load","1,2,2,3,4,2","2,1,3,4","true","","",""
"null","","html-keyboard-response","137","557092","0.0-137.0","37FMASSAYDDN59110LQDFDLO6RRBIF","AW0MG225VXWCN","3G9UA71JVVGUCOKNEKUVXTI6SA17JG","","<img src=""img/set1/S3.jpg"" width=""540"" height = ""360"" style=""border:16px solid orange"">","null","","","","","","","","","",""
"null","","html-keyboard-response","138","557300","0.0-138.0","37FMASSAYDDN59110LQDFDLO6RRBIF","AW0MG225VXWCN","3G9UA71JVVGUCOKNEKUVXTI6SA17JG","","","null","","","","","","","","","",""
"641.3000000119209","","image-keyboard-response","139","557947","0.0-139.0","37FMASSAYDDN59110LQDFDLO6RRBIF","AW0MG225VXWCN","3G9UA71JVVGUCOKNEKUVXTI6SA17JG","","img/set1/S2.jpg","68","2","random","68","random,structured_incentive,structured_normal,structured_load","1,2,2,3,4,2","2,1,3,4","true","","",""
"null","","html-keyboard-response","140","558310","0.0-140.0","37FMASSAYDDN59110LQDFDLO6RRBIF","AW0MG225VXWCN","3G9UA71JVVGUCOKNEKUVXTI6SA17JG","","<img src=""img/set1/S2.jpg"" width=""540"" height = ""360"" style=""border:16px solid orange"">","null","","","","","","","","","",""
"null","","html-keyboard-response","141","558514","0.0-141.0","37FMASSAYDDN59110LQDFDLO6RRBIF","AW0MG225VXWCN","3G9UA71JVVGUCOKNEKUVXTI6SA17JG","","","null","","","","","","","","","",""
"583.5999999940395","","image-keyboard-response","142","559098","0.0-142.0","37FMASSAYDDN59110LQDFDLO6RRBIF","AW0MG225VXWCN","3G9UA71JVVGUCOKNEKUVXTI6SA17JG","","img/set1/S1.jpg","83","1","random","83","random,structured_incentive,structured_normal,structured_load","1,2,2,3,4,2","2,1,3,4","true","","",""
"null","","html-keyboard-response","143","559452","0.0-143.0","37FMASSAYDDN59110LQDFDLO6RRBIF","AW0MG225VXWCN","3G9UA71JVVGUCOKNEKUVXTI6SA17JG","","<img src=""img/set1/S1.jpg"" width=""540"" height = ""360"" style=""border:16px solid orange"">","null","","","","","","","","","",""
"null","","html-keyboard-response","144","559669","0.0-144.0","37FMASSAYDDN59110LQDFDLO6RRBIF","AW0MG225VXWCN","3G9UA71JVVGUCOKNEKUVXTI6SA17JG","","","null","","","","","","","","","",""
"1364.0999999940395","","image-keyboard-response","145","561035","0.0-145.0","37FMASSAYDDN59110LQDFDLO6RRBIF","AW0MG225VXWCN","3G9UA71JVVGUCOKNEKUVXTI6SA17JG","","img/set1/S2.jpg","68","2","random","68","random,structured_incentive,structured_normal,structured_load","1,2,2,3,4,2","2,1,3,4","true","","",""
"null","","html-keyboard-response","146","561391","0.0-146.0","37FMASSAYDDN59110LQDFDLO6RRBIF","AW0MG225VXWCN","3G9UA71JVVGUCOKNEKUVXTI6SA17JG","","<img src=""img/set1/S2.jpg"" width=""540"" height = ""360"" style=""border:16px solid orange"">","null","","","","","","","","","",""
"null","","html-keyboard-response","147","561594","0.0-147.0","37FMASSAYDDN59110LQDFDLO6RRBIF","AW0MG225VXWCN","3G9UA71JVVGUCOKNEKUVXTI6SA17JG","","","null","","","","","","","","","",""
"518.5999999940395","","image-keyboard-response","148","562114","0.0-148.0","37FMASSAYDDN59110LQDFDLO6RRBIF","AW0MG225VXWCN","3G9UA71JVVGUCOKNEKUVXTI6SA17JG","","img/set1/S2.jpg","68","2","random","68","random,structured_incentive,structured_normal,structured_load","1,2,2,3,4,2","2,1,3,4","true","","",""
"null","","html-keyboard-response","149","562467","0.0-149.0","37FMASSAYDDN59110LQDFDLO6RRBIF","AW0MG225VXWCN","3G9UA71JVVGUCOKNEKUVXTI6SA17JG","","<img src=""img/set1/S2.jpg"" width=""540"" height = ""360"" style=""border:16px solid orange"">","null","","","","","","","","","",""
"null","","html-keyboard-response","150","562680","0.0-150.0","37FMASSAYDDN59110LQDFDLO6RRBIF","AW0MG225VXWCN","3G9UA71JVVGUCOKNEKUVXTI6SA17JG","","","null","","","","","","","","","",""
"514.0999999940395","","image-keyboard-response","151","563196","0.0-151.0","37FMASSAYDDN59110LQDFDLO6RRBIF","AW0MG225VXWCN","3G9UA71JVVGUCOKNEKUVXTI6SA17JG","","img/set1/S1.jpg","83","1","random","83","random,structured_incentive,structured_normal,structured_load","1,2,2,3,4,2","2,1,3,4","true","","",""
"null","","html-keyboard-response","152","563562","0.0-152.0","37FMASSAYDDN59110LQDFDLO6RRBIF","AW0MG225VXWCN","3G9UA71JVVGUCOKNEKUVXTI6SA17JG","","<img src=""img/set1/S1.jpg"" width=""540"" height = ""360"" style=""border:16px solid orange"">","null","","","","","","","","","",""
"null","","html-keyboard-response","153","563777","0.0-153.0","37FMASSAYDDN59110LQDFDLO6RRBIF","AW0MG225VXWCN","3G9UA71JVVGUCOKNEKUVXTI6SA17JG","","","null","","","","","","","","","",""
"823.6999999880791","","image-keyboard-response","154","564601","0.0-154.0","37FMASSAYDDN59110LQDFDLO6RRBIF","AW0MG225VXWCN","3G9UA71JVVGUCOKNEKUVXTI6SA17JG","","img/set1/S2.jpg","68","2","random","68","random,structured_incentive,structured_normal,structured_load","1,2,2,3,4,2","2,1,3,4","true","","",""
"null","","html-keyboard-response","155","564961","0.0-155.0","37FMASSAYDDN59110LQDFDLO6RRBIF","AW0MG225VXWCN","3G9UA71JVVGUCOKNEKUVXTI6SA17JG","","<img src=""img/set1/S2.jpg"" width=""540"" height = ""360"" style=""border:16px solid orange"">","null","","","","","","","","","",""
"null","","html-keyboard-response","156","565177","0.0-156.0","37FMASSAYDDN59110LQDFDLO6RRBIF","AW0MG225VXWCN","3G9UA71JVVGUCOKNEKUVXTI6SA17JG","","","null","","","","","","","","","",""
"639.8000000119209","","image-keyboard-response","157","565817","0.0-157.0","37FMASSAYDDN59110LQDFDLO6RRBIF","AW0MG225VXWCN","3G9UA71JVVGUCOKNEKUVXTI6SA17JG","","img/set1/S4.jpg","74","4","random","74","random,structured_incentive,structured_normal,structured_load","1,2,2,3,4,2","2,1,3,4","true","","",""
"null","","html-keyboard-response","158","566176","0.0-158.0","37FMASSAYDDN59110LQDFDLO6RRBIF","AW0MG225VXWCN","3G9UA71JVVGUCOKNEKUVXTI6SA17JG","","<img src=""img/set1/S4.jpg"" width=""540"" height = ""360"" style=""border:16px solid orange"">","null","","","","","","","","","",""
"null","","html-keyboard-response","159","566382","0.0-159.0","37FMASSAYDDN59110LQDFDLO6RRBIF","AW0MG225VXWCN","3G9UA71JVVGUCOKNEKUVXTI6SA17JG","","","null","","","","","","","","","",""
"586.9000000059605","","image-keyboard-response","160","566971","0.0-160.0","37FMASSAYDDN59110LQDFDLO6RRBIF","AW0MG225VXWCN","3G9UA71JVVGUCOKNEKUVXTI6SA17JG","","img/set1/S4.jpg","74","4","random","74","random,structured_incentive,structured_normal,structured_load","1,2,2,3,4,2","2,1,3,4","true","","",""
"null","","html-keyboard-response","161","567337","0.0-161.0","37FMASSAYDDN59110LQDFDLO6RRBIF","AW0MG225VXWCN","3G9UA71JVVGUCOKNEKUVXTI6SA17JG","","<img src=""img/set1/S4.jpg"" width=""540"" height = ""360"" style=""border:16px solid orange"">","null","","","","","","","","","",""
"null","","html-keyboard-response","162","567552","0.0-162.0","37FMASSAYDDN59110LQDFDLO6RRBIF","AW0MG225VXWCN","3G9UA71JVVGUCOKNEKUVXTI6SA17JG","","","null","","","","","","","","","",""
"537.4000000059605","","image-keyboard-response","163","568091","0.0-163.0","37FMASSAYDDN59110LQDFDLO6RRBIF","AW0MG225VXWCN","3G9UA71JVVGUCOKNEKUVXTI6SA17JG","","img/set1/S4.jpg","74","4","random","74","random,structured_incentive,structured_normal,structured_load","1,2,2,3,4,2","2,1,3,4","true","","",""
"null","","html-keyboard-response","164","568449","0.0-164.0","37FMASSAYDDN59110LQDFDLO6RRBIF","AW0MG225VXWCN","3G9UA71JVVGUCOKNEKUVXTI6SA17JG","","<img src=""img/set1/S4.jpg"" width=""540"" height = ""360"" style=""border:16px solid orange"">","null","","","","","","","","","",""
"null","","html-keyboard-response","165","568653","0.0-165.0","37FMASSAYDDN59110LQDFDLO6RRBIF","AW0MG225VXWCN","3G9UA71JVVGUCOKNEKUVXTI6SA17JG","","","null","","","","","","","","","",""
"708.7000000178814","","image-keyboard-response","166","569363","0.0-166.0","37FMASSAYDDN59110LQDFDLO6RRBIF","AW0MG225VXWCN","3G9UA71JVVGUCOKNEKUVXTI6SA17JG","","img/set1/S1.jpg","83","1","random","83","random,structured_incentive,structured_normal,structured_load","1,2,2,3,4,2","2,1,3,4","true","","",""
"null","","html-keyboard-response","167","569725","0.0-167.0","37FMASSAYDDN59110LQDFDLO6RRBIF","AW0MG225VXWCN","3G9UA71JVVGUCOKNEKUVXTI6SA17JG","","<img src=""img/set1/S1.jpg"" width=""540"" height = ""360"" style=""border:16px solid orange"">","null","","","","","","","","","",""
"null","","html-keyboard-response","168","569941","0.0-168.0","37FMASSAYDDN59110LQDFDLO6RRBIF","AW0MG225VXWCN","3G9UA71JVVGUCOKNEKUVXTI6SA17JG","","","null","","","","","","","","","",""
"724.6999999880791","","image-keyboard-response","169","570667","0.0-169.0","37FMASSAYDDN59110LQDFDLO6RRBIF","AW0MG225VXWCN","3G9UA71JVVGUCOKNEKUVXTI6SA17JG","","img/set1/S4.jpg","74","4","random","74","random,structured_incentive,structured_normal,structured_load","1,2,2,3,4,2","2,1,3,4","true","","",""
"null","","html-keyboard-response","170","571034","0.0-170.0","37FMASSAYDDN59110LQDFDLO6RRBIF","AW0MG225VXWCN","3G9UA71JVVGUCOKNEKUVXTI6SA17JG","","<img src=""img/set1/S4.jpg"" width=""540"" height = ""360"" style=""border:16px solid orange"">","null","","","","","","","","","",""
"null","","html-keyboard-response","171","571249","0.0-171.0","37FMASSAYDDN59110LQDFDLO6RRBIF","AW0MG225VXWCN","3G9UA71JVVGUCOKNEKUVXTI6SA17JG","","","null","","","","","","","","","",""
"600.1000000238419","","image-keyboard-response","172","571850","0.0-172.0","37FMASSAYDDN59110LQDFDLO6RRBIF","AW0MG225VXWCN","3G9UA71JVVGUCOKNEKUVXTI6SA17JG","","img/set1/S4.jpg","74","4","random","74","random,structured_incentive,structured_normal,structured_load","1,2,2,3,4,2","2,1,3,4","true","","",""
"null","","html-keyboard-response","173","572212","0.0-173.0","37FMASSAYDDN59110LQDFDLO6RRBIF","AW0MG225VXWCN","3G9UA71JVVGUCOKNEKUVXTI6SA17JG","","<img src=""img/set1/S4.jpg"" width=""540"" height = ""360"" style=""border:16px solid orange"">","null","","","","","","","","","",""
"null","","html-keyboard-response","174","572422","0.0-174.0","37FMASSAYDDN59110LQDFDLO6RRBIF","AW0MG225VXWCN","3G9UA71JVVGUCOKNEKUVXTI6SA17JG","","","null","","","","","","","","","",""
"610.5","","image-keyboard-response","175","573033","0.0-175.0","37FMASSAYDDN59110LQDFDLO6RRBIF","AW0MG225VXWCN","3G9UA71JVVGUCOKNEKUVXTI6SA17JG","","img/set1/S1.jpg","83","1","random","83","random,structured_incentive,structured_normal,structured_load","1,2,2,3,4,2","2,1,3,4","true","","",""
"null","","html-keyboard-response","176","573392","0.0-176.0","37FMASSAYDDN59110LQDFDLO6RRBIF","AW0MG225VXWCN","3G9UA71JVVGUCOKNEKUVXTI6SA17JG","","<img src=""img/set1/S1.jpg"" width=""540"" height = ""360"" style=""border:16px solid orange"">","null","","","","","","","","","",""
"null","","html-keyboard-response","177","573602","0.0-177.0","37FMASSAYDDN59110LQDFDLO6RRBIF","AW0MG225VXWCN","3G9UA71JVVGUCOKNEKUVXTI6SA17JG","","","null","","","","","","","","","",""
"438.59999999403954","","image-keyboard-response","178","574041","0.0-178.0","37FMASSAYDDN59110LQDFDLO6RRBIF","AW0MG225VXWCN","3G9UA71JVVGUCOKNEKUVXTI6SA17JG","","img/set1/S1.jpg","83","1","random","83","random,structured_incentive,structured_normal,structured_load","1,2,2,3,4,2","2,1,3,4","true","","",""
"null","","html-keyboard-response","179","574407","0.0-179.0","37FMASSAYDDN59110LQDFDLO6RRBIF","AW0MG225VXWCN","3G9UA71JVVGUCOKNEKUVXTI6SA17JG","","<img src=""img/set1/S1.jpg"" width=""540"" height = ""360"" style=""border:16px solid orange"">","null","","","","","","","","","",""
"null","","html-keyboard-response","180","574619","0.0-180.0","37FMASSAYDDN59110LQDFDLO6RRBIF","AW0MG225VXWCN","3G9UA71JVVGUCOKNEKUVXTI6SA17JG","","","null","","","","","","","","","",""
"1254.3999999761581","","image-keyboard-response","181","575874","0.0-181.0","37FMASSAYDDN59110LQDFDLO6RRBIF","AW0MG225VXWCN","3G9UA71JVVGUCOKNEKUVXTI6SA17JG","","img/set1/S4.jpg","74","4","random","74","random,structured_incentive,structured_normal,structured_load","1,2,2,3,4,2","2,1,3,4","true","","",""
"null","","html-keyboard-response","182","576228","0.0-182.0","37FMASSAYDDN59110LQDFDLO6RRBIF","AW0MG225VXWCN","3G9UA71JVVGUCOKNEKUVXTI6SA17JG","","<img src=""img/set1/S4.jpg"" width=""540"" height = ""360"" style=""border:16px solid orange"">","null","","","","","","","","","",""
"null","","html-keyboard-response","183","576433","0.0-183.0","37FMASSAYDDN59110LQDFDLO6RRBIF","AW0MG225VXWCN","3G9UA71JVVGUCOKNEKUVXTI6SA17JG","","","null","","","","","","","","","",""
"560.3999999761581","","image-keyboard-response","184","576995","0.0-184.0","37FMASSAYDDN59110LQDFDLO6RRBIF","AW0MG225VXWCN","3G9UA71JVVGUCOKNEKUVXTI6SA17JG","","img/set1/S2.jpg","68","2","random","68","random,structured_incentive,structured_normal,structured_load","1,2,2,3,4,2","2,1,3,4","true","","",""
"null","","html-keyboard-response","185","577354","0.0-185.0","37FMASSAYDDN59110LQDFDLO6RRBIF","AW0MG225VXWCN","3G9UA71JVVGUCOKNEKUVXTI6SA17JG","","<img src=""img/set1/S2.jpg"" width=""540"" height = ""360"" style=""border:16px solid orange"">","null","","","","","","","","","",""
"null","","html-keyboard-response","186","577563","0.0-186.0","37FMASSAYDDN59110LQDFDLO6RRBIF","AW0MG225VXWCN","3G9UA71JVVGUCOKNEKUVXTI6SA17JG","","","null","","","","","","","","","",""
"557.6999999880791","","image-keyboard-response","187","578122","0.0-187.0","37FMASSAYDDN59110LQDFDLO6RRBIF","AW0MG225VXWCN","3G9UA71JVVGUCOKNEKUVXTI6SA17JG","","img/set1/S1.jpg","83","1","random","83","random,structured_incentive,structured_normal,structured_load","1,2,2,3,4,2","2,1,3,4","true","","",""
"null","","html-keyboard-response","188","578483","0.0-188.0","37FMASSAYDDN59110LQDFDLO6RRBIF","AW0MG225VXWCN","3G9UA71JVVGUCOKNEKUVXTI6SA17JG","","<img src=""img/set1/S1.jpg"" width=""540"" height = ""360"" style=""border:16px solid orange"">","null","","","","","","","","","",""
"null","","html-keyboard-response","189","578699","0.0-189.0","37FMASSAYDDN59110LQDFDLO6RRBIF","AW0MG225VXWCN","3G9UA71JVVGUCOKNEKUVXTI6SA17JG","","","null","","","","","","","","","",""
"574.9000000059605","","image-keyboard-response","190","579275","0.0-190.0","37FMASSAYDDN59110LQDFDLO6RRBIF","AW0MG225VXWCN","3G9UA71JVVGUCOKNEKUVXTI6SA17JG","","img/set1/S4.jpg","74","4","random","74","random,structured_incentive,structured_normal,structured_load","1,2,2,3,4,2","2,1,3,4","true","","",""
"null","","html-keyboard-response","191","579628","0.0-191.0","37FMASSAYDDN59110LQDFDLO6RRBIF","AW0MG225VXWCN","3G9UA71JVVGUCOKNEKUVXTI6SA17JG","","<img src=""img/set1/S4.jpg"" width=""540"" height = ""360"" style=""border:16px solid orange"">","null","","","","","","","","","",""
"null","","html-keyboard-response","192","579838","0.0-192.0","37FMASSAYDDN59110LQDFDLO6RRBIF","AW0MG225VXWCN","3G9UA71JVVGUCOKNEKUVXTI6SA17JG","","","null","","","","","","","","","",""
"627.4000000059605","","image-keyboard-response","193","580467","0.0-193.0","37FMASSAYDDN59110LQDFDLO6RRBIF","AW0MG225VXWCN","3G9UA71JVVGUCOKNEKUVXTI6SA17JG","","img/set1/S2.jpg","68","2","random","68","random,structured_incentive,structured_normal,structured_load","1,2,2,3,4,2","2,1,3,4","true","","",""
"null","","html-keyboard-response","194","580823","0.0-194.0","37FMASSAYDDN59110LQDFDLO6RRBIF","AW0MG225VXWCN","3G9UA71JVVGUCOKNEKUVXTI6SA17JG","","<img src=""img/set1/S2.jpg"" width=""540"" height = ""360"" style=""border:16px solid orange"">","null","","","","","","","","","",""
"null","","html-keyboard-response","195","581040","0.0-195.0","37FMASSAYDDN59110LQDFDLO6RRBIF","AW0MG225VXWCN","3G9UA71JVVGUCOKNEKUVXTI6SA17JG","","","null","","","","","","","","","",""
"1232.199999988079","","image-keyboard-response","196","582273","0.0-196.0","37FMASSAYDDN59110LQDFDLO6RRBIF","AW0MG225VXWCN","3G9UA71JVVGUCOKNEKUVXTI6SA17JG","","img/set1/S3.jpg","74","3","random","72","random,structured_incentive,structured_normal,structured_load","1,2,2,3,4,2","2,1,3,4","false","","",""
"null","","html-keyboard-response","197","582627","0.0-197.0","37FMASSAYDDN59110LQDFDLO6RRBIF","AW0MG225VXWCN","3G9UA71JVVGUCOKNEKUVXTI6SA17JG","","<img src=""img/set1/S3.jpg"" width=""540"" height = ""360"">","null","","","","","","","","","",""
"null","","html-keyboard-response","198","582842","0.0-198.0","37FMASSAYDDN59110LQDFDLO6RRBIF","AW0MG225VXWCN","3G9UA71JVVGUCOKNEKUVXTI6SA17JG","","","null","","","","","","","","","",""
"390.59999999403954","","image-keyboard-response","199","583233","0.0-199.0","37FMASSAYDDN59110LQDFDLO6RRBIF","AW0MG225VXWCN","3G9UA71JVVGUCOKNEKUVXTI6SA17JG","","img/set1/S3.jpg","72","3","random","72","random,structured_incentive,structured_normal,structured_load","1,2,2,3,4,2","2,1,3,4","true","","",""
"null","","html-keyboard-response","200","583592","0.0-200.0","37FMASSAYDDN59110LQDFDLO6RRBIF","AW0MG225VXWCN","3G9UA71JVVGUCOKNEKUVXTI6SA17JG","","<img src=""img/set1/S3.jpg"" width=""540"" height = ""360"" style=""border:16px solid orange"">","null","","","","","","","","","",""
"null","","html-keyboard-response","201","583807","0.0-201.0","37FMASSAYDDN59110LQDFDLO6RRBIF","AW0MG225VXWCN","3G9UA71JVVGUCOKNEKUVXTI6SA17JG","","","null","","","","","","","","","",""
"506","","image-keyboard-response","202","584313","0.0-202.0","37FMASSAYDDN59110LQDFDLO6RRBIF","AW0MG225VXWCN","3G9UA71JVVGUCOKNEKUVXTI6SA17JG","","img/set1/S1.jpg","83","1","random","83","random,structured_incentive,structured_normal,structured_load","1,2,2,3,4,2","2,1,3,4","true","","",""
"null","","html-keyboard-response","203","584667","0.0-203.0","37FMASSAYDDN59110LQDFDLO6RRBIF","AW0MG225VXWCN","3G9UA71JVVGUCOKNEKUVXTI6SA17JG","","<img src=""img/set1/S1.jpg"" width=""540"" height = ""360"" style=""border:16px solid orange"">","null","","","","","","","","","",""
"null","","html-keyboard-response","204","584878","0.0-204.0","37FMASSAYDDN59110LQDFDLO6RRBIF","AW0MG225VXWCN","3G9UA71JVVGUCOKNEKUVXTI6SA17JG","","","null","","","","","","","","","",""
"571.9000000059605","","image-keyboard-response","205","585451","0.0-205.0","37FMASSAYDDN59110LQDFDLO6RRBIF","AW0MG225VXWCN","3G9UA71JVVGUCOKNEKUVXTI6SA17JG","","img/set1/S1.jpg","83","1","random","83","random,structured_incentive,structured_normal,structured_load","1,2,2,3,4,2","2,1,3,4","true","","",""
"null","","html-keyboard-response","206","585814","0.0-206.0","37FMASSAYDDN59110LQDFDLO6RRBIF","AW0MG225VXWCN","3G9UA71JVVGUCOKNEKUVXTI6SA17JG","","<img src=""img/set1/S1.jpg"" width=""540"" height = ""360"" style=""border:16px solid orange"">","null","","","","","","","","","",""
"null","","html-keyboard-response","207","586024","0.0-207.0","37FMASSAYDDN59110LQDFDLO6RRBIF","AW0MG225VXWCN","3G9UA71JVVGUCOKNEKUVXTI6SA17JG","","","null","","","","","","","","","",""
"593.2999999821186","","image-keyboard-response","208","586618","0.0-208.0","37FMASSAYDDN59110LQDFDLO6RRBIF","AW0MG225VXWCN","3G9UA71JVVGUCOKNEKUVXTI6SA17JG","","img/set1/S3.jpg","72","3","random","72","random,structured_incentive,structured_normal,structured_load","1,2,2,3,4,2","2,1,3,4","true","","",""
"null","","html-keyboard-response","209","586980","0.0-209.0","37FMASSAYDDN59110LQDFDLO6RRBIF","AW0MG225VXWCN","3G9UA71JVVGUCOKNEKUVXTI6SA17JG","","<img src=""img/set1/S3.jpg"" width=""540"" height = ""360"" style=""border:16px solid orange"">","null","","","","","","","","","",""
"null","","html-keyboard-response","210","587190","0.0-210.0","37FMASSAYDDN59110LQDFDLO6RRBIF","AW0MG225VXWCN","3G9UA71JVVGUCOKNEKUVXTI6SA17JG","","","null","","","","","","","","","",""
"547.2999999821186","","image-keyboard-response","211","587739","0.0-211.0","37FMASSAYDDN59110LQDFDLO6RRBIF","AW0MG225VXWCN","3G9UA71JVVGUCOKNEKUVXTI6SA17JG","","img/set1/S1.jpg","83","1","random","83","random,structured_incentive,structured_normal,structured_load","1,2,2,3,4,2","2,1,3,4","true","","",""
"null","","html-keyboard-response","212","588099","0.0-212.0","37FMASSAYDDN59110LQDFDLO6RRBIF","AW0MG225VXWCN","3G9UA71JVVGUCOKNEKUVXTI6SA17JG","","<img src=""img/set1/S1.jpg"" width=""540"" height = ""360"" style=""border:16px solid orange"">","null","","","","","","","","","",""
"null","","html-keyboard-response","213","588303","0.0-213.0","37FMASSAYDDN59110LQDFDLO6RRBIF","AW0MG225VXWCN","3G9UA71JVVGUCOKNEKUVXTI6SA17JG","","","null","","","","","","","","","",""
"665.7999999821186","","image-keyboard-response","214","588970","0.0-214.0","37FMASSAYDDN59110LQDFDLO6RRBIF","AW0MG225VXWCN","3G9UA71JVVGUCOKNEKUVXTI6SA17JG","","img/set1/S2.jpg","68","2","random","68","random,structured_incentive,structured_normal,structured_load","1,2,2,3,4,2","2,1,3,4","true","","",""
"null","","html-keyboard-response","215","589335","0.0-215.0","37FMASSAYDDN59110LQDFDLO6RRBIF","AW0MG225VXWCN","3G9UA71JVVGUCOKNEKUVXTI6SA17JG","","<img src=""img/set1/S2.jpg"" width=""540"" height = ""360"" style=""border:16px solid orange"">","null","","","","","","","","","",""
"null","","html-keyboard-response","216","589550","0.0-216.0","37FMASSAYDDN59110LQDFDLO6RRBIF","AW0MG225VXWCN","3G9UA71JVVGUCOKNEKUVXTI6SA17JG","","","null","","","","","","","","","",""
"515.3999999761581","","image-keyboard-response","217","590067","0.0-217.0","37FMASSAYDDN59110LQDFDLO6RRBIF","AW0MG225VXWCN","3G9UA71JVVGUCOKNEKUVXTI6SA17JG","","img/set1/S1.jpg","83","1","random","83","random,structured_incentive,structured_normal,structured_load","1,2,2,3,4,2","2,1,3,4","true","","",""
"null","","html-keyboard-response","218","590435","0.0-218.0","37FMASSAYDDN59110LQDFDLO6RRBIF","AW0MG225VXWCN","3G9UA71JVVGUCOKNEKUVXTI6SA17JG","","<img src=""img/set1/S1.jpg"" width=""540"" height = ""360"" style=""border:16px solid orange"">","null","","","","","","","","","",""
"null","","html-keyboard-response","219","590650","0.0-219.0","37FMASSAYDDN59110LQDFDLO6RRBIF","AW0MG225VXWCN","3G9UA71JVVGUCOKNEKUVXTI6SA17JG","","","null","","","","","","","","","",""
"501.7999999821186","","image-keyboard-response","220","591154","0.0-220.0","37FMASSAYDDN59110LQDFDLO6RRBIF","AW0MG225VXWCN","3G9UA71JVVGUCOKNEKUVXTI6SA17JG","","img/set1/S2.jpg","68","2","random","68","random,structured_incentive,structured_normal,structured_load","1,2,2,3,4,2","2,1,3,4","true","","",""
"null","","html-keyboard-response","221","591519","0.0-221.0","37FMASSAYDDN59110LQDFDLO6RRBIF","AW0MG225VXWCN","3G9UA71JVVGUCOKNEKUVXTI6SA17JG","","<img src=""img/set1/S2.jpg"" width=""540"" height = ""360"" style=""border:16px solid orange"">","null","","","","","","","","","",""
"null","","html-keyboard-response","222","591725","0.0-222.0","37FMASSAYDDN59110LQDFDLO6RRBIF","AW0MG225VXWCN","3G9UA71JVVGUCOKNEKUVXTI6SA17JG","","","null","","","","","","","","","",""
"466.59999999403954","","image-keyboard-response","223","592193","0.0-223.0","37FMASSAYDDN59110LQDFDLO6RRBIF","AW0MG225VXWCN","3G9UA71JVVGUCOKNEKUVXTI6SA17JG","","img/set1/S3.jpg","72","3","random","72","random,structured_incentive,structured_normal,structured_load","1,2,2,3,4,2","2,1,3,4","true","","",""
"null","","html-keyboard-response","224","592549","0.0-224.0","37FMASSAYDDN59110LQDFDLO6RRBIF","AW0MG225VXWCN","3G9UA71JVVGUCOKNEKUVXTI6SA17JG","","<img src=""img/set1/S3.jpg"" width=""540"" height = ""360"" style=""border:16px solid orange"">","null","","","","","","","","","",""
"null","","html-keyboard-response","225","592764","0.0-225.0","37FMASSAYDDN59110LQDFDLO6RRBIF","AW0MG225VXWCN","3G9UA71JVVGUCOKNEKUVXTI6SA17JG","","","null","","","","","","","","","",""
"636.5","","image-keyboard-response","226","593401","0.0-226.0","37FMASSAYDDN59110LQDFDLO6RRBIF","AW0MG225VXWCN","3G9UA71JVVGUCOKNEKUVXTI6SA17JG","","img/set1/S2.jpg","68","2","random","68","random,structured_incentive,structured_normal,structured_load","1,2,2,3,4,2","2,1,3,4","true","","",""
"null","","html-keyboard-response","227","593759","0.0-227.0","37FMASSAYDDN59110LQDFDLO6RRBIF","AW0MG225VXWCN","3G9UA71JVVGUCOKNEKUVXTI6SA17JG","","<img src=""img/set1/S2.jpg"" width=""540"" height = ""360"" style=""border:16px solid orange"">","null","","","","","","","","","",""
"null","","html-keyboard-response","228","593974","0.0-228.0","37FMASSAYDDN59110LQDFDLO6RRBIF","AW0MG225VXWCN","3G9UA71JVVGUCOKNEKUVXTI6SA17JG","","","null","","","","","","","","","",""
"651","","image-keyboard-response","229","594625","0.0-229.0","37FMASSAYDDN59110LQDFDLO6RRBIF","AW0MG225VXWCN","3G9UA71JVVGUCOKNEKUVXTI6SA17JG","","img/set1/S4.jpg","74","4","random","74","random,structured_incentive,structured_normal,structured_load","1,2,2,3,4,2","2,1,3,4","true","","",""
"null","","html-keyboard-response","230","594985","0.0-230.0","37FMASSAYDDN59110LQDFDLO6RRBIF","AW0MG225VXWCN","3G9UA71JVVGUCOKNEKUVXTI6SA17JG","","<img src=""img/set1/S4.jpg"" width=""540"" height = ""360"" style=""border:16px solid orange"">","null","","","","","","","","","",""
"null","","html-keyboard-response","231","595189","0.0-231.0","37FMASSAYDDN59110LQDFDLO6RRBIF","AW0MG225VXWCN","3G9UA71JVVGUCOKNEKUVXTI6SA17JG","","","null","","","","","","","","","",""
"427.40000000596046","","image-keyboard-response","232","595617","0.0-232.0","37FMASSAYDDN59110LQDFDLO6RRBIF","AW0MG225VXWCN","3G9UA71JVVGUCOKNEKUVXTI6SA17JG","","img/set1/S4.jpg","74","4","random","74","random,structured_incentive,structured_normal,structured_load","1,2,2,3,4,2","2,1,3,4","true","","",""
"null","","html-keyboard-response","233","595980","0.0-233.0","37FMASSAYDDN59110LQDFDLO6RRBIF","AW0MG225VXWCN","3G9UA71JVVGUCOKNEKUVXTI6SA17JG","","<img src=""img/set1/S4.jpg"" width=""540"" height = ""360"" style=""border:16px solid orange"">","null","","","","","","","","","",""
"null","","html-keyboard-response","234","596190","0.0-234.0","37FMASSAYDDN59110LQDFDLO6RRBIF","AW0MG225VXWCN","3G9UA71JVVGUCOKNEKUVXTI6SA17JG","","","null","","","","","","","","","",""
"618.6999999880791","","image-keyboard-response","235","596811","0.0-235.0","37FMASSAYDDN59110LQDFDLO6RRBIF","AW0MG225VXWCN","3G9UA71JVVGUCOKNEKUVXTI6SA17JG","","img/set1/S1.jpg","83","1","random","83","random,structured_incentive,structured_normal,structured_load","1,2,2,3,4,2","2,1,3,4","true","","",""
"null","","html-keyboard-response","236","597175","0.0-236.0","37FMASSAYDDN59110LQDFDLO6RRBIF","AW0MG225VXWCN","3G9UA71JVVGUCOKNEKUVXTI6SA17JG","","<img src=""img/set1/S1.jpg"" width=""540"" height = ""360"" style=""border:16px solid orange"">","null","","","","","","","","","",""
"null","","html-keyboard-response","237","597390","0.0-237.0","37FMASSAYDDN59110LQDFDLO6RRBIF","AW0MG225VXWCN","3G9UA71JVVGUCOKNEKUVXTI6SA17JG","","","null","","","","","","","","","",""
"627.1999999880791","","image-keyboard-response","238","598019","0.0-238.0","37FMASSAYDDN59110LQDFDLO6RRBIF","AW0MG225VXWCN","3G9UA71JVVGUCOKNEKUVXTI6SA17JG","","img/set1/S3.jpg","72","3","random","72","random,structured_incentive,structured_normal,structured_load","1,2,2,3,4,2","2,1,3,4","true","","",""
"null","","html-keyboard-response","239","598384","0.0-239.0","37FMASSAYDDN59110LQDFDLO6RRBIF","AW0MG225VXWCN","3G9UA71JVVGUCOKNEKUVXTI6SA17JG","","<img src=""img/set1/S3.jpg"" width=""540"" height = ""360"" style=""border:16px solid orange"">","null","","","","","","","","","",""
"null","","html-keyboard-response","240","598601","0.0-240.0","37FMASSAYDDN59110LQDFDLO6RRBIF","AW0MG225VXWCN","3G9UA71JVVGUCOKNEKUVXTI6SA17JG","","","null","","","","","","","","","",""
"542.1999999880791","","image-keyboard-response","241","599145","0.0-241.0","37FMASSAYDDN59110LQDFDLO6RRBIF","AW0MG225VXWCN","3G9UA71JVVGUCOKNEKUVXTI6SA17JG","","img/set1/S3.jpg","72","3","random","72","random,structured_incentive,structured_normal,structured_load","1,2,2,3,4,2","2,1,3,4","true","","",""
"null","","html-keyboard-response","242","599509","0.0-242.0","37FMASSAYDDN59110LQDFDLO6RRBIF","AW0MG225VXWCN","3G9UA71JVVGUCOKNEKUVXTI6SA17JG","","<img src=""img/set1/S3.jpg"" width=""540"" height = ""360"" style=""border:16px solid orange"">","null","","","","","","","","","",""
"null","","html-keyboard-response","243","599720","0.0-243.0","37FMASSAYDDN59110LQDFDLO6RRBIF","AW0MG225VXWCN","3G9UA71JVVGUCOKNEKUVXTI6SA17JG","","","null","","","","","","","","","",""
"505.80000001192093","","image-keyboard-response","244","600227","0.0-244.0","37FMASSAYDDN59110LQDFDLO6RRBIF","AW0MG225VXWCN","3G9UA71JVVGUCOKNEKUVXTI6SA17JG","","img/set1/S1.jpg","68","1","random","83","random,structured_incentive,structured_normal,structured_load","1,2,2,3,4,2","2,1,3,4","false","","",""
"null","","html-keyboard-response","245","600583","0.0-245.0","37FMASSAYDDN59110LQDFDLO6RRBIF","AW0MG225VXWCN","3G9UA71JVVGUCOKNEKUVXTI6SA17JG","","<img src=""img/set1/S1.jpg"" width=""540"" height = ""360"">","null","","","","","","","","","",""
"null","","html-keyboard-response","246","600793","0.0-246.0","37FMASSAYDDN59110LQDFDLO6RRBIF","AW0MG225VXWCN","3G9UA71JVVGUCOKNEKUVXTI6SA17JG","","","null","","","","","","","","","",""
"1007.6999999880791","","image-keyboard-response","247","601801","0.0-247.0","37FMASSAYDDN59110LQDFDLO6RRBIF","AW0MG225VXWCN","3G9UA71JVVGUCOKNEKUVXTI6SA17JG","","img/set1/S3.jpg","72","3","random","72","random,structured_incentive,structured_normal,structured_load","1,2,2,3,4,2","2,1,3,4","true","","",""
"null","","html-keyboard-response","248","602158","0.0-248.0","37FMASSAYDDN59110LQDFDLO6RRBIF","AW0MG225VXWCN","3G9UA71JVVGUCOKNEKUVXTI6SA17JG","","<img src=""img/set1/S3.jpg"" width=""540"" height = ""360"" style=""border:16px solid orange"">","null","","","","","","","","","",""
"null","","html-keyboard-response","249","602373","0.0-249.0","37FMASSAYDDN59110LQDFDLO6RRBIF","AW0MG225VXWCN","3G9UA71JVVGUCOKNEKUVXTI6SA17JG","","","null","","","","","","","","","",""
"611.9000000059605","","image-keyboard-response","250","602985","0.0-250.0","37FMASSAYDDN59110LQDFDLO6RRBIF","AW0MG225VXWCN","3G9UA71JVVGUCOKNEKUVXTI6SA17JG","","img/set1/S4.jpg","72","4","random","74","random,structured_incentive,structured_normal,structured_load","1,2,2,3,4,2","2,1,3,4","false","","",""
"null","","html-keyboard-response","251","603352","0.0-251.0","37FMASSAYDDN59110LQDFDLO6RRBIF","AW0MG225VXWCN","3G9UA71JVVGUCOKNEKUVXTI6SA17JG","","<img src=""img/set1/S4.jpg"" width=""540"" height = ""360"">","null","","","","","","","","","",""
"null","","html-keyboard-response","252","603553","0.0-252.0","37FMASSAYDDN59110LQDFDLO6RRBIF","AW0MG225VXWCN","3G9UA71JVVGUCOKNEKUVXTI6SA17JG","","","null","","","","","","","","","",""
"648.6999999880791","","image-keyboard-response","253","604203","0.0-253.0","37FMASSAYDDN59110LQDFDLO6RRBIF","AW0MG225VXWCN","3G9UA71JVVGUCOKNEKUVXTI6SA17JG","","img/set1/S4.jpg","74","4","random","74","random,structured_incentive,structured_normal,structured_load","1,2,2,3,4,2","2,1,3,4","true","","",""
"null","","html-keyboard-response","254","604562","0.0-254.0","37FMASSAYDDN59110LQDFDLO6RRBIF","AW0MG225VXWCN","3G9UA71JVVGUCOKNEKUVXTI6SA17JG","","<img src=""img/set1/S4.jpg"" width=""540"" height = ""360"" style=""border:16px solid orange"">","null","","","","","","","","","",""
"null","","html-keyboard-response","255","604767","0.0-255.0","37FMASSAYDDN59110LQDFDLO6RRBIF","AW0MG225VXWCN","3G9UA71JVVGUCOKNEKUVXTI6SA17JG","","","null","","","","","","","","","",""
"522","","image-keyboard-response","256","605290","0.0-256.0","37FMASSAYDDN59110LQDFDLO6RRBIF","AW0MG225VXWCN","3G9UA71JVVGUCOKNEKUVXTI6SA17JG","","img/set1/S1.jpg","83","1","random","83","random,structured_incentive,structured_normal,structured_load","1,2,2,3,4,2","2,1,3,4","true","","",""
"null","","html-keyboard-response","257","605648","0.0-257.0","37FMASSAYDDN59110LQDFDLO6RRBIF","AW0MG225VXWCN","3G9UA71JVVGUCOKNEKUVXTI6SA17JG","","<img src=""img/set1/S1.jpg"" width=""540"" height = ""360"" style=""border:16px solid orange"">","null","","","","","","","","","",""
"null","","html-keyboard-response","258","605855","0.0-258.0","37FMASSAYDDN59110LQDFDLO6RRBIF","AW0MG225VXWCN","3G9UA71JVVGUCOKNEKUVXTI6SA17JG","","","null","","","","","","","","","",""
"794.1999999880791","","image-keyboard-response","259","606651","0.0-259.0","37FMASSAYDDN59110LQDFDLO6RRBIF","AW0MG225VXWCN","3G9UA71JVVGUCOKNEKUVXTI6SA17JG","","img/set1/S3.jpg","72","3","random","72","random,structured_incentive,structured_normal,structured_load","1,2,2,3,4,2","2,1,3,4","true","","",""
"null","","html-keyboard-response","260","607004","0.0-260.0","37FMASSAYDDN59110LQDFDLO6RRBIF","AW0MG225VXWCN","3G9UA71JVVGUCOKNEKUVXTI6SA17JG","","<img src=""img/set1/S3.jpg"" width=""540"" height = ""360"" style=""border:16px solid orange"">","null","","","","","","","","","",""
"null","","html-keyboard-response","261","607221","0.0-261.0","37FMASSAYDDN59110LQDFDLO6RRBIF","AW0MG225VXWCN","3G9UA71JVVGUCOKNEKUVXTI6SA17JG","","","null","","","","","","","","","",""
"524.3999999761581","","image-keyboard-response","262","607747","0.0-262.0","37FMASSAYDDN59110LQDFDLO6RRBIF","AW0MG225VXWCN","3G9UA71JVVGUCOKNEKUVXTI6SA17JG","","img/set1/S4.jpg","74","4","random","74","random,structured_incentive,structured_normal,structured_load","1,2,2,3,4,2","2,1,3,4","true","","",""
"null","","html-keyboard-response","263","608103","0.0-263.0","37FMASSAYDDN59110LQDFDLO6RRBIF","AW0MG225VXWCN","3G9UA71JVVGUCOKNEKUVXTI6SA17JG","","<img src=""img/set1/S4.jpg"" width=""540"" height = ""360"" style=""border:16px solid orange"">","null","","","","","","","","","",""
"null","","html-keyboard-response","264","608318","0.0-264.0","37FMASSAYDDN59110LQDFDLO6RRBIF","AW0MG225VXWCN","3G9UA71JVVGUCOKNEKUVXTI6SA17JG","","","null","","","","","","","","","",""
"563.5","","image-keyboard-response","265","608883","0.0-265.0","37FMASSAYDDN59110LQDFDLO6RRBIF","AW0MG225VXWCN","3G9UA71JVVGUCOKNEKUVXTI6SA17JG","","img/set1/S1.jpg","83","1","random","83","random,structured_incentive,structured_normal,structured_load","1,2,2,3,4,2","2,1,3,4","true","","",""
"null","","html-keyboard-response","266","609247","0.0-266.0","37FMASSAYDDN59110LQDFDLO6RRBIF","AW0MG225VXWCN","3G9UA71JVVGUCOKNEKUVXTI6SA17JG","","<img src=""img/set1/S1.jpg"" width=""540"" height = ""360"" style=""border:16px solid orange"">","null","","","","","","","","","",""
"null","","html-keyboard-response","267","609460","0.0-267.0","37FMASSAYDDN59110LQDFDLO6RRBIF","AW0MG225VXWCN","3G9UA71JVVGUCOKNEKUVXTI6SA17JG","","","null","","","","","","","","","",""
"803.9000000059605","","image-keyboard-response","268","610265","0.0-268.0","37FMASSAYDDN59110LQDFDLO6RRBIF","AW0MG225VXWCN","3G9UA71JVVGUCOKNEKUVXTI6SA17JG","","img/set1/S4.jpg","74","4","random","74","random,structured_incentive,structured_normal,structured_load","1,2,2,3,4,2","2,1,3,4","true","","",""
"null","","html-keyboard-response","269","610626","0.0-269.0","37FMASSAYDDN59110LQDFDLO6RRBIF","AW0MG225VXWCN","3G9UA71JVVGUCOKNEKUVXTI6SA17JG","","<img src=""img/set1/S4.jpg"" width=""540"" height = ""360"" style=""border:16px solid orange"">","null","","","","","","","","","",""
"null","","html-keyboard-response","270","610834","0.0-270.0","37FMASSAYDDN59110LQDFDLO6RRBIF","AW0MG225VXWCN","3G9UA71JVVGUCOKNEKUVXTI6SA17JG","","","null","","","","","","","","","",""
"518.5999999940395","","image-keyboard-response","271","611353","0.0-271.0","37FMASSAYDDN59110LQDFDLO6RRBIF","AW0MG225VXWCN","3G9UA71JVVGUCOKNEKUVXTI6SA17JG","","img/set1/S4.jpg","74","4","random","74","random,structured_incentive,structured_normal,structured_load","1,2,2,3,4,2","2,1,3,4","true","","",""
"null","","html-keyboard-response","272","611707","0.0-272.0","37FMASSAYDDN59110LQDFDLO6RRBIF","AW0MG225VXWCN","3G9UA71JVVGUCOKNEKUVXTI6SA17JG","","<img src=""img/set1/S4.jpg"" width=""540"" height = ""360"" style=""border:16px solid orange"">","null","","","","","","","","","",""
"null","","html-keyboard-response","273","611917","0.0-273.0","37FMASSAYDDN59110LQDFDLO6RRBIF","AW0MG225VXWCN","3G9UA71JVVGUCOKNEKUVXTI6SA17JG","","","null","","","","","","","","","",""
"579.5","","image-keyboard-response","274","612497","0.0-274.0","37FMASSAYDDN59110LQDFDLO6RRBIF","AW0MG225VXWCN","3G9UA71JVVGUCOKNEKUVXTI6SA17JG","","img/set1/S2.jpg","68","2","random","68","random,structured_incentive,structured_normal,structured_load","1,2,2,3,4,2","2,1,3,4","true","","",""
"null","","html-keyboard-response","275","612857","0.0-275.0","37FMASSAYDDN59110LQDFDLO6RRBIF","AW0MG225VXWCN","3G9UA71JVVGUCOKNEKUVXTI6SA17JG","","<img src=""img/set1/S2.jpg"" width=""540"" height = ""360"" style=""border:16px solid orange"">","null","","","","","","","","","",""
"null","","html-keyboard-response","276","613069","0.0-276.0","37FMASSAYDDN59110LQDFDLO6RRBIF","AW0MG225VXWCN","3G9UA71JVVGUCOKNEKUVXTI6SA17JG","","","null","","","","","","","","","",""
"499.7000000178814","","image-keyboard-response","277","613569","0.0-277.0","37FMASSAYDDN59110LQDFDLO6RRBIF","AW0MG225VXWCN","3G9UA71JVVGUCOKNEKUVXTI6SA17JG","","img/set1/S1.jpg","83","1","random","83","random,structured_incentive,structured_normal,structured_load","1,2,2,3,4,2","2,1,3,4","true","","",""
"null","","html-keyboard-response","278","613922","0.0-278.0","37FMASSAYDDN59110LQDFDLO6RRBIF","AW0MG225VXWCN","3G9UA71JVVGUCOKNEKUVXTI6SA17JG","","<img src=""img/set1/S1.jpg"" width=""540"" height = ""360"" style=""border:16px solid orange"">","null","","","","","","","","","",""
"null","","html-keyboard-response","279","614132","0.0-279.0","37FMASSAYDDN59110LQDFDLO6RRBIF","AW0MG225VXWCN","3G9UA71JVVGUCOKNEKUVXTI6SA17JG","","","null","","","","","","","","","",""
"765.0999999940395","","image-keyboard-response","280","614897","0.0-280.0","37FMASSAYDDN59110LQDFDLO6RRBIF","AW0MG225VXWCN","3G9UA71JVVGUCOKNEKUVXTI6SA17JG","","img/set1/S3.jpg","72","3","random","72","random,structured_incentive,structured_normal,structured_load","1,2,2,3,4,2","2,1,3,4","true","","",""
"null","","html-keyboard-response","281","615256","0.0-281.0","37FMASSAYDDN59110LQDFDLO6RRBIF","AW0MG225VXWCN","3G9UA71JVVGUCOKNEKUVXTI6SA17JG","","<img src=""img/set1/S3.jpg"" width=""540"" height = ""360"" style=""border:16px solid orange"">","null","","","","","","","","","",""
"null","","html-keyboard-response","282","615468","0.0-282.0","37FMASSAYDDN59110LQDFDLO6RRBIF","AW0MG225VXWCN","3G9UA71JVVGUCOKNEKUVXTI6SA17JG","","","null","","","","","","","","","",""
"668.3000000119209","","image-keyboard-response","283","616137","0.0-283.0","37FMASSAYDDN59110LQDFDLO6RRBIF","AW0MG225VXWCN","3G9UA71JVVGUCOKNEKUVXTI6SA17JG","","img/set1/S2.jpg","68","2","random","68","random,structured_incentive,structured_normal,structured_load","1,2,2,3,4,2","2,1,3,4","true","","",""
"null","","html-keyboard-response","284","616490","0.0-284.0","37FMASSAYDDN59110LQDFDLO6RRBIF","AW0MG225VXWCN","3G9UA71JVVGUCOKNEKUVXTI6SA17JG","","<img src=""img/set1/S2.jpg"" width=""540"" height = ""360"" style=""border:16px solid orange"">","null","","","","","","","","","",""
"null","","html-keyboard-response","285","616698","0.0-285.0","37FMASSAYDDN59110LQDFDLO6RRBIF","AW0MG225VXWCN","3G9UA71JVVGUCOKNEKUVXTI6SA17JG","","","null","","","","","","","","","",""
"670.6999999880791","","image-keyboard-response","286","617369","0.0-286.0","37FMASSAYDDN59110LQDFDLO6RRBIF","AW0MG225VXWCN","3G9UA71JVVGUCOKNEKUVXTI6SA17JG","","img/set1/S1.jpg","83","1","random","83","random,structured_incentive,structured_normal,structured_load","1,2,2,3,4,2","2,1,3,4","true","","",""
"null","","html-keyboard-response","287","617727","0.0-287.0","37FMASSAYDDN59110LQDFDLO6RRBIF","AW0MG225VXWCN","3G9UA71JVVGUCOKNEKUVXTI6SA17JG","","<img src=""img/set1/S1.jpg"" width=""540"" height = ""360"" style=""border:16px solid orange"">","null","","","","","","","","","",""
"null","","html-keyboard-response","288","617928","0.0-288.0","37FMASSAYDDN59110LQDFDLO6RRBIF","AW0MG225VXWCN","3G9UA71JVVGUCOKNEKUVXTI6SA17JG","","","null","","","","","","","","","",""
"1657.5999999940395","","image-keyboard-response","289","619587","0.0-289.0","37FMASSAYDDN59110LQDFDLO6RRBIF","AW0MG225VXWCN","3G9UA71JVVGUCOKNEKUVXTI6SA17JG","","img/set1/S3.jpg","72","3","random","72","random,structured_incentive,structured_normal,structured_load","1,2,2,3,4,2","2,1,3,4","true","","",""
"null","","html-keyboard-response","290","619948","0.0-290.0","37FMASSAYDDN59110LQDFDLO6RRBIF","AW0MG225VXWCN","3G9UA71JVVGUCOKNEKUVXTI6SA17JG","","<img src=""img/set1/S3.jpg"" width=""540"" height = ""360"" style=""border:16px solid orange"">","null","","","","","","","","","",""
"null","","html-keyboard-response","291","620154","0.0-291.0","37FMASSAYDDN59110LQDFDLO6RRBIF","AW0MG225VXWCN","3G9UA71JVVGUCOKNEKUVXTI6SA17JG","","","null","","","","","","","","","",""
"558.4000000059605","","image-keyboard-response","292","620713","0.0-292.0","37FMASSAYDDN59110LQDFDLO6RRBIF","AW0MG225VXWCN","3G9UA71JVVGUCOKNEKUVXTI6SA17JG","","img/set1/S2.jpg","68","2","random","68","random,structured_incentive,structured_normal,structured_load","1,2,2,3,4,2","2,1,3,4","true","","",""
"null","","html-keyboard-response","293","621068","0.0-293.0","37FMASSAYDDN59110LQDFDLO6RRBIF","AW0MG225VXWCN","3G9UA71JVVGUCOKNEKUVXTI6SA17JG","","<img src=""img/set1/S2.jpg"" width=""540"" height = ""360"" style=""border:16px solid orange"">","null","","","","","","","","","",""
"null","","html-keyboard-response","294","621272","0.0-294.0","37FMASSAYDDN59110LQDFDLO6RRBIF","AW0MG225VXWCN","3G9UA71JVVGUCOKNEKUVXTI6SA17JG","","","null","","","","","","","","","",""
"576.3000000119209","","image-keyboard-response","295","621849","0.0-295.0","37FMASSAYDDN59110LQDFDLO6RRBIF","AW0MG225VXWCN","3G9UA71JVVGUCOKNEKUVXTI6SA17JG","","img/set1/S4.jpg","74","4","random","74","random,structured_incentive,structured_normal,structured_load","1,2,2,3,4,2","2,1,3,4","true","","",""
"null","","html-keyboard-response","296","622208","0.0-296.0","37FMASSAYDDN59110LQDFDLO6RRBIF","AW0MG225VXWCN","3G9UA71JVVGUCOKNEKUVXTI6SA17JG","","<img src=""img/set1/S4.jpg"" width=""540"" height = ""360"" style=""border:16px solid orange"">","null","","","","","","","","","",""
"null","","html-keyboard-response","297","622418","0.0-297.0","37FMASSAYDDN59110LQDFDLO6RRBIF","AW0MG225VXWCN","3G9UA71JVVGUCOKNEKUVXTI6SA17JG","","","null","","","","","","","","","",""
"1190.5","","image-keyboard-response","298","623609","0.0-298.0","37FMASSAYDDN59110LQDFDLO6RRBIF","AW0MG225VXWCN","3G9UA71JVVGUCOKNEKUVXTI6SA17JG","","img/set1/S3.jpg","72","3","random","72","random,structured_incentive,structured_normal,structured_load","1,2,2,3,4,2","2,1,3,4","true","","",""
"null","","html-keyboard-response","299","623965","0.0-299.0","37FMASSAYDDN59110LQDFDLO6RRBIF","AW0MG225VXWCN","3G9UA71JVVGUCOKNEKUVXTI6SA17JG","","<img src=""img/set1/S3.jpg"" width=""540"" height = ""360"" style=""border:16px solid orange"">","null","","","","","","","","","",""
"null","","html-keyboard-response","300","624169","0.0-300.0","37FMASSAYDDN59110LQDFDLO6RRBIF","AW0MG225VXWCN","3G9UA71JVVGUCOKNEKUVXTI6SA17JG","","","null","","","","","","","","","",""
"512.4000000059605","","image-keyboard-response","301","624683","0.0-301.0","37FMASSAYDDN59110LQDFDLO6RRBIF","AW0MG225VXWCN","3G9UA71JVVGUCOKNEKUVXTI6SA17JG","","img/set1/S2.jpg","68","2","random","68","random,structured_incentive,structured_normal,structured_load","1,2,2,3,4,2","2,1,3,4","true","","",""
"null","","html-keyboard-response","302","625047","0.0-302.0","37FMASSAYDDN59110LQDFDLO6RRBIF","AW0MG225VXWCN","3G9UA71JVVGUCOKNEKUVXTI6SA17JG","","<img src=""img/set1/S2.jpg"" width=""540"" height = ""360"" style=""border:16px solid orange"">","null","","","","","","","","","",""
"null","","html-keyboard-response","303","625249","0.0-303.0","37FMASSAYDDN59110LQDFDLO6RRBIF","AW0MG225VXWCN","3G9UA71JVVGUCOKNEKUVXTI6SA17JG","","","null","","","","","","","","","",""
"751.9000000059605","","image-keyboard-response","304","626002","0.0-304.0","37FMASSAYDDN59110LQDFDLO6RRBIF","AW0MG225VXWCN","3G9UA71JVVGUCOKNEKUVXTI6SA17JG","","img/set1/S3.jpg","72","3","random","72","random,structured_incentive,structured_normal,structured_load","1,2,2,3,4,2","2,1,3,4","true","","",""
"null","","html-keyboard-response","305","626356","0.0-305.0","37FMASSAYDDN59110LQDFDLO6RRBIF","AW0MG225VXWCN","3G9UA71JVVGUCOKNEKUVXTI6SA17JG","","<img src=""img/set1/S3.jpg"" width=""540"" height = ""360"" style=""border:16px solid orange"">","null","","","","","","","","","",""
"null","","html-keyboard-response","306","626563","0.0-306.0","37FMASSAYDDN59110LQDFDLO6RRBIF","AW0MG225VXWCN","3G9UA71JVVGUCOKNEKUVXTI6SA17JG","","","null","","","","","","","","","",""
"661.1999999880791","","image-keyboard-response","307","627226","0.0-307.0","37FMASSAYDDN59110LQDFDLO6RRBIF","AW0MG225VXWCN","3G9UA71JVVGUCOKNEKUVXTI6SA17JG","","img/set1/S4.jpg","83","4","random","74","random,structured_incentive,structured_normal,structured_load","1,2,2,3,4,2","2,1,3,4","false","","",""
"null","","html-keyboard-response","308","627578","0.0-308.0","37FMASSAYDDN59110LQDFDLO6RRBIF","AW0MG225VXWCN","3G9UA71JVVGUCOKNEKUVXTI6SA17JG","","<img src=""img/set1/S4.jpg"" width=""540"" height = ""360"">","null","","","","","","","","","",""
"null","","html-keyboard-response","309","627792","0.0-309.0","37FMASSAYDDN59110LQDFDLO6RRBIF","AW0MG225VXWCN","3G9UA71JVVGUCOKNEKUVXTI6SA17JG","","","null","","","","","","","","","",""
"674.6000000238419","","image-keyboard-response","310","628469","0.0-310.0","37FMASSAYDDN59110LQDFDLO6RRBIF","AW0MG225VXWCN","3G9UA71JVVGUCOKNEKUVXTI6SA17JG","","img/set1/S3.jpg","72","3","random","72","random,structured_incentive,structured_normal,structured_load","1,2,2,3,4,2","2,1,3,4","true","","",""
"null","","html-keyboard-response","311","628825","0.0-311.0","37FMASSAYDDN59110LQDFDLO6RRBIF","AW0MG225VXWCN","3G9UA71JVVGUCOKNEKUVXTI6SA17JG","","<img src=""img/set1/S3.jpg"" width=""540"" height = ""360"" style=""border:16px solid orange"">","null","","","","","","","","","",""
"null","","html-keyboard-response","312","629041","0.0-312.0","37FMASSAYDDN59110LQDFDLO6RRBIF","AW0MG225VXWCN","3G9UA71JVVGUCOKNEKUVXTI6SA17JG","","","null","","","","","","","","","",""
"671.5","","image-keyboard-response","313","629714","0.0-313.0","37FMASSAYDDN59110LQDFDLO6RRBIF","AW0MG225VXWCN","3G9UA71JVVGUCOKNEKUVXTI6SA17JG","","img/set1/S2.jpg","68","2","random","68","random,structured_incentive,structured_normal,structured_load","1,2,2,3,4,2","2,1,3,4","true","","",""
"null","","html-keyboard-response","314","630073","0.0-314.0","37FMASSAYDDN59110LQDFDLO6RRBIF","AW0MG225VXWCN","3G9UA71JVVGUCOKNEKUVXTI6SA17JG","","<img src=""img/set1/S2.jpg"" width=""540"" height = ""360"" style=""border:16px solid orange"">","null","","","","","","","","","",""
"null","","html-keyboard-response","315","630280","0.0-315.0","37FMASSAYDDN59110LQDFDLO6RRBIF","AW0MG225VXWCN","3G9UA71JVVGUCOKNEKUVXTI6SA17JG","","","null","","","","","","","","","",""
"599.5","","image-keyboard-response","316","630881","0.0-316.0","37FMASSAYDDN59110LQDFDLO6RRBIF","AW0MG225VXWCN","3G9UA71JVVGUCOKNEKUVXTI6SA17JG","","img/set1/S2.jpg","68","2","random","68","random,structured_incentive,structured_normal,structured_load","1,2,2,3,4,2","2,1,3,4","true","","",""
"null","","html-keyboard-response","317","631233","0.0-317.0","37FMASSAYDDN59110LQDFDLO6RRBIF","AW0MG225VXWCN","3G9UA71JVVGUCOKNEKUVXTI6SA17JG","","<img src=""img/set1/S2.jpg"" width=""540"" height = ""360"" style=""border:16px solid orange"">","null","","","","","","","","","",""
"null","","html-keyboard-response","318","631442","0.0-318.0","37FMASSAYDDN59110LQDFDLO6RRBIF","AW0MG225VXWCN","3G9UA71JVVGUCOKNEKUVXTI6SA17JG","","","null","","","","","","","","","",""
"535","","image-keyboard-response","319","631978","0.0-319.0","37FMASSAYDDN59110LQDFDLO6RRBIF","AW0MG225VXWCN","3G9UA71JVVGUCOKNEKUVXTI6SA17JG","","img/set1/S4.jpg","74","4","random","74","random,structured_incentive,structured_normal,structured_load","1,2,2,3,4,2","2,1,3,4","true","","",""
"null","","html-keyboard-response","320","632342","0.0-320.0","37FMASSAYDDN59110LQDFDLO6RRBIF","AW0MG225VXWCN","3G9UA71JVVGUCOKNEKUVXTI6SA17JG","","<img src=""img/set1/S4.jpg"" width=""540"" height = ""360"" style=""border:16px solid orange"">","null","","","","","","","","","",""
"null","","html-keyboard-response","321","632547","0.0-321.0","37FMASSAYDDN59110LQDFDLO6RRBIF","AW0MG225VXWCN","3G9UA71JVVGUCOKNEKUVXTI6SA17JG","","","null","","","","","","","","","",""
"677.4000000059605","","image-keyboard-response","322","633225","0.0-322.0","37FMASSAYDDN59110LQDFDLO6RRBIF","AW0MG225VXWCN","3G9UA71JVVGUCOKNEKUVXTI6SA17JG","","img/set1/S1.jpg","83","1","random","83","random,structured_incentive,structured_normal,structured_load","1,2,2,3,4,2","2,1,3,4","true","","",""
"null","","html-keyboard-response","323","633587","0.0-323.0","37FMASSAYDDN59110LQDFDLO6RRBIF","AW0MG225VXWCN","3G9UA71JVVGUCOKNEKUVXTI6SA17JG","","<img src=""img/set1/S1.jpg"" width=""540"" height = ""360"" style=""border:16px solid orange"">","null","","","","","","","","","",""
"null","","html-keyboard-response","324","633802","0.0-324.0","37FMASSAYDDN59110LQDFDLO6RRBIF","AW0MG225VXWCN","3G9UA71JVVGUCOKNEKUVXTI6SA17JG","","","null","","","","","","","","","",""
"703.3000000119209","","image-keyboard-response","325","634507","0.0-325.0","37FMASSAYDDN59110LQDFDLO6RRBIF","AW0MG225VXWCN","3G9UA71JVVGUCOKNEKUVXTI6SA17JG","","img/set1/S3.jpg","72","3","random","72","random,structured_incentive,structured_normal,structured_load","1,2,2,3,4,2","2,1,3,4","true","","",""
"null","","html-keyboard-response","326","634863","0.0-326.0","37FMASSAYDDN59110LQDFDLO6RRBIF","AW0MG225VXWCN","3G9UA71JVVGUCOKNEKUVXTI6SA17JG","","<img src=""img/set1/S3.jpg"" width=""540"" height = ""360"" style=""border:16px solid orange"">","null","","","","","","","","","",""
"null","","html-keyboard-response","327","635067","0.0-327.0","37FMASSAYDDN59110LQDFDLO6RRBIF","AW0MG225VXWCN","3G9UA71JVVGUCOKNEKUVXTI6SA17JG","","","null","","","","","","","","","",""
"846","","image-keyboard-response","328","635915","0.0-328.0","37FMASSAYDDN59110LQDFDLO6RRBIF","AW0MG225VXWCN","3G9UA71JVVGUCOKNEKUVXTI6SA17JG","","img/set1/S1.jpg","83","1","random","83","random,structured_incentive,structured_normal,structured_load","1,2,2,3,4,2","2,1,3,4","true","","",""
"null","","html-keyboard-response","329","636278","0.0-329.0","37FMASSAYDDN59110LQDFDLO6RRBIF","AW0MG225VXWCN","3G9UA71JVVGUCOKNEKUVXTI6SA17JG","","<img src=""img/set1/S1.jpg"" width=""540"" height = ""360"" style=""border:16px solid orange"">","null","","","","","","","","","",""
"null","","html-keyboard-response","330","636498","0.0-330.0","37FMASSAYDDN59110LQDFDLO6RRBIF","AW0MG225VXWCN","3G9UA71JVVGUCOKNEKUVXTI6SA17JG","","","null","","","","","","","","","",""
"935.7000000178814","","image-keyboard-response","331","637435","0.0-331.0","37FMASSAYDDN59110LQDFDLO6RRBIF","AW0MG225VXWCN","3G9UA71JVVGUCOKNEKUVXTI6SA17JG","","img/set1/S4.jpg","74","4","random","74","random,structured_incentive,structured_normal,structured_load","1,2,2,3,4,2","2,1,3,4","true","","",""
"null","","html-keyboard-response","332","637792","0.0-332.0","37FMASSAYDDN59110LQDFDLO6RRBIF","AW0MG225VXWCN","3G9UA71JVVGUCOKNEKUVXTI6SA17JG","","<img src=""img/set1/S4.jpg"" width=""540"" height = ""360"" style=""border:16px solid orange"">","null","","","","","","","","","",""
"null","","html-keyboard-response","333","638007","0.0-333.0","37FMASSAYDDN59110LQDFDLO6RRBIF","AW0MG225VXWCN","3G9UA71JVVGUCOKNEKUVXTI6SA17JG","","","null","","","","","","","","","",""
"746.0999999940395","","image-keyboard-response","334","638755","0.0-334.0","37FMASSAYDDN59110LQDFDLO6RRBIF","AW0MG225VXWCN","3G9UA71JVVGUCOKNEKUVXTI6SA17JG","","img/set1/S3.jpg","72","3","random","72","random,structured_incentive,structured_normal,structured_load","1,2,2,3,4,2","2,1,3,4","true","","",""
"null","","html-keyboard-response","335","639122","0.0-335.0","37FMASSAYDDN59110LQDFDLO6RRBIF","AW0MG225VXWCN","3G9UA71JVVGUCOKNEKUVXTI6SA17JG","","<img src=""img/set1/S3.jpg"" width=""540"" height = ""360"" style=""border:16px solid orange"">","null","","","","","","","","","",""
"null","","html-keyboard-response","336","639325","0.0-336.0","37FMASSAYDDN59110LQDFDLO6RRBIF","AW0MG225VXWCN","3G9UA71JVVGUCOKNEKUVXTI6SA17JG","","","null","","","","","","","","","",""
"451.90000000596046","","image-keyboard-response","337","639778","0.0-337.0","37FMASSAYDDN59110LQDFDLO6RRBIF","AW0MG225VXWCN","3G9UA71JVVGUCOKNEKUVXTI6SA17JG","","img/set1/S3.jpg","72","3","random","72","random,structured_incentive,structured_normal,structured_load","1,2,2,3,4,2","2,1,3,4","true","","",""
"null","","html-keyboard-response","338","640132","0.0-338.0","37FMASSAYDDN59110LQDFDLO6RRBIF","AW0MG225VXWCN","3G9UA71JVVGUCOKNEKUVXTI6SA17JG","","<img src=""img/set1/S3.jpg"" width=""540"" height = ""360"" style=""border:16px solid orange"">","null","","","","","","","","","",""
"null","","html-keyboard-response","339","640347","0.0-339.0","37FMASSAYDDN59110LQDFDLO6RRBIF","AW0MG225VXWCN","3G9UA71JVVGUCOKNEKUVXTI6SA17JG","","","null","","","","","","","","","",""
"605.3000000119209","","image-keyboard-response","340","640953","0.0-340.0","37FMASSAYDDN59110LQDFDLO6RRBIF","AW0MG225VXWCN","3G9UA71JVVGUCOKNEKUVXTI6SA17JG","","img/set1/S1.jpg","83","1","random","83","random,structured_incentive,structured_normal,structured_load","1,2,2,3,4,2","2,1,3,4","true","","",""
"null","","html-keyboard-response","341","641307","0.0-341.0","37FMASSAYDDN59110LQDFDLO6RRBIF","AW0MG225VXWCN","3G9UA71JVVGUCOKNEKUVXTI6SA17JG","","<img src=""img/set1/S1.jpg"" width=""540"" height = ""360"" style=""border:16px solid orange"">","null","","","","","","","","","",""
"null","","html-keyboard-response","342","641522","0.0-342.0","37FMASSAYDDN59110LQDFDLO6RRBIF","AW0MG225VXWCN","3G9UA71JVVGUCOKNEKUVXTI6SA17JG","","","null","","","","","","","","","",""
"1190.800000011921","","image-keyboard-response","343","642713","0.0-343.0","37FMASSAYDDN59110LQDFDLO6RRBIF","AW0MG225VXWCN","3G9UA71JVVGUCOKNEKUVXTI6SA17JG","","img/set1/S2.jpg","68","2","random","68","random,structured_incentive,structured_normal,structured_load","1,2,2,3,4,2","2,1,3,4","true","","",""
"null","","html-keyboard-response","344","643078","0.0-344.0","37FMASSAYDDN59110LQDFDLO6RRBIF","AW0MG225VXWCN","3G9UA71JVVGUCOKNEKUVXTI6SA17JG","","<img src=""img/set1/S2.jpg"" width=""540"" height = ""360"" style=""border:16px solid orange"">","null","","","","","","","","","",""
"null","","html-keyboard-response","345","643288","0.0-345.0","37FMASSAYDDN59110LQDFDLO6RRBIF","AW0MG225VXWCN","3G9UA71JVVGUCOKNEKUVXTI6SA17JG","","","null","","","","","","","","","",""
"600.0999999940395","","image-keyboard-response","346","643890","0.0-346.0","37FMASSAYDDN59110LQDFDLO6RRBIF","AW0MG225VXWCN","3G9UA71JVVGUCOKNEKUVXTI6SA17JG","","img/set1/S2.jpg","68","2","random","68","random,structured_incentive,structured_normal,structured_load","1,2,2,3,4,2","2,1,3,4","true","","",""
"null","","html-keyboard-response","347","644252","0.0-347.0","37FMASSAYDDN59110LQDFDLO6RRBIF","AW0MG225VXWCN","3G9UA71JVVGUCOKNEKUVXTI6SA17JG","","<img src=""img/set1/S2.jpg"" width=""540"" height = ""360"" style=""border:16px solid orange"">","null","","","","","","","","","",""
"null","","html-keyboard-response","348","644467","0.0-348.0","37FMASSAYDDN59110LQDFDLO6RRBIF","AW0MG225VXWCN","3G9UA71JVVGUCOKNEKUVXTI6SA17JG","","","null","","","","","","","","","",""
"621.4000000059605","","image-keyboard-response","349","645090","0.0-349.0","37FMASSAYDDN59110LQDFDLO6RRBIF","AW0MG225VXWCN","3G9UA71JVVGUCOKNEKUVXTI6SA17JG","","img/set1/S2.jpg","68","2","random","68","random,structured_incentive,structured_normal,structured_load","1,2,2,3,4,2","2,1,3,4","true","","",""
"null","","html-keyboard-response","350","645448","0.0-350.0","37FMASSAYDDN59110LQDFDLO6RRBIF","AW0MG225VXWCN","3G9UA71JVVGUCOKNEKUVXTI6SA17JG","","<img src=""img/set1/S2.jpg"" width=""540"" height = ""360"" style=""border:16px solid orange"">","null","","","","","","","","","",""
"null","","html-keyboard-response","351","645652","0.0-351.0","37FMASSAYDDN59110LQDFDLO6RRBIF","AW0MG225VXWCN","3G9UA71JVVGUCOKNEKUVXTI6SA17JG","","","null","","","","","","","","","",""
"1172.9000000059605","","image-keyboard-response","352","646826","0.0-352.0","37FMASSAYDDN59110LQDFDLO6RRBIF","AW0MG225VXWCN","3G9UA71JVVGUCOKNEKUVXTI6SA17JG","","img/set1/S3.jpg","72","3","random","72","random,structured_incentive,structured_normal,structured_load","1,2,2,3,4,2","2,1,3,4","true","","",""
"null","","html-keyboard-response","353","647192","0.0-353.0","37FMASSAYDDN59110LQDFDLO6RRBIF","AW0MG225VXWCN","3G9UA71JVVGUCOKNEKUVXTI6SA17JG","","<img src=""img/set1/S3.jpg"" width=""540"" height = ""360"" style=""border:16px solid orange"">","null","","","","","","","","","",""
"null","","html-keyboard-response","354","647406","0.0-354.0","37FMASSAYDDN59110LQDFDLO6RRBIF","AW0MG225VXWCN","3G9UA71JVVGUCOKNEKUVXTI6SA17JG","","","null","","","","","","","","","",""
"467.30000001192093","","image-keyboard-response","355","647875","0.0-355.0","37FMASSAYDDN59110LQDFDLO6RRBIF","AW0MG225VXWCN","3G9UA71JVVGUCOKNEKUVXTI6SA17JG","","img/set1/S4.jpg","74","4","random","74","random,structured_incentive,structured_normal,structured_load","1,2,2,3,4,2","2,1,3,4","true","","",""
"null","","html-keyboard-response","356","648238","0.0-356.0","37FMASSAYDDN59110LQDFDLO6RRBIF","AW0MG225VXWCN","3G9UA71JVVGUCOKNEKUVXTI6SA17JG","","<img src=""img/set1/S4.jpg"" width=""540"" height = ""360"" style=""border:16px solid orange"">","null","","","","","","","","","",""
"null","","html-keyboard-response","357","648453","0.0-357.0","37FMASSAYDDN59110LQDFDLO6RRBIF","AW0MG225VXWCN","3G9UA71JVVGUCOKNEKUVXTI6SA17JG","","","null","","","","","","","","","",""
"595.9000000059605","","image-keyboard-response","358","649050","0.0-358.0","37FMASSAYDDN59110LQDFDLO6RRBIF","AW0MG225VXWCN","3G9UA71JVVGUCOKNEKUVXTI6SA17JG","","img/set1/S1.jpg","83","1","random","83","random,structured_incentive,structured_normal,structured_load","1,2,2,3,4,2","2,1,3,4","true","","",""
"null","","html-keyboard-response","359","649416","0.0-359.0","37FMASSAYDDN59110LQDFDLO6RRBIF","AW0MG225VXWCN","3G9UA71JVVGUCOKNEKUVXTI6SA17JG","","<img src=""img/set1/S1.jpg"" width=""540"" height = ""360"" style=""border:16px solid orange"">","null","","","","","","","","","",""
"null","","html-keyboard-response","360","649621","0.0-360.0","37FMASSAYDDN59110LQDFDLO6RRBIF","AW0MG225VXWCN","3G9UA71JVVGUCOKNEKUVXTI6SA17JG","","","null","","","","","","","","","",""
"563.4000000059605","","image-keyboard-response","361","650185","0.0-361.0","37FMASSAYDDN59110LQDFDLO6RRBIF","AW0MG225VXWCN","3G9UA71JVVGUCOKNEKUVXTI6SA17JG","","img/set1/S1.jpg","83","1","random","83","random,structured_incentive,structured_normal,structured_load","1,2,2,3,4,2","2,1,3,4","true","","",""
"null","","html-keyboard-response","362","650546","0.0-362.0","37FMASSAYDDN59110LQDFDLO6RRBIF","AW0MG225VXWCN","3G9UA71JVVGUCOKNEKUVXTI6SA17JG","","<img src=""img/set1/S1.jpg"" width=""540"" height = ""360"" style=""border:16px solid orange"">","null","","","","","","","","","",""
"null","","html-keyboard-response","363","650756","0.0-363.0","37FMASSAYDDN59110LQDFDLO6RRBIF","AW0MG225VXWCN","3G9UA71JVVGUCOKNEKUVXTI6SA17JG","","","null","","","","","","","","","",""
"604.6999999880791","","image-keyboard-response","364","651361","0.0-364.0","37FMASSAYDDN59110LQDFDLO6RRBIF","AW0MG225VXWCN","3G9UA71JVVGUCOKNEKUVXTI6SA17JG","","img/set1/S1.jpg","83","1","random","83","random,structured_incentive,structured_normal,structured_load","1,2,2,3,4,2","2,1,3,4","true","","",""
"null","","html-keyboard-response","365","651721","0.0-365.0","37FMASSAYDDN59110LQDFDLO6RRBIF","AW0MG225VXWCN","3G9UA71JVVGUCOKNEKUVXTI6SA17JG","","<img src=""img/set1/S1.jpg"" width=""540"" height = ""360"" style=""border:16px solid orange"">","null","","","","","","","","","",""
"null","","html-keyboard-response","366","651926","0.0-366.0","37FMASSAYDDN59110LQDFDLO6RRBIF","AW0MG225VXWCN","3G9UA71JVVGUCOKNEKUVXTI6SA17JG","","","null","","","","","","","","","",""
"619.6999999880791","","image-keyboard-response","367","652547","0.0-367.0","37FMASSAYDDN59110LQDFDLO6RRBIF","AW0MG225VXWCN","3G9UA71JVVGUCOKNEKUVXTI6SA17JG","","img/set1/S2.jpg","68","2","random","68","random,structured_incentive,structured_normal,structured_load","1,2,2,3,4,2","2,1,3,4","true","","",""
"null","","html-keyboard-response","368","652907","0.0-368.0","37FMASSAYDDN59110LQDFDLO6RRBIF","AW0MG225VXWCN","3G9UA71JVVGUCOKNEKUVXTI6SA17JG","","<img src=""img/set1/S2.jpg"" width=""540"" height = ""360"" style=""border:16px solid orange"">","null","","","","","","","","","",""
"null","","html-keyboard-response","369","653109","0.0-369.0","37FMASSAYDDN59110LQDFDLO6RRBIF","AW0MG225VXWCN","3G9UA71JVVGUCOKNEKUVXTI6SA17JG","","","null","","","","","","","","","",""
"987.1999999880791","","image-keyboard-response","370","654097","0.0-370.0","37FMASSAYDDN59110LQDFDLO6RRBIF","AW0MG225VXWCN","3G9UA71JVVGUCOKNEKUVXTI6SA17JG","","img/set1/S3.jpg","72","3","random","72","random,structured_incentive,structured_normal,structured_load","1,2,2,3,4,2","2,1,3,4","true","","",""
"null","","html-keyboard-response","371","654462","0.0-371.0","37FMASSAYDDN59110LQDFDLO6RRBIF","AW0MG225VXWCN","3G9UA71JVVGUCOKNEKUVXTI6SA17JG","","<img src=""img/set1/S3.jpg"" width=""540"" height = ""360"" style=""border:16px solid orange"">","null","","","","","","","","","",""
"null","","html-keyboard-response","372","654677","0.0-372.0","37FMASSAYDDN59110LQDFDLO6RRBIF","AW0MG225VXWCN","3G9UA71JVVGUCOKNEKUVXTI6SA17JG","","","null","","","","","","","","","",""
"1116.800000011921","","image-keyboard-response","373","655795","0.0-373.0","37FMASSAYDDN59110LQDFDLO6RRBIF","AW0MG225VXWCN","3G9UA71JVVGUCOKNEKUVXTI6SA17JG","","img/set1/S4.jpg","74","4","random","74","random,structured_incentive,structured_normal,structured_load","1,2,2,3,4,2","2,1,3,4","true","","",""
"null","","html-keyboard-response","374","656152","0.0-374.0","37FMASSAYDDN59110LQDFDLO6RRBIF","AW0MG225VXWCN","3G9UA71JVVGUCOKNEKUVXTI6SA17JG","","<img src=""img/set1/S4.jpg"" width=""540"" height = ""360"" style=""border:16px solid orange"">","null","","","","","","","","","",""
"null","","html-keyboard-response","375","656367","0.0-375.0","37FMASSAYDDN59110LQDFDLO6RRBIF","AW0MG225VXWCN","3G9UA71JVVGUCOKNEKUVXTI6SA17JG","","","null","","","","","","","","","",""
"641.5999999940395","","image-keyboard-response","376","657010","0.0-376.0","37FMASSAYDDN59110LQDFDLO6RRBIF","AW0MG225VXWCN","3G9UA71JVVGUCOKNEKUVXTI6SA17JG","","img/set1/S2.jpg","68","2","random","68","random,structured_incentive,structured_normal,structured_load","1,2,2,3,4,2","2,1,3,4","true","","",""
"null","","html-keyboard-response","377","657366","0.0-377.0","37FMASSAYDDN59110LQDFDLO6RRBIF","AW0MG225VXWCN","3G9UA71JVVGUCOKNEKUVXTI6SA17JG","","<img src=""img/set1/S2.jpg"" width=""540"" height = ""360"" style=""border:16px solid orange"">","null","","","","","","","","","",""
"null","","html-keyboard-response","378","657572","0.0-378.0","37FMASSAYDDN59110LQDFDLO6RRBIF","AW0MG225VXWCN","3G9UA71JVVGUCOKNEKUVXTI6SA17JG","","","null","","","","","","","","","",""
"685.2999999821186","","image-keyboard-response","379","658259","0.0-379.0","37FMASSAYDDN59110LQDFDLO6RRBIF","AW0MG225VXWCN","3G9UA71JVVGUCOKNEKUVXTI6SA17JG","","img/set1/S1.jpg","83","1","random","83","random,structured_incentive,structured_normal,structured_load","1,2,2,3,4,2","2,1,3,4","true","","",""
"null","","html-keyboard-response","380","658620","0.0-380.0","37FMASSAYDDN59110LQDFDLO6RRBIF","AW0MG225VXWCN","3G9UA71JVVGUCOKNEKUVXTI6SA17JG","","<img src=""img/set1/S1.jpg"" width=""540"" height = ""360"" style=""border:16px solid orange"">","null","","","","","","","","","",""
"null","","html-keyboard-response","381","658836","0.0-381.0","37FMASSAYDDN59110LQDFDLO6RRBIF","AW0MG225VXWCN","3G9UA71JVVGUCOKNEKUVXTI6SA17JG","","","null","","","","","","","","","",""
"564.8000000119209","","image-keyboard-response","382","659401","0.0-382.0","37FMASSAYDDN59110LQDFDLO6RRBIF","AW0MG225VXWCN","3G9UA71JVVGUCOKNEKUVXTI6SA17JG","","img/set1/S4.jpg","74","4","random","74","random,structured_incentive,structured_normal,structured_load","1,2,2,3,4,2","2,1,3,4","true","","",""
"null","","html-keyboard-response","383","659756","0.0-383.0","37FMASSAYDDN59110LQDFDLO6RRBIF","AW0MG225VXWCN","3G9UA71JVVGUCOKNEKUVXTI6SA17JG","","<img src=""img/set1/S4.jpg"" width=""540"" height = ""360"" style=""border:16px solid orange"">","null","","","","","","","","","",""
"null","","html-keyboard-response","384","659968","0.0-384.0","37FMASSAYDDN59110LQDFDLO6RRBIF","AW0MG225VXWCN","3G9UA71JVVGUCOKNEKUVXTI6SA17JG","","","null","","","","","","","","","",""
"1160.699999988079","","image-keyboard-response","385","661129","0.0-385.0","37FMASSAYDDN59110LQDFDLO6RRBIF","AW0MG225VXWCN","3G9UA71JVVGUCOKNEKUVXTI6SA17JG","","img/set1/S2.jpg","68","2","random","68","random,structured_incentive,structured_normal,structured_load","1,2,2,3,4,2","2,1,3,4","true","","",""
"null","","html-keyboard-response","386","661493","0.0-386.0","37FMASSAYDDN59110LQDFDLO6RRBIF","AW0MG225VXWCN","3G9UA71JVVGUCOKNEKUVXTI6SA17JG","","<img src=""img/set1/S2.jpg"" width=""540"" height = ""360"" style=""border:16px solid orange"">","null","","","","","","","","","",""
