"rt","url","trial_type","trial_index","time_elapsed","internal_node_id","view_history","stimulus","key_press","state","test_part","correct_response","order_block","order_chunk","order_freq","correct","responses","question_order","bonus"
"4647.5999999940395","consent.html","external-html","0","4834","0.0-0.0","","","","","","","","","","","","",""
"318873.59999999404","","instructions","1","323741","0.0-1.0","[{""page_index"":0,""viewing_time"":2471.899999976158},{""page_index"":1,""viewing_time"":10580.300000011921},{""page_index"":2,""viewing_time"":23981},{""page_index"":3,""viewing_time"":11991.5},{""page_index"":4,""viewing_time"":110481.30000001192},{""page_index"":3,""viewing_time"":2300.2999999821186},{""page_index"":4,""viewing_time"":1691},{""page_index"":5,""viewing_time"":10575.59999999404},{""page_index"":6,""viewing_time"":134532.40000000596},{""page_index"":5,""viewing_time"":1078.4000000059605},{""page_index"":4,""viewing_time"":1218.199999988079},{""page_index"":3,""viewing_time"":1254},{""page_index"":4,""viewing_time"":1186.4000000059605},{""page_index"":5,""viewing_time"":1778.9000000059605},{""page_index"":6,""viewing_time"":3747.0999999940395}]","","","","","","","","","","","",""
"36871.5","","instructions","2","360622","0.0-2.0","[{""page_index"":0,""viewing_time"":36871.09999999404}]","","","","","","","","","","","",""
"29149.20000001788","","instructions","3","389776","0.0-3.0","[{""page_index"":0,""viewing_time"":9810.5},{""page_index"":1,""viewing_time"":19337.90000000596}]","","","","","","","","","","","",""
"783.5999999940395","","image-keyboard-response","4","390563","0.0-4.0","","img/set1/S2.jpg","68","2","structured_incentive","68","structured_incentive,structured_normal,structured_load,random","2,1,2,3,3,4","3,4,2,1","true","","",""
"null","","html-keyboard-response","5","390920","0.0-5.0","","<img src=""img/set1/S2.jpg"" width=""540"" height = ""360"" style=""border:16px solid orange"">","null","","","","","","","","","",""
"null","","html-keyboard-response","6","391126","0.0-6.0","","","null","","","","","","","","","",""
"896.8000000119209","","image-keyboard-response","7","392026","0.0-7.0","","img/set1/S1.jpg","83","1","structured_incentive","83","structured_incentive,structured_normal,structured_load,random","2,1,2,3,3,4","3,4,2,1","true","","",""
"null","","html-keyboard-response","8","392383","0.0-8.0","","<img src=""img/set1/S1.jpg"" width=""540"" height = ""360"" style=""border:16px solid Violet"">","null","","","","","","","","","",""
"null","","html-keyboard-response","9","392589","0.0-9.0","","","null","","","","","","","","","",""
"1264.4000000059605","","image-keyboard-response","10","393855","0.0-10.0","","img/set1/S4.jpg","83","4","structured_incentive","74","structured_incentive,structured_normal,structured_load,random","2,1,2,3,3,4","3,4,2,1","false","","",""
"null","","html-keyboard-response","11","394210","0.0-11.0","","<img src=""img/set1/S4.jpg"" width=""540"" height = ""360"">","null","","","","","","","","","",""
"null","","html-keyboard-response","12","394413","0.0-12.0","","","null","","","","","","","","","",""
"1240.5","","image-keyboard-response","13","395655","0.0-13.0","","img/set1/S2.jpg","68","2","structured_incentive","68","structured_incentive,structured_normal,structured_load,random","2,1,2,3,3,4","3,4,2,1","true","","",""
"null","","html-keyboard-response","14","396007","0.0-14.0","","<img src=""img/set1/S2.jpg"" width=""540"" height = ""360"" style=""border:16px solid orange"">","null","","","","","","","","","",""
"null","","html-keyboard-response","15","396209","0.0-15.0","","","null","","","","","","","","","",""
"581.3000000119209","","image-keyboard-response","16","396793","0.0-16.0","","img/set1/S1.jpg","83","1","structured_incentive","83","structured_incentive,structured_normal,structured_load,random","2,1,2,3,3,4","3,4,2,1","true","","",""
"null","","html-keyboard-response","17","397149","0.0-17.0","","<img src=""img/set1/S1.jpg"" width=""540"" height = ""360"" style=""border:16px solid Violet"">","null","","","","","","","","","",""
"null","","html-keyboard-response","18","397354","0.0-18.0","","","null","","","","","","","","","",""
"447.40000000596046","","image-keyboard-response","19","397804","0.0-19.0","","img/set1/S4.jpg","72","4","structured_incentive","74","structured_incentive,structured_normal,structured_load,random","2,1,2,3,3,4","3,4,2,1","false","","",""
"null","","html-keyboard-response","20","398157","0.0-20.0","","<img src=""img/set1/S4.jpg"" width=""540"" height = ""360"">","null","","","","","","","","","",""
"null","","html-keyboard-response","21","398362","0.0-21.0","","","null","","","","","","","","","",""
"775.7000000178814","","image-keyboard-response","22","399139","0.0-22.0","","img/set1/S4.jpg","74","4","structured_incentive","74","structured_incentive,structured_normal,structured_load,random","2,1,2,3,3,4","3,4,2,1","true","","",""
"null","","html-keyboard-response","23","399495","0.0-23.0","","<img src=""img/set1/S4.jpg"" width=""540"" height = ""360"" style=""border:16px solid orange"">","null","","","","","","","","","",""
"null","","html-keyboard-response","24","399698","0.0-24.0","","","null","","","","","","","","","",""
"493.90000000596046","","image-keyboard-response","25","400193","0.0-25.0","","img/set1/S4.jpg","74","4","structured_incentive","74","structured_incentive,structured_normal,structured_load,random","2,1,2,3,3,4","3,4,2,1","true","","",""
"null","","html-keyboard-response","26","400546","0.0-26.0","","<img src=""img/set1/S4.jpg"" width=""540"" height = ""360"" style=""border:16px solid orange"">","null","","","","","","","","","",""
"null","","html-keyboard-response","27","400749","0.0-27.0","","","null","","","","","","","","","",""
"519.1999999880791","","image-keyboard-response","28","401270","0.0-28.0","","img/set1/S4.jpg","74","4","structured_incentive","74","structured_incentive,structured_normal,structured_load,random","2,1,2,3,3,4","3,4,2,1","true","","",""
"null","","html-keyboard-response","29","401625","0.0-29.0","","<img src=""img/set1/S4.jpg"" width=""540"" height = ""360"" style=""border:16px solid orange"">","null","","","","","","","","","",""
"null","","html-keyboard-response","30","401831","0.0-30.0","","","null","","","","","","","","","",""
"415.19999998807907","","image-keyboard-response","31","402247","0.0-31.0","","img/set1/S4.jpg","74","4","structured_incentive","74","structured_incentive,structured_normal,structured_load,random","2,1,2,3,3,4","3,4,2,1","true","","",""
"null","","html-keyboard-response","32","402604","0.0-32.0","","<img src=""img/set1/S4.jpg"" width=""540"" height = ""360"" style=""border:16px solid orange"">","null","","","","","","","","","",""
"null","","html-keyboard-response","33","402810","0.0-33.0","","","null","","","","","","","","","",""
"896.9000000059605","","image-keyboard-response","34","403708","0.0-34.0","","img/set1/S2.jpg","83","2","structured_incentive","68","structured_incentive,structured_normal,structured_load,random","2,1,2,3,3,4","3,4,2,1","false","","",""
"null","","html-keyboard-response","35","404060","0.0-35.0","","<img src=""img/set1/S2.jpg"" width=""540"" height = ""360"">","null","","","","","","","","","",""
"null","","html-keyboard-response","36","404263","0.0-36.0","","","null","","","","","","","","","",""
"797.8000000119209","","image-keyboard-response","37","405063","0.0-37.0","","img/set1/S1.jpg","83","1","structured_incentive","83","structured_incentive,structured_normal,structured_load,random","2,1,2,3,3,4","3,4,2,1","true","","",""
"null","","html-keyboard-response","38","405418","0.0-38.0","","<img src=""img/set1/S1.jpg"" width=""540"" height = ""360"" style=""border:16px solid Violet"">","null","","","","","","","","","",""
"null","","html-keyboard-response","39","405623","0.0-39.0","","","null","","","","","","","","","",""
"650.1999999880791","","image-keyboard-response","40","406275","0.0-40.0","","img/set1/S2.jpg","68","2","structured_incentive","68","structured_incentive,structured_normal,structured_load,random","2,1,2,3,3,4","3,4,2,1","true","","",""
"null","","html-keyboard-response","41","406631","0.0-41.0","","<img src=""img/set1/S2.jpg"" width=""540"" height = ""360"" style=""border:16px solid orange"">","null","","","","","","","","","",""
"null","","html-keyboard-response","42","406834","0.0-42.0","","","null","","","","","","","","","",""
"778.4000000059605","","image-keyboard-response","43","407614","0.0-43.0","","img/set1/S1.jpg","83","1","structured_incentive","83","structured_incentive,structured_normal,structured_load,random","2,1,2,3,3,4","3,4,2,1","true","","",""
"null","","html-keyboard-response","44","407970","0.0-44.0","","<img src=""img/set1/S1.jpg"" width=""540"" height = ""360"" style=""border:16px solid Violet"">","null","","","","","","","","","",""
"null","","html-keyboard-response","45","408173","0.0-45.0","","","null","","","","","","","","","",""
"744.0999999940395","","image-keyboard-response","46","408919","0.0-46.0","","img/set1/S2.jpg","68","2","structured_incentive","68","structured_incentive,structured_normal,structured_load,random","2,1,2,3,3,4","3,4,2,1","true","","",""
"null","","html-keyboard-response","47","409271","0.0-47.0","","<img src=""img/set1/S2.jpg"" width=""540"" height = ""360"" style=""border:16px solid orange"">","null","","","","","","","","","",""
"null","","html-keyboard-response","48","409474","0.0-48.0","","","null","","","","","","","","","",""
"543.7999999821186","","image-keyboard-response","49","410019","0.0-49.0","","img/set1/S1.jpg","83","1","structured_incentive","83","structured_incentive,structured_normal,structured_load,random","2,1,2,3,3,4","3,4,2,1","true","","",""
"null","","html-keyboard-response","50","410376","0.0-50.0","","<img src=""img/set1/S1.jpg"" width=""540"" height = ""360"" style=""border:16px solid Violet"">","null","","","","","","","","","",""
"null","","html-keyboard-response","51","410578","0.0-51.0","","","null","","","","","","","","","",""
"534.2000000178814","","image-keyboard-response","52","411114","0.0-52.0","","img/set1/S2.jpg","68","2","structured_incentive","68","structured_incentive,structured_normal,structured_load,random","2,1,2,3,3,4","3,4,2,1","true","","",""
"null","","html-keyboard-response","53","411469","0.0-53.0","","<img src=""img/set1/S2.jpg"" width=""540"" height = ""360"" style=""border:16px solid orange"">","null","","","","","","","","","",""
"null","","html-keyboard-response","54","411672","0.0-54.0","","","null","","","","","","","","","",""
"617.3999999761581","","image-keyboard-response","55","412291","0.0-55.0","","img/set1/S1.jpg","83","1","structured_incentive","83","structured_incentive,structured_normal,structured_load,random","2,1,2,3,3,4","3,4,2,1","true","","",""
"null","","html-keyboard-response","56","412648","0.0-56.0","","<img src=""img/set1/S1.jpg"" width=""540"" height = ""360"" style=""border:16px solid Violet"">","null","","","","","","","","","",""
"null","","html-keyboard-response","57","412850","0.0-57.0","","","null","","","","","","","","","",""
"664.6000000238419","","image-keyboard-response","58","413516","0.0-58.0","","img/set1/S3.jpg","74","3","structured_incentive","72","structured_incentive,structured_normal,structured_load,random","2,1,2,3,3,4","3,4,2,1","false","","",""
"null","","html-keyboard-response","59","413870","0.0-59.0","","<img src=""img/set1/S3.jpg"" width=""540"" height = ""360"">","null","","","","","","","","","",""
"null","","html-keyboard-response","60","414072","0.0-60.0","","","null","","","","","","","","","",""
"1079.2999999821186","","image-keyboard-response","61","415152","0.0-61.0","","img/set1/S2.jpg","68","2","structured_incentive","68","structured_incentive,structured_normal,structured_load,random","2,1,2,3,3,4","3,4,2,1","true","","",""
"null","","html-keyboard-response","62","415506","0.0-62.0","","<img src=""img/set1/S2.jpg"" width=""540"" height = ""360"" style=""border:16px solid orange"">","null","","","","","","","","","",""
"null","","html-keyboard-response","63","415710","0.0-63.0","","","null","","","","","","","","","",""
"657.9000000059605","","image-keyboard-response","64","416370","0.0-64.0","","img/set1/S1.jpg","83","1","structured_incentive","83","structured_incentive,structured_normal,structured_load,random","2,1,2,3,3,4","3,4,2,1","true","","",""
"null","","html-keyboard-response","65","416722","0.0-65.0","","<img src=""img/set1/S1.jpg"" width=""540"" height = ""360"" style=""border:16px solid Violet"">","null","","","","","","","","","",""
"null","","html-keyboard-response","66","416926","0.0-66.0","","","null","","","","","","","","","",""
"556.9000000059605","","image-keyboard-response","67","417484","0.0-67.0","","img/set1/S2.jpg","68","2","structured_incentive","68","structured_incentive,structured_normal,structured_load,random","2,1,2,3,3,4","3,4,2,1","true","","",""
"null","","html-keyboard-response","68","417838","0.0-68.0","","<img src=""img/set1/S2.jpg"" width=""540"" height = ""360"" style=""border:16px solid orange"">","null","","","","","","","","","",""
"null","","html-keyboard-response","69","418040","0.0-69.0","","","null","","","","","","","","","",""
"523.8000000119209","","image-keyboard-response","70","418568","0.0-70.0","","img/set1/S1.jpg","83","1","structured_incentive","83","structured_incentive,structured_normal,structured_load,random","2,1,2,3,3,4","3,4,2,1","true","","",""
"null","","html-keyboard-response","71","418922","0.0-71.0","","<img src=""img/set1/S1.jpg"" width=""540"" height = ""360"" style=""border:16px solid Violet"">","null","","","","","","","","","",""
"null","","html-keyboard-response","72","419128","0.0-72.0","","","null","","","","","","","","","",""
"504.7999999821186","","image-keyboard-response","73","419634","0.0-73.0","","img/set1/S3.jpg","74","3","structured_incentive","72","structured_incentive,structured_normal,structured_load,random","2,1,2,3,3,4","3,4,2,1","false","","",""
"null","","html-keyboard-response","74","419990","0.0-74.0","","<img src=""img/set1/S3.jpg"" width=""540"" height = ""360"">","null","","","","","","","","","",""
"null","","html-keyboard-response","75","420194","0.0-75.0","","","null","","","","","","","","","",""
"1132.3999999761581","","image-keyboard-response","76","421328","0.0-76.0","","img/set1/S3.jpg","68","3","structured_incentive","72","structured_incentive,structured_normal,structured_load,random","2,1,2,3,3,4","3,4,2,1","false","","",""
"null","","html-keyboard-response","77","421682","0.0-77.0","","<img src=""img/set1/S3.jpg"" width=""540"" height = ""360"">","null","","","","","","","","","",""
"null","","html-keyboard-response","78","421886","0.0-78.0","","","null","","","","","","","","","",""
"402.90000000596046","","image-keyboard-response","79","422290","0.0-79.0","","img/set1/S3.jpg","83","3","structured_incentive","72","structured_incentive,structured_normal,structured_load,random","2,1,2,3,3,4","3,4,2,1","false","","",""
"null","","html-keyboard-response","80","422642","0.0-80.0","","<img src=""img/set1/S3.jpg"" width=""540"" height = ""360"">","null","","","","","","","","","",""
"null","","html-keyboard-response","81","422846","0.0-81.0","","","null","","","","","","","","","",""
"1140.699999988079","","image-keyboard-response","82","423988","0.0-82.0","","img/set1/S4.jpg","68","4","structured_incentive","74","structured_incentive,structured_normal,structured_load,random","2,1,2,3,3,4","3,4,2,1","false","","",""
"null","","html-keyboard-response","83","424344","0.0-83.0","","<img src=""img/set1/S4.jpg"" width=""540"" height = ""360"">","null","","","","","","","","","",""
"null","","html-keyboard-response","84","424546","0.0-84.0","","","null","","","","","","","","","",""
"614","","image-keyboard-response","85","425162","0.0-85.0","","img/set1/S2.jpg","68","2","structured_incentive","68","structured_incentive,structured_normal,structured_load,random","2,1,2,3,3,4","3,4,2,1","true","","",""
"null","","html-keyboard-response","86","425518","0.0-86.0","","<img src=""img/set1/S2.jpg"" width=""540"" height = ""360"" style=""border:16px solid orange"">","null","","","","","","","","","",""
"null","","html-keyboard-response","87","425723","0.0-87.0","","","null","","","","","","","","","",""
"529.5999999940395","","image-keyboard-response","88","426254","0.0-88.0","","img/set1/S1.jpg","83","1","structured_incentive","83","structured_incentive,structured_normal,structured_load,random","2,1,2,3,3,4","3,4,2,1","true","","",""
"null","","html-keyboard-response","89","426611","0.0-89.0","","<img src=""img/set1/S1.jpg"" width=""540"" height = ""360"" style=""border:16px solid Violet"">","null","","","","","","","","","",""
"null","","html-keyboard-response","90","426814","0.0-90.0","","","null","","","","","","","","","",""
"492.40000000596046","","image-keyboard-response","91","427308","0.0-91.0","","img/set1/S2.jpg","68","2","structured_incentive","68","structured_incentive,structured_normal,structured_load,random","2,1,2,3,3,4","3,4,2,1","true","","",""
"null","","html-keyboard-response","92","427663","0.0-92.0","","<img src=""img/set1/S2.jpg"" width=""540"" height = ""360"" style=""border:16px solid orange"">","null","","","","","","","","","",""
"null","","html-keyboard-response","93","427865","0.0-93.0","","","null","","","","","","","","","",""
"443","","image-keyboard-response","94","428309","0.0-94.0","","img/set1/S1.jpg","83","1","structured_incentive","83","structured_incentive,structured_normal,structured_load,random","2,1,2,3,3,4","3,4,2,1","true","","",""
"null","","html-keyboard-response","95","428664","0.0-95.0","","<img src=""img/set1/S1.jpg"" width=""540"" height = ""360"" style=""border:16px solid Violet"">","null","","","","","","","","","",""
"null","","html-keyboard-response","96","428867","0.0-96.0","","","null","","","","","","","","","",""
"903.7000000178814","","image-keyboard-response","97","429772","0.0-97.0","","img/set1/S4.jpg","72","4","structured_incentive","74","structured_incentive,structured_normal,structured_load,random","2,1,2,3,3,4","3,4,2,1","false","","",""
"null","","html-keyboard-response","98","430127","0.0-98.0","","<img src=""img/set1/S4.jpg"" width=""540"" height = ""360"">","null","","","","","","","","","",""
"null","","html-keyboard-response","99","430330","0.0-99.0","","","null","","","","","","","","","",""
"1018.9000000059605","","image-keyboard-response","100","431351","0.0-100.0","","img/set1/S3.jpg","72","3","structured_incentive","72","structured_incentive,structured_normal,structured_load,random","2,1,2,3,3,4","3,4,2,1","true","","",""
"null","","html-keyboard-response","101","431705","0.0-101.0","","<img src=""img/set1/S3.jpg"" width=""540"" height = ""360"" style=""border:16px solid orange"">","null","","","","","","","","","",""
"null","","html-keyboard-response","102","431907","0.0-102.0","","","null","","","","","","","","","",""
"734.8000000119209","","image-keyboard-response","103","432643","0.0-103.0","","img/set1/S2.jpg","68","2","structured_incentive","68","structured_incentive,structured_normal,structured_load,random","2,1,2,3,3,4","3,4,2,1","true","","",""
"null","","html-keyboard-response","104","433000","0.0-104.0","","<img src=""img/set1/S2.jpg"" width=""540"" height = ""360"" style=""border:16px solid orange"">","null","","","","","","","","","",""
"null","","html-keyboard-response","105","433202","0.0-105.0","","","null","","","","","","","","","",""
"763.1999999880791","","image-keyboard-response","106","433967","0.0-106.0","","img/set1/S1.jpg","83","1","structured_incentive","83","structured_incentive,structured_normal,structured_load,random","2,1,2,3,3,4","3,4,2,1","true","","",""
"null","","html-keyboard-response","107","434323","0.0-107.0","","<img src=""img/set1/S1.jpg"" width=""540"" height = ""360"" style=""border:16px solid Violet"">","null","","","","","","","","","",""
"null","","html-keyboard-response","108","434527","0.0-108.0","","","null","","","","","","","","","",""
"440.7000000178814","","image-keyboard-response","109","434969","0.0-109.0","","img/set1/S3.jpg","72","3","structured_incentive","72","structured_incentive,structured_normal,structured_load,random","2,1,2,3,3,4","3,4,2,1","true","","",""
"null","","html-keyboard-response","110","435326","0.0-110.0","","<img src=""img/set1/S3.jpg"" width=""540"" height = ""360"" style=""border:16px solid orange"">","null","","","","","","","","","",""
"null","","html-keyboard-response","111","435531","0.0-111.0","","","null","","","","","","","","","",""
"583","","image-keyboard-response","112","436115","0.0-112.0","","img/set1/S2.jpg","68","2","structured_incentive","68","structured_incentive,structured_normal,structured_load,random","2,1,2,3,3,4","3,4,2,1","true","","",""
"null","","html-keyboard-response","113","436472","0.0-113.0","","<img src=""img/set1/S2.jpg"" width=""540"" height = ""360"" style=""border:16px solid orange"">","null","","","","","","","","","",""
"null","","html-keyboard-response","114","436675","0.0-114.0","","","null","","","","","","","","","",""
"558.4000000059605","","image-keyboard-response","115","437235","0.0-115.0","","img/set1/S1.jpg","83","1","structured_incentive","83","structured_incentive,structured_normal,structured_load,random","2,1,2,3,3,4","3,4,2,1","true","","",""
"null","","html-keyboard-response","116","437593","0.0-116.0","","<img src=""img/set1/S1.jpg"" width=""540"" height = ""360"" style=""border:16px solid Violet"">","null","","","","","","","","","",""
"null","","html-keyboard-response","117","437795","0.0-117.0","","","null","","","","","","","","","",""
"609.6000000238419","","image-keyboard-response","118","438406","0.0-118.0","","img/set1/S3.jpg","72","3","structured_incentive","72","structured_incentive,structured_normal,structured_load,random","2,1,2,3,3,4","3,4,2,1","true","","",""
"null","","html-keyboard-response","119","438760","0.0-119.0","","<img src=""img/set1/S3.jpg"" width=""540"" height = ""360"" style=""border:16px solid orange"">","null","","","","","","","","","",""
"null","","html-keyboard-response","120","438966","0.0-120.0","","","null","","","","","","","","","",""
"629.1999999880791","","image-keyboard-response","121","439597","0.0-121.0","","img/set1/S4.jpg","74","4","structured_incentive","74","structured_incentive,structured_normal,structured_load,random","2,1,2,3,3,4","3,4,2,1","true","","",""
"null","","html-keyboard-response","122","439950","0.0-122.0","","<img src=""img/set1/S4.jpg"" width=""540"" height = ""360"" style=""border:16px solid orange"">","null","","","","","","","","","",""
"null","","html-keyboard-response","123","440153","0.0-123.0","","","null","","","","","","","","","",""
"745.6999999880791","","image-keyboard-response","124","440900","0.0-124.0","","img/set1/S2.jpg","68","2","structured_incentive","68","structured_incentive,structured_normal,structured_load,random","2,1,2,3,3,4","3,4,2,1","true","","",""
"null","","html-keyboard-response","125","441257","0.0-125.0","","<img src=""img/set1/S2.jpg"" width=""540"" height = ""360"" style=""border:16px solid orange"">","null","","","","","","","","","",""
"null","","html-keyboard-response","126","441459","0.0-126.0","","","null","","","","","","","","","",""
"538.4000000059605","","image-keyboard-response","127","441999","0.0-127.0","","img/set1/S1.jpg","83","1","structured_incentive","83","structured_incentive,structured_normal,structured_load,random","2,1,2,3,3,4","3,4,2,1","true","","",""
"null","","html-keyboard-response","128","442355","0.0-128.0","","<img src=""img/set1/S1.jpg"" width=""540"" height = ""360"" style=""border:16px solid Violet"">","null","","","","","","","","","",""
"null","","html-keyboard-response","129","442559","0.0-129.0","","","null","","","","","","","","","",""
"590.6000000238419","","image-keyboard-response","130","443151","0.0-130.0","","img/set1/S2.jpg","68","2","structured_incentive","68","structured_incentive,structured_normal,structured_load,random","2,1,2,3,3,4","3,4,2,1","true","","",""
"null","","html-keyboard-response","131","443507","0.0-131.0","","<img src=""img/set1/S2.jpg"" width=""540"" height = ""360"" style=""border:16px solid orange"">","null","","","","","","","","","",""
"null","","html-keyboard-response","132","443710","0.0-132.0","","","null","","","","","","","","","",""
"553.5999999940395","","image-keyboard-response","133","444266","0.0-133.0","","img/set1/S1.jpg","83","1","structured_incentive","83","structured_incentive,structured_normal,structured_load,random","2,1,2,3,3,4","3,4,2,1","true","","",""
"null","","html-keyboard-response","134","444622","0.0-134.0","","<img src=""img/set1/S1.jpg"" width=""540"" height = ""360"" style=""border:16px solid Violet"">","null","","","","","","","","","",""
"null","","html-keyboard-response","135","444827","0.0-135.0","","","null","","","","","","","","","",""
"777.3000000119209","","image-keyboard-response","136","445606","0.0-136.0","","img/set1/S3.jpg","72","3","structured_incentive","72","structured_incentive,structured_normal,structured_load,random","2,1,2,3,3,4","3,4,2,1","true","","",""
"null","","html-keyboard-response","137","445963","0.0-137.0","","<img src=""img/set1/S3.jpg"" width=""540"" height = ""360"" style=""border:16px solid orange"">","null","","","","","","","","","",""
"null","","html-keyboard-response","138","446169","0.0-138.0","","","null","","","","","","","","","",""
"659.6999999880791","","image-keyboard-response","139","446830","0.0-139.0","","img/set1/S4.jpg","74","4","structured_incentive","74","structured_incentive,structured_normal,structured_load,random","2,1,2,3,3,4","3,4,2,1","true","","",""
"null","","html-keyboard-response","140","447188","0.0-140.0","","<img src=""img/set1/S4.jpg"" width=""540"" height = ""360"" style=""border:16px solid orange"">","null","","","","","","","","","",""
"null","","html-keyboard-response","141","447390","0.0-141.0","","","null","","","","","","","","","",""
"633.6999999880791","","image-keyboard-response","142","448025","0.0-142.0","","img/set1/S3.jpg","72","3","structured_incentive","72","structured_incentive,structured_normal,structured_load,random","2,1,2,3,3,4","3,4,2,1","true","","",""
"null","","html-keyboard-response","143","448382","0.0-143.0","","<img src=""img/set1/S3.jpg"" width=""540"" height = ""360"" style=""border:16px solid orange"">","null","","","","","","","","","",""
"null","","html-keyboard-response","144","448585","0.0-144.0","","","null","","","","","","","","","",""
"591.7999999821186","","image-keyboard-response","145","449178","0.0-145.0","","img/set1/S2.jpg","68","2","structured_incentive","68","structured_incentive,structured_normal,structured_load,random","2,1,2,3,3,4","3,4,2,1","true","","",""
"null","","html-keyboard-response","146","449535","0.0-146.0","","<img src=""img/set1/S2.jpg"" width=""540"" height = ""360"" style=""border:16px solid orange"">","null","","","","","","","","","",""
"null","","html-keyboard-response","147","449739","0.0-147.0","","","null","","","","","","","","","",""
"788.5","","image-keyboard-response","148","450529","0.0-148.0","","img/set1/S1.jpg","83","1","structured_incentive","83","structured_incentive,structured_normal,structured_load,random","2,1,2,3,3,4","3,4,2,1","true","","",""
"null","","html-keyboard-response","149","450883","0.0-149.0","","<img src=""img/set1/S1.jpg"" width=""540"" height = ""360"" style=""border:16px solid Violet"">","null","","","","","","","","","",""
"null","","html-keyboard-response","150","451086","0.0-150.0","","","null","","","","","","","","","",""
"745.3999999761581","","image-keyboard-response","151","451833","0.0-151.0","","img/set1/S4.jpg","72","4","structured_incentive","74","structured_incentive,structured_normal,structured_load,random","2,1,2,3,3,4","3,4,2,1","false","","",""
"null","","html-keyboard-response","152","452190","0.0-152.0","","<img src=""img/set1/S4.jpg"" width=""540"" height = ""360"">","null","","","","","","","","","",""
"null","","html-keyboard-response","153","452393","0.0-153.0","","","null","","","","","","","","","",""
"914.2000000178814","","image-keyboard-response","154","453308","0.0-154.0","","img/set1/S2.jpg","68","2","structured_incentive","68","structured_incentive,structured_normal,structured_load,random","2,1,2,3,3,4","3,4,2,1","true","","",""
"null","","html-keyboard-response","155","453663","0.0-155.0","","<img src=""img/set1/S2.jpg"" width=""540"" height = ""360"" style=""border:16px solid orange"">","null","","","","","","","","","",""
"null","","html-keyboard-response","156","453865","0.0-156.0","","","null","","","","","","","","","",""
"917.7999999821186","","image-keyboard-response","157","454784","0.0-157.0","","img/set1/S1.jpg","83","1","structured_incentive","83","structured_incentive,structured_normal,structured_load,random","2,1,2,3,3,4","3,4,2,1","true","","",""
"null","","html-keyboard-response","158","455140","0.0-158.0","","<img src=""img/set1/S1.jpg"" width=""540"" height = ""360"" style=""border:16px solid Violet"">","null","","","","","","","","","",""
"null","","html-keyboard-response","159","455343","0.0-159.0","","","null","","","","","","","","","",""
"850.4000000059605","","image-keyboard-response","160","456195","0.0-160.0","","img/set1/S4.jpg","72","4","structured_incentive","74","structured_incentive,structured_normal,structured_load,random","2,1,2,3,3,4","3,4,2,1","false","","",""
"null","","html-keyboard-response","161","456551","0.0-161.0","","<img src=""img/set1/S4.jpg"" width=""540"" height = ""360"">","null","","","","","","","","","",""
"null","","html-keyboard-response","162","456755","0.0-162.0","","","null","","","","","","","","","",""
"599.4000000059605","","image-keyboard-response","163","457356","0.0-163.0","","img/set1/S4.jpg","74","4","structured_incentive","74","structured_incentive,structured_normal,structured_load,random","2,1,2,3,3,4","3,4,2,1","true","","",""
"null","","html-keyboard-response","164","457711","0.0-164.0","","<img src=""img/set1/S4.jpg"" width=""540"" height = ""360"" style=""border:16px solid orange"">","null","","","","","","","","","",""
"null","","html-keyboard-response","165","457913","0.0-165.0","","","null","","","","","","","","","",""
"604.6000000238419","","image-keyboard-response","166","458519","0.0-166.0","","img/set1/S3.jpg","72","3","structured_incentive","72","structured_incentive,structured_normal,structured_load,random","2,1,2,3,3,4","3,4,2,1","true","","",""
"null","","html-keyboard-response","167","458875","0.0-167.0","","<img src=""img/set1/S3.jpg"" width=""540"" height = ""360"" style=""border:16px solid orange"">","null","","","","","","","","","",""
"null","","html-keyboard-response","168","459081","0.0-168.0","","","null","","","","","","","","","",""
"1252.6000000238419","","image-keyboard-response","169","460335","0.0-169.0","","img/set1/S4.jpg","74","4","structured_incentive","74","structured_incentive,structured_normal,structured_load,random","2,1,2,3,3,4","3,4,2,1","true","","",""
"null","","html-keyboard-response","170","460692","0.0-170.0","","<img src=""img/set1/S4.jpg"" width=""540"" height = ""360"" style=""border:16px solid orange"">","null","","","","","","","","","",""
"null","","html-keyboard-response","171","460895","0.0-171.0","","","null","","","","","","","","","",""
"545.8999999761581","","image-keyboard-response","172","461442","0.0-172.0","","img/set1/S4.jpg","74","4","structured_incentive","74","structured_incentive,structured_normal,structured_load,random","2,1,2,3,3,4","3,4,2,1","true","","",""
"null","","html-keyboard-response","173","461796","0.0-173.0","","<img src=""img/set1/S4.jpg"" width=""540"" height = ""360"" style=""border:16px solid orange"">","null","","","","","","","","","",""
"null","","html-keyboard-response","174","461999","0.0-174.0","","","null","","","","","","","","","",""
"506.2000000178814","","image-keyboard-response","175","462507","0.0-175.0","","img/set1/S4.jpg","74","4","structured_incentive","74","structured_incentive,structured_normal,structured_load,random","2,1,2,3,3,4","3,4,2,1","true","","",""
"null","","html-keyboard-response","176","462863","0.0-176.0","","<img src=""img/set1/S4.jpg"" width=""540"" height = ""360"" style=""border:16px solid orange"">","null","","","","","","","","","",""
"null","","html-keyboard-response","177","463067","0.0-177.0","","","null","","","","","","","","","",""
"513.4000000059605","","image-keyboard-response","178","463582","0.0-178.0","","img/set1/S3.jpg","72","3","structured_incentive","72","structured_incentive,structured_normal,structured_load,random","2,1,2,3,3,4","3,4,2,1","true","","",""
"null","","html-keyboard-response","179","463935","0.0-179.0","","<img src=""img/set1/S3.jpg"" width=""540"" height = ""360"" style=""border:16px solid orange"">","null","","","","","","","","","",""
"null","","html-keyboard-response","180","464137","0.0-180.0","","","null","","","","","","","","","",""
"588","","image-keyboard-response","181","464727","0.0-181.0","","img/set1/S2.jpg","68","2","structured_incentive","68","structured_incentive,structured_normal,structured_load,random","2,1,2,3,3,4","3,4,2,1","true","","",""
"null","","html-keyboard-response","182","465084","0.0-182.0","","<img src=""img/set1/S2.jpg"" width=""540"" height = ""360"" style=""border:16px solid orange"">","null","","","","","","","","","",""
"null","","html-keyboard-response","183","465289","0.0-183.0","","","null","","","","","","","","","",""
"656","","image-keyboard-response","184","465947","0.0-184.0","","img/set1/S1.jpg","83","1","structured_incentive","83","structured_incentive,structured_normal,structured_load,random","2,1,2,3,3,4","3,4,2,1","true","","",""
"null","","html-keyboard-response","185","466304","0.0-185.0","","<img src=""img/set1/S1.jpg"" width=""540"" height = ""360"" style=""border:16px solid Violet"">","null","","","","","","","","","",""
"null","","html-keyboard-response","186","466505","0.0-186.0","","","null","","","","","","","","","",""
"1058.1000000238419","","image-keyboard-response","187","467565","0.0-187.0","","img/set1/S2.jpg","68","2","structured_incentive","68","structured_incentive,structured_normal,structured_load,random","2,1,2,3,3,4","3,4,2,1","true","","",""
"null","","html-keyboard-response","188","467920","0.0-188.0","","<img src=""img/set1/S2.jpg"" width=""540"" height = ""360"" style=""border:16px solid orange"">","null","","","","","","","","","",""
"null","","html-keyboard-response","189","468122","0.0-189.0","","","null","","","","","","","","","",""
"484.7000000178814","","image-keyboard-response","190","468608","0.0-190.0","","img/set1/S1.jpg","83","1","structured_incentive","83","structured_incentive,structured_normal,structured_load,random","2,1,2,3,3,4","3,4,2,1","true","","",""
"null","","html-keyboard-response","191","468964","0.0-191.0","","<img src=""img/set1/S1.jpg"" width=""540"" height = ""360"" style=""border:16px solid Violet"">","null","","","","","","","","","",""
"null","","html-keyboard-response","192","469168","0.0-192.0","","","null","","","","","","","","","",""
"705.3000000119209","","image-keyboard-response","193","469874","0.0-193.0","","img/set1/S2.jpg","68","2","structured_incentive","68","structured_incentive,structured_normal,structured_load,random","2,1,2,3,3,4","3,4,2,1","true","","",""
"null","","html-keyboard-response","194","470228","0.0-194.0","","<img src=""img/set1/S2.jpg"" width=""540"" height = ""360"" style=""border:16px solid orange"">","null","","","","","","","","","",""
"null","","html-keyboard-response","195","470432","0.0-195.0","","","null","","","","","","","","","",""
"506.5","","image-keyboard-response","196","470940","0.0-196.0","","img/set1/S1.jpg","83","1","structured_incentive","83","structured_incentive,structured_normal,structured_load,random","2,1,2,3,3,4","3,4,2,1","true","","",""
"null","","html-keyboard-response","197","471296","0.0-197.0","","<img src=""img/set1/S1.jpg"" width=""540"" height = ""360"" style=""border:16px solid Violet"">","null","","","","","","","","","",""
"null","","html-keyboard-response","198","471500","0.0-198.0","","","null","","","","","","","","","",""
"630.2000000178814","","image-keyboard-response","199","472132","0.0-199.0","","img/set1/S4.jpg","68","4","structured_incentive","74","structured_incentive,structured_normal,structured_load,random","2,1,2,3,3,4","3,4,2,1","false","","",""
"null","","html-keyboard-response","200","472484","0.0-200.0","","<img src=""img/set1/S4.jpg"" width=""540"" height = ""360"">","null","","","","","","","","","",""
"null","","html-keyboard-response","201","472687","0.0-201.0","","","null","","","","","","","","","",""
"1118.7999999821186","","image-keyboard-response","202","473808","0.0-202.0","","img/set1/S4.jpg","74","4","structured_incentive","74","structured_incentive,structured_normal,structured_load,random","2,1,2,3,3,4","3,4,2,1","true","","",""
"null","","html-keyboard-response","203","474164","0.0-203.0","","<img src=""img/set1/S4.jpg"" width=""540"" height = ""360"" style=""border:16px solid orange"">","null","","","","","","","","","",""
"null","","html-keyboard-response","204","474367","0.0-204.0","","","null","","","","","","","","","",""
"649.8999999761581","","image-keyboard-response","205","475018","0.0-205.0","","img/set1/S2.jpg","68","2","structured_incentive","68","structured_incentive,structured_normal,structured_load,random","2,1,2,3,3,4","3,4,2,1","true","","",""
"null","","html-keyboard-response","206","475375","0.0-206.0","","<img src=""img/set1/S2.jpg"" width=""540"" height = ""360"" style=""border:16px solid orange"">","null","","","","","","","","","",""
"null","","html-keyboard-response","207","475578","0.0-207.0","","","null","","","","","","","","","",""
"691.5","","image-keyboard-response","208","476271","0.0-208.0","","img/set1/S1.jpg","83","1","structured_incentive","83","structured_incentive,structured_normal,structured_load,random","2,1,2,3,3,4","3,4,2,1","true","","",""
"null","","html-keyboard-response","209","476624","0.0-209.0","","<img src=""img/set1/S1.jpg"" width=""540"" height = ""360"" style=""border:16px solid Violet"">","null","","","","","","","","","",""
"null","","html-keyboard-response","210","476828","0.0-210.0","","","null","","","","","","","","","",""
"794.7999999821186","","image-keyboard-response","211","477625","0.0-211.0","","img/set1/S3.jpg","72","3","structured_incentive","72","structured_incentive,structured_normal,structured_load,random","2,1,2,3,3,4","3,4,2,1","true","","",""
"null","","html-keyboard-response","212","477980","0.0-212.0","","<img src=""img/set1/S3.jpg"" width=""540"" height = ""360"" style=""border:16px solid orange"">","null","","","","","","","","","",""
"null","","html-keyboard-response","213","478186","0.0-213.0","","","null","","","","","","","","","",""
"736.5","","image-keyboard-response","214","478924","0.0-214.0","","img/set1/S4.jpg","74","4","structured_incentive","74","structured_incentive,structured_normal,structured_load,random","2,1,2,3,3,4","3,4,2,1","true","","",""
"null","","html-keyboard-response","215","479280","0.0-215.0","","<img src=""img/set1/S4.jpg"" width=""540"" height = ""360"" style=""border:16px solid orange"">","null","","","","","","","","","",""
"null","","html-keyboard-response","216","479482","0.0-216.0","","","null","","","","","","","","","",""
"437.59999999403954","","image-keyboard-response","217","479921","0.0-217.0","","img/set1/S4.jpg","74","4","structured_incentive","74","structured_incentive,structured_normal,structured_load,random","2,1,2,3,3,4","3,4,2,1","true","","",""
"null","","html-keyboard-response","218","480276","0.0-218.0","","<img src=""img/set1/S4.jpg"" width=""540"" height = ""360"" style=""border:16px solid orange"">","null","","","","","","","","","",""
"null","","html-keyboard-response","219","480480","0.0-219.0","","","null","","","","","","","","","",""
"390.80000001192093","","image-keyboard-response","220","480872","0.0-220.0","","img/set1/S4.jpg","74","4","structured_incentive","74","structured_incentive,structured_normal,structured_load,random","2,1,2,3,3,4","3,4,2,1","true","","",""
"null","","html-keyboard-response","221","481226","0.0-221.0","","<img src=""img/set1/S4.jpg"" width=""540"" height = ""360"" style=""border:16px solid orange"">","null","","","","","","","","","",""
"null","","html-keyboard-response","222","481428","0.0-222.0","","","null","","","","","","","","","",""
"366.69999998807907","","image-keyboard-response","223","481797","0.0-223.0","","img/set1/S4.jpg","74","4","structured_incentive","74","structured_incentive,structured_normal,structured_load,random","2,1,2,3,3,4","3,4,2,1","true","","",""
"null","","html-keyboard-response","224","482152","0.0-224.0","","<img src=""img/set1/S4.jpg"" width=""540"" height = ""360"" style=""border:16px solid orange"">","null","","","","","","","","","",""
"null","","html-keyboard-response","225","482357","0.0-225.0","","","null","","","","","","","","","",""
"630.6999999880791","","image-keyboard-response","226","482989","0.0-226.0","","img/set1/S4.jpg","74","4","structured_incentive","74","structured_incentive,structured_normal,structured_load,random","2,1,2,3,3,4","3,4,2,1","true","","",""
"null","","html-keyboard-response","227","483344","0.0-227.0","","<img src=""img/set1/S4.jpg"" width=""540"" height = ""360"" style=""border:16px solid orange"">","null","","","","","","","","","",""
"null","","html-keyboard-response","228","483547","0.0-228.0","","","null","","","","","","","","","",""
"386.5","","image-keyboard-response","229","483935","0.0-229.0","","img/set1/S4.jpg","74","4","structured_incentive","74","structured_incentive,structured_normal,structured_load,random","2,1,2,3,3,4","3,4,2,1","true","","",""
"null","","html-keyboard-response","230","484292","0.0-230.0","","<img src=""img/set1/S4.jpg"" width=""540"" height = ""360"" style=""border:16px solid orange"">","null","","","","","","","","","",""
"null","","html-keyboard-response","231","484496","0.0-231.0","","","null","","","","","","","","","",""
"375.40000000596046","","image-keyboard-response","232","484873","0.0-232.0","","img/set1/S4.jpg","74","4","structured_incentive","74","structured_incentive,structured_normal,structured_load,random","2,1,2,3,3,4","3,4,2,1","true","","",""
"null","","html-keyboard-response","233","485226","0.0-233.0","","<img src=""img/set1/S4.jpg"" width=""540"" height = ""360"" style=""border:16px solid orange"">","null","","","","","","","","","",""
"null","","html-keyboard-response","234","485428","0.0-234.0","","","null","","","","","","","","","",""
"1044.5","","image-keyboard-response","235","486474","0.0-235.0","","img/set1/S2.jpg","68","2","structured_incentive","68","structured_incentive,structured_normal,structured_load,random","2,1,2,3,3,4","3,4,2,1","true","","",""
"null","","html-keyboard-response","236","486831","0.0-236.0","","<img src=""img/set1/S2.jpg"" width=""540"" height = ""360"" style=""border:16px solid orange"">","null","","","","","","","","","",""
"null","","html-keyboard-response","237","487036","0.0-237.0","","","null","","","","","","","","","",""
"593","","image-keyboard-response","238","487630","0.0-238.0","","img/set1/S1.jpg","83","1","structured_incentive","83","structured_incentive,structured_normal,structured_load,random","2,1,2,3,3,4","3,4,2,1","true","","",""
"null","","html-keyboard-response","239","487983","0.0-239.0","","<img src=""img/set1/S1.jpg"" width=""540"" height = ""360"" style=""border:16px solid Violet"">","null","","","","","","","","","",""
"null","","html-keyboard-response","240","488187","0.0-240.0","","","null","","","","","","","","","",""
"668.3000000119209","","image-keyboard-response","241","488857","0.0-241.0","","img/set1/S3.jpg","72","3","structured_incentive","72","structured_incentive,structured_normal,structured_load,random","2,1,2,3,3,4","3,4,2,1","true","","",""
"null","","html-keyboard-response","242","489210","0.0-242.0","","<img src=""img/set1/S3.jpg"" width=""540"" height = ""360"" style=""border:16px solid orange"">","null","","","","","","","","","",""
"null","","html-keyboard-response","243","489412","0.0-243.0","","","null","","","","","","","","","",""
"695","","image-keyboard-response","244","490109","0.0-244.0","","img/set1/S2.jpg","68","2","structured_incentive","68","structured_incentive,structured_normal,structured_load,random","2,1,2,3,3,4","3,4,2,1","true","","",""
"null","","html-keyboard-response","245","490464","0.0-245.0","","<img src=""img/set1/S2.jpg"" width=""540"" height = ""360"" style=""border:16px solid orange"">","null","","","","","","","","","",""
"null","","html-keyboard-response","246","490666","0.0-246.0","","","null","","","","","","","","","",""
"386.10000002384186","","image-keyboard-response","247","491054","0.0-247.0","","img/set1/S1.jpg","83","1","structured_incentive","83","structured_incentive,structured_normal,structured_load,random","2,1,2,3,3,4","3,4,2,1","true","","",""
"null","","html-keyboard-response","248","491409","0.0-248.0","","<img src=""img/set1/S1.jpg"" width=""540"" height = ""360"" style=""border:16px solid Violet"">","null","","","","","","","","","",""
"null","","html-keyboard-response","249","491612","0.0-249.0","","","null","","","","","","","","","",""
"548.8000000119209","","image-keyboard-response","250","492163","0.0-250.0","","img/set1/S2.jpg","68","2","structured_incentive","68","structured_incentive,structured_normal,structured_load,random","2,1,2,3,3,4","3,4,2,1","true","","",""
"null","","html-keyboard-response","251","492516","0.0-251.0","","<img src=""img/set1/S2.jpg"" width=""540"" height = ""360"" style=""border:16px solid orange"">","null","","","","","","","","","",""
"null","","html-keyboard-response","252","492720","0.0-252.0","","","null","","","","","","","","","",""
"381.2999999821186","","image-keyboard-response","253","493103","0.0-253.0","","img/set1/S1.jpg","83","1","structured_incentive","83","structured_incentive,structured_normal,structured_load,random","2,1,2,3,3,4","3,4,2,1","true","","",""
"null","","html-keyboard-response","254","493456","0.0-254.0","","<img src=""img/set1/S1.jpg"" width=""540"" height = ""360"" style=""border:16px solid Violet"">","null","","","","","","","","","",""
"null","","html-keyboard-response","255","493660","0.0-255.0","","","null","","","","","","","","","",""
"798.2000000178814","","image-keyboard-response","256","494460","0.0-256.0","","img/set1/S4.jpg","74","4","structured_incentive","74","structured_incentive,structured_normal,structured_load,random","2,1,2,3,3,4","3,4,2,1","true","","",""
"null","","html-keyboard-response","257","494816","0.0-257.0","","<img src=""img/set1/S4.jpg"" width=""540"" height = ""360"" style=""border:16px solid orange"">","null","","","","","","","","","",""
"null","","html-keyboard-response","258","495020","0.0-258.0","","","null","","","","","","","","","",""
"472.09999999403954","","image-keyboard-response","259","495494","0.0-259.0","","img/set1/S4.jpg","74","4","structured_incentive","74","structured_incentive,structured_normal,structured_load,random","2,1,2,3,3,4","3,4,2,1","true","","",""
"null","","html-keyboard-response","260","495850","0.0-260.0","","<img src=""img/set1/S4.jpg"" width=""540"" height = ""360"" style=""border:16px solid orange"">","null","","","","","","","","","",""
"null","","html-keyboard-response","261","496053","0.0-261.0","","","null","","","","","","","","","",""
"345.5","","image-keyboard-response","262","496400","0.0-262.0","","img/set1/S3.jpg","74","3","structured_incentive","72","structured_incentive,structured_normal,structured_load,random","2,1,2,3,3,4","3,4,2,1","false","","",""
"null","","html-keyboard-response","263","496757","0.0-263.0","","<img src=""img/set1/S3.jpg"" width=""540"" height = ""360"">","null","","","","","","","","","",""
"null","","html-keyboard-response","264","496960","0.0-264.0","","","null","","","","","","","","","",""
"601","","image-keyboard-response","265","497563","0.0-265.0","","img/set1/S2.jpg","68","2","structured_incentive","68","structured_incentive,structured_normal,structured_load,random","2,1,2,3,3,4","3,4,2,1","true","","",""
"null","","html-keyboard-response","266","497920","0.0-266.0","","<img src=""img/set1/S2.jpg"" width=""540"" height = ""360"" style=""border:16px solid orange"">","null","","","","","","","","","",""
"null","","html-keyboard-response","267","498122","0.0-267.0","","","null","","","","","","","","","",""
"459.7999999821186","","image-keyboard-response","268","498584","0.0-268.0","","img/set1/S1.jpg","83","1","structured_incentive","83","structured_incentive,structured_normal,structured_load,random","2,1,2,3,3,4","3,4,2,1","true","","",""
"null","","html-keyboard-response","269","498938","0.0-269.0","","<img src=""img/set1/S1.jpg"" width=""540"" height = ""360"" style=""border:16px solid Violet"">","null","","","","","","","","","",""
"null","","html-keyboard-response","270","499141","0.0-270.0","","","null","","","","","","","","","",""
"858.6999999880791","","image-keyboard-response","271","500001","0.0-271.0","","img/set1/S4.jpg","74","4","structured_incentive","74","structured_incentive,structured_normal,structured_load,random","2,1,2,3,3,4","3,4,2,1","true","","",""
"null","","html-keyboard-response","272","500357","0.0-272.0","","<img src=""img/set1/S4.jpg"" width=""540"" height = ""360"" style=""border:16px solid orange"">","null","","","","","","","","","",""
"null","","html-keyboard-response","273","500561","0.0-273.0","","","null","","","","","","","","","",""
"458.80000001192093","","image-keyboard-response","274","501021","0.0-274.0","","img/set1/S3.jpg","72","3","structured_incentive","72","structured_incentive,structured_normal,structured_load,random","2,1,2,3,3,4","3,4,2,1","true","","",""
"null","","html-keyboard-response","275","501376","0.0-275.0","","<img src=""img/set1/S3.jpg"" width=""540"" height = ""360"" style=""border:16px solid orange"">","null","","","","","","","","","",""
"null","","html-keyboard-response","276","501581","0.0-276.0","","","null","","","","","","","","","",""
"666.6999999880791","","image-keyboard-response","277","502249","0.0-277.0","","img/set1/S4.jpg","74","4","structured_incentive","74","structured_incentive,structured_normal,structured_load,random","2,1,2,3,3,4","3,4,2,1","true","","",""
"null","","html-keyboard-response","278","502604","0.0-278.0","","<img src=""img/set1/S4.jpg"" width=""540"" height = ""360"" style=""border:16px solid orange"">","null","","","","","","","","","",""
"null","","html-keyboard-response","279","502809","0.0-279.0","","","null","","","","","","","","","",""
"518.7000000178814","","image-keyboard-response","280","503329","0.0-280.0","","img/set1/S4.jpg","74","4","structured_incentive","74","structured_incentive,structured_normal,structured_load,random","2,1,2,3,3,4","3,4,2,1","true","","",""
"null","","html-keyboard-response","281","503685","0.0-281.0","","<img src=""img/set1/S4.jpg"" width=""540"" height = ""360"" style=""border:16px solid orange"">","null","","","","","","","","","",""
"null","","html-keyboard-response","282","503889","0.0-282.0","","","null","","","","","","","","","",""
"397.09999999403954","","image-keyboard-response","283","504288","0.0-283.0","","img/set1/S4.jpg","74","4","structured_incentive","74","structured_incentive,structured_normal,structured_load,random","2,1,2,3,3,4","3,4,2,1","true","","",""
"null","","html-keyboard-response","284","504640","0.0-284.0","","<img src=""img/set1/S4.jpg"" width=""540"" height = ""360"" style=""border:16px solid orange"">","null","","","","","","","","","",""
"null","","html-keyboard-response","285","504842","0.0-285.0","","","null","","","","","","","","","",""
"542.7000000178814","","image-keyboard-response","286","505386","0.0-286.0","","img/set1/S2.jpg","68","2","structured_incentive","68","structured_incentive,structured_normal,structured_load,random","2,1,2,3,3,4","3,4,2,1","true","","",""
"null","","html-keyboard-response","287","505741","0.0-287.0","","<img src=""img/set1/S2.jpg"" width=""540"" height = ""360"" style=""border:16px solid orange"">","null","","","","","","","","","",""
"null","","html-keyboard-response","288","505947","0.0-288.0","","","null","","","","","","","","","",""
"580.6000000238419","","image-keyboard-response","289","506529","0.0-289.0","","img/set1/S1.jpg","83","1","structured_incentive","83","structured_incentive,structured_normal,structured_load,random","2,1,2,3,3,4","3,4,2,1","true","","",""
"null","","html-keyboard-response","290","506885","0.0-290.0","","<img src=""img/set1/S1.jpg"" width=""540"" height = ""360"" style=""border:16px solid Violet"">","null","","","","","","","","","",""
"null","","html-keyboard-response","291","507089","0.0-291.0","","","null","","","","","","","","","",""
"800.4000000059605","","image-keyboard-response","292","507890","0.0-292.0","","img/set1/S4.jpg","74","4","structured_incentive","74","structured_incentive,structured_normal,structured_load,random","2,1,2,3,3,4","3,4,2,1","true","","",""
"null","","html-keyboard-response","293","508245","0.0-293.0","","<img src=""img/set1/S4.jpg"" width=""540"" height = ""360"" style=""border:16px solid orange"">","null","","","","","","","","","",""
"null","","html-keyboard-response","294","508448","0.0-294.0","","","null","","","","","","","","","",""
"442.5","","image-keyboard-response","295","508893","0.0-295.0","","img/set1/S4.jpg","74","4","structured_incentive","74","structured_incentive,structured_normal,structured_load,random","2,1,2,3,3,4","3,4,2,1","true","","",""
"null","","html-keyboard-response","296","509249","0.0-296.0","","<img src=""img/set1/S4.jpg"" width=""540"" height = ""360"" style=""border:16px solid orange"">","null","","","","","","","","","",""
"null","","html-keyboard-response","297","509451","0.0-297.0","","","null","","","","","","","","","",""
"441.69999998807907","","image-keyboard-response","298","509895","0.0-298.0","","img/set1/S4.jpg","74","4","structured_incentive","74","structured_incentive,structured_normal,structured_load,random","2,1,2,3,3,4","3,4,2,1","true","","",""
"null","","html-keyboard-response","299","510251","0.0-299.0","","<img src=""img/set1/S4.jpg"" width=""540"" height = ""360"" style=""border:16px solid orange"">","null","","","","","","","","","",""
"null","","html-keyboard-response","300","510453","0.0-300.0","","","null","","","","","","","","","",""
"703.0999999940395","","image-keyboard-response","301","511158","0.0-301.0","","img/set1/S2.jpg","68","2","structured_incentive","68","structured_incentive,structured_normal,structured_load,random","2,1,2,3,3,4","3,4,2,1","true","","",""
"null","","html-keyboard-response","302","511515","0.0-302.0","","<img src=""img/set1/S2.jpg"" width=""540"" height = ""360"" style=""border:16px solid orange"">","null","","","","","","","","","",""
"null","","html-keyboard-response","303","511717","0.0-303.0","","","null","","","","","","","","","",""
"663.9000000059605","","image-keyboard-response","304","512382","0.0-304.0","","img/set1/S1.jpg","83","1","structured_incentive","83","structured_incentive,structured_normal,structured_load,random","2,1,2,3,3,4","3,4,2,1","true","","",""
"null","","html-keyboard-response","305","512737","0.0-305.0","","<img src=""img/set1/S1.jpg"" width=""540"" height = ""360"" style=""border:16px solid Violet"">","null","","","","","","","","","",""
"null","","html-keyboard-response","306","512939","0.0-306.0","","","null","","","","","","","","","",""
"697.4000000059605","","image-keyboard-response","307","513638","0.0-307.0","","img/set1/S4.jpg","74","4","structured_incentive","74","structured_incentive,structured_normal,structured_load,random","2,1,2,3,3,4","3,4,2,1","true","","",""
"null","","html-keyboard-response","308","513992","0.0-308.0","","<img src=""img/set1/S4.jpg"" width=""540"" height = ""360"" style=""border:16px solid orange"">","null","","","","","","","","","",""
"null","","html-keyboard-response","309","514197","0.0-309.0","","","null","","","","","","","","","",""
"685.8000000119209","","image-keyboard-response","310","514884","0.0-310.0","","img/set1/S2.jpg","68","2","structured_incentive","68","structured_incentive,structured_normal,structured_load,random","2,1,2,3,3,4","3,4,2,1","true","","",""
"null","","html-keyboard-response","311","515237","0.0-311.0","","<img src=""img/set1/S2.jpg"" width=""540"" height = ""360"" style=""border:16px solid orange"">","null","","","","","","","","","",""
"null","","html-keyboard-response","312","515441","0.0-312.0","","","null","","","","","","","","","",""
"580.4000000059605","","image-keyboard-response","313","516023","0.0-313.0","","img/set1/S1.jpg","83","1","structured_incentive","83","structured_incentive,structured_normal,structured_load,random","2,1,2,3,3,4","3,4,2,1","true","","",""
"null","","html-keyboard-response","314","516380","0.0-314.0","","<img src=""img/set1/S1.jpg"" width=""540"" height = ""360"" style=""border:16px solid Violet"">","null","","","","","","","","","",""
"null","","html-keyboard-response","315","516585","0.0-315.0","","","null","","","","","","","","","",""
"630.7000000178814","","image-keyboard-response","316","517217","0.0-316.0","","img/set1/S2.jpg","68","2","structured_incentive","68","structured_incentive,structured_normal,structured_load,random","2,1,2,3,3,4","3,4,2,1","true","","",""
"null","","html-keyboard-response","317","517573","0.0-317.0","","<img src=""img/set1/S2.jpg"" width=""540"" height = ""360"" style=""border:16px solid orange"">","null","","","","","","","","","",""
"null","","html-keyboard-response","318","517776","0.0-318.0","","","null","","","","","","","","","",""
"583.5999999940395","","image-keyboard-response","319","518361","0.0-319.0","","img/set1/S1.jpg","83","1","structured_incentive","83","structured_incentive,structured_normal,structured_load,random","2,1,2,3,3,4","3,4,2,1","true","","",""
"null","","html-keyboard-response","320","518717","0.0-320.0","","<img src=""img/set1/S1.jpg"" width=""540"" height = ""360"" style=""border:16px solid Violet"">","null","","","","","","","","","",""
"null","","html-keyboard-response","321","518923","0.0-321.0","","","null","","","","","","","","","",""
"619","","image-keyboard-response","322","519543","0.0-322.0","","img/set1/S3.jpg","72","3","structured_incentive","72","structured_incentive,structured_normal,structured_load,random","2,1,2,3,3,4","3,4,2,1","true","","",""
"null","","html-keyboard-response","323","519899","0.0-323.0","","<img src=""img/set1/S3.jpg"" width=""540"" height = ""360"" style=""border:16px solid orange"">","null","","","","","","","","","",""
"null","","html-keyboard-response","324","520101","0.0-324.0","","","null","","","","","","","","","",""
"597.4000000059605","","image-keyboard-response","325","520700","0.0-325.0","","img/set1/S4.jpg","74","4","structured_incentive","74","structured_incentive,structured_normal,structured_load,random","2,1,2,3,3,4","3,4,2,1","true","","",""
"null","","html-keyboard-response","326","521057","0.0-326.0","","<img src=""img/set1/S4.jpg"" width=""540"" height = ""360"" style=""border:16px solid orange"">","null","","","","","","","","","",""
"null","","html-keyboard-response","327","521261","0.0-327.0","","","null","","","","","","","","","",""
"680.5999999940395","","image-keyboard-response","328","521943","0.0-328.0","","img/set1/S2.jpg","68","2","structured_incentive","68","structured_incentive,structured_normal,structured_load,random","2,1,2,3,3,4","3,4,2,1","true","","",""
"null","","html-keyboard-response","329","522299","0.0-329.0","","<img src=""img/set1/S2.jpg"" width=""540"" height = ""360"" style=""border:16px solid orange"">","null","","","","","","","","","",""
"null","","html-keyboard-response","330","522501","0.0-330.0","","","null","","","","","","","","","",""
"563.5999999940395","","image-keyboard-response","331","523066","0.0-331.0","","img/set1/S1.jpg","83","1","structured_incentive","83","structured_incentive,structured_normal,structured_load,random","2,1,2,3,3,4","3,4,2,1","true","","",""
"null","","html-keyboard-response","332","523421","0.0-332.0","","<img src=""img/set1/S1.jpg"" width=""540"" height = ""360"" style=""border:16px solid Violet"">","null","","","","","","","","","",""
"null","","html-keyboard-response","333","523627","0.0-333.0","","","null","","","","","","","","","",""
"665.8000000119209","","image-keyboard-response","334","524294","0.0-334.0","","img/set1/S3.jpg","72","3","structured_incentive","72","structured_incentive,structured_normal,structured_load,random","2,1,2,3,3,4","3,4,2,1","true","","",""
"null","","html-keyboard-response","335","524651","0.0-335.0","","<img src=""img/set1/S3.jpg"" width=""540"" height = ""360"" style=""border:16px solid orange"">","null","","","","","","","","","",""
"null","","html-keyboard-response","336","524854","0.0-336.0","","","null","","","","","","","","","",""
"742.8999999761581","","image-keyboard-response","337","525598","0.0-337.0","","img/set1/S2.jpg","68","2","structured_incentive","68","structured_incentive,structured_normal,structured_load,random","2,1,2,3,3,4","3,4,2,1","true","","",""
"null","","html-keyboard-response","338","525953","0.0-338.0","","<img src=""img/set1/S2.jpg"" width=""540"" height = ""360"" style=""border:16px solid orange"">","null","","","","","","","","","",""
"null","","html-keyboard-response","339","526158","0.0-339.0","","","null","","","","","","","","","",""
"562.3999999761581","","image-keyboard-response","340","526722","0.0-340.0","","img/set1/S1.jpg","83","1","structured_incentive","83","structured_incentive,structured_normal,structured_load,random","2,1,2,3,3,4","3,4,2,1","true","","",""
"null","","html-keyboard-response","341","527077","0.0-341.0","","<img src=""img/set1/S1.jpg"" width=""540"" height = ""360"" style=""border:16px solid Violet"">","null","","","","","","","","","",""
"null","","html-keyboard-response","342","527281","0.0-342.0","","","null","","","","","","","","","",""
"1215.800000011921","","image-keyboard-response","343","528498","0.0-343.0","","img/set1/S3.jpg","72","3","structured_incentive","72","structured_incentive,structured_normal,structured_load,random","2,1,2,3,3,4","3,4,2,1","true","","",""
"null","","html-keyboard-response","344","528854","0.0-344.0","","<img src=""img/set1/S3.jpg"" width=""540"" height = ""360"" style=""border:16px solid orange"">","null","","","","","","","","","",""
"null","","html-keyboard-response","345","529057","0.0-345.0","","","null","","","","","","","","","",""
"444.2999999821186","","image-keyboard-response","346","529503","0.0-346.0","","img/set1/S4.jpg","74","4","structured_incentive","74","structured_incentive,structured_normal,structured_load,random","2,1,2,3,3,4","3,4,2,1","true","","",""
"null","","html-keyboard-response","347","529857","0.0-347.0","","<img src=""img/set1/S4.jpg"" width=""540"" height = ""360"" style=""border:16px solid orange"">","null","","","","","","","","","",""
"null","","html-keyboard-response","348","530059","0.0-348.0","","","null","","","","","","","","","",""
"543.2000000178814","","image-keyboard-response","349","530604","0.0-349.0","","img/set1/S3.jpg","72","3","structured_incentive","72","structured_incentive,structured_normal,structured_load,random","2,1,2,3,3,4","3,4,2,1","true","","",""
"null","","html-keyboard-response","350","530961","0.0-350.0","","<img src=""img/set1/S3.jpg"" width=""540"" height = ""360"" style=""border:16px solid orange"">","null","","","","","","","","","",""
"null","","html-keyboard-response","351","531163","0.0-351.0","","","null","","","","","","","","","",""
"647.9000000059605","","image-keyboard-response","352","531813","0.0-352.0","","img/set1/S4.jpg","74","4","structured_incentive","74","structured_incentive,structured_normal,structured_load,random","2,1,2,3,3,4","3,4,2,1","true","","",""
"null","","html-keyboard-response","353","532166","0.0-353.0","","<img src=""img/set1/S4.jpg"" width=""540"" height = ""360"" style=""border:16px solid orange"">","null","","","","","","","","","",""
"null","","html-keyboard-response","354","532370","0.0-354.0","","","null","","","","","","","","","",""
"500","","image-keyboard-response","355","532871","0.0-355.0","","img/set1/S4.jpg","74","4","structured_incentive","74","structured_incentive,structured_normal,structured_load,random","2,1,2,3,3,4","3,4,2,1","true","","",""
"null","","html-keyboard-response","356","533228","0.0-356.0","","<img src=""img/set1/S4.jpg"" width=""540"" height = ""360"" style=""border:16px solid orange"">","null","","","","","","","","","",""
"null","","html-keyboard-response","357","533430","0.0-357.0","","","null","","","","","","","","","",""
"371.59999999403954","","image-keyboard-response","358","533803","0.0-358.0","","img/set1/S4.jpg","74","4","structured_incentive","74","structured_incentive,structured_normal,structured_load,random","2,1,2,3,3,4","3,4,2,1","true","","",""
"null","","html-keyboard-response","359","534158","0.0-359.0","","<img src=""img/set1/S4.jpg"" width=""540"" height = ""360"" style=""border:16px solid orange"">","null","","","","","","","","","",""
"null","","html-keyboard-response","360","534363","0.0-360.0","","","null","","","","","","","","","",""
"366.2000000178814","","image-keyboard-response","361","534731","0.0-361.0","","img/set1/S4.jpg","74","4","structured_incentive","74","structured_incentive,structured_normal,structured_load,random","2,1,2,3,3,4","3,4,2,1","true","","",""
"null","","html-keyboard-response","362","535086","0.0-362.0","","<img src=""img/set1/S4.jpg"" width=""540"" height = ""360"" style=""border:16px solid orange"">","null","","","","","","","","","",""
"null","","html-keyboard-response","363","535292","0.0-363.0","","","null","","","","","","","","","",""
"5560.699999988079","","html-keyboard-response","364","540854","0.0-364.0","","<p class=""center-content"">You have completed a block! </p><p class=""center-content"">Press any key on the keyboard to continue, </p><p class=""center-content"">or wait for the automatic progression to the next block after one minute.</p>","32","","","","","","","","","",""
"69073.40000000596","","instructions","365","609930","0.0-365.0","[{""page_index"":0,""viewing_time"":69072.90000000596}]","","","","","","","","","","","",""
"8090.700000017881","","instructions","366","618022","0.0-366.0","[{""page_index"":0,""viewing_time"":8090.300000011921}]","","","","","","","","","","","",""
"773.3999999761581","","image-keyboard-response","367","618797","0.0-367.0","","img/set2/S4.jpg","68","4","structured_normal","74","structured_incentive,structured_normal,structured_load,random","2,1,2,3,3,4","3,4,2,1","false","","",""
"null","","html-keyboard-response","368","619150","0.0-368.0","","<img src=""img/set2/S4.jpg"" width=""540"" height = ""360"">","null","","","","","","","","","",""
"null","","html-keyboard-response","369","619352","0.0-369.0","","","null","","","","","","","","","",""
"596.1999999880791","","image-keyboard-response","370","619950","0.0-370.0","","img/set2/S1.jpg","74","1","structured_normal","83","structured_incentive,structured_normal,structured_load,random","2,1,2,3,3,4","3,4,2,1","false","","",""
"null","","html-keyboard-response","371","620307","0.0-371.0","","<img src=""img/set2/S1.jpg"" width=""540"" height = ""360"">","null","","","","","","","","","",""
"null","","html-keyboard-response","372","620512","0.0-372.0","","","null","","","","","","","","","",""
"838","","image-keyboard-response","373","621352","0.0-373.0","","img/set2/S4.jpg","74","4","structured_normal","74","structured_incentive,structured_normal,structured_load,random","2,1,2,3,3,4","3,4,2,1","true","","",""
"null","","html-keyboard-response","374","621704","0.0-374.0","","<img src=""img/set2/S4.jpg"" width=""540"" height = ""360"" style=""border:16px solid orange"">","null","","","","","","","","","",""
"null","","html-keyboard-response","375","621908","0.0-375.0","","","null","","","","","","","","","",""
"417.60000002384186","","image-keyboard-response","376","622327","0.0-376.0","","img/set2/S4.jpg","74","4","structured_normal","74","structured_incentive,structured_normal,structured_load,random","2,1,2,3,3,4","3,4,2,1","true","","",""
"null","","html-keyboard-response","377","622684","0.0-377.0","","<img src=""img/set2/S4.jpg"" width=""540"" height = ""360"" style=""border:16px solid orange"">","null","","","","","","","","","",""
"null","","html-keyboard-response","378","622888","0.0-378.0","","","null","","","","","","","","","",""
"459.7000000178814","","image-keyboard-response","379","623350","0.0-379.0","","img/set2/S1.jpg","68","1","structured_normal","83","structured_incentive,structured_normal,structured_load,random","2,1,2,3,3,4","3,4,2,1","false","","",""
"null","","html-keyboard-response","380","623704","0.0-380.0","","<img src=""img/set2/S1.jpg"" width=""540"" height = ""360"">","null","","","","","","","","","",""
"null","","html-keyboard-response","381","623908","0.0-381.0","","","null","","","","","","","","","",""
"809.2000000178814","","image-keyboard-response","382","624719","0.0-382.0","","img/set2/S2.jpg","83","2","structured_normal","68","structured_incentive,structured_normal,structured_load,random","2,1,2,3,3,4","3,4,2,1","false","","",""
"null","","html-keyboard-response","383","625072","0.0-383.0","","<img src=""img/set2/S2.jpg"" width=""540"" height = ""360"">","null","","","","","","","","","",""
"null","","html-keyboard-response","384","625278","0.0-384.0","","","null","","","","","","","","","",""
"422.7999999821186","","image-keyboard-response","385","625703","0.0-385.0","","img/set2/S3.jpg","83","3","structured_normal","72","structured_incentive,structured_normal,structured_load,random","2,1,2,3,3,4","3,4,2,1","false","","",""
"null","","html-keyboard-response","386","626056","0.0-386.0","","<img src=""img/set2/S3.jpg"" width=""540"" height = ""360"">","null","","","","","","","","","",""
"null","","html-keyboard-response","387","626261","0.0-387.0","","","null","","","","","","","","","",""
"811.2999999821186","","image-keyboard-response","388","627073","0.0-388.0","","img/set2/S1.jpg","68","1","structured_normal","83","structured_incentive,structured_normal,structured_load,random","2,1,2,3,3,4","3,4,2,1","false","","",""
"null","","html-keyboard-response","389","627428","0.0-389.0","","<img src=""img/set2/S1.jpg"" width=""540"" height = ""360"">","null","","","","","","","","","",""
"null","","html-keyboard-response","390","627632","0.0-390.0","","","null","","","","","","","","","",""
"null","","image-keyboard-response","391","630137","0.0-391.0","","img/set2/S1.jpg","null","1","structured_normal","83","structured_incentive,structured_normal,structured_load,random","2,1,2,3,3,4","3,4,2,1","false","","",""
"null","","html-keyboard-response","392","630494","0.0-392.0","","<img src=""img/set2/S1.jpg"" width=""540"" height = ""360"">","null","","","","","","","","","",""
"null","","html-keyboard-response","393","630697","0.0-393.0","","","null","","","","","","","","","",""
"936.8000000119209","","image-keyboard-response","394","631635","0.0-394.0","","img/set2/S2.jpg","83","2","structured_normal","68","structured_incentive,structured_normal,structured_load,random","2,1,2,3,3,4","3,4,2,1","false","","",""
"null","","html-keyboard-response","395","631989","0.0-395.0","","<img src=""img/set2/S2.jpg"" width=""540"" height = ""360"">","null","","","","","","","","","",""
"null","","html-keyboard-response","396","632192","0.0-396.0","","","null","","","","","","","","","",""
"1035.4000000059605","","image-keyboard-response","397","633229","0.0-397.0","","img/set2/S3.jpg","83","3","structured_normal","72","structured_incentive,structured_normal,structured_load,random","2,1,2,3,3,4","3,4,2,1","false","","",""
"null","","html-keyboard-response","398","633582","0.0-398.0","","<img src=""img/set2/S3.jpg"" width=""540"" height = ""360"">","null","","","","","","","","","",""
"null","","html-keyboard-response","399","633789","0.0-399.0","","","null","","","","","","","","","",""
"662.2999999821186","","image-keyboard-response","400","634453","0.0-400.0","","img/set2/S4.jpg","74","4","structured_normal","74","structured_incentive,structured_normal,structured_load,random","2,1,2,3,3,4","3,4,2,1","true","","",""
"null","","html-keyboard-response","401","634809","0.0-401.0","","<img src=""img/set2/S4.jpg"" width=""540"" height = ""360"" style=""border:16px solid orange"">","null","","","","","","","","","",""
"null","","html-keyboard-response","402","635012","0.0-402.0","","","null","","","","","","","","","",""
"525.5","","image-keyboard-response","403","635539","0.0-403.0","","img/set2/S2.jpg","68","2","structured_normal","68","structured_incentive,structured_normal,structured_load,random","2,1,2,3,3,4","3,4,2,1","true","","",""
"null","","html-keyboard-response","404","635892","0.0-404.0","","<img src=""img/set2/S2.jpg"" width=""540"" height = ""360"" style=""border:16px solid orange"">","null","","","","","","","","","",""
"null","","html-keyboard-response","405","636096","0.0-405.0","","","null","","","","","","","","","",""
"857.7000000178814","","image-keyboard-response","406","636956","0.0-406.0","","img/set2/S3.jpg","83","3","structured_normal","72","structured_incentive,structured_normal,structured_load,random","2,1,2,3,3,4","3,4,2,1","false","","",""
"null","","html-keyboard-response","407","637311","0.0-407.0","","<img src=""img/set2/S3.jpg"" width=""540"" height = ""360"">","null","","","","","","","","","",""
"null","","html-keyboard-response","408","637513","0.0-408.0","","","null","","","","","","","","","",""
"1175.800000011921","","image-keyboard-response","409","638690","0.0-409.0","","img/set2/S2.jpg","68","2","structured_normal","68","structured_incentive,structured_normal,structured_load,random","2,1,2,3,3,4","3,4,2,1","true","","",""
"null","","html-keyboard-response","410","639045","0.0-410.0","","<img src=""img/set2/S2.jpg"" width=""540"" height = ""360"" style=""border:16px solid orange"">","null","","","","","","","","","",""
"null","","html-keyboard-response","411","639249","0.0-411.0","","","null","","","","","","","","","",""
"960.0999999940395","","image-keyboard-response","412","640210","0.0-412.0","","img/set2/S3.jpg","68","3","structured_normal","72","structured_incentive,structured_normal,structured_load,random","2,1,2,3,3,4","3,4,2,1","false","","",""
"null","","html-keyboard-response","413","640565","0.0-413.0","","<img src=""img/set2/S3.jpg"" width=""540"" height = ""360"">","null","","","","","","","","","",""
"null","","html-keyboard-response","414","640769","0.0-414.0","","","null","","","","","","","","","",""
"627.5","","image-keyboard-response","415","641398","0.0-415.0","","img/set2/S4.jpg","74","4","structured_normal","74","structured_incentive,structured_normal,structured_load,random","2,1,2,3,3,4","3,4,2,1","true","","",""
"null","","html-keyboard-response","416","641753","0.0-416.0","","<img src=""img/set2/S4.jpg"" width=""540"" height = ""360"" style=""border:16px solid orange"">","null","","","","","","","","","",""
"null","","html-keyboard-response","417","641956","0.0-417.0","","","null","","","","","","","","","",""
"478.90000000596046","","image-keyboard-response","418","642436","0.0-418.0","","img/set2/S1.jpg","74","1","structured_normal","83","structured_incentive,structured_normal,structured_load,random","2,1,2,3,3,4","3,4,2,1","false","","",""
"null","","html-keyboard-response","419","642793","0.0-419.0","","<img src=""img/set2/S1.jpg"" width=""540"" height = ""360"">","null","","","","","","","","","",""
"null","","html-keyboard-response","420","642998","0.0-420.0","","","null","","","","","","","","","",""
"null","","image-keyboard-response","421","645503","0.0-421.0","","img/set2/S1.jpg","null","1","structured_normal","83","structured_incentive,structured_normal,structured_load,random","2,1,2,3,3,4","3,4,2,1","false","","",""
"null","","html-keyboard-response","422","645857","0.0-422.0","","<img src=""img/set2/S1.jpg"" width=""540"" height = ""360"">","null","","","","","","","","","",""
"null","","html-keyboard-response","423","646058","0.0-423.0","","","null","","","","","","","","","",""
"447.7999999821186","","image-keyboard-response","424","646507","0.0-424.0","","img/set2/S1.jpg","72","1","structured_normal","83","structured_incentive,structured_normal,structured_load,random","2,1,2,3,3,4","3,4,2,1","false","","",""
"null","","html-keyboard-response","425","646863","0.0-425.0","","<img src=""img/set2/S1.jpg"" width=""540"" height = ""360"">","null","","","","","","","","","",""
"null","","html-keyboard-response","426","647065","0.0-426.0","","","null","","","","","","","","","",""
"836.5999999940395","","image-keyboard-response","427","647903","0.0-427.0","","img/set2/S1.jpg","68","1","structured_normal","83","structured_incentive,structured_normal,structured_load,random","2,1,2,3,3,4","3,4,2,1","false","","",""
"null","","html-keyboard-response","428","648259","0.0-428.0","","<img src=""img/set2/S1.jpg"" width=""540"" height = ""360"">","null","","","","","","","","","",""
"null","","html-keyboard-response","429","648463","0.0-429.0","","","null","","","","","","","","","",""
"634","","image-keyboard-response","430","649099","0.0-430.0","","img/set2/S4.jpg","83","4","structured_normal","74","structured_incentive,structured_normal,structured_load,random","2,1,2,3,3,4","3,4,2,1","false","","",""
"null","","html-keyboard-response","431","649455","0.0-431.0","","<img src=""img/set2/S4.jpg"" width=""540"" height = ""360"">","null","","","","","","","","","",""
"null","","html-keyboard-response","432","649657","0.0-432.0","","","null","","","","","","","","","",""
"956.9000000059605","","image-keyboard-response","433","650616","0.0-433.0","","img/set2/S2.jpg","83","2","structured_normal","68","structured_incentive,structured_normal,structured_load,random","2,1,2,3,3,4","3,4,2,1","false","","",""
"null","","html-keyboard-response","434","650969","0.0-434.0","","<img src=""img/set2/S2.jpg"" width=""540"" height = ""360"">","null","","","","","","","","","",""
"null","","html-keyboard-response","435","651172","0.0-435.0","","","null","","","","","","","","","",""
"565.5","","image-keyboard-response","436","651739","0.0-436.0","","img/set2/S3.jpg","72","3","structured_normal","72","structured_incentive,structured_normal,structured_load,random","2,1,2,3,3,4","3,4,2,1","true","","",""
"null","","html-keyboard-response","437","652096","0.0-437.0","","<img src=""img/set2/S3.jpg"" width=""540"" height = ""360"" style=""border:16px solid orange"">","null","","","","","","","","","",""
"null","","html-keyboard-response","438","652301","0.0-438.0","","","null","","","","","","","","","",""
"728","","image-keyboard-response","439","653031","0.0-439.0","","img/set2/S2.jpg","72","2","structured_normal","68","structured_incentive,structured_normal,structured_load,random","2,1,2,3,3,4","3,4,2,1","false","","",""
"null","","html-keyboard-response","440","653385","0.0-440.0","","<img src=""img/set2/S2.jpg"" width=""540"" height = ""360"">","null","","","","","","","","","",""
"null","","html-keyboard-response","441","653588","0.0-441.0","","","null","","","","","","","","","",""
"455.5","","image-keyboard-response","442","654046","0.0-442.0","","img/set2/S3.jpg","72","3","structured_normal","72","structured_incentive,structured_normal,structured_load,random","2,1,2,3,3,4","3,4,2,1","true","","",""
"null","","html-keyboard-response","443","654401","0.0-443.0","","<img src=""img/set2/S3.jpg"" width=""540"" height = ""360"" style=""border:16px solid orange"">","null","","","","","","","","","",""
"null","","html-keyboard-response","444","654607","0.0-444.0","","","null","","","","","","","","","",""
"404.09999999403954","","image-keyboard-response","445","655012","0.0-445.0","","img/set2/S4.jpg","72","4","structured_normal","74","structured_incentive,structured_normal,structured_load,random","2,1,2,3,3,4","3,4,2,1","false","","",""
"null","","html-keyboard-response","446","655369","0.0-446.0","","<img src=""img/set2/S4.jpg"" width=""540"" height = ""360"">","null","","","","","","","","","",""
"null","","html-keyboard-response","447","655573","0.0-447.0","","","null","","","","","","","","","",""
"1989","","image-keyboard-response","448","657563","0.0-448.0","","img/set2/S2.jpg","72","2","structured_normal","68","structured_incentive,structured_normal,structured_load,random","2,1,2,3,3,4","3,4,2,1","false","","",""
"null","","html-keyboard-response","449","657919","0.0-449.0","","<img src=""img/set2/S2.jpg"" width=""540"" height = ""360"">","null","","","","","","","","","",""
"null","","html-keyboard-response","450","658121","0.0-450.0","","","null","","","","","","","","","",""
"418.59999999403954","","image-keyboard-response","451","658542","0.0-451.0","","img/set2/S3.jpg","74","3","structured_normal","72","structured_incentive,structured_normal,structured_load,random","2,1,2,3,3,4","3,4,2,1","false","","",""
"null","","html-keyboard-response","452","658895","0.0-452.0","","<img src=""img/set2/S3.jpg"" width=""540"" height = ""360"">","null","","","","","","","","","",""
"null","","html-keyboard-response","453","659098","0.0-453.0","","","null","","","","","","","","","",""
"1315.199999988079","","image-keyboard-response","454","660415","0.0-454.0","","img/set2/S2.jpg","83","2","structured_normal","68","structured_incentive,structured_normal,structured_load,random","2,1,2,3,3,4","3,4,2,1","false","","",""
"null","","html-keyboard-response","455","660768","0.0-455.0","","<img src=""img/set2/S2.jpg"" width=""540"" height = ""360"">","null","","","","","","","","","",""
"null","","html-keyboard-response","456","660970","0.0-456.0","","","null","","","","","","","","","",""
"741","","image-keyboard-response","457","661712","0.0-457.0","","img/set2/S3.jpg","68","3","structured_normal","72","structured_incentive,structured_normal,structured_load,random","2,1,2,3,3,4","3,4,2,1","false","","",""
"null","","html-keyboard-response","458","662069","0.0-458.0","","<img src=""img/set2/S3.jpg"" width=""540"" height = ""360"">","null","","","","","","","","","",""
"null","","html-keyboard-response","459","662274","0.0-459.0","","","null","","","","","","","","","",""
"686.0999999940395","","image-keyboard-response","460","662961","0.0-460.0","","img/set2/S2.jpg","72","2","structured_normal","68","structured_incentive,structured_normal,structured_load,random","2,1,2,3,3,4","3,4,2,1","false","","",""
"null","","html-keyboard-response","461","663318","0.0-461.0","","<img src=""img/set2/S2.jpg"" width=""540"" height = ""360"">","null","","","","","","","","","",""
"null","","html-keyboard-response","462","663522","0.0-462.0","","","null","","","","","","","","","",""
"552.7000000178814","","image-keyboard-response","463","664076","0.0-463.0","","img/set2/S3.jpg","72","3","structured_normal","72","structured_incentive,structured_normal,structured_load,random","2,1,2,3,3,4","3,4,2,1","true","","",""
"null","","html-keyboard-response","464","664431","0.0-464.0","","<img src=""img/set2/S3.jpg"" width=""540"" height = ""360"" style=""border:16px solid orange"">","null","","","","","","","","","",""
"null","","html-keyboard-response","465","664633","0.0-465.0","","","null","","","","","","","","","",""
"1259.5","","image-keyboard-response","466","665894","0.0-466.0","","img/set2/S2.jpg","68","2","structured_normal","68","structured_incentive,structured_normal,structured_load,random","2,1,2,3,3,4","3,4,2,1","true","","",""
"null","","html-keyboard-response","467","666250","0.0-467.0","","<img src=""img/set2/S2.jpg"" width=""540"" height = ""360"" style=""border:16px solid orange"">","null","","","","","","","","","",""
"null","","html-keyboard-response","468","666453","0.0-468.0","","","null","","","","","","","","","",""
"783.6999999880791","","image-keyboard-response","469","667239","0.0-469.0","","img/set2/S3.jpg","72","3","structured_normal","72","structured_incentive,structured_normal,structured_load,random","2,1,2,3,3,4","3,4,2,1","true","","",""
"null","","html-keyboard-response","470","667594","0.0-470.0","","<img src=""img/set2/S3.jpg"" width=""540"" height = ""360"" style=""border:16px solid orange"">","null","","","","","","","","","",""
"null","","html-keyboard-response","471","667797","0.0-471.0","","","null","","","","","","","","","",""
"415.60000002384186","","image-keyboard-response","472","668214","0.0-472.0","","img/set2/S4.jpg","74","4","structured_normal","74","structured_incentive,structured_normal,structured_load,random","2,1,2,3,3,4","3,4,2,1","true","","",""
"null","","html-keyboard-response","473","668570","0.0-473.0","","<img src=""img/set2/S4.jpg"" width=""540"" height = ""360"" style=""border:16px solid orange"">","null","","","","","","","","","",""
"null","","html-keyboard-response","474","668774","0.0-474.0","","","null","","","","","","","","","",""
"459.59999999403954","","image-keyboard-response","475","669235","0.0-475.0","","img/set2/S4.jpg","74","4","structured_normal","74","structured_incentive,structured_normal,structured_load,random","2,1,2,3,3,4","3,4,2,1","true","","",""
"null","","html-keyboard-response","476","669589","0.0-476.0","","<img src=""img/set2/S4.jpg"" width=""540"" height = ""360"" style=""border:16px solid orange"">","null","","","","","","","","","",""
"null","","html-keyboard-response","477","669794","0.0-477.0","","","null","","","","","","","","","",""
"880.5","","image-keyboard-response","478","670676","0.0-478.0","","img/set2/S2.jpg","68","2","structured_normal","68","structured_incentive,structured_normal,structured_load,random","2,1,2,3,3,4","3,4,2,1","true","","",""
"null","","html-keyboard-response","479","671030","0.0-479.0","","<img src=""img/set2/S2.jpg"" width=""540"" height = ""360"" style=""border:16px solid orange"">","null","","","","","","","","","",""
"null","","html-keyboard-response","480","671233","0.0-480.0","","","null","","","","","","","","","",""
"895","","image-keyboard-response","481","672129","0.0-481.0","","img/set2/S3.jpg","72","3","structured_normal","72","structured_incentive,structured_normal,structured_load,random","2,1,2,3,3,4","3,4,2,1","true","","",""
"null","","html-keyboard-response","482","672486","0.0-482.0","","<img src=""img/set2/S3.jpg"" width=""540"" height = ""360"" style=""border:16px solid orange"">","null","","","","","","","","","",""
"null","","html-keyboard-response","483","672688","0.0-483.0","","","null","","","","","","","","","",""
"766.3000000119209","","image-keyboard-response","484","673455","0.0-484.0","","img/set2/S2.jpg","68","2","structured_normal","68","structured_incentive,structured_normal,structured_load,random","2,1,2,3,3,4","3,4,2,1","true","","",""
"null","","html-keyboard-response","485","673808","0.0-485.0","","<img src=""img/set2/S2.jpg"" width=""540"" height = ""360"" style=""border:16px solid orange"">","null","","","","","","","","","",""
"null","","html-keyboard-response","486","674010","0.0-486.0","","","null","","","","","","","","","",""
"370.90000000596046","","image-keyboard-response","487","674383","0.0-487.0","","img/set2/S3.jpg","72","3","structured_normal","72","structured_incentive,structured_normal,structured_load,random","2,1,2,3,3,4","3,4,2,1","true","","",""
"null","","html-keyboard-response","488","674739","0.0-488.0","","<img src=""img/set2/S3.jpg"" width=""540"" height = ""360"" style=""border:16px solid orange"">","null","","","","","","","","","",""
"null","","html-keyboard-response","489","674944","0.0-489.0","","","null","","","","","","","","","",""
"578.0999999940395","","image-keyboard-response","490","675523","0.0-490.0","","img/set2/S4.jpg","74","4","structured_normal","74","structured_incentive,structured_normal,structured_load,random","2,1,2,3,3,4","3,4,2,1","true","","",""
"null","","html-keyboard-response","491","675877","0.0-491.0","","<img src=""img/set2/S4.jpg"" width=""540"" height = ""360"" style=""border:16px solid orange"">","null","","","","","","","","","",""
"null","","html-keyboard-response","492","676080","0.0-492.0","","","null","","","","","","","","","",""
"673.0999999940395","","image-keyboard-response","493","676754","0.0-493.0","","img/set2/S1.jpg","83","1","structured_normal","83","structured_incentive,structured_normal,structured_load,random","2,1,2,3,3,4","3,4,2,1","true","","",""
"null","","html-keyboard-response","494","677110","0.0-494.0","","<img src=""img/set2/S1.jpg"" width=""540"" height = ""360"" style=""border:16px solid orange"">","null","","","","","","","","","",""
"null","","html-keyboard-response","495","677314","0.0-495.0","","","null","","","","","","","","","",""
"463.7999999821186","","image-keyboard-response","496","677779","0.0-496.0","","img/set2/S1.jpg","83","1","structured_normal","83","structured_incentive,structured_normal,structured_load,random","2,1,2,3,3,4","3,4,2,1","true","","",""
"null","","html-keyboard-response","497","678134","0.0-497.0","","<img src=""img/set2/S1.jpg"" width=""540"" height = ""360"" style=""border:16px solid orange"">","null","","","","","","","","","",""
"null","","html-keyboard-response","498","678340","0.0-498.0","","","null","","","","","","","","","",""
"562.7000000178814","","image-keyboard-response","499","678904","0.0-499.0","","img/set2/S2.jpg","68","2","structured_normal","68","structured_incentive,structured_normal,structured_load,random","2,1,2,3,3,4","3,4,2,1","true","","",""
"null","","html-keyboard-response","500","679258","0.0-500.0","","<img src=""img/set2/S2.jpg"" width=""540"" height = ""360"" style=""border:16px solid orange"">","null","","","","","","","","","",""
"null","","html-keyboard-response","501","679462","0.0-501.0","","","null","","","","","","","","","",""
"526.5999999940395","","image-keyboard-response","502","679990","0.0-502.0","","img/set2/S3.jpg","72","3","structured_normal","72","structured_incentive,structured_normal,structured_load,random","2,1,2,3,3,4","3,4,2,1","true","","",""
"null","","html-keyboard-response","503","680346","0.0-503.0","","<img src=""img/set2/S3.jpg"" width=""540"" height = ""360"" style=""border:16px solid orange"">","null","","","","","","","","","",""
"null","","html-keyboard-response","504","680549","0.0-504.0","","","null","","","","","","","","","",""
"721.7999999821186","","image-keyboard-response","505","681273","0.0-505.0","","img/set2/S1.jpg","83","1","structured_normal","83","structured_incentive,structured_normal,structured_load,random","2,1,2,3,3,4","3,4,2,1","true","","",""
"null","","html-keyboard-response","506","681626","0.0-506.0","","<img src=""img/set2/S1.jpg"" width=""540"" height = ""360"" style=""border:16px solid orange"">","null","","","","","","","","","",""
"null","","html-keyboard-response","507","681830","0.0-507.0","","","null","","","","","","","","","",""
"674.5999999940395","","image-keyboard-response","508","682506","0.0-508.0","","img/set2/S4.jpg","72","4","structured_normal","74","structured_incentive,structured_normal,structured_load,random","2,1,2,3,3,4","3,4,2,1","false","","",""
"null","","html-keyboard-response","509","682858","0.0-509.0","","<img src=""img/set2/S4.jpg"" width=""540"" height = ""360"">","null","","","","","","","","","",""
"null","","html-keyboard-response","510","683062","0.0-510.0","","","null","","","","","","","","","",""
"739.3000000119209","","image-keyboard-response","511","683803","0.0-511.0","","img/set2/S2.jpg","68","2","structured_normal","68","structured_incentive,structured_normal,structured_load,random","2,1,2,3,3,4","3,4,2,1","true","","",""
"null","","html-keyboard-response","512","684160","0.0-512.0","","<img src=""img/set2/S2.jpg"" width=""540"" height = ""360"" style=""border:16px solid orange"">","null","","","","","","","","","",""
"null","","html-keyboard-response","513","684362","0.0-513.0","","","null","","","","","","","","","",""
"628.3999999761581","","image-keyboard-response","514","684992","0.0-514.0","","img/set2/S3.jpg","72","3","structured_normal","72","structured_incentive,structured_normal,structured_load,random","2,1,2,3,3,4","3,4,2,1","true","","",""
"null","","html-keyboard-response","515","685349","0.0-515.0","","<img src=""img/set2/S3.jpg"" width=""540"" height = ""360"" style=""border:16px solid orange"">","null","","","","","","","","","",""
"null","","html-keyboard-response","516","685553","0.0-516.0","","","null","","","","","","","","","",""
"631.6999999880791","","image-keyboard-response","517","686186","0.0-517.0","","img/set2/S1.jpg","83","1","structured_normal","83","structured_incentive,structured_normal,structured_load,random","2,1,2,3,3,4","3,4,2,1","true","","",""
"null","","html-keyboard-response","518","686542","0.0-518.0","","<img src=""img/set2/S1.jpg"" width=""540"" height = ""360"" style=""border:16px solid orange"">","null","","","","","","","","","",""
"null","","html-keyboard-response","519","686747","0.0-519.0","","","null","","","","","","","","","",""
"377.19999998807907","","image-keyboard-response","520","687126","0.0-520.0","","img/set2/S1.jpg","83","1","structured_normal","83","structured_incentive,structured_normal,structured_load,random","2,1,2,3,3,4","3,4,2,1","true","","",""
"null","","html-keyboard-response","521","687482","0.0-521.0","","<img src=""img/set2/S1.jpg"" width=""540"" height = ""360"" style=""border:16px solid orange"">","null","","","","","","","","","",""
"null","","html-keyboard-response","522","687686","0.0-522.0","","","null","","","","","","","","","",""
"799.6999999880791","","image-keyboard-response","523","688488","0.0-523.0","","img/set2/S2.jpg","68","2","structured_normal","68","structured_incentive,structured_normal,structured_load,random","2,1,2,3,3,4","3,4,2,1","true","","",""
"null","","html-keyboard-response","524","688842","0.0-524.0","","<img src=""img/set2/S2.jpg"" width=""540"" height = ""360"" style=""border:16px solid orange"">","null","","","","","","","","","",""
"null","","html-keyboard-response","525","689046","0.0-525.0","","","null","","","","","","","","","",""
"491.59999999403954","","image-keyboard-response","526","689540","0.0-526.0","","img/set2/S3.jpg","72","3","structured_normal","72","structured_incentive,structured_normal,structured_load,random","2,1,2,3,3,4","3,4,2,1","true","","",""
"null","","html-keyboard-response","527","689894","0.0-527.0","","<img src=""img/set2/S3.jpg"" width=""540"" height = ""360"" style=""border:16px solid orange"">","null","","","","","","","","","",""
"null","","html-keyboard-response","528","690096","0.0-528.0","","","null","","","","","","","","","",""
"586.1000000238419","","image-keyboard-response","529","690684","0.0-529.0","","img/set2/S1.jpg","83","1","structured_normal","83","structured_incentive,structured_normal,structured_load,random","2,1,2,3,3,4","3,4,2,1","true","","",""
"null","","html-keyboard-response","530","691040","0.0-530.0","","<img src=""img/set2/S1.jpg"" width=""540"" height = ""360"" style=""border:16px solid orange"">","null","","","","","","","","","",""
"null","","html-keyboard-response","531","691243","0.0-531.0","","","null","","","","","","","","","",""
"610.1999999880791","","image-keyboard-response","532","691855","0.0-532.0","","img/set2/S4.jpg","72","4","structured_normal","74","structured_incentive,structured_normal,structured_load,random","2,1,2,3,3,4","3,4,2,1","false","","",""
"null","","html-keyboard-response","533","692209","0.0-533.0","","<img src=""img/set2/S4.jpg"" width=""540"" height = ""360"">","null","","","","","","","","","",""
"null","","html-keyboard-response","534","692410","0.0-534.0","","","null","","","","","","","","","",""
"420.80000001192093","","image-keyboard-response","535","692833","0.0-535.0","","img/set2/S4.jpg","74","4","structured_normal","74","structured_incentive,structured_normal,structured_load,random","2,1,2,3,3,4","3,4,2,1","true","","",""
"null","","html-keyboard-response","536","693190","0.0-536.0","","<img src=""img/set2/S4.jpg"" width=""540"" height = ""360"" style=""border:16px solid orange"">","null","","","","","","","","","",""
"null","","html-keyboard-response","537","693392","0.0-537.0","","","null","","","","","","","","","",""
"643.5","","image-keyboard-response","538","694037","0.0-538.0","","img/set2/S1.jpg","83","1","structured_normal","83","structured_incentive,structured_normal,structured_load,random","2,1,2,3,3,4","3,4,2,1","true","","",""
"null","","html-keyboard-response","539","694390","0.0-539.0","","<img src=""img/set2/S1.jpg"" width=""540"" height = ""360"" style=""border:16px solid orange"">","null","","","","","","","","","",""
"null","","html-keyboard-response","540","694592","0.0-540.0","","","null","","","","","","","","","",""
"425.19999998807907","","image-keyboard-response","541","695019","0.0-541.0","","img/set2/S1.jpg","83","1","structured_normal","83","structured_incentive,structured_normal,structured_load,random","2,1,2,3,3,4","3,4,2,1","true","","",""
"null","","html-keyboard-response","542","695376","0.0-542.0","","<img src=""img/set2/S1.jpg"" width=""540"" height = ""360"" style=""border:16px solid orange"">","null","","","","","","","","","",""
"null","","html-keyboard-response","543","695579","0.0-543.0","","","null","","","","","","","","","",""
"528.4000000059605","","image-keyboard-response","544","696108","0.0-544.0","","img/set2/S2.jpg","68","2","structured_normal","68","structured_incentive,structured_normal,structured_load,random","2,1,2,3,3,4","3,4,2,1","true","","",""
"null","","html-keyboard-response","545","696464","0.0-545.0","","<img src=""img/set2/S2.jpg"" width=""540"" height = ""360"" style=""border:16px solid orange"">","null","","","","","","","","","",""
"null","","html-keyboard-response","546","696667","0.0-546.0","","","null","","","","","","","","","",""
"559.0999999940395","","image-keyboard-response","547","697227","0.0-547.0","","img/set2/S3.jpg","72","3","structured_normal","72","structured_incentive,structured_normal,structured_load,random","2,1,2,3,3,4","3,4,2,1","true","","",""
"null","","html-keyboard-response","548","697584","0.0-548.0","","<img src=""img/set2/S3.jpg"" width=""540"" height = ""360"" style=""border:16px solid orange"">","null","","","","","","","","","",""
"null","","html-keyboard-response","549","697788","0.0-549.0","","","null","","","","","","","","","",""
"1085.199999988079","","image-keyboard-response","550","698874","0.0-550.0","","img/set2/S2.jpg","68","2","structured_normal","68","structured_incentive,structured_normal,structured_load,random","2,1,2,3,3,4","3,4,2,1","true","","",""
"null","","html-keyboard-response","551","699230","0.0-551.0","","<img src=""img/set2/S2.jpg"" width=""540"" height = ""360"" style=""border:16px solid orange"">","null","","","","","","","","","",""
"null","","html-keyboard-response","552","699434","0.0-552.0","","","null","","","","","","","","","",""
"585.1999999880791","","image-keyboard-response","553","700021","0.0-553.0","","img/set2/S3.jpg","72","3","structured_normal","72","structured_incentive,structured_normal,structured_load,random","2,1,2,3,3,4","3,4,2,1","true","","",""
"null","","html-keyboard-response","554","700374","0.0-554.0","","<img src=""img/set2/S3.jpg"" width=""540"" height = ""360"" style=""border:16px solid orange"">","null","","","","","","","","","",""
