"rt","url","trial_type","trial_index","time_elapsed","internal_node_id","assignmentID","mturkID","hitID","view_history","stimulus","key_press","state","test_part","correct_response","order_block","order_chunk","order_freq","correct","responses","question_order","bonus"
"44681","consent.html","external-html","0","44750","0.0-0.0","3YGXWBAF713C77USTWK4WWHNIIEC47","AXKTYKCT9NGHS","3RSBJ6YZECCLSSQQCGKCTHC9OPAFOK","","","","","","","","","","","","",""
"65330","","instructions","1","110082","0.0-1.0","3YGXWBAF713C77USTWK4WWHNIIEC47","AXKTYKCT9NGHS","3RSBJ6YZECCLSSQQCGKCTHC9OPAFOK","[{""page_index"":0,""viewing_time"":19915},{""page_index"":1,""viewing_time"":4755},{""page_index"":2,""viewing_time"":5528},{""page_index"":3,""viewing_time"":11911},{""page_index"":4,""viewing_time"":3329},{""page_index"":5,""viewing_time"":10784},{""page_index"":6,""viewing_time"":9107}]","","","","","","","","","","","",""
"7384","","instructions","2","117468","0.0-2.0","3YGXWBAF713C77USTWK4WWHNIIEC47","AXKTYKCT9NGHS","3RSBJ6YZECCLSSQQCGKCTHC9OPAFOK","[{""page_index"":0,""viewing_time"":7384}]","","","","","","","","","","","",""
"29976","","instructions","3","147445","0.0-3.0","3YGXWBAF713C77USTWK4WWHNIIEC47","AXKTYKCT9NGHS","3RSBJ6YZECCLSSQQCGKCTHC9OPAFOK","[{""page_index"":0,""viewing_time"":23392},{""page_index"":1,""viewing_time"":6584}]","","","","","","","","","","","",""
"924","","image-keyboard-response","4","148372","0.0-4.0","3YGXWBAF713C77USTWK4WWHNIIEC47","AXKTYKCT9NGHS","3RSBJ6YZECCLSSQQCGKCTHC9OPAFOK","","img/set1/S3.jpg","83","3","structured_load","72","structured_load,structured_incentive,random,structured_normal","4,2,1,2,2,3","2,3,4,1","false","","",""
"null","","html-keyboard-response","5","148737","0.0-5.0","3YGXWBAF713C77USTWK4WWHNIIEC47","AXKTYKCT9NGHS","3RSBJ6YZECCLSSQQCGKCTHC9OPAFOK","","<img src=""img/set1/S3.jpg"" width=""540"" height = ""360"">","null","","","","","","","","","",""
"null","","html-keyboard-response","6","148956","0.0-6.0","3YGXWBAF713C77USTWK4WWHNIIEC47","AXKTYKCT9NGHS","3RSBJ6YZECCLSSQQCGKCTHC9OPAFOK","","","null","","","","","","","","","",""
"974","","image-keyboard-response","7","149932","0.0-7.0","3YGXWBAF713C77USTWK4WWHNIIEC47","AXKTYKCT9NGHS","3RSBJ6YZECCLSSQQCGKCTHC9OPAFOK","","img/set1/S3.jpg","68","3","structured_load","72","structured_load,structured_incentive,random,structured_normal","4,2,1,2,2,3","2,3,4,1","false","","",""
"null","","html-keyboard-response","8","150297","0.0-8.0","3YGXWBAF713C77USTWK4WWHNIIEC47","AXKTYKCT9NGHS","3RSBJ6YZECCLSSQQCGKCTHC9OPAFOK","","<img src=""img/set1/S3.jpg"" width=""540"" height = ""360"">","null","","","","","","","","","",""
"null","","html-keyboard-response","9","150517","0.0-9.0","3YGXWBAF713C77USTWK4WWHNIIEC47","AXKTYKCT9NGHS","3RSBJ6YZECCLSSQQCGKCTHC9OPAFOK","","","null","","","","","","","","","",""
"902","","image-keyboard-response","10","151420","0.0-10.0","3YGXWBAF713C77USTWK4WWHNIIEC47","AXKTYKCT9NGHS","3RSBJ6YZECCLSSQQCGKCTHC9OPAFOK","","img/set1/S4.jpg","74","4","structured_load","74","structured_load,structured_incentive,random,structured_normal","4,2,1,2,2,3","2,3,4,1","true","","",""
"null","","html-keyboard-response","11","151777","0.0-11.0","3YGXWBAF713C77USTWK4WWHNIIEC47","AXKTYKCT9NGHS","3RSBJ6YZECCLSSQQCGKCTHC9OPAFOK","","<img src=""img/set1/S4.jpg"" width=""540"" height = ""360"" style=""border:16px solid orange"">","null","","","","","","","","","",""
"null","","html-keyboard-response","12","151997","0.0-12.0","3YGXWBAF713C77USTWK4WWHNIIEC47","AXKTYKCT9NGHS","3RSBJ6YZECCLSSQQCGKCTHC9OPAFOK","","","null","","","","","","","","","",""
"1918","","image-keyboard-response","13","153917","0.0-13.0","3YGXWBAF713C77USTWK4WWHNIIEC47","AXKTYKCT9NGHS","3RSBJ6YZECCLSSQQCGKCTHC9OPAFOK","","img/set1/S2.jpg","83","2","structured_load","68","structured_load,structured_incentive,random,structured_normal","4,2,1,2,2,3","2,3,4,1","false","","",""
"null","","html-keyboard-response","14","154286","0.0-14.0","3YGXWBAF713C77USTWK4WWHNIIEC47","AXKTYKCT9NGHS","3RSBJ6YZECCLSSQQCGKCTHC9OPAFOK","","<img src=""img/set1/S2.jpg"" width=""540"" height = ""360"">","null","","","","","","","","","",""
"null","","html-keyboard-response","15","154507","0.0-15.0","3YGXWBAF713C77USTWK4WWHNIIEC47","AXKTYKCT9NGHS","3RSBJ6YZECCLSSQQCGKCTHC9OPAFOK","","","null","","","","","","","","","",""
"1065","","image-keyboard-response","16","155572","0.0-16.0","3YGXWBAF713C77USTWK4WWHNIIEC47","AXKTYKCT9NGHS","3RSBJ6YZECCLSSQQCGKCTHC9OPAFOK","","img/set1/S4.jpg","74","4","structured_load","74","structured_load,structured_incentive,random,structured_normal","4,2,1,2,2,3","2,3,4,1","true","","",""
"null","","html-keyboard-response","17","155926","0.0-17.0","3YGXWBAF713C77USTWK4WWHNIIEC47","AXKTYKCT9NGHS","3RSBJ6YZECCLSSQQCGKCTHC9OPAFOK","","<img src=""img/set1/S4.jpg"" width=""540"" height = ""360"" style=""border:16px solid orange"">","null","","","","","","","","","",""
"null","","html-keyboard-response","18","156147","0.0-18.0","3YGXWBAF713C77USTWK4WWHNIIEC47","AXKTYKCT9NGHS","3RSBJ6YZECCLSSQQCGKCTHC9OPAFOK","","","null","","","","","","","","","",""
"553","","image-keyboard-response","19","156701","0.0-19.0","3YGXWBAF713C77USTWK4WWHNIIEC47","AXKTYKCT9NGHS","3RSBJ6YZECCLSSQQCGKCTHC9OPAFOK","","img/set1/S3.jpg","68","3","structured_load","72","structured_load,structured_incentive,random,structured_normal","4,2,1,2,2,3","2,3,4,1","false","","",""
"null","","html-keyboard-response","20","157067","0.0-20.0","3YGXWBAF713C77USTWK4WWHNIIEC47","AXKTYKCT9NGHS","3RSBJ6YZECCLSSQQCGKCTHC9OPAFOK","","<img src=""img/set1/S3.jpg"" width=""540"" height = ""360"">","null","","","","","","","","","",""
"null","","html-keyboard-response","21","157287","0.0-21.0","3YGXWBAF713C77USTWK4WWHNIIEC47","AXKTYKCT9NGHS","3RSBJ6YZECCLSSQQCGKCTHC9OPAFOK","","","null","","","","","","","","","",""
"677","","image-keyboard-response","22","157965","0.0-22.0","3YGXWBAF713C77USTWK4WWHNIIEC47","AXKTYKCT9NGHS","3RSBJ6YZECCLSSQQCGKCTHC9OPAFOK","","img/set1/S3.jpg","83","3","structured_load","72","structured_load,structured_incentive,random,structured_normal","4,2,1,2,2,3","2,3,4,1","false","","",""
"null","","html-keyboard-response","23","158327","0.0-23.0","3YGXWBAF713C77USTWK4WWHNIIEC47","AXKTYKCT9NGHS","3RSBJ6YZECCLSSQQCGKCTHC9OPAFOK","","<img src=""img/set1/S3.jpg"" width=""540"" height = ""360"">","null","","","","","","","","","",""
"null","","html-keyboard-response","24","158547","0.0-24.0","3YGXWBAF713C77USTWK4WWHNIIEC47","AXKTYKCT9NGHS","3RSBJ6YZECCLSSQQCGKCTHC9OPAFOK","","","null","","","","","","","","","",""
"1874","","image-keyboard-response","25","160422","0.0-25.0","3YGXWBAF713C77USTWK4WWHNIIEC47","AXKTYKCT9NGHS","3RSBJ6YZECCLSSQQCGKCTHC9OPAFOK","","img/set1/S3.jpg","74","3","structured_load","72","structured_load,structured_incentive,random,structured_normal","4,2,1,2,2,3","2,3,4,1","false","","",""
"null","","html-keyboard-response","26","160786","0.0-26.0","3YGXWBAF713C77USTWK4WWHNIIEC47","AXKTYKCT9NGHS","3RSBJ6YZECCLSSQQCGKCTHC9OPAFOK","","<img src=""img/set1/S3.jpg"" width=""540"" height = ""360"">","null","","","","","","","","","",""
"null","","html-keyboard-response","27","161007","0.0-27.0","3YGXWBAF713C77USTWK4WWHNIIEC47","AXKTYKCT9NGHS","3RSBJ6YZECCLSSQQCGKCTHC9OPAFOK","","","null","","","","","","","","","",""
"1629","","image-keyboard-response","28","162638","0.0-28.0","3YGXWBAF713C77USTWK4WWHNIIEC47","AXKTYKCT9NGHS","3RSBJ6YZECCLSSQQCGKCTHC9OPAFOK","","img/set1/S1.jpg","83","1","structured_load","83","structured_load,structured_incentive,random,structured_normal","4,2,1,2,2,3","2,3,4,1","true","","",""
"null","","html-keyboard-response","29","162997","0.0-29.0","3YGXWBAF713C77USTWK4WWHNIIEC47","AXKTYKCT9NGHS","3RSBJ6YZECCLSSQQCGKCTHC9OPAFOK","","<img src=""img/set1/S1.jpg"" width=""540"" height = ""360"" style=""border:16px solid orange"">","null","","","","","","","","","",""
"null","","html-keyboard-response","30","163217","0.0-30.0","3YGXWBAF713C77USTWK4WWHNIIEC47","AXKTYKCT9NGHS","3RSBJ6YZECCLSSQQCGKCTHC9OPAFOK","","","null","","","","","","","","","",""
"1235","","image-keyboard-response","31","164454","0.0-31.0","3YGXWBAF713C77USTWK4WWHNIIEC47","AXKTYKCT9NGHS","3RSBJ6YZECCLSSQQCGKCTHC9OPAFOK","","img/set1/S4.jpg","74","4","structured_load","74","structured_load,structured_incentive,random,structured_normal","4,2,1,2,2,3","2,3,4,1","true","","",""
"null","","html-keyboard-response","32","164817","0.0-32.0","3YGXWBAF713C77USTWK4WWHNIIEC47","AXKTYKCT9NGHS","3RSBJ6YZECCLSSQQCGKCTHC9OPAFOK","","<img src=""img/set1/S4.jpg"" width=""540"" height = ""360"" style=""border:16px solid orange"">","null","","","","","","","","","",""
"null","","html-keyboard-response","33","165037","0.0-33.0","3YGXWBAF713C77USTWK4WWHNIIEC47","AXKTYKCT9NGHS","3RSBJ6YZECCLSSQQCGKCTHC9OPAFOK","","","null","","","","","","","","","",""
"817","","image-keyboard-response","34","165854","0.0-34.0","3YGXWBAF713C77USTWK4WWHNIIEC47","AXKTYKCT9NGHS","3RSBJ6YZECCLSSQQCGKCTHC9OPAFOK","","img/set1/S3.jpg","68","3","structured_load","72","structured_load,structured_incentive,random,structured_normal","4,2,1,2,2,3","2,3,4,1","false","","",""
"null","","html-keyboard-response","35","166217","0.0-35.0","3YGXWBAF713C77USTWK4WWHNIIEC47","AXKTYKCT9NGHS","3RSBJ6YZECCLSSQQCGKCTHC9OPAFOK","","<img src=""img/set1/S3.jpg"" width=""540"" height = ""360"">","null","","","","","","","","","",""
"null","","html-keyboard-response","36","166437","0.0-36.0","3YGXWBAF713C77USTWK4WWHNIIEC47","AXKTYKCT9NGHS","3RSBJ6YZECCLSSQQCGKCTHC9OPAFOK","","","null","","","","","","","","","",""
"713","","image-keyboard-response","37","167151","0.0-37.0","3YGXWBAF713C77USTWK4WWHNIIEC47","AXKTYKCT9NGHS","3RSBJ6YZECCLSSQQCGKCTHC9OPAFOK","","img/set1/S1.jpg","83","1","structured_load","83","structured_load,structured_incentive,random,structured_normal","4,2,1,2,2,3","2,3,4,1","true","","",""
"null","","html-keyboard-response","38","167502","0.0-38.0","3YGXWBAF713C77USTWK4WWHNIIEC47","AXKTYKCT9NGHS","3RSBJ6YZECCLSSQQCGKCTHC9OPAFOK","","<img src=""img/set1/S1.jpg"" width=""540"" height = ""360"" style=""border:16px solid orange"">","null","","","","","","","","","",""
"null","","html-keyboard-response","39","167727","0.0-39.0","3YGXWBAF713C77USTWK4WWHNIIEC47","AXKTYKCT9NGHS","3RSBJ6YZECCLSSQQCGKCTHC9OPAFOK","","","null","","","","","","","","","",""
"1032","","image-keyboard-response","40","168759","0.0-40.0","3YGXWBAF713C77USTWK4WWHNIIEC47","AXKTYKCT9NGHS","3RSBJ6YZECCLSSQQCGKCTHC9OPAFOK","","img/set1/S4.jpg","74","4","structured_load","74","structured_load,structured_incentive,random,structured_normal","4,2,1,2,2,3","2,3,4,1","true","","",""
"null","","html-keyboard-response","41","169127","0.0-41.0","3YGXWBAF713C77USTWK4WWHNIIEC47","AXKTYKCT9NGHS","3RSBJ6YZECCLSSQQCGKCTHC9OPAFOK","","<img src=""img/set1/S4.jpg"" width=""540"" height = ""360"" style=""border:16px solid orange"">","null","","","","","","","","","",""
"null","","html-keyboard-response","42","169346","0.0-42.0","3YGXWBAF713C77USTWK4WWHNIIEC47","AXKTYKCT9NGHS","3RSBJ6YZECCLSSQQCGKCTHC9OPAFOK","","","null","","","","","","","","","",""
"619","","image-keyboard-response","43","169967","0.0-43.0","3YGXWBAF713C77USTWK4WWHNIIEC47","AXKTYKCT9NGHS","3RSBJ6YZECCLSSQQCGKCTHC9OPAFOK","","img/set1/S2.jpg","68","2","structured_load","68","structured_load,structured_incentive,random,structured_normal","4,2,1,2,2,3","2,3,4,1","true","","",""
"null","","html-keyboard-response","44","170327","0.0-44.0","3YGXWBAF713C77USTWK4WWHNIIEC47","AXKTYKCT9NGHS","3RSBJ6YZECCLSSQQCGKCTHC9OPAFOK","","<img src=""img/set1/S2.jpg"" width=""540"" height = ""360"" style=""border:16px solid orange"">","null","","","","","","","","","",""
"null","","html-keyboard-response","45","170546","0.0-45.0","3YGXWBAF713C77USTWK4WWHNIIEC47","AXKTYKCT9NGHS","3RSBJ6YZECCLSSQQCGKCTHC9OPAFOK","","","null","","","","","","","","","",""
"652","","image-keyboard-response","46","171199","0.0-46.0","3YGXWBAF713C77USTWK4WWHNIIEC47","AXKTYKCT9NGHS","3RSBJ6YZECCLSSQQCGKCTHC9OPAFOK","","img/set1/S4.jpg","74","4","structured_load","74","structured_load,structured_incentive,random,structured_normal","4,2,1,2,2,3","2,3,4,1","true","","",""
"null","","html-keyboard-response","47","171567","0.0-47.0","3YGXWBAF713C77USTWK4WWHNIIEC47","AXKTYKCT9NGHS","3RSBJ6YZECCLSSQQCGKCTHC9OPAFOK","","<img src=""img/set1/S4.jpg"" width=""540"" height = ""360"" style=""border:16px solid orange"">","null","","","","","","","","","",""
"null","","html-keyboard-response","48","171786","0.0-48.0","3YGXWBAF713C77USTWK4WWHNIIEC47","AXKTYKCT9NGHS","3RSBJ6YZECCLSSQQCGKCTHC9OPAFOK","","","null","","","","","","","","","",""
"464","","image-keyboard-response","49","172252","0.0-49.0","3YGXWBAF713C77USTWK4WWHNIIEC47","AXKTYKCT9NGHS","3RSBJ6YZECCLSSQQCGKCTHC9OPAFOK","","img/set1/S2.jpg","68","2","structured_load","68","structured_load,structured_incentive,random,structured_normal","4,2,1,2,2,3","2,3,4,1","true","","",""
"null","","html-keyboard-response","50","172616","0.0-50.0","3YGXWBAF713C77USTWK4WWHNIIEC47","AXKTYKCT9NGHS","3RSBJ6YZECCLSSQQCGKCTHC9OPAFOK","","<img src=""img/set1/S2.jpg"" width=""540"" height = ""360"" style=""border:16px solid orange"">","null","","","","","","","","","",""
"null","","html-keyboard-response","51","172837","0.0-51.0","3YGXWBAF713C77USTWK4WWHNIIEC47","AXKTYKCT9NGHS","3RSBJ6YZECCLSSQQCGKCTHC9OPAFOK","","","null","","","","","","","","","",""
"522","","image-keyboard-response","52","173360","0.0-52.0","3YGXWBAF713C77USTWK4WWHNIIEC47","AXKTYKCT9NGHS","3RSBJ6YZECCLSSQQCGKCTHC9OPAFOK","","img/set1/S4.jpg","74","4","structured_load","74","structured_load,structured_incentive,random,structured_normal","4,2,1,2,2,3","2,3,4,1","true","","",""
"null","","html-keyboard-response","53","173717","0.0-53.0","3YGXWBAF713C77USTWK4WWHNIIEC47","AXKTYKCT9NGHS","3RSBJ6YZECCLSSQQCGKCTHC9OPAFOK","","<img src=""img/set1/S4.jpg"" width=""540"" height = ""360"" style=""border:16px solid orange"">","null","","","","","","","","","",""
"null","","html-keyboard-response","54","173936","0.0-54.0","3YGXWBAF713C77USTWK4WWHNIIEC47","AXKTYKCT9NGHS","3RSBJ6YZECCLSSQQCGKCTHC9OPAFOK","","","null","","","","","","","","","",""
"526","","image-keyboard-response","55","174463","0.0-55.0","3YGXWBAF713C77USTWK4WWHNIIEC47","AXKTYKCT9NGHS","3RSBJ6YZECCLSSQQCGKCTHC9OPAFOK","","img/set1/S2.jpg","68","2","structured_load","68","structured_load,structured_incentive,random,structured_normal","4,2,1,2,2,3","2,3,4,1","true","","",""
"null","","html-keyboard-response","56","174816","0.0-56.0","3YGXWBAF713C77USTWK4WWHNIIEC47","AXKTYKCT9NGHS","3RSBJ6YZECCLSSQQCGKCTHC9OPAFOK","","<img src=""img/set1/S2.jpg"" width=""540"" height = ""360"" style=""border:16px solid orange"">","null","","","","","","","","","",""
"null","","html-keyboard-response","57","175037","0.0-57.0","3YGXWBAF713C77USTWK4WWHNIIEC47","AXKTYKCT9NGHS","3RSBJ6YZECCLSSQQCGKCTHC9OPAFOK","","","null","","","","","","","","","",""
"858","","image-keyboard-response","58","175896","0.0-58.0","3YGXWBAF713C77USTWK4WWHNIIEC47","AXKTYKCT9NGHS","3RSBJ6YZECCLSSQQCGKCTHC9OPAFOK","","img/set1/S1.jpg","83","1","structured_load","83","structured_load,structured_incentive,random,structured_normal","4,2,1,2,2,3","2,3,4,1","true","","",""
"null","","html-keyboard-response","59","176257","0.0-59.0","3YGXWBAF713C77USTWK4WWHNIIEC47","AXKTYKCT9NGHS","3RSBJ6YZECCLSSQQCGKCTHC9OPAFOK","","<img src=""img/set1/S1.jpg"" width=""540"" height = ""360"" style=""border:16px solid orange"">","null","","","","","","","","","",""
"null","","html-keyboard-response","60","176476","0.0-60.0","3YGXWBAF713C77USTWK4WWHNIIEC47","AXKTYKCT9NGHS","3RSBJ6YZECCLSSQQCGKCTHC9OPAFOK","","","null","","","","","","","","","",""
"595","","image-keyboard-response","61","177073","0.0-61.0","3YGXWBAF713C77USTWK4WWHNIIEC47","AXKTYKCT9NGHS","3RSBJ6YZECCLSSQQCGKCTHC9OPAFOK","","img/set1/S4.jpg","74","4","structured_load","74","structured_load,structured_incentive,random,structured_normal","4,2,1,2,2,3","2,3,4,1","true","","",""
"null","","html-keyboard-response","62","177427","0.0-62.0","3YGXWBAF713C77USTWK4WWHNIIEC47","AXKTYKCT9NGHS","3RSBJ6YZECCLSSQQCGKCTHC9OPAFOK","","<img src=""img/set1/S4.jpg"" width=""540"" height = ""360"" style=""border:16px solid orange"">","null","","","","","","","","","",""
"null","","html-keyboard-response","63","177647","0.0-63.0","3YGXWBAF713C77USTWK4WWHNIIEC47","AXKTYKCT9NGHS","3RSBJ6YZECCLSSQQCGKCTHC9OPAFOK","","","null","","","","","","","","","",""
"761","","image-keyboard-response","64","178409","0.0-64.0","3YGXWBAF713C77USTWK4WWHNIIEC47","AXKTYKCT9NGHS","3RSBJ6YZECCLSSQQCGKCTHC9OPAFOK","","img/set1/S2.jpg","68","2","structured_load","68","structured_load,structured_incentive,random,structured_normal","4,2,1,2,2,3","2,3,4,1","true","","",""
"null","","html-keyboard-response","65","178767","0.0-65.0","3YGXWBAF713C77USTWK4WWHNIIEC47","AXKTYKCT9NGHS","3RSBJ6YZECCLSSQQCGKCTHC9OPAFOK","","<img src=""img/set1/S2.jpg"" width=""540"" height = ""360"" style=""border:16px solid orange"">","null","","","","","","","","","",""
"null","","html-keyboard-response","66","178986","0.0-66.0","3YGXWBAF713C77USTWK4WWHNIIEC47","AXKTYKCT9NGHS","3RSBJ6YZECCLSSQQCGKCTHC9OPAFOK","","","null","","","","","","","","","",""
"750","","image-keyboard-response","67","179737","0.0-67.0","3YGXWBAF713C77USTWK4WWHNIIEC47","AXKTYKCT9NGHS","3RSBJ6YZECCLSSQQCGKCTHC9OPAFOK","","img/set1/S1.jpg","83","1","structured_load","83","structured_load,structured_incentive,random,structured_normal","4,2,1,2,2,3","2,3,4,1","true","","",""
"null","","html-keyboard-response","68","180106","0.0-68.0","3YGXWBAF713C77USTWK4WWHNIIEC47","AXKTYKCT9NGHS","3RSBJ6YZECCLSSQQCGKCTHC9OPAFOK","","<img src=""img/set1/S1.jpg"" width=""540"" height = ""360"" style=""border:16px solid orange"">","null","","","","","","","","","",""
"null","","html-keyboard-response","69","180326","0.0-69.0","3YGXWBAF713C77USTWK4WWHNIIEC47","AXKTYKCT9NGHS","3RSBJ6YZECCLSSQQCGKCTHC9OPAFOK","","","null","","","","","","","","","",""
"730","","image-keyboard-response","70","181058","0.0-70.0","3YGXWBAF713C77USTWK4WWHNIIEC47","AXKTYKCT9NGHS","3RSBJ6YZECCLSSQQCGKCTHC9OPAFOK","","img/set1/S4.jpg","74","4","structured_load","74","structured_load,structured_incentive,random,structured_normal","4,2,1,2,2,3","2,3,4,1","true","","",""
"null","","html-keyboard-response","71","181427","0.0-71.0","3YGXWBAF713C77USTWK4WWHNIIEC47","AXKTYKCT9NGHS","3RSBJ6YZECCLSSQQCGKCTHC9OPAFOK","","<img src=""img/set1/S4.jpg"" width=""540"" height = ""360"" style=""border:16px solid orange"">","null","","","","","","","","","",""
"null","","html-keyboard-response","72","181647","0.0-72.0","3YGXWBAF713C77USTWK4WWHNIIEC47","AXKTYKCT9NGHS","3RSBJ6YZECCLSSQQCGKCTHC9OPAFOK","","","null","","","","","","","","","",""
"832","","image-keyboard-response","73","182481","0.0-73.0","3YGXWBAF713C77USTWK4WWHNIIEC47","AXKTYKCT9NGHS","3RSBJ6YZECCLSSQQCGKCTHC9OPAFOK","","img/set1/S2.jpg","74","2","structured_load","68","structured_load,structured_incentive,random,structured_normal","4,2,1,2,2,3","2,3,4,1","false","","",""
"null","","html-keyboard-response","74","182846","0.0-74.0","3YGXWBAF713C77USTWK4WWHNIIEC47","AXKTYKCT9NGHS","3RSBJ6YZECCLSSQQCGKCTHC9OPAFOK","","<img src=""img/set1/S2.jpg"" width=""540"" height = ""360"">","null","","","","","","","","","",""
"null","","html-keyboard-response","75","183067","0.0-75.0","3YGXWBAF713C77USTWK4WWHNIIEC47","AXKTYKCT9NGHS","3RSBJ6YZECCLSSQQCGKCTHC9OPAFOK","","","null","","","","","","","","","",""
"750","","image-keyboard-response","76","183818","0.0-76.0","3YGXWBAF713C77USTWK4WWHNIIEC47","AXKTYKCT9NGHS","3RSBJ6YZECCLSSQQCGKCTHC9OPAFOK","","img/set1/S4.jpg","83","4","structured_load","74","structured_load,structured_incentive,random,structured_normal","4,2,1,2,2,3","2,3,4,1","false","","",""
"null","","html-keyboard-response","77","184186","0.0-77.0","3YGXWBAF713C77USTWK4WWHNIIEC47","AXKTYKCT9NGHS","3RSBJ6YZECCLSSQQCGKCTHC9OPAFOK","","<img src=""img/set1/S4.jpg"" width=""540"" height = ""360"">","null","","","","","","","","","",""
"null","","html-keyboard-response","78","184407","0.0-78.0","3YGXWBAF713C77USTWK4WWHNIIEC47","AXKTYKCT9NGHS","3RSBJ6YZECCLSSQQCGKCTHC9OPAFOK","","","null","","","","","","","","","",""
"1234","","image-keyboard-response","79","185641","0.0-79.0","3YGXWBAF713C77USTWK4WWHNIIEC47","AXKTYKCT9NGHS","3RSBJ6YZECCLSSQQCGKCTHC9OPAFOK","","img/set1/S2.jpg","68","2","structured_load","68","structured_load,structured_incentive,random,structured_normal","4,2,1,2,2,3","2,3,4,1","true","","",""
"null","","html-keyboard-response","80","186006","0.0-80.0","3YGXWBAF713C77USTWK4WWHNIIEC47","AXKTYKCT9NGHS","3RSBJ6YZECCLSSQQCGKCTHC9OPAFOK","","<img src=""img/set1/S2.jpg"" width=""540"" height = ""360"" style=""border:16px solid orange"">","null","","","","","","","","","",""
"null","","html-keyboard-response","81","186227","0.0-81.0","3YGXWBAF713C77USTWK4WWHNIIEC47","AXKTYKCT9NGHS","3RSBJ6YZECCLSSQQCGKCTHC9OPAFOK","","","null","","","","","","","","","",""
"718","","image-keyboard-response","82","186947","0.0-82.0","3YGXWBAF713C77USTWK4WWHNIIEC47","AXKTYKCT9NGHS","3RSBJ6YZECCLSSQQCGKCTHC9OPAFOK","","img/set1/S1.jpg","83","1","structured_load","83","structured_load,structured_incentive,random,structured_normal","4,2,1,2,2,3","2,3,4,1","true","","",""
"null","","html-keyboard-response","83","187307","0.0-83.0","3YGXWBAF713C77USTWK4WWHNIIEC47","AXKTYKCT9NGHS","3RSBJ6YZECCLSSQQCGKCTHC9OPAFOK","","<img src=""img/set1/S1.jpg"" width=""540"" height = ""360"" style=""border:16px solid orange"">","null","","","","","","","","","",""
"null","","html-keyboard-response","84","187526","0.0-84.0","3YGXWBAF713C77USTWK4WWHNIIEC47","AXKTYKCT9NGHS","3RSBJ6YZECCLSSQQCGKCTHC9OPAFOK","","","null","","","","","","","","","",""
"619","","image-keyboard-response","85","188146","0.0-85.0","3YGXWBAF713C77USTWK4WWHNIIEC47","AXKTYKCT9NGHS","3RSBJ6YZECCLSSQQCGKCTHC9OPAFOK","","img/set1/S1.jpg","83","1","structured_load","83","structured_load,structured_incentive,random,structured_normal","4,2,1,2,2,3","2,3,4,1","true","","",""
"null","","html-keyboard-response","86","188507","0.0-86.0","3YGXWBAF713C77USTWK4WWHNIIEC47","AXKTYKCT9NGHS","3RSBJ6YZECCLSSQQCGKCTHC9OPAFOK","","<img src=""img/set1/S1.jpg"" width=""540"" height = ""360"" style=""border:16px solid orange"">","null","","","","","","","","","",""
"null","","html-keyboard-response","87","188727","0.0-87.0","3YGXWBAF713C77USTWK4WWHNIIEC47","AXKTYKCT9NGHS","3RSBJ6YZECCLSSQQCGKCTHC9OPAFOK","","","null","","","","","","","","","",""
"579","","image-keyboard-response","88","189307","0.0-88.0","3YGXWBAF713C77USTWK4WWHNIIEC47","AXKTYKCT9NGHS","3RSBJ6YZECCLSSQQCGKCTHC9OPAFOK","","img/set1/S1.jpg","83","1","structured_load","83","structured_load,structured_incentive,random,structured_normal","4,2,1,2,2,3","2,3,4,1","true","","",""
"null","","html-keyboard-response","89","189666","0.0-89.0","3YGXWBAF713C77USTWK4WWHNIIEC47","AXKTYKCT9NGHS","3RSBJ6YZECCLSSQQCGKCTHC9OPAFOK","","<img src=""img/set1/S1.jpg"" width=""540"" height = ""360"" style=""border:16px solid orange"">","null","","","","","","","","","",""
"null","","html-keyboard-response","90","189887","0.0-90.0","3YGXWBAF713C77USTWK4WWHNIIEC47","AXKTYKCT9NGHS","3RSBJ6YZECCLSSQQCGKCTHC9OPAFOK","","","null","","","","","","","","","",""
"548","","image-keyboard-response","91","190435","0.0-91.0","3YGXWBAF713C77USTWK4WWHNIIEC47","AXKTYKCT9NGHS","3RSBJ6YZECCLSSQQCGKCTHC9OPAFOK","","img/set1/S1.jpg","83","1","structured_load","83","structured_load,structured_incentive,random,structured_normal","4,2,1,2,2,3","2,3,4,1","true","","",""
"null","","html-keyboard-response","92","190787","0.0-92.0","3YGXWBAF713C77USTWK4WWHNIIEC47","AXKTYKCT9NGHS","3RSBJ6YZECCLSSQQCGKCTHC9OPAFOK","","<img src=""img/set1/S1.jpg"" width=""540"" height = ""360"" style=""border:16px solid orange"">","null","","","","","","","","","",""
"null","","html-keyboard-response","93","191006","0.0-93.0","3YGXWBAF713C77USTWK4WWHNIIEC47","AXKTYKCT9NGHS","3RSBJ6YZECCLSSQQCGKCTHC9OPAFOK","","","null","","","","","","","","","",""
"532","","image-keyboard-response","94","191539","0.0-94.0","3YGXWBAF713C77USTWK4WWHNIIEC47","AXKTYKCT9NGHS","3RSBJ6YZECCLSSQQCGKCTHC9OPAFOK","","img/set1/S1.jpg","83","1","structured_load","83","structured_load,structured_incentive,random,structured_normal","4,2,1,2,2,3","2,3,4,1","true","","",""
"null","","html-keyboard-response","95","191906","0.0-95.0","3YGXWBAF713C77USTWK4WWHNIIEC47","AXKTYKCT9NGHS","3RSBJ6YZECCLSSQQCGKCTHC9OPAFOK","","<img src=""img/set1/S1.jpg"" width=""540"" height = ""360"" style=""border:16px solid orange"">","null","","","","","","","","","",""
"null","","html-keyboard-response","96","192126","0.0-96.0","3YGXWBAF713C77USTWK4WWHNIIEC47","AXKTYKCT9NGHS","3RSBJ6YZECCLSSQQCGKCTHC9OPAFOK","","","null","","","","","","","","","",""
"1260","","image-keyboard-response","97","193387","0.0-97.0","3YGXWBAF713C77USTWK4WWHNIIEC47","AXKTYKCT9NGHS","3RSBJ6YZECCLSSQQCGKCTHC9OPAFOK","","img/set1/S3.jpg","74","3","structured_load","72","structured_load,structured_incentive,random,structured_normal","4,2,1,2,2,3","2,3,4,1","false","","",""
"null","","html-keyboard-response","98","193747","0.0-98.0","3YGXWBAF713C77USTWK4WWHNIIEC47","AXKTYKCT9NGHS","3RSBJ6YZECCLSSQQCGKCTHC9OPAFOK","","<img src=""img/set1/S3.jpg"" width=""540"" height = ""360"">","null","","","","","","","","","",""
"null","","html-keyboard-response","99","193967","0.0-99.0","3YGXWBAF713C77USTWK4WWHNIIEC47","AXKTYKCT9NGHS","3RSBJ6YZECCLSSQQCGKCTHC9OPAFOK","","","null","","","","","","","","","",""
"755","","image-keyboard-response","100","194724","0.0-100.0","3YGXWBAF713C77USTWK4WWHNIIEC47","AXKTYKCT9NGHS","3RSBJ6YZECCLSSQQCGKCTHC9OPAFOK","","img/set1/S2.jpg","74","2","structured_load","68","structured_load,structured_incentive,random,structured_normal","4,2,1,2,2,3","2,3,4,1","false","","",""
"null","","html-keyboard-response","101","195076","0.0-101.0","3YGXWBAF713C77USTWK4WWHNIIEC47","AXKTYKCT9NGHS","3RSBJ6YZECCLSSQQCGKCTHC9OPAFOK","","<img src=""img/set1/S2.jpg"" width=""540"" height = ""360"">","null","","","","","","","","","",""
"null","","html-keyboard-response","102","195297","0.0-102.0","3YGXWBAF713C77USTWK4WWHNIIEC47","AXKTYKCT9NGHS","3RSBJ6YZECCLSSQQCGKCTHC9OPAFOK","","","null","","","","","","","","","",""
"722","","image-keyboard-response","103","196020","0.0-103.0","3YGXWBAF713C77USTWK4WWHNIIEC47","AXKTYKCT9NGHS","3RSBJ6YZECCLSSQQCGKCTHC9OPAFOK","","img/set1/S1.jpg","83","1","structured_load","83","structured_load,structured_incentive,random,structured_normal","4,2,1,2,2,3","2,3,4,1","true","","",""
"null","","html-keyboard-response","104","196377","0.0-104.0","3YGXWBAF713C77USTWK4WWHNIIEC47","AXKTYKCT9NGHS","3RSBJ6YZECCLSSQQCGKCTHC9OPAFOK","","<img src=""img/set1/S1.jpg"" width=""540"" height = ""360"" style=""border:16px solid orange"">","null","","","","","","","","","",""
"null","","html-keyboard-response","105","196596","0.0-105.0","3YGXWBAF713C77USTWK4WWHNIIEC47","AXKTYKCT9NGHS","3RSBJ6YZECCLSSQQCGKCTHC9OPAFOK","","","null","","","","","","","","","",""
"880","","image-keyboard-response","106","197476","0.0-106.0","3YGXWBAF713C77USTWK4WWHNIIEC47","AXKTYKCT9NGHS","3RSBJ6YZECCLSSQQCGKCTHC9OPAFOK","","img/set1/S3.jpg","74","3","structured_load","72","structured_load,structured_incentive,random,structured_normal","4,2,1,2,2,3","2,3,4,1","false","","",""
"null","","html-keyboard-response","107","197837","0.0-107.0","3YGXWBAF713C77USTWK4WWHNIIEC47","AXKTYKCT9NGHS","3RSBJ6YZECCLSSQQCGKCTHC9OPAFOK","","<img src=""img/set1/S3.jpg"" width=""540"" height = ""360"">","null","","","","","","","","","",""
"null","","html-keyboard-response","108","198056","0.0-108.0","3YGXWBAF713C77USTWK4WWHNIIEC47","AXKTYKCT9NGHS","3RSBJ6YZECCLSSQQCGKCTHC9OPAFOK","","","null","","","","","","","","","",""
"931","","image-keyboard-response","109","198988","0.0-109.0","3YGXWBAF713C77USTWK4WWHNIIEC47","AXKTYKCT9NGHS","3RSBJ6YZECCLSSQQCGKCTHC9OPAFOK","","img/set1/S1.jpg","74","1","structured_load","83","structured_load,structured_incentive,random,structured_normal","4,2,1,2,2,3","2,3,4,1","false","","",""
"null","","html-keyboard-response","110","199357","0.0-110.0","3YGXWBAF713C77USTWK4WWHNIIEC47","AXKTYKCT9NGHS","3RSBJ6YZECCLSSQQCGKCTHC9OPAFOK","","<img src=""img/set1/S1.jpg"" width=""540"" height = ""360"">","null","","","","","","","","","",""
"null","","html-keyboard-response","111","199577","0.0-111.0","3YGXWBAF713C77USTWK4WWHNIIEC47","AXKTYKCT9NGHS","3RSBJ6YZECCLSSQQCGKCTHC9OPAFOK","","","null","","","","","","","","","",""
"659","","image-keyboard-response","112","200237","0.0-112.0","3YGXWBAF713C77USTWK4WWHNIIEC47","AXKTYKCT9NGHS","3RSBJ6YZECCLSSQQCGKCTHC9OPAFOK","","img/set1/S4.jpg","74","4","structured_load","74","structured_load,structured_incentive,random,structured_normal","4,2,1,2,2,3","2,3,4,1","true","","",""
"null","","html-keyboard-response","113","200597","0.0-113.0","3YGXWBAF713C77USTWK4WWHNIIEC47","AXKTYKCT9NGHS","3RSBJ6YZECCLSSQQCGKCTHC9OPAFOK","","<img src=""img/set1/S4.jpg"" width=""540"" height = ""360"" style=""border:16px solid orange"">","null","","","","","","","","","",""
"null","","html-keyboard-response","114","200816","0.0-114.0","3YGXWBAF713C77USTWK4WWHNIIEC47","AXKTYKCT9NGHS","3RSBJ6YZECCLSSQQCGKCTHC9OPAFOK","","","null","","","","","","","","","",""
"731","","image-keyboard-response","115","201549","0.0-115.0","3YGXWBAF713C77USTWK4WWHNIIEC47","AXKTYKCT9NGHS","3RSBJ6YZECCLSSQQCGKCTHC9OPAFOK","","img/set1/S2.jpg","68","2","structured_load","68","structured_load,structured_incentive,random,structured_normal","4,2,1,2,2,3","2,3,4,1","true","","",""
"null","","html-keyboard-response","116","201917","0.0-116.0","3YGXWBAF713C77USTWK4WWHNIIEC47","AXKTYKCT9NGHS","3RSBJ6YZECCLSSQQCGKCTHC9OPAFOK","","<img src=""img/set1/S2.jpg"" width=""540"" height = ""360"" style=""border:16px solid orange"">","null","","","","","","","","","",""
"null","","html-keyboard-response","117","202137","0.0-117.0","3YGXWBAF713C77USTWK4WWHNIIEC47","AXKTYKCT9NGHS","3RSBJ6YZECCLSSQQCGKCTHC9OPAFOK","","","null","","","","","","","","","",""
"771","","image-keyboard-response","118","202909","0.0-118.0","3YGXWBAF713C77USTWK4WWHNIIEC47","AXKTYKCT9NGHS","3RSBJ6YZECCLSSQQCGKCTHC9OPAFOK","","img/set1/S3.jpg","83","3","structured_load","72","structured_load,structured_incentive,random,structured_normal","4,2,1,2,2,3","2,3,4,1","false","","",""
"null","","html-keyboard-response","119","203277","0.0-119.0","3YGXWBAF713C77USTWK4WWHNIIEC47","AXKTYKCT9NGHS","3RSBJ6YZECCLSSQQCGKCTHC9OPAFOK","","<img src=""img/set1/S3.jpg"" width=""540"" height = ""360"">","null","","","","","","","","","",""
"null","","html-keyboard-response","120","203496","0.0-120.0","3YGXWBAF713C77USTWK4WWHNIIEC47","AXKTYKCT9NGHS","3RSBJ6YZECCLSSQQCGKCTHC9OPAFOK","","","null","","","","","","","","","",""
"652","","image-keyboard-response","121","204149","0.0-121.0","3YGXWBAF713C77USTWK4WWHNIIEC47","AXKTYKCT9NGHS","3RSBJ6YZECCLSSQQCGKCTHC9OPAFOK","","img/set1/S4.jpg","74","4","structured_load","74","structured_load,structured_incentive,random,structured_normal","4,2,1,2,2,3","2,3,4,1","true","","",""
"null","","html-keyboard-response","122","204517","0.0-122.0","3YGXWBAF713C77USTWK4WWHNIIEC47","AXKTYKCT9NGHS","3RSBJ6YZECCLSSQQCGKCTHC9OPAFOK","","<img src=""img/set1/S4.jpg"" width=""540"" height = ""360"" style=""border:16px solid orange"">","null","","","","","","","","","",""
"null","","html-keyboard-response","123","204737","0.0-123.0","3YGXWBAF713C77USTWK4WWHNIIEC47","AXKTYKCT9NGHS","3RSBJ6YZECCLSSQQCGKCTHC9OPAFOK","","","null","","","","","","","","","",""
"588","","image-keyboard-response","124","205326","0.0-124.0","3YGXWBAF713C77USTWK4WWHNIIEC47","AXKTYKCT9NGHS","3RSBJ6YZECCLSSQQCGKCTHC9OPAFOK","","img/set1/S2.jpg","68","2","structured_load","68","structured_load,structured_incentive,random,structured_normal","4,2,1,2,2,3","2,3,4,1","true","","",""
"null","","html-keyboard-response","125","205677","0.0-125.0","3YGXWBAF713C77USTWK4WWHNIIEC47","AXKTYKCT9NGHS","3RSBJ6YZECCLSSQQCGKCTHC9OPAFOK","","<img src=""img/set1/S2.jpg"" width=""540"" height = ""360"" style=""border:16px solid orange"">","null","","","","","","","","","",""
"null","","html-keyboard-response","126","205897","0.0-126.0","3YGXWBAF713C77USTWK4WWHNIIEC47","AXKTYKCT9NGHS","3RSBJ6YZECCLSSQQCGKCTHC9OPAFOK","","","null","","","","","","","","","",""
"509","","image-keyboard-response","127","206406","0.0-127.0","3YGXWBAF713C77USTWK4WWHNIIEC47","AXKTYKCT9NGHS","3RSBJ6YZECCLSSQQCGKCTHC9OPAFOK","","img/set1/S4.jpg","68","4","structured_load","74","structured_load,structured_incentive,random,structured_normal","4,2,1,2,2,3","2,3,4,1","false","","",""
"null","","html-keyboard-response","128","206776","0.0-128.0","3YGXWBAF713C77USTWK4WWHNIIEC47","AXKTYKCT9NGHS","3RSBJ6YZECCLSSQQCGKCTHC9OPAFOK","","<img src=""img/set1/S4.jpg"" width=""540"" height = ""360"">","null","","","","","","","","","",""
"null","","html-keyboard-response","129","206996","0.0-129.0","3YGXWBAF713C77USTWK4WWHNIIEC47","AXKTYKCT9NGHS","3RSBJ6YZECCLSSQQCGKCTHC9OPAFOK","","","null","","","","","","","","","",""
"680","","image-keyboard-response","130","207678","0.0-130.0","3YGXWBAF713C77USTWK4WWHNIIEC47","AXKTYKCT9NGHS","3RSBJ6YZECCLSSQQCGKCTHC9OPAFOK","","img/set1/S2.jpg","68","2","structured_load","68","structured_load,structured_incentive,random,structured_normal","4,2,1,2,2,3","2,3,4,1","true","","",""
"null","","html-keyboard-response","131","208036","0.0-131.0","3YGXWBAF713C77USTWK4WWHNIIEC47","AXKTYKCT9NGHS","3RSBJ6YZECCLSSQQCGKCTHC9OPAFOK","","<img src=""img/set1/S2.jpg"" width=""540"" height = ""360"" style=""border:16px solid orange"">","null","","","","","","","","","",""
"null","","html-keyboard-response","132","208237","0.0-132.0","3YGXWBAF713C77USTWK4WWHNIIEC47","AXKTYKCT9NGHS","3RSBJ6YZECCLSSQQCGKCTHC9OPAFOK","","","null","","","","","","","","","",""
"591","","image-keyboard-response","133","208829","0.0-133.0","3YGXWBAF713C77USTWK4WWHNIIEC47","AXKTYKCT9NGHS","3RSBJ6YZECCLSSQQCGKCTHC9OPAFOK","","img/set1/S4.jpg","74","4","structured_load","74","structured_load,structured_incentive,random,structured_normal","4,2,1,2,2,3","2,3,4,1","true","","",""
"null","","html-keyboard-response","134","209187","0.0-134.0","3YGXWBAF713C77USTWK4WWHNIIEC47","AXKTYKCT9NGHS","3RSBJ6YZECCLSSQQCGKCTHC9OPAFOK","","<img src=""img/set1/S4.jpg"" width=""540"" height = ""360"" style=""border:16px solid orange"">","null","","","","","","","","","",""
"null","","html-keyboard-response","135","209406","0.0-135.0","3YGXWBAF713C77USTWK4WWHNIIEC47","AXKTYKCT9NGHS","3RSBJ6YZECCLSSQQCGKCTHC9OPAFOK","","","null","","","","","","","","","",""
"662","","image-keyboard-response","136","210071","0.0-136.0","3YGXWBAF713C77USTWK4WWHNIIEC47","AXKTYKCT9NGHS","3RSBJ6YZECCLSSQQCGKCTHC9OPAFOK","","img/set1/S2.jpg","68","2","structured_load","68","structured_load,structured_incentive,random,structured_normal","4,2,1,2,2,3","2,3,4,1","true","","",""
"null","","html-keyboard-response","137","210427","0.0-137.0","3YGXWBAF713C77USTWK4WWHNIIEC47","AXKTYKCT9NGHS","3RSBJ6YZECCLSSQQCGKCTHC9OPAFOK","","<img src=""img/set1/S2.jpg"" width=""540"" height = ""360"" style=""border:16px solid orange"">","null","","","","","","","","","",""
"null","","html-keyboard-response","138","210646","0.0-138.0","3YGXWBAF713C77USTWK4WWHNIIEC47","AXKTYKCT9NGHS","3RSBJ6YZECCLSSQQCGKCTHC9OPAFOK","","","null","","","","","","","","","",""
"518","","image-keyboard-response","139","211166","0.0-139.0","3YGXWBAF713C77USTWK4WWHNIIEC47","AXKTYKCT9NGHS","3RSBJ6YZECCLSSQQCGKCTHC9OPAFOK","","img/set1/S4.jpg","74","4","structured_load","74","structured_load,structured_incentive,random,structured_normal","4,2,1,2,2,3","2,3,4,1","true","","",""
"null","","html-keyboard-response","140","211526","0.0-140.0","3YGXWBAF713C77USTWK4WWHNIIEC47","AXKTYKCT9NGHS","3RSBJ6YZECCLSSQQCGKCTHC9OPAFOK","","<img src=""img/set1/S4.jpg"" width=""540"" height = ""360"" style=""border:16px solid orange"">","null","","","","","","","","","",""
"null","","html-keyboard-response","141","211747","0.0-141.0","3YGXWBAF713C77USTWK4WWHNIIEC47","AXKTYKCT9NGHS","3RSBJ6YZECCLSSQQCGKCTHC9OPAFOK","","","null","","","","","","","","","",""
"515","","image-keyboard-response","142","212263","0.0-142.0","3YGXWBAF713C77USTWK4WWHNIIEC47","AXKTYKCT9NGHS","3RSBJ6YZECCLSSQQCGKCTHC9OPAFOK","","img/set1/S2.jpg","68","2","structured_load","68","structured_load,structured_incentive,random,structured_normal","4,2,1,2,2,3","2,3,4,1","true","","",""
"null","","html-keyboard-response","143","212626","0.0-143.0","3YGXWBAF713C77USTWK4WWHNIIEC47","AXKTYKCT9NGHS","3RSBJ6YZECCLSSQQCGKCTHC9OPAFOK","","<img src=""img/set1/S2.jpg"" width=""540"" height = ""360"" style=""border:16px solid orange"">","null","","","","","","","","","",""
"null","","html-keyboard-response","144","212846","0.0-144.0","3YGXWBAF713C77USTWK4WWHNIIEC47","AXKTYKCT9NGHS","3RSBJ6YZECCLSSQQCGKCTHC9OPAFOK","","","null","","","","","","","","","",""
"664","","image-keyboard-response","145","213511","0.0-145.0","3YGXWBAF713C77USTWK4WWHNIIEC47","AXKTYKCT9NGHS","3RSBJ6YZECCLSSQQCGKCTHC9OPAFOK","","img/set1/S3.jpg","74","3","structured_load","72","structured_load,structured_incentive,random,structured_normal","4,2,1,2,2,3","2,3,4,1","false","","",""
"null","","html-keyboard-response","146","213866","0.0-146.0","3YGXWBAF713C77USTWK4WWHNIIEC47","AXKTYKCT9NGHS","3RSBJ6YZECCLSSQQCGKCTHC9OPAFOK","","<img src=""img/set1/S3.jpg"" width=""540"" height = ""360"">","null","","","","","","","","","",""
"null","","html-keyboard-response","147","214087","0.0-147.0","3YGXWBAF713C77USTWK4WWHNIIEC47","AXKTYKCT9NGHS","3RSBJ6YZECCLSSQQCGKCTHC9OPAFOK","","","null","","","","","","","","","",""
"704","","image-keyboard-response","148","214791","0.0-148.0","3YGXWBAF713C77USTWK4WWHNIIEC47","AXKTYKCT9NGHS","3RSBJ6YZECCLSSQQCGKCTHC9OPAFOK","","img/set1/S1.jpg","83","1","structured_load","83","structured_load,structured_incentive,random,structured_normal","4,2,1,2,2,3","2,3,4,1","true","","",""
"null","","html-keyboard-response","149","215146","0.0-149.0","3YGXWBAF713C77USTWK4WWHNIIEC47","AXKTYKCT9NGHS","3RSBJ6YZECCLSSQQCGKCTHC9OPAFOK","","<img src=""img/set1/S1.jpg"" width=""540"" height = ""360"" style=""border:16px solid orange"">","null","","","","","","","","","",""
"null","","html-keyboard-response","150","215367","0.0-150.0","3YGXWBAF713C77USTWK4WWHNIIEC47","AXKTYKCT9NGHS","3RSBJ6YZECCLSSQQCGKCTHC9OPAFOK","","","null","","","","","","","","","",""
"703","","image-keyboard-response","151","216071","0.0-151.0","3YGXWBAF713C77USTWK4WWHNIIEC47","AXKTYKCT9NGHS","3RSBJ6YZECCLSSQQCGKCTHC9OPAFOK","","img/set1/S4.jpg","74","4","structured_load","74","structured_load,structured_incentive,random,structured_normal","4,2,1,2,2,3","2,3,4,1","true","","",""
"null","","html-keyboard-response","152","216426","0.0-152.0","3YGXWBAF713C77USTWK4WWHNIIEC47","AXKTYKCT9NGHS","3RSBJ6YZECCLSSQQCGKCTHC9OPAFOK","","<img src=""img/set1/S4.jpg"" width=""540"" height = ""360"" style=""border:16px solid orange"">","null","","","","","","","","","",""
"null","","html-keyboard-response","153","216647","0.0-153.0","3YGXWBAF713C77USTWK4WWHNIIEC47","AXKTYKCT9NGHS","3RSBJ6YZECCLSSQQCGKCTHC9OPAFOK","","","null","","","","","","","","","",""
"592","","image-keyboard-response","154","217239","0.0-154.0","3YGXWBAF713C77USTWK4WWHNIIEC47","AXKTYKCT9NGHS","3RSBJ6YZECCLSSQQCGKCTHC9OPAFOK","","img/set1/S2.jpg","68","2","structured_load","68","structured_load,structured_incentive,random,structured_normal","4,2,1,2,2,3","2,3,4,1","true","","",""
"null","","html-keyboard-response","155","217606","0.0-155.0","3YGXWBAF713C77USTWK4WWHNIIEC47","AXKTYKCT9NGHS","3RSBJ6YZECCLSSQQCGKCTHC9OPAFOK","","<img src=""img/set1/S2.jpg"" width=""540"" height = ""360"" style=""border:16px solid orange"">","null","","","","","","","","","",""
"null","","html-keyboard-response","156","217827","0.0-156.0","3YGXWBAF713C77USTWK4WWHNIIEC47","AXKTYKCT9NGHS","3RSBJ6YZECCLSSQQCGKCTHC9OPAFOK","","","null","","","","","","","","","",""
"628","","image-keyboard-response","157","218456","0.0-157.0","3YGXWBAF713C77USTWK4WWHNIIEC47","AXKTYKCT9NGHS","3RSBJ6YZECCLSSQQCGKCTHC9OPAFOK","","img/set1/S1.jpg","83","1","structured_load","83","structured_load,structured_incentive,random,structured_normal","4,2,1,2,2,3","2,3,4,1","true","","",""
"null","","html-keyboard-response","158","218826","0.0-158.0","3YGXWBAF713C77USTWK4WWHNIIEC47","AXKTYKCT9NGHS","3RSBJ6YZECCLSSQQCGKCTHC9OPAFOK","","<img src=""img/set1/S1.jpg"" width=""540"" height = ""360"" style=""border:16px solid orange"">","null","","","","","","","","","",""
"null","","html-keyboard-response","159","219047","0.0-159.0","3YGXWBAF713C77USTWK4WWHNIIEC47","AXKTYKCT9NGHS","3RSBJ6YZECCLSSQQCGKCTHC9OPAFOK","","","null","","","","","","","","","",""
"617","","image-keyboard-response","160","219664","0.0-160.0","3YGXWBAF713C77USTWK4WWHNIIEC47","AXKTYKCT9NGHS","3RSBJ6YZECCLSSQQCGKCTHC9OPAFOK","","img/set1/S4.jpg","74","4","structured_load","74","structured_load,structured_incentive,random,structured_normal","4,2,1,2,2,3","2,3,4,1","true","","",""
"null","","html-keyboard-response","161","220027","0.0-161.0","3YGXWBAF713C77USTWK4WWHNIIEC47","AXKTYKCT9NGHS","3RSBJ6YZECCLSSQQCGKCTHC9OPAFOK","","<img src=""img/set1/S4.jpg"" width=""540"" height = ""360"" style=""border:16px solid orange"">","null","","","","","","","","","",""
"null","","html-keyboard-response","162","220246","0.0-162.0","3YGXWBAF713C77USTWK4WWHNIIEC47","AXKTYKCT9NGHS","3RSBJ6YZECCLSSQQCGKCTHC9OPAFOK","","","null","","","","","","","","","",""
"768","","image-keyboard-response","163","221015","0.0-163.0","3YGXWBAF713C77USTWK4WWHNIIEC47","AXKTYKCT9NGHS","3RSBJ6YZECCLSSQQCGKCTHC9OPAFOK","","img/set1/S3.jpg","68","3","structured_load","72","structured_load,structured_incentive,random,structured_normal","4,2,1,2,2,3","2,3,4,1","false","","",""
"null","","html-keyboard-response","164","221367","0.0-164.0","3YGXWBAF713C77USTWK4WWHNIIEC47","AXKTYKCT9NGHS","3RSBJ6YZECCLSSQQCGKCTHC9OPAFOK","","<img src=""img/set1/S3.jpg"" width=""540"" height = ""360"">","null","","","","","","","","","",""
"null","","html-keyboard-response","165","221587","0.0-165.0","3YGXWBAF713C77USTWK4WWHNIIEC47","AXKTYKCT9NGHS","3RSBJ6YZECCLSSQQCGKCTHC9OPAFOK","","","null","","","","","","","","","",""
"637","","image-keyboard-response","166","222224","0.0-166.0","3YGXWBAF713C77USTWK4WWHNIIEC47","AXKTYKCT9NGHS","3RSBJ6YZECCLSSQQCGKCTHC9OPAFOK","","img/set1/S3.jpg","83","3","structured_load","72","structured_load,structured_incentive,random,structured_normal","4,2,1,2,2,3","2,3,4,1","false","","",""
"null","","html-keyboard-response","167","222587","0.0-167.0","3YGXWBAF713C77USTWK4WWHNIIEC47","AXKTYKCT9NGHS","3RSBJ6YZECCLSSQQCGKCTHC9OPAFOK","","<img src=""img/set1/S3.jpg"" width=""540"" height = ""360"">","null","","","","","","","","","",""
"null","","html-keyboard-response","168","222807","0.0-168.0","3YGXWBAF713C77USTWK4WWHNIIEC47","AXKTYKCT9NGHS","3RSBJ6YZECCLSSQQCGKCTHC9OPAFOK","","","null","","","","","","","","","",""
"1297","","image-keyboard-response","169","224104","0.0-169.0","3YGXWBAF713C77USTWK4WWHNIIEC47","AXKTYKCT9NGHS","3RSBJ6YZECCLSSQQCGKCTHC9OPAFOK","","img/set1/S3.jpg","74","3","structured_load","72","structured_load,structured_incentive,random,structured_normal","4,2,1,2,2,3","2,3,4,1","false","","",""
"null","","html-keyboard-response","170","224467","0.0-170.0","3YGXWBAF713C77USTWK4WWHNIIEC47","AXKTYKCT9NGHS","3RSBJ6YZECCLSSQQCGKCTHC9OPAFOK","","<img src=""img/set1/S3.jpg"" width=""540"" height = ""360"">","null","","","","","","","","","",""
"null","","html-keyboard-response","171","224686","0.0-171.0","3YGXWBAF713C77USTWK4WWHNIIEC47","AXKTYKCT9NGHS","3RSBJ6YZECCLSSQQCGKCTHC9OPAFOK","","","null","","","","","","","","","",""
"697","","image-keyboard-response","172","225385","0.0-172.0","3YGXWBAF713C77USTWK4WWHNIIEC47","AXKTYKCT9NGHS","3RSBJ6YZECCLSSQQCGKCTHC9OPAFOK","","img/set1/S1.jpg","83","1","structured_load","83","structured_load,structured_incentive,random,structured_normal","4,2,1,2,2,3","2,3,4,1","true","","",""
"null","","html-keyboard-response","173","225742","0.0-173.0","3YGXWBAF713C77USTWK4WWHNIIEC47","AXKTYKCT9NGHS","3RSBJ6YZECCLSSQQCGKCTHC9OPAFOK","","<img src=""img/set1/S1.jpg"" width=""540"" height = ""360"" style=""border:16px solid orange"">","null","","","","","","","","","",""
"null","","html-keyboard-response","174","225966","0.0-174.0","3YGXWBAF713C77USTWK4WWHNIIEC47","AXKTYKCT9NGHS","3RSBJ6YZECCLSSQQCGKCTHC9OPAFOK","","","null","","","","","","","","","",""
"753","","image-keyboard-response","175","226722","0.0-175.0","3YGXWBAF713C77USTWK4WWHNIIEC47","AXKTYKCT9NGHS","3RSBJ6YZECCLSSQQCGKCTHC9OPAFOK","","img/set1/S3.jpg","74","3","structured_load","72","structured_load,structured_incentive,random,structured_normal","4,2,1,2,2,3","2,3,4,1","false","","",""
"null","","html-keyboard-response","176","227086","0.0-176.0","3YGXWBAF713C77USTWK4WWHNIIEC47","AXKTYKCT9NGHS","3RSBJ6YZECCLSSQQCGKCTHC9OPAFOK","","<img src=""img/set1/S3.jpg"" width=""540"" height = ""360"">","null","","","","","","","","","",""
"null","","html-keyboard-response","177","227306","0.0-177.0","3YGXWBAF713C77USTWK4WWHNIIEC47","AXKTYKCT9NGHS","3RSBJ6YZECCLSSQQCGKCTHC9OPAFOK","","","null","","","","","","","","","",""
"686","","image-keyboard-response","178","227993","0.0-178.0","3YGXWBAF713C77USTWK4WWHNIIEC47","AXKTYKCT9NGHS","3RSBJ6YZECCLSSQQCGKCTHC9OPAFOK","","img/set1/S1.jpg","83","1","structured_load","83","structured_load,structured_incentive,random,structured_normal","4,2,1,2,2,3","2,3,4,1","true","","",""
"null","","html-keyboard-response","179","228367","0.0-179.0","3YGXWBAF713C77USTWK4WWHNIIEC47","AXKTYKCT9NGHS","3RSBJ6YZECCLSSQQCGKCTHC9OPAFOK","","<img src=""img/set1/S1.jpg"" width=""540"" height = ""360"" style=""border:16px solid orange"">","null","","","","","","","","","",""
"null","","html-keyboard-response","180","228586","0.0-180.0","3YGXWBAF713C77USTWK4WWHNIIEC47","AXKTYKCT9NGHS","3RSBJ6YZECCLSSQQCGKCTHC9OPAFOK","","","null","","","","","","","","","",""
"559","","image-keyboard-response","181","229146","0.0-181.0","3YGXWBAF713C77USTWK4WWHNIIEC47","AXKTYKCT9NGHS","3RSBJ6YZECCLSSQQCGKCTHC9OPAFOK","","img/set1/S1.jpg","83","1","structured_load","83","structured_load,structured_incentive,random,structured_normal","4,2,1,2,2,3","2,3,4,1","true","","",""
"null","","html-keyboard-response","182","229506","0.0-182.0","3YGXWBAF713C77USTWK4WWHNIIEC47","AXKTYKCT9NGHS","3RSBJ6YZECCLSSQQCGKCTHC9OPAFOK","","<img src=""img/set1/S1.jpg"" width=""540"" height = ""360"" style=""border:16px solid orange"">","null","","","","","","","","","",""
"null","","html-keyboard-response","183","229727","0.0-183.0","3YGXWBAF713C77USTWK4WWHNIIEC47","AXKTYKCT9NGHS","3RSBJ6YZECCLSSQQCGKCTHC9OPAFOK","","","null","","","","","","","","","",""
"714","","image-keyboard-response","184","230442","0.0-184.0","3YGXWBAF713C77USTWK4WWHNIIEC47","AXKTYKCT9NGHS","3RSBJ6YZECCLSSQQCGKCTHC9OPAFOK","","img/set1/S3.jpg","74","3","structured_load","72","structured_load,structured_incentive,random,structured_normal","4,2,1,2,2,3","2,3,4,1","false","","",""
"null","","html-keyboard-response","185","230796","0.0-185.0","3YGXWBAF713C77USTWK4WWHNIIEC47","AXKTYKCT9NGHS","3RSBJ6YZECCLSSQQCGKCTHC9OPAFOK","","<img src=""img/set1/S3.jpg"" width=""540"" height = ""360"">","null","","","","","","","","","",""
"null","","html-keyboard-response","186","231016","0.0-186.0","3YGXWBAF713C77USTWK4WWHNIIEC47","AXKTYKCT9NGHS","3RSBJ6YZECCLSSQQCGKCTHC9OPAFOK","","","null","","","","","","","","","",""
"673","","image-keyboard-response","187","231690","0.0-187.0","3YGXWBAF713C77USTWK4WWHNIIEC47","AXKTYKCT9NGHS","3RSBJ6YZECCLSSQQCGKCTHC9OPAFOK","","img/set1/S4.jpg","74","4","structured_load","74","structured_load,structured_incentive,random,structured_normal","4,2,1,2,2,3","2,3,4,1","true","","",""
"null","","html-keyboard-response","188","232057","0.0-188.0","3YGXWBAF713C77USTWK4WWHNIIEC47","AXKTYKCT9NGHS","3RSBJ6YZECCLSSQQCGKCTHC9OPAFOK","","<img src=""img/set1/S4.jpg"" width=""540"" height = ""360"" style=""border:16px solid orange"">","null","","","","","","","","","",""
"null","","html-keyboard-response","189","232276","0.0-189.0","3YGXWBAF713C77USTWK4WWHNIIEC47","AXKTYKCT9NGHS","3RSBJ6YZECCLSSQQCGKCTHC9OPAFOK","","","null","","","","","","","","","",""
"1246","","image-keyboard-response","190","233523","0.0-190.0","3YGXWBAF713C77USTWK4WWHNIIEC47","AXKTYKCT9NGHS","3RSBJ6YZECCLSSQQCGKCTHC9OPAFOK","","img/set1/S3.jpg","74","3","structured_load","72","structured_load,structured_incentive,random,structured_normal","4,2,1,2,2,3","2,3,4,1","false","","",""
"null","","html-keyboard-response","191","233877","0.0-191.0","3YGXWBAF713C77USTWK4WWHNIIEC47","AXKTYKCT9NGHS","3RSBJ6YZECCLSSQQCGKCTHC9OPAFOK","","<img src=""img/set1/S3.jpg"" width=""540"" height = ""360"">","null","","","","","","","","","",""
"null","","html-keyboard-response","192","234096","0.0-192.0","3YGXWBAF713C77USTWK4WWHNIIEC47","AXKTYKCT9NGHS","3RSBJ6YZECCLSSQQCGKCTHC9OPAFOK","","","null","","","","","","","","","",""
"570","","image-keyboard-response","193","234666","0.0-193.0","3YGXWBAF713C77USTWK4WWHNIIEC47","AXKTYKCT9NGHS","3RSBJ6YZECCLSSQQCGKCTHC9OPAFOK","","img/set1/S3.jpg","83","3","structured_load","72","structured_load,structured_incentive,random,structured_normal","4,2,1,2,2,3","2,3,4,1","false","","",""
"null","","html-keyboard-response","194","235037","0.0-194.0","3YGXWBAF713C77USTWK4WWHNIIEC47","AXKTYKCT9NGHS","3RSBJ6YZECCLSSQQCGKCTHC9OPAFOK","","<img src=""img/set1/S3.jpg"" width=""540"" height = ""360"">","null","","","","","","","","","",""
"null","","html-keyboard-response","195","235256","0.0-195.0","3YGXWBAF713C77USTWK4WWHNIIEC47","AXKTYKCT9NGHS","3RSBJ6YZECCLSSQQCGKCTHC9OPAFOK","","","null","","","","","","","","","",""
"674","","image-keyboard-response","196","235931","0.0-196.0","3YGXWBAF713C77USTWK4WWHNIIEC47","AXKTYKCT9NGHS","3RSBJ6YZECCLSSQQCGKCTHC9OPAFOK","","img/set1/S4.jpg","74","4","structured_load","74","structured_load,structured_incentive,random,structured_normal","4,2,1,2,2,3","2,3,4,1","true","","",""
"null","","html-keyboard-response","197","236297","0.0-197.0","3YGXWBAF713C77USTWK4WWHNIIEC47","AXKTYKCT9NGHS","3RSBJ6YZECCLSSQQCGKCTHC9OPAFOK","","<img src=""img/set1/S4.jpg"" width=""540"" height = ""360"" style=""border:16px solid orange"">","null","","","","","","","","","",""
"null","","html-keyboard-response","198","236517","0.0-198.0","3YGXWBAF713C77USTWK4WWHNIIEC47","AXKTYKCT9NGHS","3RSBJ6YZECCLSSQQCGKCTHC9OPAFOK","","","null","","","","","","","","","",""
"814","","image-keyboard-response","199","237332","0.0-199.0","3YGXWBAF713C77USTWK4WWHNIIEC47","AXKTYKCT9NGHS","3RSBJ6YZECCLSSQQCGKCTHC9OPAFOK","","img/set1/S2.jpg","68","2","structured_load","68","structured_load,structured_incentive,random,structured_normal","4,2,1,2,2,3","2,3,4,1","true","","",""
"null","","html-keyboard-response","200","237696","0.0-200.0","3YGXWBAF713C77USTWK4WWHNIIEC47","AXKTYKCT9NGHS","3RSBJ6YZECCLSSQQCGKCTHC9OPAFOK","","<img src=""img/set1/S2.jpg"" width=""540"" height = ""360"" style=""border:16px solid orange"">","null","","","","","","","","","",""
"null","","html-keyboard-response","201","237917","0.0-201.0","3YGXWBAF713C77USTWK4WWHNIIEC47","AXKTYKCT9NGHS","3RSBJ6YZECCLSSQQCGKCTHC9OPAFOK","","","null","","","","","","","","","",""
"670","","image-keyboard-response","202","238588","0.0-202.0","3YGXWBAF713C77USTWK4WWHNIIEC47","AXKTYKCT9NGHS","3RSBJ6YZECCLSSQQCGKCTHC9OPAFOK","","img/set1/S4.jpg","74","4","structured_load","74","structured_load,structured_incentive,random,structured_normal","4,2,1,2,2,3","2,3,4,1","true","","",""
"null","","html-keyboard-response","203","238947","0.0-203.0","3YGXWBAF713C77USTWK4WWHNIIEC47","AXKTYKCT9NGHS","3RSBJ6YZECCLSSQQCGKCTHC9OPAFOK","","<img src=""img/set1/S4.jpg"" width=""540"" height = ""360"" style=""border:16px solid orange"">","null","","","","","","","","","",""
"null","","html-keyboard-response","204","239167","0.0-204.0","3YGXWBAF713C77USTWK4WWHNIIEC47","AXKTYKCT9NGHS","3RSBJ6YZECCLSSQQCGKCTHC9OPAFOK","","","null","","","","","","","","","",""
"780","","image-keyboard-response","205","239949","0.0-205.0","3YGXWBAF713C77USTWK4WWHNIIEC47","AXKTYKCT9NGHS","3RSBJ6YZECCLSSQQCGKCTHC9OPAFOK","","img/set1/S2.jpg","68","2","structured_load","68","structured_load,structured_incentive,random,structured_normal","4,2,1,2,2,3","2,3,4,1","true","","",""
"null","","html-keyboard-response","206","240307","0.0-206.0","3YGXWBAF713C77USTWK4WWHNIIEC47","AXKTYKCT9NGHS","3RSBJ6YZECCLSSQQCGKCTHC9OPAFOK","","<img src=""img/set1/S2.jpg"" width=""540"" height = ""360"" style=""border:16px solid orange"">","null","","","","","","","","","",""
"null","","html-keyboard-response","207","240527","0.0-207.0","3YGXWBAF713C77USTWK4WWHNIIEC47","AXKTYKCT9NGHS","3RSBJ6YZECCLSSQQCGKCTHC9OPAFOK","","","null","","","","","","","","","",""
"564","","image-keyboard-response","208","241092","0.0-208.0","3YGXWBAF713C77USTWK4WWHNIIEC47","AXKTYKCT9NGHS","3RSBJ6YZECCLSSQQCGKCTHC9OPAFOK","","img/set1/S3.jpg","74","3","structured_load","72","structured_load,structured_incentive,random,structured_normal","4,2,1,2,2,3","2,3,4,1","false","","",""
"null","","html-keyboard-response","209","241446","0.0-209.0","3YGXWBAF713C77USTWK4WWHNIIEC47","AXKTYKCT9NGHS","3RSBJ6YZECCLSSQQCGKCTHC9OPAFOK","","<img src=""img/set1/S3.jpg"" width=""540"" height = ""360"">","null","","","","","","","","","",""
"null","","html-keyboard-response","210","241667","0.0-210.0","3YGXWBAF713C77USTWK4WWHNIIEC47","AXKTYKCT9NGHS","3RSBJ6YZECCLSSQQCGKCTHC9OPAFOK","","","null","","","","","","","","","",""
"704","","image-keyboard-response","211","242372","0.0-211.0","3YGXWBAF713C77USTWK4WWHNIIEC47","AXKTYKCT9NGHS","3RSBJ6YZECCLSSQQCGKCTHC9OPAFOK","","img/set1/S4.jpg","74","4","structured_load","74","structured_load,structured_incentive,random,structured_normal","4,2,1,2,2,3","2,3,4,1","true","","",""
"null","","html-keyboard-response","212","242727","0.0-212.0","3YGXWBAF713C77USTWK4WWHNIIEC47","AXKTYKCT9NGHS","3RSBJ6YZECCLSSQQCGKCTHC9OPAFOK","","<img src=""img/set1/S4.jpg"" width=""540"" height = ""360"" style=""border:16px solid orange"">","null","","","","","","","","","",""
"null","","html-keyboard-response","213","242947","0.0-213.0","3YGXWBAF713C77USTWK4WWHNIIEC47","AXKTYKCT9NGHS","3RSBJ6YZECCLSSQQCGKCTHC9OPAFOK","","","null","","","","","","","","","",""
"592","","image-keyboard-response","214","243540","0.0-214.0","3YGXWBAF713C77USTWK4WWHNIIEC47","AXKTYKCT9NGHS","3RSBJ6YZECCLSSQQCGKCTHC9OPAFOK","","img/set1/S2.jpg","68","2","structured_load","68","structured_load,structured_incentive,random,structured_normal","4,2,1,2,2,3","2,3,4,1","true","","",""
"null","","html-keyboard-response","215","243906","0.0-215.0","3YGXWBAF713C77USTWK4WWHNIIEC47","AXKTYKCT9NGHS","3RSBJ6YZECCLSSQQCGKCTHC9OPAFOK","","<img src=""img/set1/S2.jpg"" width=""540"" height = ""360"" style=""border:16px solid orange"">","null","","","","","","","","","",""
"null","","html-keyboard-response","216","244127","0.0-216.0","3YGXWBAF713C77USTWK4WWHNIIEC47","AXKTYKCT9NGHS","3RSBJ6YZECCLSSQQCGKCTHC9OPAFOK","","","null","","","","","","","","","",""
"693","","image-keyboard-response","217","244821","0.0-217.0","3YGXWBAF713C77USTWK4WWHNIIEC47","AXKTYKCT9NGHS","3RSBJ6YZECCLSSQQCGKCTHC9OPAFOK","","img/set1/S4.jpg","74","4","structured_load","74","structured_load,structured_incentive,random,structured_normal","4,2,1,2,2,3","2,3,4,1","true","","",""
"null","","html-keyboard-response","218","245186","0.0-218.0","3YGXWBAF713C77USTWK4WWHNIIEC47","AXKTYKCT9NGHS","3RSBJ6YZECCLSSQQCGKCTHC9OPAFOK","","<img src=""img/set1/S4.jpg"" width=""540"" height = ""360"" style=""border:16px solid orange"">","null","","","","","","","","","",""
"null","","html-keyboard-response","219","245407","0.0-219.0","3YGXWBAF713C77USTWK4WWHNIIEC47","AXKTYKCT9NGHS","3RSBJ6YZECCLSSQQCGKCTHC9OPAFOK","","","null","","","","","","","","","",""
"557","","image-keyboard-response","220","245964","0.0-220.0","3YGXWBAF713C77USTWK4WWHNIIEC47","AXKTYKCT9NGHS","3RSBJ6YZECCLSSQQCGKCTHC9OPAFOK","","img/set1/S2.jpg","68","2","structured_load","68","structured_load,structured_incentive,random,structured_normal","4,2,1,2,2,3","2,3,4,1","true","","",""
"null","","html-keyboard-response","221","246327","0.0-221.0","3YGXWBAF713C77USTWK4WWHNIIEC47","AXKTYKCT9NGHS","3RSBJ6YZECCLSSQQCGKCTHC9OPAFOK","","<img src=""img/set1/S2.jpg"" width=""540"" height = ""360"" style=""border:16px solid orange"">","null","","","","","","","","","",""
"null","","html-keyboard-response","222","246547","0.0-222.0","3YGXWBAF713C77USTWK4WWHNIIEC47","AXKTYKCT9NGHS","3RSBJ6YZECCLSSQQCGKCTHC9OPAFOK","","","null","","","","","","","","","",""
"658","","image-keyboard-response","223","247205","0.0-223.0","3YGXWBAF713C77USTWK4WWHNIIEC47","AXKTYKCT9NGHS","3RSBJ6YZECCLSSQQCGKCTHC9OPAFOK","","img/set1/S1.jpg","83","1","structured_load","83","structured_load,structured_incentive,random,structured_normal","4,2,1,2,2,3","2,3,4,1","true","","",""
"null","","html-keyboard-response","224","247566","0.0-224.0","3YGXWBAF713C77USTWK4WWHNIIEC47","AXKTYKCT9NGHS","3RSBJ6YZECCLSSQQCGKCTHC9OPAFOK","","<img src=""img/set1/S1.jpg"" width=""540"" height = ""360"" style=""border:16px solid orange"">","null","","","","","","","","","",""
"null","","html-keyboard-response","225","247786","0.0-225.0","3YGXWBAF713C77USTWK4WWHNIIEC47","AXKTYKCT9NGHS","3RSBJ6YZECCLSSQQCGKCTHC9OPAFOK","","","null","","","","","","","","","",""
"641","","image-keyboard-response","226","248429","0.0-226.0","3YGXWBAF713C77USTWK4WWHNIIEC47","AXKTYKCT9NGHS","3RSBJ6YZECCLSSQQCGKCTHC9OPAFOK","","img/set1/S2.jpg","83","2","structured_load","68","structured_load,structured_incentive,random,structured_normal","4,2,1,2,2,3","2,3,4,1","false","","",""
"null","","html-keyboard-response","227","248787","0.0-227.0","3YGXWBAF713C77USTWK4WWHNIIEC47","AXKTYKCT9NGHS","3RSBJ6YZECCLSSQQCGKCTHC9OPAFOK","","<img src=""img/set1/S2.jpg"" width=""540"" height = ""360"">","null","","","","","","","","","",""
"null","","html-keyboard-response","228","249006","0.0-228.0","3YGXWBAF713C77USTWK4WWHNIIEC47","AXKTYKCT9NGHS","3RSBJ6YZECCLSSQQCGKCTHC9OPAFOK","","","null","","","","","","","","","",""
"638","","image-keyboard-response","229","249646","0.0-229.0","3YGXWBAF713C77USTWK4WWHNIIEC47","AXKTYKCT9NGHS","3RSBJ6YZECCLSSQQCGKCTHC9OPAFOK","","img/set1/S1.jpg","83","1","structured_load","83","structured_load,structured_incentive,random,structured_normal","4,2,1,2,2,3","2,3,4,1","true","","",""
"null","","html-keyboard-response","230","250007","0.0-230.0","3YGXWBAF713C77USTWK4WWHNIIEC47","AXKTYKCT9NGHS","3RSBJ6YZECCLSSQQCGKCTHC9OPAFOK","","<img src=""img/set1/S1.jpg"" width=""540"" height = ""360"" style=""border:16px solid orange"">","null","","","","","","","","","",""
"null","","html-keyboard-response","231","250226","0.0-231.0","3YGXWBAF713C77USTWK4WWHNIIEC47","AXKTYKCT9NGHS","3RSBJ6YZECCLSSQQCGKCTHC9OPAFOK","","","null","","","","","","","","","",""
"625","","image-keyboard-response","232","250854","0.0-232.0","3YGXWBAF713C77USTWK4WWHNIIEC47","AXKTYKCT9NGHS","3RSBJ6YZECCLSSQQCGKCTHC9OPAFOK","","img/set1/S4.jpg","74","4","structured_load","74","structured_load,structured_incentive,random,structured_normal","4,2,1,2,2,3","2,3,4,1","true","","",""
"null","","html-keyboard-response","233","251216","0.0-233.0","3YGXWBAF713C77USTWK4WWHNIIEC47","AXKTYKCT9NGHS","3RSBJ6YZECCLSSQQCGKCTHC9OPAFOK","","<img src=""img/set1/S4.jpg"" width=""540"" height = ""360"" style=""border:16px solid orange"">","null","","","","","","","","","",""
"null","","html-keyboard-response","234","251437","0.0-234.0","3YGXWBAF713C77USTWK4WWHNIIEC47","AXKTYKCT9NGHS","3RSBJ6YZECCLSSQQCGKCTHC9OPAFOK","","","null","","","","","","","","","",""
"600","","image-keyboard-response","235","252038","0.0-235.0","3YGXWBAF713C77USTWK4WWHNIIEC47","AXKTYKCT9NGHS","3RSBJ6YZECCLSSQQCGKCTHC9OPAFOK","","img/set1/S2.jpg","68","2","structured_load","68","structured_load,structured_incentive,random,structured_normal","4,2,1,2,2,3","2,3,4,1","true","","",""
"null","","html-keyboard-response","236","252397","0.0-236.0","3YGXWBAF713C77USTWK4WWHNIIEC47","AXKTYKCT9NGHS","3RSBJ6YZECCLSSQQCGKCTHC9OPAFOK","","<img src=""img/set1/S2.jpg"" width=""540"" height = ""360"" style=""border:16px solid orange"">","null","","","","","","","","","",""
"null","","html-keyboard-response","237","252616","0.0-237.0","3YGXWBAF713C77USTWK4WWHNIIEC47","AXKTYKCT9NGHS","3RSBJ6YZECCLSSQQCGKCTHC9OPAFOK","","","null","","","","","","","","","",""
"548","","image-keyboard-response","238","253166","0.0-238.0","3YGXWBAF713C77USTWK4WWHNIIEC47","AXKTYKCT9NGHS","3RSBJ6YZECCLSSQQCGKCTHC9OPAFOK","","img/set1/S4.jpg","74","4","structured_load","74","structured_load,structured_incentive,random,structured_normal","4,2,1,2,2,3","2,3,4,1","true","","",""
"null","","html-keyboard-response","239","253537","0.0-239.0","3YGXWBAF713C77USTWK4WWHNIIEC47","AXKTYKCT9NGHS","3RSBJ6YZECCLSSQQCGKCTHC9OPAFOK","","<img src=""img/set1/S4.jpg"" width=""540"" height = ""360"" style=""border:16px solid orange"">","null","","","","","","","","","",""
"null","","html-keyboard-response","240","253756","0.0-240.0","3YGXWBAF713C77USTWK4WWHNIIEC47","AXKTYKCT9NGHS","3RSBJ6YZECCLSSQQCGKCTHC9OPAFOK","","","null","","","","","","","","","",""
"1770","","image-keyboard-response","241","255526","0.0-241.0","3YGXWBAF713C77USTWK4WWHNIIEC47","AXKTYKCT9NGHS","3RSBJ6YZECCLSSQQCGKCTHC9OPAFOK","","img/set1/S3.jpg","74","3","structured_load","72","structured_load,structured_incentive,random,structured_normal","4,2,1,2,2,3","2,3,4,1","false","","",""
"null","","html-keyboard-response","242","255896","0.0-242.0","3YGXWBAF713C77USTWK4WWHNIIEC47","AXKTYKCT9NGHS","3RSBJ6YZECCLSSQQCGKCTHC9OPAFOK","","<img src=""img/set1/S3.jpg"" width=""540"" height = ""360"">","null","","","","","","","","","",""
"null","","html-keyboard-response","243","256117","0.0-243.0","3YGXWBAF713C77USTWK4WWHNIIEC47","AXKTYKCT9NGHS","3RSBJ6YZECCLSSQQCGKCTHC9OPAFOK","","","null","","","","","","","","","",""
"617","","image-keyboard-response","244","256735","0.0-244.0","3YGXWBAF713C77USTWK4WWHNIIEC47","AXKTYKCT9NGHS","3RSBJ6YZECCLSSQQCGKCTHC9OPAFOK","","img/set1/S3.jpg","74","3","structured_load","72","structured_load,structured_incentive,random,structured_normal","4,2,1,2,2,3","2,3,4,1","false","","",""
"null","","html-keyboard-response","245","257096","0.0-245.0","3YGXWBAF713C77USTWK4WWHNIIEC47","AXKTYKCT9NGHS","3RSBJ6YZECCLSSQQCGKCTHC9OPAFOK","","<img src=""img/set1/S3.jpg"" width=""540"" height = ""360"">","null","","","","","","","","","",""
"null","","html-keyboard-response","246","257317","0.0-246.0","3YGXWBAF713C77USTWK4WWHNIIEC47","AXKTYKCT9NGHS","3RSBJ6YZECCLSSQQCGKCTHC9OPAFOK","","","null","","","","","","","","","",""
"769","","image-keyboard-response","247","258087","0.0-247.0","3YGXWBAF713C77USTWK4WWHNIIEC47","AXKTYKCT9NGHS","3RSBJ6YZECCLSSQQCGKCTHC9OPAFOK","","img/set1/S4.jpg","74","4","structured_load","74","structured_load,structured_incentive,random,structured_normal","4,2,1,2,2,3","2,3,4,1","true","","",""
"null","","html-keyboard-response","248","258456","0.0-248.0","3YGXWBAF713C77USTWK4WWHNIIEC47","AXKTYKCT9NGHS","3RSBJ6YZECCLSSQQCGKCTHC9OPAFOK","","<img src=""img/set1/S4.jpg"" width=""540"" height = ""360"" style=""border:16px solid orange"">","null","","","","","","","","","",""
"null","","html-keyboard-response","249","258677","0.0-249.0","3YGXWBAF713C77USTWK4WWHNIIEC47","AXKTYKCT9NGHS","3RSBJ6YZECCLSSQQCGKCTHC9OPAFOK","","","null","","","","","","","","","",""
"610","","image-keyboard-response","250","259287","0.0-250.0","3YGXWBAF713C77USTWK4WWHNIIEC47","AXKTYKCT9NGHS","3RSBJ6YZECCLSSQQCGKCTHC9OPAFOK","","img/set1/S2.jpg","68","2","structured_load","68","structured_load,structured_incentive,random,structured_normal","4,2,1,2,2,3","2,3,4,1","true","","",""
"null","","html-keyboard-response","251","259657","0.0-251.0","3YGXWBAF713C77USTWK4WWHNIIEC47","AXKTYKCT9NGHS","3RSBJ6YZECCLSSQQCGKCTHC9OPAFOK","","<img src=""img/set1/S2.jpg"" width=""540"" height = ""360"" style=""border:16px solid orange"">","null","","","","","","","","","",""
"null","","html-keyboard-response","252","259877","0.0-252.0","3YGXWBAF713C77USTWK4WWHNIIEC47","AXKTYKCT9NGHS","3RSBJ6YZECCLSSQQCGKCTHC9OPAFOK","","","null","","","","","","","","","",""
"642","","image-keyboard-response","253","260519","0.0-253.0","3YGXWBAF713C77USTWK4WWHNIIEC47","AXKTYKCT9NGHS","3RSBJ6YZECCLSSQQCGKCTHC9OPAFOK","","img/set1/S4.jpg","74","4","structured_load","74","structured_load,structured_incentive,random,structured_normal","4,2,1,2,2,3","2,3,4,1","true","","",""
"null","","html-keyboard-response","254","260877","0.0-254.0","3YGXWBAF713C77USTWK4WWHNIIEC47","AXKTYKCT9NGHS","3RSBJ6YZECCLSSQQCGKCTHC9OPAFOK","","<img src=""img/set1/S4.jpg"" width=""540"" height = ""360"" style=""border:16px solid orange"">","null","","","","","","","","","",""
"null","","html-keyboard-response","255","261096","0.0-255.0","3YGXWBAF713C77USTWK4WWHNIIEC47","AXKTYKCT9NGHS","3RSBJ6YZECCLSSQQCGKCTHC9OPAFOK","","","null","","","","","","","","","",""
"526","","image-keyboard-response","256","261623","0.0-256.0","3YGXWBAF713C77USTWK4WWHNIIEC47","AXKTYKCT9NGHS","3RSBJ6YZECCLSSQQCGKCTHC9OPAFOK","","img/set1/S2.jpg","83","2","structured_load","68","structured_load,structured_incentive,random,structured_normal","4,2,1,2,2,3","2,3,4,1","false","","",""
"null","","html-keyboard-response","257","261976","0.0-257.0","3YGXWBAF713C77USTWK4WWHNIIEC47","AXKTYKCT9NGHS","3RSBJ6YZECCLSSQQCGKCTHC9OPAFOK","","<img src=""img/set1/S2.jpg"" width=""540"" height = ""360"">","null","","","","","","","","","",""
"null","","html-keyboard-response","258","262197","0.0-258.0","3YGXWBAF713C77USTWK4WWHNIIEC47","AXKTYKCT9NGHS","3RSBJ6YZECCLSSQQCGKCTHC9OPAFOK","","","null","","","","","","","","","",""
"801","","image-keyboard-response","259","263000","0.0-259.0","3YGXWBAF713C77USTWK4WWHNIIEC47","AXKTYKCT9NGHS","3RSBJ6YZECCLSSQQCGKCTHC9OPAFOK","","img/set1/S3.jpg","68","3","structured_load","72","structured_load,structured_incentive,random,structured_normal","4,2,1,2,2,3","2,3,4,1","false","","",""
"null","","html-keyboard-response","260","263356","0.0-260.0","3YGXWBAF713C77USTWK4WWHNIIEC47","AXKTYKCT9NGHS","3RSBJ6YZECCLSSQQCGKCTHC9OPAFOK","","<img src=""img/set1/S3.jpg"" width=""540"" height = ""360"">","null","","","","","","","","","",""
"null","","html-keyboard-response","261","263577","0.0-261.0","3YGXWBAF713C77USTWK4WWHNIIEC47","AXKTYKCT9NGHS","3RSBJ6YZECCLSSQQCGKCTHC9OPAFOK","","","null","","","","","","","","","",""
"7","","image-keyboard-response","262","263584","0.0-262.0","3YGXWBAF713C77USTWK4WWHNIIEC47","AXKTYKCT9NGHS","3RSBJ6YZECCLSSQQCGKCTHC9OPAFOK","","img/set1/S3.jpg","83","3","structured_load","72","structured_load,structured_incentive,random,structured_normal","4,2,1,2,2,3","2,3,4,1","false","","",""
"null","","html-keyboard-response","263","263936","0.0-263.0","3YGXWBAF713C77USTWK4WWHNIIEC47","AXKTYKCT9NGHS","3RSBJ6YZECCLSSQQCGKCTHC9OPAFOK","","<img src=""img/set1/S3.jpg"" width=""540"" height = ""360"">","null","","","","","","","","","",""
"null","","html-keyboard-response","264","264157","0.0-264.0","3YGXWBAF713C77USTWK4WWHNIIEC47","AXKTYKCT9NGHS","3RSBJ6YZECCLSSQQCGKCTHC9OPAFOK","","","null","","","","","","","","","",""
"26","","image-keyboard-response","265","264184","0.0-265.0","3YGXWBAF713C77USTWK4WWHNIIEC47","AXKTYKCT9NGHS","3RSBJ6YZECCLSSQQCGKCTHC9OPAFOK","","img/set1/S1.jpg","83","1","structured_load","83","structured_load,structured_incentive,random,structured_normal","4,2,1,2,2,3","2,3,4,1","true","","",""
"null","","html-keyboard-response","266","264536","0.0-266.0","3YGXWBAF713C77USTWK4WWHNIIEC47","AXKTYKCT9NGHS","3RSBJ6YZECCLSSQQCGKCTHC9OPAFOK","","<img src=""img/set1/S1.jpg"" width=""540"" height = ""360"" style=""border:16px solid orange"">","null","","","","","","","","","",""
"null","","html-keyboard-response","267","264757","0.0-267.0","3YGXWBAF713C77USTWK4WWHNIIEC47","AXKTYKCT9NGHS","3RSBJ6YZECCLSSQQCGKCTHC9OPAFOK","","","null","","","","","","","","","",""
"659","","image-keyboard-response","268","265416","0.0-268.0","3YGXWBAF713C77USTWK4WWHNIIEC47","AXKTYKCT9NGHS","3RSBJ6YZECCLSSQQCGKCTHC9OPAFOK","","img/set1/S4.jpg","74","4","structured_load","74","structured_load,structured_incentive,random,structured_normal","4,2,1,2,2,3","2,3,4,1","true","","",""
"null","","html-keyboard-response","269","265777","0.0-269.0","3YGXWBAF713C77USTWK4WWHNIIEC47","AXKTYKCT9NGHS","3RSBJ6YZECCLSSQQCGKCTHC9OPAFOK","","<img src=""img/set1/S4.jpg"" width=""540"" height = ""360"" style=""border:16px solid orange"">","null","","","","","","","","","",""
"null","","html-keyboard-response","270","265997","0.0-270.0","3YGXWBAF713C77USTWK4WWHNIIEC47","AXKTYKCT9NGHS","3RSBJ6YZECCLSSQQCGKCTHC9OPAFOK","","","null","","","","","","","","","",""
"642","","image-keyboard-response","271","266641","0.0-271.0","3YGXWBAF713C77USTWK4WWHNIIEC47","AXKTYKCT9NGHS","3RSBJ6YZECCLSSQQCGKCTHC9OPAFOK","","img/set1/S2.jpg","68","2","structured_load","68","structured_load,structured_incentive,random,structured_normal","4,2,1,2,2,3","2,3,4,1","true","","",""
"null","","html-keyboard-response","272","266997","0.0-272.0","3YGXWBAF713C77USTWK4WWHNIIEC47","AXKTYKCT9NGHS","3RSBJ6YZECCLSSQQCGKCTHC9OPAFOK","","<img src=""img/set1/S2.jpg"" width=""540"" height = ""360"" style=""border:16px solid orange"">","null","","","","","","","","","",""
"null","","html-keyboard-response","273","267216","0.0-273.0","3YGXWBAF713C77USTWK4WWHNIIEC47","AXKTYKCT9NGHS","3RSBJ6YZECCLSSQQCGKCTHC9OPAFOK","","","null","","","","","","","","","",""
"647","","image-keyboard-response","274","267865","0.0-274.0","3YGXWBAF713C77USTWK4WWHNIIEC47","AXKTYKCT9NGHS","3RSBJ6YZECCLSSQQCGKCTHC9OPAFOK","","img/set1/S1.jpg","83","1","structured_load","83","structured_load,structured_incentive,random,structured_normal","4,2,1,2,2,3","2,3,4,1","true","","",""
"null","","html-keyboard-response","275","268216","0.0-275.0","3YGXWBAF713C77USTWK4WWHNIIEC47","AXKTYKCT9NGHS","3RSBJ6YZECCLSSQQCGKCTHC9OPAFOK","","<img src=""img/set1/S1.jpg"" width=""540"" height = ""360"" style=""border:16px solid orange"">","null","","","","","","","","","",""
"null","","html-keyboard-response","276","268437","0.0-276.0","3YGXWBAF713C77USTWK4WWHNIIEC47","AXKTYKCT9NGHS","3RSBJ6YZECCLSSQQCGKCTHC9OPAFOK","","","null","","","","","","","","","",""
"603","","image-keyboard-response","277","269041","0.0-277.0","3YGXWBAF713C77USTWK4WWHNIIEC47","AXKTYKCT9NGHS","3RSBJ6YZECCLSSQQCGKCTHC9OPAFOK","","img/set1/S2.jpg","68","2","structured_load","68","structured_load,structured_incentive,random,structured_normal","4,2,1,2,2,3","2,3,4,1","true","","",""
"null","","html-keyboard-response","278","269397","0.0-278.0","3YGXWBAF713C77USTWK4WWHNIIEC47","AXKTYKCT9NGHS","3RSBJ6YZECCLSSQQCGKCTHC9OPAFOK","","<img src=""img/set1/S2.jpg"" width=""540"" height = ""360"" style=""border:16px solid orange"">","null","","","","","","","","","",""
"null","","html-keyboard-response","279","269616","0.0-279.0","3YGXWBAF713C77USTWK4WWHNIIEC47","AXKTYKCT9NGHS","3RSBJ6YZECCLSSQQCGKCTHC9OPAFOK","","","null","","","","","","","","","",""
"687","","image-keyboard-response","280","270305","0.0-280.0","3YGXWBAF713C77USTWK4WWHNIIEC47","AXKTYKCT9NGHS","3RSBJ6YZECCLSSQQCGKCTHC9OPAFOK","","img/set1/S1.jpg","83","1","structured_load","83","structured_load,structured_incentive,random,structured_normal","4,2,1,2,2,3","2,3,4,1","true","","",""
"null","","html-keyboard-response","281","270657","0.0-281.0","3YGXWBAF713C77USTWK4WWHNIIEC47","AXKTYKCT9NGHS","3RSBJ6YZECCLSSQQCGKCTHC9OPAFOK","","<img src=""img/set1/S1.jpg"" width=""540"" height = ""360"" style=""border:16px solid orange"">","null","","","","","","","","","",""
"null","","html-keyboard-response","282","270876","0.0-282.0","3YGXWBAF713C77USTWK4WWHNIIEC47","AXKTYKCT9NGHS","3RSBJ6YZECCLSSQQCGKCTHC9OPAFOK","","","null","","","","","","","","","",""
"708","","image-keyboard-response","283","271585","0.0-283.0","3YGXWBAF713C77USTWK4WWHNIIEC47","AXKTYKCT9NGHS","3RSBJ6YZECCLSSQQCGKCTHC9OPAFOK","","img/set1/S2.jpg","68","2","structured_load","68","structured_load,structured_incentive,random,structured_normal","4,2,1,2,2,3","2,3,4,1","true","","",""
"null","","html-keyboard-response","284","271937","0.0-284.0","3YGXWBAF713C77USTWK4WWHNIIEC47","AXKTYKCT9NGHS","3RSBJ6YZECCLSSQQCGKCTHC9OPAFOK","","<img src=""img/set1/S2.jpg"" width=""540"" height = ""360"" style=""border:16px solid orange"">","null","","","","","","","","","",""
"null","","html-keyboard-response","285","272157","0.0-285.0","3YGXWBAF713C77USTWK4WWHNIIEC47","AXKTYKCT9NGHS","3RSBJ6YZECCLSSQQCGKCTHC9OPAFOK","","","null","","","","","","","","","",""
"572","","image-keyboard-response","286","272730","0.0-286.0","3YGXWBAF713C77USTWK4WWHNIIEC47","AXKTYKCT9NGHS","3RSBJ6YZECCLSSQQCGKCTHC9OPAFOK","","img/set1/S4.jpg","74","4","structured_load","74","structured_load,structured_incentive,random,structured_normal","4,2,1,2,2,3","2,3,4,1","true","","",""
"null","","html-keyboard-response","287","273096","0.0-287.0","3YGXWBAF713C77USTWK4WWHNIIEC47","AXKTYKCT9NGHS","3RSBJ6YZECCLSSQQCGKCTHC9OPAFOK","","<img src=""img/set1/S4.jpg"" width=""540"" height = ""360"" style=""border:16px solid orange"">","null","","","","","","","","","",""
"null","","html-keyboard-response","288","273316","0.0-288.0","3YGXWBAF713C77USTWK4WWHNIIEC47","AXKTYKCT9NGHS","3RSBJ6YZECCLSSQQCGKCTHC9OPAFOK","","","null","","","","","","","","","",""
"1165","","image-keyboard-response","289","274482","0.0-289.0","3YGXWBAF713C77USTWK4WWHNIIEC47","AXKTYKCT9NGHS","3RSBJ6YZECCLSSQQCGKCTHC9OPAFOK","","img/set1/S3.jpg","74","3","structured_load","72","structured_load,structured_incentive,random,structured_normal","4,2,1,2,2,3","2,3,4,1","false","","",""
"null","","html-keyboard-response","290","274836","0.0-290.0","3YGXWBAF713C77USTWK4WWHNIIEC47","AXKTYKCT9NGHS","3RSBJ6YZECCLSSQQCGKCTHC9OPAFOK","","<img src=""img/set1/S3.jpg"" width=""540"" height = ""360"">","null","","","","","","","","","",""
"null","","html-keyboard-response","291","275057","0.0-291.0","3YGXWBAF713C77USTWK4WWHNIIEC47","AXKTYKCT9NGHS","3RSBJ6YZECCLSSQQCGKCTHC9OPAFOK","","","null","","","","","","","","","",""
"672","","image-keyboard-response","292","275730","0.0-292.0","3YGXWBAF713C77USTWK4WWHNIIEC47","AXKTYKCT9NGHS","3RSBJ6YZECCLSSQQCGKCTHC9OPAFOK","","img/set1/S4.jpg","74","4","structured_load","74","structured_load,structured_incentive,random,structured_normal","4,2,1,2,2,3","2,3,4,1","true","","",""
"null","","html-keyboard-response","293","276096","0.0-293.0","3YGXWBAF713C77USTWK4WWHNIIEC47","AXKTYKCT9NGHS","3RSBJ6YZECCLSSQQCGKCTHC9OPAFOK","","<img src=""img/set1/S4.jpg"" width=""540"" height = ""360"" style=""border:16px solid orange"">","null","","","","","","","","","",""
"null","","html-keyboard-response","294","276316","0.0-294.0","3YGXWBAF713C77USTWK4WWHNIIEC47","AXKTYKCT9NGHS","3RSBJ6YZECCLSSQQCGKCTHC9OPAFOK","","","null","","","","","","","","","",""
"629","","image-keyboard-response","295","276947","0.0-295.0","3YGXWBAF713C77USTWK4WWHNIIEC47","AXKTYKCT9NGHS","3RSBJ6YZECCLSSQQCGKCTHC9OPAFOK","","img/set1/S2.jpg","68","2","structured_load","68","structured_load,structured_incentive,random,structured_normal","4,2,1,2,2,3","2,3,4,1","true","","",""
"null","","html-keyboard-response","296","277316","0.0-296.0","3YGXWBAF713C77USTWK4WWHNIIEC47","AXKTYKCT9NGHS","3RSBJ6YZECCLSSQQCGKCTHC9OPAFOK","","<img src=""img/set1/S2.jpg"" width=""540"" height = ""360"" style=""border:16px solid orange"">","null","","","","","","","","","",""
"null","","html-keyboard-response","297","277537","0.0-297.0","3YGXWBAF713C77USTWK4WWHNIIEC47","AXKTYKCT9NGHS","3RSBJ6YZECCLSSQQCGKCTHC9OPAFOK","","","null","","","","","","","","","",""
"657","","image-keyboard-response","298","278195","0.0-298.0","3YGXWBAF713C77USTWK4WWHNIIEC47","AXKTYKCT9NGHS","3RSBJ6YZECCLSSQQCGKCTHC9OPAFOK","","img/set1/S3.jpg","74","3","structured_load","72","structured_load,structured_incentive,random,structured_normal","4,2,1,2,2,3","2,3,4,1","false","","",""
"null","","html-keyboard-response","299","278557","0.0-299.0","3YGXWBAF713C77USTWK4WWHNIIEC47","AXKTYKCT9NGHS","3RSBJ6YZECCLSSQQCGKCTHC9OPAFOK","","<img src=""img/set1/S3.jpg"" width=""540"" height = ""360"">","null","","","","","","","","","",""
"null","","html-keyboard-response","300","278774","0.0-300.0","3YGXWBAF713C77USTWK4WWHNIIEC47","AXKTYKCT9NGHS","3RSBJ6YZECCLSSQQCGKCTHC9OPAFOK","","","null","","","","","","","","","",""
"619","","image-keyboard-response","301","279395","0.0-301.0","3YGXWBAF713C77USTWK4WWHNIIEC47","AXKTYKCT9NGHS","3RSBJ6YZECCLSSQQCGKCTHC9OPAFOK","","img/set1/S1.jpg","83","1","structured_load","83","structured_load,structured_incentive,random,structured_normal","4,2,1,2,2,3","2,3,4,1","true","","",""
"null","","html-keyboard-response","302","279757","0.0-302.0","3YGXWBAF713C77USTWK4WWHNIIEC47","AXKTYKCT9NGHS","3RSBJ6YZECCLSSQQCGKCTHC9OPAFOK","","<img src=""img/set1/S1.jpg"" width=""540"" height = ""360"" style=""border:16px solid orange"">","null","","","","","","","","","",""
"null","","html-keyboard-response","303","279975","0.0-303.0","3YGXWBAF713C77USTWK4WWHNIIEC47","AXKTYKCT9NGHS","3RSBJ6YZECCLSSQQCGKCTHC9OPAFOK","","","null","","","","","","","","","",""
"690","","image-keyboard-response","304","280667","0.0-304.0","3YGXWBAF713C77USTWK4WWHNIIEC47","AXKTYKCT9NGHS","3RSBJ6YZECCLSSQQCGKCTHC9OPAFOK","","img/set1/S4.jpg","74","4","structured_load","74","structured_load,structured_incentive,random,structured_normal","4,2,1,2,2,3","2,3,4,1","true","","",""
"null","","html-keyboard-response","305","281036","0.0-305.0","3YGXWBAF713C77USTWK4WWHNIIEC47","AXKTYKCT9NGHS","3RSBJ6YZECCLSSQQCGKCTHC9OPAFOK","","<img src=""img/set1/S4.jpg"" width=""540"" height = ""360"" style=""border:16px solid orange"">","null","","","","","","","","","",""
"null","","html-keyboard-response","306","281256","0.0-306.0","3YGXWBAF713C77USTWK4WWHNIIEC47","AXKTYKCT9NGHS","3RSBJ6YZECCLSSQQCGKCTHC9OPAFOK","","","null","","","","","","","","","",""
"610","","image-keyboard-response","307","281867","0.0-307.0","3YGXWBAF713C77USTWK4WWHNIIEC47","AXKTYKCT9NGHS","3RSBJ6YZECCLSSQQCGKCTHC9OPAFOK","","img/set1/S2.jpg","68","2","structured_load","68","structured_load,structured_incentive,random,structured_normal","4,2,1,2,2,3","2,3,4,1","true","","",""
"null","","html-keyboard-response","308","282236","0.0-308.0","3YGXWBAF713C77USTWK4WWHNIIEC47","AXKTYKCT9NGHS","3RSBJ6YZECCLSSQQCGKCTHC9OPAFOK","","<img src=""img/set1/S2.jpg"" width=""540"" height = ""360"" style=""border:16px solid orange"">","null","","","","","","","","","",""
"null","","html-keyboard-response","309","282456","0.0-309.0","3YGXWBAF713C77USTWK4WWHNIIEC47","AXKTYKCT9NGHS","3RSBJ6YZECCLSSQQCGKCTHC9OPAFOK","","","null","","","","","","","","","",""
"602","","image-keyboard-response","310","283059","0.0-310.0","3YGXWBAF713C77USTWK4WWHNIIEC47","AXKTYKCT9NGHS","3RSBJ6YZECCLSSQQCGKCTHC9OPAFOK","","img/set1/S4.jpg","74","4","structured_load","74","structured_load,structured_incentive,random,structured_normal","4,2,1,2,2,3","2,3,4,1","true","","",""
"null","","html-keyboard-response","311","283417","0.0-311.0","3YGXWBAF713C77USTWK4WWHNIIEC47","AXKTYKCT9NGHS","3RSBJ6YZECCLSSQQCGKCTHC9OPAFOK","","<img src=""img/set1/S4.jpg"" width=""540"" height = ""360"" style=""border:16px solid orange"">","null","","","","","","","","","",""
"null","","html-keyboard-response","312","283636","0.0-312.0","3YGXWBAF713C77USTWK4WWHNIIEC47","AXKTYKCT9NGHS","3RSBJ6YZECCLSSQQCGKCTHC9OPAFOK","","","null","","","","","","","","","",""
"566","","image-keyboard-response","313","284203","0.0-313.0","3YGXWBAF713C77USTWK4WWHNIIEC47","AXKTYKCT9NGHS","3RSBJ6YZECCLSSQQCGKCTHC9OPAFOK","","img/set1/S2.jpg","68","2","structured_load","68","structured_load,structured_incentive,random,structured_normal","4,2,1,2,2,3","2,3,4,1","true","","",""
"null","","html-keyboard-response","314","284557","0.0-314.0","3YGXWBAF713C77USTWK4WWHNIIEC47","AXKTYKCT9NGHS","3RSBJ6YZECCLSSQQCGKCTHC9OPAFOK","","<img src=""img/set1/S2.jpg"" width=""540"" height = ""360"" style=""border:16px solid orange"">","null","","","","","","","","","",""
"null","","html-keyboard-response","315","284777","0.0-315.0","3YGXWBAF713C77USTWK4WWHNIIEC47","AXKTYKCT9NGHS","3RSBJ6YZECCLSSQQCGKCTHC9OPAFOK","","","null","","","","","","","","","",""
"490","","image-keyboard-response","316","285268","0.0-316.0","3YGXWBAF713C77USTWK4WWHNIIEC47","AXKTYKCT9NGHS","3RSBJ6YZECCLSSQQCGKCTHC9OPAFOK","","img/set1/S2.jpg","68","2","structured_load","68","structured_load,structured_incentive,random,structured_normal","4,2,1,2,2,3","2,3,4,1","true","","",""
"null","","html-keyboard-response","317","285636","0.0-317.0","3YGXWBAF713C77USTWK4WWHNIIEC47","AXKTYKCT9NGHS","3RSBJ6YZECCLSSQQCGKCTHC9OPAFOK","","<img src=""img/set1/S2.jpg"" width=""540"" height = ""360"" style=""border:16px solid orange"">","null","","","","","","","","","",""
"null","","html-keyboard-response","318","285857","0.0-318.0","3YGXWBAF713C77USTWK4WWHNIIEC47","AXKTYKCT9NGHS","3RSBJ6YZECCLSSQQCGKCTHC9OPAFOK","","","null","","","","","","","","","",""
"762","","image-keyboard-response","319","286620","0.0-319.0","3YGXWBAF713C77USTWK4WWHNIIEC47","AXKTYKCT9NGHS","3RSBJ6YZECCLSSQQCGKCTHC9OPAFOK","","img/set1/S3.jpg","83","3","structured_load","72","structured_load,structured_incentive,random,structured_normal","4,2,1,2,2,3","2,3,4,1","false","","",""
"null","","html-keyboard-response","320","286977","0.0-320.0","3YGXWBAF713C77USTWK4WWHNIIEC47","AXKTYKCT9NGHS","3RSBJ6YZECCLSSQQCGKCTHC9OPAFOK","","<img src=""img/set1/S3.jpg"" width=""540"" height = ""360"">","null","","","","","","","","","",""
"null","","html-keyboard-response","321","287196","0.0-321.0","3YGXWBAF713C77USTWK4WWHNIIEC47","AXKTYKCT9NGHS","3RSBJ6YZECCLSSQQCGKCTHC9OPAFOK","","","null","","","","","","","","","",""
"679","","image-keyboard-response","322","287877","0.0-322.0","3YGXWBAF713C77USTWK4WWHNIIEC47","AXKTYKCT9NGHS","3RSBJ6YZECCLSSQQCGKCTHC9OPAFOK","","img/set1/S1.jpg","83","1","structured_load","83","structured_load,structured_incentive,random,structured_normal","4,2,1,2,2,3","2,3,4,1","true","","",""
"null","","html-keyboard-response","323","288236","0.0-323.0","3YGXWBAF713C77USTWK4WWHNIIEC47","AXKTYKCT9NGHS","3RSBJ6YZECCLSSQQCGKCTHC9OPAFOK","","<img src=""img/set1/S1.jpg"" width=""540"" height = ""360"" style=""border:16px solid orange"">","null","","","","","","","","","",""
"null","","html-keyboard-response","324","288456","0.0-324.0","3YGXWBAF713C77USTWK4WWHNIIEC47","AXKTYKCT9NGHS","3RSBJ6YZECCLSSQQCGKCTHC9OPAFOK","","","null","","","","","","","","","",""
"619","","image-keyboard-response","325","289077","0.0-325.0","3YGXWBAF713C77USTWK4WWHNIIEC47","AXKTYKCT9NGHS","3RSBJ6YZECCLSSQQCGKCTHC9OPAFOK","","img/set1/S4.jpg","74","4","structured_load","74","structured_load,structured_incentive,random,structured_normal","4,2,1,2,2,3","2,3,4,1","true","","",""
"null","","html-keyboard-response","326","289436","0.0-326.0","3YGXWBAF713C77USTWK4WWHNIIEC47","AXKTYKCT9NGHS","3RSBJ6YZECCLSSQQCGKCTHC9OPAFOK","","<img src=""img/set1/S4.jpg"" width=""540"" height = ""360"" style=""border:16px solid orange"">","null","","","","","","","","","",""
"null","","html-keyboard-response","327","289656","0.0-327.0","3YGXWBAF713C77USTWK4WWHNIIEC47","AXKTYKCT9NGHS","3RSBJ6YZECCLSSQQCGKCTHC9OPAFOK","","","null","","","","","","","","","",""
"851","","image-keyboard-response","328","290509","0.0-328.0","3YGXWBAF713C77USTWK4WWHNIIEC47","AXKTYKCT9NGHS","3RSBJ6YZECCLSSQQCGKCTHC9OPAFOK","","img/set1/S2.jpg","68","2","structured_load","68","structured_load,structured_incentive,random,structured_normal","4,2,1,2,2,3","2,3,4,1","true","","",""
"null","","html-keyboard-response","329","290876","0.0-329.0","3YGXWBAF713C77USTWK4WWHNIIEC47","AXKTYKCT9NGHS","3RSBJ6YZECCLSSQQCGKCTHC9OPAFOK","","<img src=""img/set1/S2.jpg"" width=""540"" height = ""360"" style=""border:16px solid orange"">","null","","","","","","","","","",""
"null","","html-keyboard-response","330","291096","0.0-330.0","3YGXWBAF713C77USTWK4WWHNIIEC47","AXKTYKCT9NGHS","3RSBJ6YZECCLSSQQCGKCTHC9OPAFOK","","","null","","","","","","","","","",""
"755","","image-keyboard-response","331","291853","0.0-331.0","3YGXWBAF713C77USTWK4WWHNIIEC47","AXKTYKCT9NGHS","3RSBJ6YZECCLSSQQCGKCTHC9OPAFOK","","img/set1/S4.jpg","74","4","structured_load","74","structured_load,structured_incentive,random,structured_normal","4,2,1,2,2,3","2,3,4,1","true","","",""
"null","","html-keyboard-response","332","292217","0.0-332.0","3YGXWBAF713C77USTWK4WWHNIIEC47","AXKTYKCT9NGHS","3RSBJ6YZECCLSSQQCGKCTHC9OPAFOK","","<img src=""img/set1/S4.jpg"" width=""540"" height = ""360"" style=""border:16px solid orange"">","null","","","","","","","","","",""
"null","","html-keyboard-response","333","292436","0.0-333.0","3YGXWBAF713C77USTWK4WWHNIIEC47","AXKTYKCT9NGHS","3RSBJ6YZECCLSSQQCGKCTHC9OPAFOK","","","null","","","","","","","","","",""
"743","","image-keyboard-response","334","293181","0.0-334.0","3YGXWBAF713C77USTWK4WWHNIIEC47","AXKTYKCT9NGHS","3RSBJ6YZECCLSSQQCGKCTHC9OPAFOK","","img/set1/S2.jpg","68","2","structured_load","68","structured_load,structured_incentive,random,structured_normal","4,2,1,2,2,3","2,3,4,1","true","","",""
"null","","html-keyboard-response","335","293536","0.0-335.0","3YGXWBAF713C77USTWK4WWHNIIEC47","AXKTYKCT9NGHS","3RSBJ6YZECCLSSQQCGKCTHC9OPAFOK","","<img src=""img/set1/S2.jpg"" width=""540"" height = ""360"" style=""border:16px solid orange"">","null","","","","","","","","","",""
"null","","html-keyboard-response","336","293757","0.0-336.0","3YGXWBAF713C77USTWK4WWHNIIEC47","AXKTYKCT9NGHS","3RSBJ6YZECCLSSQQCGKCTHC9OPAFOK","","","null","","","","","","","","","",""
"656","","image-keyboard-response","337","294413","0.0-337.0","3YGXWBAF713C77USTWK4WWHNIIEC47","AXKTYKCT9NGHS","3RSBJ6YZECCLSSQQCGKCTHC9OPAFOK","","img/set1/S1.jpg","83","1","structured_load","83","structured_load,structured_incentive,random,structured_normal","4,2,1,2,2,3","2,3,4,1","true","","",""
"null","","html-keyboard-response","338","294777","0.0-338.0","3YGXWBAF713C77USTWK4WWHNIIEC47","AXKTYKCT9NGHS","3RSBJ6YZECCLSSQQCGKCTHC9OPAFOK","","<img src=""img/set1/S1.jpg"" width=""540"" height = ""360"" style=""border:16px solid orange"">","null","","","","","","","","","",""
"null","","html-keyboard-response","339","294996","0.0-339.0","3YGXWBAF713C77USTWK4WWHNIIEC47","AXKTYKCT9NGHS","3RSBJ6YZECCLSSQQCGKCTHC9OPAFOK","","","null","","","","","","","","","",""
"608","","image-keyboard-response","340","295606","0.0-340.0","3YGXWBAF713C77USTWK4WWHNIIEC47","AXKTYKCT9NGHS","3RSBJ6YZECCLSSQQCGKCTHC9OPAFOK","","img/set1/S4.jpg","74","4","structured_load","74","structured_load,structured_incentive,random,structured_normal","4,2,1,2,2,3","2,3,4,1","true","","",""
"null","","html-keyboard-response","341","295977","0.0-341.0","3YGXWBAF713C77USTWK4WWHNIIEC47","AXKTYKCT9NGHS","3RSBJ6YZECCLSSQQCGKCTHC9OPAFOK","","<img src=""img/set1/S4.jpg"" width=""540"" height = ""360"" style=""border:16px solid orange"">","null","","","","","","","","","",""
"null","","html-keyboard-response","342","296196","0.0-342.0","3YGXWBAF713C77USTWK4WWHNIIEC47","AXKTYKCT9NGHS","3RSBJ6YZECCLSSQQCGKCTHC9OPAFOK","","","null","","","","","","","","","",""
"905","","image-keyboard-response","343","297102","0.0-343.0","3YGXWBAF713C77USTWK4WWHNIIEC47","AXKTYKCT9NGHS","3RSBJ6YZECCLSSQQCGKCTHC9OPAFOK","","img/set1/S2.jpg","68","2","structured_load","68","structured_load,structured_incentive,random,structured_normal","4,2,1,2,2,3","2,3,4,1","true","","",""
"null","","html-keyboard-response","344","297457","0.0-344.0","3YGXWBAF713C77USTWK4WWHNIIEC47","AXKTYKCT9NGHS","3RSBJ6YZECCLSSQQCGKCTHC9OPAFOK","","<img src=""img/set1/S2.jpg"" width=""540"" height = ""360"" style=""border:16px solid orange"">","null","","","","","","","","","",""
"null","","html-keyboard-response","345","297676","0.0-345.0","3YGXWBAF713C77USTWK4WWHNIIEC47","AXKTYKCT9NGHS","3RSBJ6YZECCLSSQQCGKCTHC9OPAFOK","","","null","","","","","","","","","",""
"null","","image-keyboard-response","346","300196","0.0-346.0","3YGXWBAF713C77USTWK4WWHNIIEC47","AXKTYKCT9NGHS","3RSBJ6YZECCLSSQQCGKCTHC9OPAFOK","","img/set1/S3.jpg","null","3","structured_load","72","structured_load,structured_incentive,random,structured_normal","4,2,1,2,2,3","2,3,4,1","false","","",""
"null","","html-keyboard-response","347","300556","0.0-347.0","3YGXWBAF713C77USTWK4WWHNIIEC47","AXKTYKCT9NGHS","3RSBJ6YZECCLSSQQCGKCTHC9OPAFOK","","<img src=""img/set1/S3.jpg"" width=""540"" height = ""360"">","null","","","","","","","","","",""
"null","","html-keyboard-response","348","300766","0.0-348.0","3YGXWBAF713C77USTWK4WWHNIIEC47","AXKTYKCT9NGHS","3RSBJ6YZECCLSSQQCGKCTHC9OPAFOK","","","null","","","","","","","","","",""
"590","","image-keyboard-response","349","301359","0.0-349.0","3YGXWBAF713C77USTWK4WWHNIIEC47","AXKTYKCT9NGHS","3RSBJ6YZECCLSSQQCGKCTHC9OPAFOK","","img/set1/S1.jpg","83","1","structured_load","83","structured_load,structured_incentive,random,structured_normal","4,2,1,2,2,3","2,3,4,1","true","","",""
"null","","html-keyboard-response","350","301726","0.0-350.0","3YGXWBAF713C77USTWK4WWHNIIEC47","AXKTYKCT9NGHS","3RSBJ6YZECCLSSQQCGKCTHC9OPAFOK","","<img src=""img/set1/S1.jpg"" width=""540"" height = ""360"" style=""border:16px solid orange"">","null","","","","","","","","","",""
"null","","html-keyboard-response","351","301947","0.0-351.0","3YGXWBAF713C77USTWK4WWHNIIEC47","AXKTYKCT9NGHS","3RSBJ6YZECCLSSQQCGKCTHC9OPAFOK","","","null","","","","","","","","","",""
"676","","image-keyboard-response","352","302623","0.0-352.0","3YGXWBAF713C77USTWK4WWHNIIEC47","AXKTYKCT9NGHS","3RSBJ6YZECCLSSQQCGKCTHC9OPAFOK","","img/set1/S1.jpg","83","1","structured_load","83","structured_load,structured_incentive,random,structured_normal","4,2,1,2,2,3","2,3,4,1","true","","",""
"null","","html-keyboard-response","353","302987","0.0-353.0","3YGXWBAF713C77USTWK4WWHNIIEC47","AXKTYKCT9NGHS","3RSBJ6YZECCLSSQQCGKCTHC9OPAFOK","","<img src=""img/set1/S1.jpg"" width=""540"" height = ""360"" style=""border:16px solid orange"">","null","","","","","","","","","",""
"null","","html-keyboard-response","354","303207","0.0-354.0","3YGXWBAF713C77USTWK4WWHNIIEC47","AXKTYKCT9NGHS","3RSBJ6YZECCLSSQQCGKCTHC9OPAFOK","","","null","","","","","","","","","",""
"null","","image-keyboard-response","355","305726","0.0-355.0","3YGXWBAF713C77USTWK4WWHNIIEC47","AXKTYKCT9NGHS","3RSBJ6YZECCLSSQQCGKCTHC9OPAFOK","","img/set1/S3.jpg","null","3","structured_load","72","structured_load,structured_incentive,random,structured_normal","4,2,1,2,2,3","2,3,4,1","false","","",""
"null","","html-keyboard-response","356","306086","0.0-356.0","3YGXWBAF713C77USTWK4WWHNIIEC47","AXKTYKCT9NGHS","3RSBJ6YZECCLSSQQCGKCTHC9OPAFOK","","<img src=""img/set1/S3.jpg"" width=""540"" height = ""360"">","null","","","","","","","","","",""
"null","","html-keyboard-response","357","306306","0.0-357.0","3YGXWBAF713C77USTWK4WWHNIIEC47","AXKTYKCT9NGHS","3RSBJ6YZECCLSSQQCGKCTHC9OPAFOK","","","null","","","","","","","","","",""
"693","","image-keyboard-response","358","307000","0.0-358.0","3YGXWBAF713C77USTWK4WWHNIIEC47","AXKTYKCT9NGHS","3RSBJ6YZECCLSSQQCGKCTHC9OPAFOK","","img/set1/S1.jpg","83","1","structured_load","83","structured_load,structured_incentive,random,structured_normal","4,2,1,2,2,3","2,3,4,1","true","","",""
"null","","html-keyboard-response","359","307367","0.0-359.0","3YGXWBAF713C77USTWK4WWHNIIEC47","AXKTYKCT9NGHS","3RSBJ6YZECCLSSQQCGKCTHC9OPAFOK","","<img src=""img/set1/S1.jpg"" width=""540"" height = ""360"" style=""border:16px solid orange"">","null","","","","","","","","","",""
"null","","html-keyboard-response","360","307586","0.0-360.0","3YGXWBAF713C77USTWK4WWHNIIEC47","AXKTYKCT9NGHS","3RSBJ6YZECCLSSQQCGKCTHC9OPAFOK","","","null","","","","","","","","","",""
"733","","image-keyboard-response","361","308319","0.0-361.0","3YGXWBAF713C77USTWK4WWHNIIEC47","AXKTYKCT9NGHS","3RSBJ6YZECCLSSQQCGKCTHC9OPAFOK","","img/set1/S3.jpg","74","3","structured_load","72","structured_load,structured_incentive,random,structured_normal","4,2,1,2,2,3","2,3,4,1","false","","",""
"null","","html-keyboard-response","362","308687","0.0-362.0","3YGXWBAF713C77USTWK4WWHNIIEC47","AXKTYKCT9NGHS","3RSBJ6YZECCLSSQQCGKCTHC9OPAFOK","","<img src=""img/set1/S3.jpg"" width=""540"" height = ""360"">","null","","","","","","","","","",""
"null","","html-keyboard-response","363","308906","0.0-363.0","3YGXWBAF713C77USTWK4WWHNIIEC47","AXKTYKCT9NGHS","3RSBJ6YZECCLSSQQCGKCTHC9OPAFOK","","","null","","","","","","","","","",""
"1197","","image-keyboard-response","364","310104","0.0-364.0","3YGXWBAF713C77USTWK4WWHNIIEC47","AXKTYKCT9NGHS","3RSBJ6YZECCLSSQQCGKCTHC9OPAFOK","","img/set1/S3.jpg","74","3","structured_load","72","structured_load,structured_incentive,random,structured_normal","4,2,1,2,2,3","2,3,4,1","false","","",""
"null","","html-keyboard-response","365","310466","0.0-365.0","3YGXWBAF713C77USTWK4WWHNIIEC47","AXKTYKCT9NGHS","3RSBJ6YZECCLSSQQCGKCTHC9OPAFOK","","<img src=""img/set1/S3.jpg"" width=""540"" height = ""360"">","null","","","","","","","","","",""
"null","","html-keyboard-response","366","310686","0.0-366.0","3YGXWBAF713C77USTWK4WWHNIIEC47","AXKTYKCT9NGHS","3RSBJ6YZECCLSSQQCGKCTHC9OPAFOK","","","null","","","","","","","","","",""
"569","","image-keyboard-response","367","311256","0.0-367.0","3YGXWBAF713C77USTWK4WWHNIIEC47","AXKTYKCT9NGHS","3RSBJ6YZECCLSSQQCGKCTHC9OPAFOK","","img/set1/S3.jpg","68","3","structured_load","72","structured_load,structured_incentive,random,structured_normal","4,2,1,2,2,3","2,3,4,1","false","","",""
"null","","html-keyboard-response","368","311627","0.0-368.0","3YGXWBAF713C77USTWK4WWHNIIEC47","AXKTYKCT9NGHS","3RSBJ6YZECCLSSQQCGKCTHC9OPAFOK","","<img src=""img/set1/S3.jpg"" width=""540"" height = ""360"">","null","","","","","","","","","",""
"null","","html-keyboard-response","369","311846","0.0-369.0","3YGXWBAF713C77USTWK4WWHNIIEC47","AXKTYKCT9NGHS","3RSBJ6YZECCLSSQQCGKCTHC9OPAFOK","","","null","","","","","","","","","",""
"762","","image-keyboard-response","370","312609","0.0-370.0","3YGXWBAF713C77USTWK4WWHNIIEC47","AXKTYKCT9NGHS","3RSBJ6YZECCLSSQQCGKCTHC9OPAFOK","","img/set1/S4.jpg","74","4","structured_load","74","structured_load,structured_incentive,random,structured_normal","4,2,1,2,2,3","2,3,4,1","true","","",""
"null","","html-keyboard-response","371","312967","0.0-371.0","3YGXWBAF713C77USTWK4WWHNIIEC47","AXKTYKCT9NGHS","3RSBJ6YZECCLSSQQCGKCTHC9OPAFOK","","<img src=""img/set1/S4.jpg"" width=""540"" height = ""360"" style=""border:16px solid orange"">","null","","","","","","","","","",""
"null","","html-keyboard-response","372","313181","0.0-372.0","3YGXWBAF713C77USTWK4WWHNIIEC47","AXKTYKCT9NGHS","3RSBJ6YZECCLSSQQCGKCTHC9OPAFOK","","","null","","","","","","","","","",""
"474","","image-keyboard-response","373","313657","0.0-373.0","3YGXWBAF713C77USTWK4WWHNIIEC47","AXKTYKCT9NGHS","3RSBJ6YZECCLSSQQCGKCTHC9OPAFOK","","img/set1/S2.jpg","68","2","structured_load","68","structured_load,structured_incentive,random,structured_normal","4,2,1,2,2,3","2,3,4,1","true","","",""
"null","","html-keyboard-response","374","314016","0.0-374.0","3YGXWBAF713C77USTWK4WWHNIIEC47","AXKTYKCT9NGHS","3RSBJ6YZECCLSSQQCGKCTHC9OPAFOK","","<img src=""img/set1/S2.jpg"" width=""540"" height = ""360"" style=""border:16px solid orange"">","null","","","","","","","","","",""
"null","","html-keyboard-response","375","314236","0.0-375.0","3YGXWBAF713C77USTWK4WWHNIIEC47","AXKTYKCT9NGHS","3RSBJ6YZECCLSSQQCGKCTHC9OPAFOK","","","null","","","","","","","","","",""
"668","","image-keyboard-response","376","314905","0.0-376.0","3YGXWBAF713C77USTWK4WWHNIIEC47","AXKTYKCT9NGHS","3RSBJ6YZECCLSSQQCGKCTHC9OPAFOK","","img/set1/S1.jpg","83","1","structured_load","83","structured_load,structured_incentive,random,structured_normal","4,2,1,2,2,3","2,3,4,1","true","","",""
"null","","html-keyboard-response","377","315256","0.0-377.0","3YGXWBAF713C77USTWK4WWHNIIEC47","AXKTYKCT9NGHS","3RSBJ6YZECCLSSQQCGKCTHC9OPAFOK","","<img src=""img/set1/S1.jpg"" width=""540"" height = ""360"" style=""border:16px solid orange"">","null","","","","","","","","","",""
"null","","html-keyboard-response","378","315477","0.0-378.0","3YGXWBAF713C77USTWK4WWHNIIEC47","AXKTYKCT9NGHS","3RSBJ6YZECCLSSQQCGKCTHC9OPAFOK","","","null","","","","","","","","","",""
"501","","image-keyboard-response","379","315978","0.0-379.0","3YGXWBAF713C77USTWK4WWHNIIEC47","AXKTYKCT9NGHS","3RSBJ6YZECCLSSQQCGKCTHC9OPAFOK","","img/set1/S3.jpg","68","3","structured_load","72","structured_load,structured_incentive,random,structured_normal","4,2,1,2,2,3","2,3,4,1","false","","",""
"null","","html-keyboard-response","380","316336","0.0-380.0","3YGXWBAF713C77USTWK4WWHNIIEC47","AXKTYKCT9NGHS","3RSBJ6YZECCLSSQQCGKCTHC9OPAFOK","","<img src=""img/set1/S3.jpg"" width=""540"" height = ""360"">","null","","","","","","","","","",""
"null","","html-keyboard-response","381","316556","0.0-381.0","3YGXWBAF713C77USTWK4WWHNIIEC47","AXKTYKCT9NGHS","3RSBJ6YZECCLSSQQCGKCTHC9OPAFOK","","","null","","","","","","","","","",""
"508","","image-keyboard-response","382","317066","0.0-382.0","3YGXWBAF713C77USTWK4WWHNIIEC47","AXKTYKCT9NGHS","3RSBJ6YZECCLSSQQCGKCTHC9OPAFOK","","img/set1/S3.jpg","68","3","structured_load","72","structured_load,structured_incentive,random,structured_normal","4,2,1,2,2,3","2,3,4,1","false","","",""
"null","","html-keyboard-response","383","317436","0.0-383.0","3YGXWBAF713C77USTWK4WWHNIIEC47","AXKTYKCT9NGHS","3RSBJ6YZECCLSSQQCGKCTHC9OPAFOK","","<img src=""img/set1/S3.jpg"" width=""540"" height = ""360"">","null","","","","","","","","","",""
"null","","html-keyboard-response","384","317656","0.0-384.0","3YGXWBAF713C77USTWK4WWHNIIEC47","AXKTYKCT9NGHS","3RSBJ6YZECCLSSQQCGKCTHC9OPAFOK","","","null","","","","","","","","","",""
"600","","image-keyboard-response","385","318257","0.0-385.0","3YGXWBAF713C77USTWK4WWHNIIEC47","AXKTYKCT9NGHS","3RSBJ6YZECCLSSQQCGKCTHC9OPAFOK","","img/set1/S1.jpg","83","1","structured_load","83","structured_load,structured_incentive,random,structured_normal","4,2,1,2,2,3","2,3,4,1","true","","",""
"null","","html-keyboard-response","386","318617","0.0-386.0","3YGXWBAF713C77USTWK4WWHNIIEC47","AXKTYKCT9NGHS","3RSBJ6YZECCLSSQQCGKCTHC9OPAFOK","","<img src=""img/set1/S1.jpg"" width=""540"" height = ""360"" style=""border:16px solid orange"">","null","","","","","","","","","",""
"null","","html-keyboard-response","387","318836","0.0-387.0","3YGXWBAF713C77USTWK4WWHNIIEC47","AXKTYKCT9NGHS","3RSBJ6YZECCLSSQQCGKCTHC9OPAFOK","","","null","","","","","","","","","",""
"668","","image-keyboard-response","388","319506","0.0-388.0","3YGXWBAF713C77USTWK4WWHNIIEC47","AXKTYKCT9NGHS","3RSBJ6YZECCLSSQQCGKCTHC9OPAFOK","","img/set1/S4.jpg","68","4","structured_load","74","structured_load,structured_incentive,random,structured_normal","4,2,1,2,2,3","2,3,4,1","false","","",""
"null","","html-keyboard-response","389","319876","0.0-389.0","3YGXWBAF713C77USTWK4WWHNIIEC47","AXKTYKCT9NGHS","3RSBJ6YZECCLSSQQCGKCTHC9OPAFOK","","<img src=""img/set1/S4.jpg"" width=""540"" height = ""360"">","null","","","","","","","","","",""
"null","","html-keyboard-response","390","320096","0.0-390.0","3YGXWBAF713C77USTWK4WWHNIIEC47","AXKTYKCT9NGHS","3RSBJ6YZECCLSSQQCGKCTHC9OPAFOK","","","null","","","","","","","","","",""
"577","","image-keyboard-response","391","320674","0.0-391.0","3YGXWBAF713C77USTWK4WWHNIIEC47","AXKTYKCT9NGHS","3RSBJ6YZECCLSSQQCGKCTHC9OPAFOK","","img/set1/S2.jpg","68","2","structured_load","68","structured_load,structured_incentive,random,structured_normal","4,2,1,2,2,3","2,3,4,1","true","","",""
