"rt","url","trial_type","trial_index","time_elapsed","internal_node_id","assignmentID","mturkID","hitID","view_history","stimulus","key_press","state","test_part","correct_response","order_block","order_chunk","order_freq","correct","responses","question_order","bonus"
"39355.700000047684","consent.html","external-html","0","39542","0.0-0.0","3QL2OFSM974YTF4YB1Z0V5NNABVCND","AY7WPVKHVNBLG","3ZXV7Q5FJBAKJ3TNMBBLYHIS0EBCFB","","","","","","","","","","","","",""
"357621.60000002384","","instructions","1","397165","0.0-1.0","3QL2OFSM974YTF4YB1Z0V5NNABVCND","AY7WPVKHVNBLG","3ZXV7Q5FJBAKJ3TNMBBLYHIS0EBCFB","[{""page_index"":0,""viewing_time"":22352},{""page_index"":1,""viewing_time"":48073.800000071526},{""page_index"":2,""viewing_time"":15079.199999928474},{""page_index"":3,""viewing_time"":136153.90000009537},{""page_index"":4,""viewing_time"":12069},{""page_index"":5,""viewing_time"":60773.299999952316},{""page_index"":6,""viewing_time"":11320.799999952316},{""page_index"":5,""viewing_time"":973.9000000953674},{""page_index"":4,""viewing_time"":790.2999999523163},{""page_index"":3,""viewing_time"":895.7000000476837},{""page_index"":2,""viewing_time"":10192.099999904633},{""page_index"":1,""viewing_time"":15684.900000095367},{""page_index"":2,""viewing_time"":1167.0999999046326},{""page_index"":3,""viewing_time"":1331},{""page_index"":4,""viewing_time"":6058},{""page_index"":5,""viewing_time"":1048},{""page_index"":6,""viewing_time"":13658}]","","","","","","","","","","","",""
"18708.799999952316","","instructions","2","415876","0.0-2.0","3QL2OFSM974YTF4YB1Z0V5NNABVCND","AY7WPVKHVNBLG","3ZXV7Q5FJBAKJ3TNMBBLYHIS0EBCFB","[{""page_index"":0,""viewing_time"":18708.5}]","","","","","","","","","","","",""
"41358.5","","instructions","3","457235","0.0-3.0","3QL2OFSM974YTF4YB1Z0V5NNABVCND","AY7WPVKHVNBLG","3ZXV7Q5FJBAKJ3TNMBBLYHIS0EBCFB","[{""page_index"":0,""viewing_time"":41358.300000071526}]","","","","","","","","","","","",""
"1599.8999999761581","","image-keyboard-response","4","458837","0.0-4.0","3QL2OFSM974YTF4YB1Z0V5NNABVCND","AY7WPVKHVNBLG","3ZXV7Q5FJBAKJ3TNMBBLYHIS0EBCFB","","img/set1/S4.jpg","72","4","random","74","random,structured_load,structured_normal,structured_incentive","2,3,4,2,1,2","4,1,3,2","false","","",""
"null","","html-keyboard-response","5","459190","0.0-5.0","3QL2OFSM974YTF4YB1Z0V5NNABVCND","AY7WPVKHVNBLG","3ZXV7Q5FJBAKJ3TNMBBLYHIS0EBCFB","","<img src=""img/set1/S4.jpg"" width=""540"" height = ""360"">","null","","","","","","","","","",""
"null","","html-keyboard-response","6","459393","0.0-6.0","3QL2OFSM974YTF4YB1Z0V5NNABVCND","AY7WPVKHVNBLG","3ZXV7Q5FJBAKJ3TNMBBLYHIS0EBCFB","","","null","","","","","","","","","",""
"947.5","","image-keyboard-response","7","460342","0.0-7.0","3QL2OFSM974YTF4YB1Z0V5NNABVCND","AY7WPVKHVNBLG","3ZXV7Q5FJBAKJ3TNMBBLYHIS0EBCFB","","img/set1/S3.jpg","74","3","random","72","random,structured_load,structured_normal,structured_incentive","2,3,4,2,1,2","4,1,3,2","false","","",""
"null","","html-keyboard-response","8","460693","0.0-8.0","3QL2OFSM974YTF4YB1Z0V5NNABVCND","AY7WPVKHVNBLG","3ZXV7Q5FJBAKJ3TNMBBLYHIS0EBCFB","","<img src=""img/set1/S3.jpg"" width=""540"" height = ""360"">","null","","","","","","","","","",""
"null","","html-keyboard-response","9","460895","0.0-9.0","3QL2OFSM974YTF4YB1Z0V5NNABVCND","AY7WPVKHVNBLG","3ZXV7Q5FJBAKJ3TNMBBLYHIS0EBCFB","","","null","","","","","","","","","",""
"868.8000000715256","","image-keyboard-response","10","461765","0.0-10.0","3QL2OFSM974YTF4YB1Z0V5NNABVCND","AY7WPVKHVNBLG","3ZXV7Q5FJBAKJ3TNMBBLYHIS0EBCFB","","img/set1/S4.jpg","74","4","random","74","random,structured_load,structured_normal,structured_incentive","2,3,4,2,1,2","4,1,3,2","true","","",""
"null","","html-keyboard-response","11","462117","0.0-11.0","3QL2OFSM974YTF4YB1Z0V5NNABVCND","AY7WPVKHVNBLG","3ZXV7Q5FJBAKJ3TNMBBLYHIS0EBCFB","","<img src=""img/set1/S4.jpg"" width=""540"" height = ""360"" style=""border:16px solid orange"">","null","","","","","","","","","",""
"null","","html-keyboard-response","12","462319","0.0-12.0","3QL2OFSM974YTF4YB1Z0V5NNABVCND","AY7WPVKHVNBLG","3ZXV7Q5FJBAKJ3TNMBBLYHIS0EBCFB","","","null","","","","","","","","","",""
"853.6000000238419","","image-keyboard-response","13","463173","0.0-13.0","3QL2OFSM974YTF4YB1Z0V5NNABVCND","AY7WPVKHVNBLG","3ZXV7Q5FJBAKJ3TNMBBLYHIS0EBCFB","","img/set1/S1.jpg","68","1","random","83","random,structured_load,structured_normal,structured_incentive","2,3,4,2,1,2","4,1,3,2","false","","",""
"null","","html-keyboard-response","14","463525","0.0-14.0","3QL2OFSM974YTF4YB1Z0V5NNABVCND","AY7WPVKHVNBLG","3ZXV7Q5FJBAKJ3TNMBBLYHIS0EBCFB","","<img src=""img/set1/S1.jpg"" width=""540"" height = ""360"">","null","","","","","","","","","",""
"null","","html-keyboard-response","15","463727","0.0-15.0","3QL2OFSM974YTF4YB1Z0V5NNABVCND","AY7WPVKHVNBLG","3ZXV7Q5FJBAKJ3TNMBBLYHIS0EBCFB","","","null","","","","","","","","","",""
"773.5","","image-keyboard-response","16","464501","0.0-16.0","3QL2OFSM974YTF4YB1Z0V5NNABVCND","AY7WPVKHVNBLG","3ZXV7Q5FJBAKJ3TNMBBLYHIS0EBCFB","","img/set1/S2.jpg","83","2","random","68","random,structured_load,structured_normal,structured_incentive","2,3,4,2,1,2","4,1,3,2","false","","",""
"null","","html-keyboard-response","17","464854","0.0-17.0","3QL2OFSM974YTF4YB1Z0V5NNABVCND","AY7WPVKHVNBLG","3ZXV7Q5FJBAKJ3TNMBBLYHIS0EBCFB","","<img src=""img/set1/S2.jpg"" width=""540"" height = ""360"">","null","","","","","","","","","",""
"null","","html-keyboard-response","18","465056","0.0-18.0","3QL2OFSM974YTF4YB1Z0V5NNABVCND","AY7WPVKHVNBLG","3ZXV7Q5FJBAKJ3TNMBBLYHIS0EBCFB","","","null","","","","","","","","","",""
"1100","","image-keyboard-response","19","466157","0.0-19.0","3QL2OFSM974YTF4YB1Z0V5NNABVCND","AY7WPVKHVNBLG","3ZXV7Q5FJBAKJ3TNMBBLYHIS0EBCFB","","img/set1/S4.jpg","83","4","random","74","random,structured_load,structured_normal,structured_incentive","2,3,4,2,1,2","4,1,3,2","false","","",""
"null","","html-keyboard-response","20","466510","0.0-20.0","3QL2OFSM974YTF4YB1Z0V5NNABVCND","AY7WPVKHVNBLG","3ZXV7Q5FJBAKJ3TNMBBLYHIS0EBCFB","","<img src=""img/set1/S4.jpg"" width=""540"" height = ""360"">","null","","","","","","","","","",""
"null","","html-keyboard-response","21","466712","0.0-21.0","3QL2OFSM974YTF4YB1Z0V5NNABVCND","AY7WPVKHVNBLG","3ZXV7Q5FJBAKJ3TNMBBLYHIS0EBCFB","","","null","","","","","","","","","",""
"604.5999999046326","","image-keyboard-response","22","467317","0.0-22.0","3QL2OFSM974YTF4YB1Z0V5NNABVCND","AY7WPVKHVNBLG","3ZXV7Q5FJBAKJ3TNMBBLYHIS0EBCFB","","img/set1/S4.jpg","68","4","random","74","random,structured_load,structured_normal,structured_incentive","2,3,4,2,1,2","4,1,3,2","false","","",""
"null","","html-keyboard-response","23","467670","0.0-23.0","3QL2OFSM974YTF4YB1Z0V5NNABVCND","AY7WPVKHVNBLG","3ZXV7Q5FJBAKJ3TNMBBLYHIS0EBCFB","","<img src=""img/set1/S4.jpg"" width=""540"" height = ""360"">","null","","","","","","","","","",""
"null","","html-keyboard-response","24","467871","0.0-24.0","3QL2OFSM974YTF4YB1Z0V5NNABVCND","AY7WPVKHVNBLG","3ZXV7Q5FJBAKJ3TNMBBLYHIS0EBCFB","","","null","","","","","","","","","",""
"876.5","","image-keyboard-response","25","468749","0.0-25.0","3QL2OFSM974YTF4YB1Z0V5NNABVCND","AY7WPVKHVNBLG","3ZXV7Q5FJBAKJ3TNMBBLYHIS0EBCFB","","img/set1/S1.jpg","74","1","random","83","random,structured_load,structured_normal,structured_incentive","2,3,4,2,1,2","4,1,3,2","false","","",""
"null","","html-keyboard-response","26","469100","0.0-26.0","3QL2OFSM974YTF4YB1Z0V5NNABVCND","AY7WPVKHVNBLG","3ZXV7Q5FJBAKJ3TNMBBLYHIS0EBCFB","","<img src=""img/set1/S1.jpg"" width=""540"" height = ""360"">","null","","","","","","","","","",""
"null","","html-keyboard-response","27","469302","0.0-27.0","3QL2OFSM974YTF4YB1Z0V5NNABVCND","AY7WPVKHVNBLG","3ZXV7Q5FJBAKJ3TNMBBLYHIS0EBCFB","","","null","","","","","","","","","",""
"909.7000000476837","","image-keyboard-response","28","470213","0.0-28.0","3QL2OFSM974YTF4YB1Z0V5NNABVCND","AY7WPVKHVNBLG","3ZXV7Q5FJBAKJ3TNMBBLYHIS0EBCFB","","img/set1/S4.jpg","74","4","random","74","random,structured_load,structured_normal,structured_incentive","2,3,4,2,1,2","4,1,3,2","true","","",""
"null","","html-keyboard-response","29","470565","0.0-29.0","3QL2OFSM974YTF4YB1Z0V5NNABVCND","AY7WPVKHVNBLG","3ZXV7Q5FJBAKJ3TNMBBLYHIS0EBCFB","","<img src=""img/set1/S4.jpg"" width=""540"" height = ""360"" style=""border:16px solid orange"">","null","","","","","","","","","",""
"null","","html-keyboard-response","30","470768","0.0-30.0","3QL2OFSM974YTF4YB1Z0V5NNABVCND","AY7WPVKHVNBLG","3ZXV7Q5FJBAKJ3TNMBBLYHIS0EBCFB","","","null","","","","","","","","","",""
"716","","image-keyboard-response","31","471485","0.0-31.0","3QL2OFSM974YTF4YB1Z0V5NNABVCND","AY7WPVKHVNBLG","3ZXV7Q5FJBAKJ3TNMBBLYHIS0EBCFB","","img/set1/S1.jpg","74","1","random","83","random,structured_load,structured_normal,structured_incentive","2,3,4,2,1,2","4,1,3,2","false","","",""
"null","","html-keyboard-response","32","471838","0.0-32.0","3QL2OFSM974YTF4YB1Z0V5NNABVCND","AY7WPVKHVNBLG","3ZXV7Q5FJBAKJ3TNMBBLYHIS0EBCFB","","<img src=""img/set1/S1.jpg"" width=""540"" height = ""360"">","null","","","","","","","","","",""
"null","","html-keyboard-response","33","472040","0.0-33.0","3QL2OFSM974YTF4YB1Z0V5NNABVCND","AY7WPVKHVNBLG","3ZXV7Q5FJBAKJ3TNMBBLYHIS0EBCFB","","","null","","","","","","","","","",""
"716.5","","image-keyboard-response","34","472757","0.0-34.0","3QL2OFSM974YTF4YB1Z0V5NNABVCND","AY7WPVKHVNBLG","3ZXV7Q5FJBAKJ3TNMBBLYHIS0EBCFB","","img/set1/S1.jpg","74","1","random","83","random,structured_load,structured_normal,structured_incentive","2,3,4,2,1,2","4,1,3,2","false","","",""
"null","","html-keyboard-response","35","473108","0.0-35.0","3QL2OFSM974YTF4YB1Z0V5NNABVCND","AY7WPVKHVNBLG","3ZXV7Q5FJBAKJ3TNMBBLYHIS0EBCFB","","<img src=""img/set1/S1.jpg"" width=""540"" height = ""360"">","null","","","","","","","","","",""
"null","","html-keyboard-response","36","473310","0.0-36.0","3QL2OFSM974YTF4YB1Z0V5NNABVCND","AY7WPVKHVNBLG","3ZXV7Q5FJBAKJ3TNMBBLYHIS0EBCFB","","","null","","","","","","","","","",""
"502.2999999523163","","image-keyboard-response","37","473813","0.0-37.0","3QL2OFSM974YTF4YB1Z0V5NNABVCND","AY7WPVKHVNBLG","3ZXV7Q5FJBAKJ3TNMBBLYHIS0EBCFB","","img/set1/S2.jpg","68","2","random","68","random,structured_load,structured_normal,structured_incentive","2,3,4,2,1,2","4,1,3,2","true","","",""
"null","","html-keyboard-response","38","474165","0.0-38.0","3QL2OFSM974YTF4YB1Z0V5NNABVCND","AY7WPVKHVNBLG","3ZXV7Q5FJBAKJ3TNMBBLYHIS0EBCFB","","<img src=""img/set1/S2.jpg"" width=""540"" height = ""360"" style=""border:16px solid orange"">","null","","","","","","","","","",""
"null","","html-keyboard-response","39","474367","0.0-39.0","3QL2OFSM974YTF4YB1Z0V5NNABVCND","AY7WPVKHVNBLG","3ZXV7Q5FJBAKJ3TNMBBLYHIS0EBCFB","","","null","","","","","","","","","",""
"748.7000000476837","","image-keyboard-response","40","475117","0.0-40.0","3QL2OFSM974YTF4YB1Z0V5NNABVCND","AY7WPVKHVNBLG","3ZXV7Q5FJBAKJ3TNMBBLYHIS0EBCFB","","img/set1/S2.jpg","68","2","random","68","random,structured_load,structured_normal,structured_incentive","2,3,4,2,1,2","4,1,3,2","true","","",""
"null","","html-keyboard-response","41","475469","0.0-41.0","3QL2OFSM974YTF4YB1Z0V5NNABVCND","AY7WPVKHVNBLG","3ZXV7Q5FJBAKJ3TNMBBLYHIS0EBCFB","","<img src=""img/set1/S2.jpg"" width=""540"" height = ""360"" style=""border:16px solid orange"">","null","","","","","","","","","",""
"null","","html-keyboard-response","42","475671","0.0-42.0","3QL2OFSM974YTF4YB1Z0V5NNABVCND","AY7WPVKHVNBLG","3ZXV7Q5FJBAKJ3TNMBBLYHIS0EBCFB","","","null","","","","","","","","","",""
"917.2000000476837","","image-keyboard-response","43","476589","0.0-43.0","3QL2OFSM974YTF4YB1Z0V5NNABVCND","AY7WPVKHVNBLG","3ZXV7Q5FJBAKJ3TNMBBLYHIS0EBCFB","","img/set1/S3.jpg","83","3","random","72","random,structured_load,structured_normal,structured_incentive","2,3,4,2,1,2","4,1,3,2","false","","",""
"null","","html-keyboard-response","44","476940","0.0-44.0","3QL2OFSM974YTF4YB1Z0V5NNABVCND","AY7WPVKHVNBLG","3ZXV7Q5FJBAKJ3TNMBBLYHIS0EBCFB","","<img src=""img/set1/S3.jpg"" width=""540"" height = ""360"">","null","","","","","","","","","",""
"null","","html-keyboard-response","45","477152","0.0-45.0","3QL2OFSM974YTF4YB1Z0V5NNABVCND","AY7WPVKHVNBLG","3ZXV7Q5FJBAKJ3TNMBBLYHIS0EBCFB","","","null","","","","","","","","","",""
"1069.1999999284744","","image-keyboard-response","46","478222","0.0-46.0","3QL2OFSM974YTF4YB1Z0V5NNABVCND","AY7WPVKHVNBLG","3ZXV7Q5FJBAKJ3TNMBBLYHIS0EBCFB","","img/set1/S1.jpg","74","1","random","83","random,structured_load,structured_normal,structured_incentive","2,3,4,2,1,2","4,1,3,2","false","","",""
"null","","html-keyboard-response","47","478574","0.0-47.0","3QL2OFSM974YTF4YB1Z0V5NNABVCND","AY7WPVKHVNBLG","3ZXV7Q5FJBAKJ3TNMBBLYHIS0EBCFB","","<img src=""img/set1/S1.jpg"" width=""540"" height = ""360"">","null","","","","","","","","","",""
"null","","html-keyboard-response","48","478776","0.0-48.0","3QL2OFSM974YTF4YB1Z0V5NNABVCND","AY7WPVKHVNBLG","3ZXV7Q5FJBAKJ3TNMBBLYHIS0EBCFB","","","null","","","","","","","","","",""
"915.7000000476837","","image-keyboard-response","49","479693","0.0-49.0","3QL2OFSM974YTF4YB1Z0V5NNABVCND","AY7WPVKHVNBLG","3ZXV7Q5FJBAKJ3TNMBBLYHIS0EBCFB","","img/set1/S2.jpg","83","2","random","68","random,structured_load,structured_normal,structured_incentive","2,3,4,2,1,2","4,1,3,2","false","","",""
"null","","html-keyboard-response","50","480044","0.0-50.0","3QL2OFSM974YTF4YB1Z0V5NNABVCND","AY7WPVKHVNBLG","3ZXV7Q5FJBAKJ3TNMBBLYHIS0EBCFB","","<img src=""img/set1/S2.jpg"" width=""540"" height = ""360"">","null","","","","","","","","","",""
"null","","html-keyboard-response","51","480246","0.0-51.0","3QL2OFSM974YTF4YB1Z0V5NNABVCND","AY7WPVKHVNBLG","3ZXV7Q5FJBAKJ3TNMBBLYHIS0EBCFB","","","null","","","","","","","","","",""
"726","","image-keyboard-response","52","480973","0.0-52.0","3QL2OFSM974YTF4YB1Z0V5NNABVCND","AY7WPVKHVNBLG","3ZXV7Q5FJBAKJ3TNMBBLYHIS0EBCFB","","img/set1/S2.jpg","68","2","random","68","random,structured_load,structured_normal,structured_incentive","2,3,4,2,1,2","4,1,3,2","true","","",""
"null","","html-keyboard-response","53","481326","0.0-53.0","3QL2OFSM974YTF4YB1Z0V5NNABVCND","AY7WPVKHVNBLG","3ZXV7Q5FJBAKJ3TNMBBLYHIS0EBCFB","","<img src=""img/set1/S2.jpg"" width=""540"" height = ""360"" style=""border:16px solid orange"">","null","","","","","","","","","",""
"null","","html-keyboard-response","54","481528","0.0-54.0","3QL2OFSM974YTF4YB1Z0V5NNABVCND","AY7WPVKHVNBLG","3ZXV7Q5FJBAKJ3TNMBBLYHIS0EBCFB","","","null","","","","","","","","","",""
"1172.7999999523163","","image-keyboard-response","55","482702","0.0-55.0","3QL2OFSM974YTF4YB1Z0V5NNABVCND","AY7WPVKHVNBLG","3ZXV7Q5FJBAKJ3TNMBBLYHIS0EBCFB","","img/set1/S4.jpg","72","4","random","74","random,structured_load,structured_normal,structured_incentive","2,3,4,2,1,2","4,1,3,2","false","","",""
"null","","html-keyboard-response","56","483053","0.0-56.0","3QL2OFSM974YTF4YB1Z0V5NNABVCND","AY7WPVKHVNBLG","3ZXV7Q5FJBAKJ3TNMBBLYHIS0EBCFB","","<img src=""img/set1/S4.jpg"" width=""540"" height = ""360"">","null","","","","","","","","","",""
"null","","html-keyboard-response","57","483255","0.0-57.0","3QL2OFSM974YTF4YB1Z0V5NNABVCND","AY7WPVKHVNBLG","3ZXV7Q5FJBAKJ3TNMBBLYHIS0EBCFB","","","null","","","","","","","","","",""
"780.7000000476837","","image-keyboard-response","58","484037","0.0-58.0","3QL2OFSM974YTF4YB1Z0V5NNABVCND","AY7WPVKHVNBLG","3ZXV7Q5FJBAKJ3TNMBBLYHIS0EBCFB","","img/set1/S4.jpg","83","4","random","74","random,structured_load,structured_normal,structured_incentive","2,3,4,2,1,2","4,1,3,2","false","","",""
"null","","html-keyboard-response","59","484390","0.0-59.0","3QL2OFSM974YTF4YB1Z0V5NNABVCND","AY7WPVKHVNBLG","3ZXV7Q5FJBAKJ3TNMBBLYHIS0EBCFB","","<img src=""img/set1/S4.jpg"" width=""540"" height = ""360"">","null","","","","","","","","","",""
"null","","html-keyboard-response","60","484603","0.0-60.0","3QL2OFSM974YTF4YB1Z0V5NNABVCND","AY7WPVKHVNBLG","3ZXV7Q5FJBAKJ3TNMBBLYHIS0EBCFB","","","null","","","","","","","","","",""
"817.0999999046326","","image-keyboard-response","61","485421","0.0-61.0","3QL2OFSM974YTF4YB1Z0V5NNABVCND","AY7WPVKHVNBLG","3ZXV7Q5FJBAKJ3TNMBBLYHIS0EBCFB","","img/set1/S4.jpg","74","4","random","74","random,structured_load,structured_normal,structured_incentive","2,3,4,2,1,2","4,1,3,2","true","","",""
"null","","html-keyboard-response","62","485774","0.0-62.0","3QL2OFSM974YTF4YB1Z0V5NNABVCND","AY7WPVKHVNBLG","3ZXV7Q5FJBAKJ3TNMBBLYHIS0EBCFB","","<img src=""img/set1/S4.jpg"" width=""540"" height = ""360"" style=""border:16px solid orange"">","null","","","","","","","","","",""
"null","","html-keyboard-response","63","485976","0.0-63.0","3QL2OFSM974YTF4YB1Z0V5NNABVCND","AY7WPVKHVNBLG","3ZXV7Q5FJBAKJ3TNMBBLYHIS0EBCFB","","","null","","","","","","","","","",""
"980.2000000476837","","image-keyboard-response","64","486957","0.0-64.0","3QL2OFSM974YTF4YB1Z0V5NNABVCND","AY7WPVKHVNBLG","3ZXV7Q5FJBAKJ3TNMBBLYHIS0EBCFB","","img/set1/S2.jpg","68","2","random","68","random,structured_load,structured_normal,structured_incentive","2,3,4,2,1,2","4,1,3,2","true","","",""
"null","","html-keyboard-response","65","487309","0.0-65.0","3QL2OFSM974YTF4YB1Z0V5NNABVCND","AY7WPVKHVNBLG","3ZXV7Q5FJBAKJ3TNMBBLYHIS0EBCFB","","<img src=""img/set1/S2.jpg"" width=""540"" height = ""360"" style=""border:16px solid orange"">","null","","","","","","","","","",""
"null","","html-keyboard-response","66","487511","0.0-66.0","3QL2OFSM974YTF4YB1Z0V5NNABVCND","AY7WPVKHVNBLG","3ZXV7Q5FJBAKJ3TNMBBLYHIS0EBCFB","","","null","","","","","","","","","",""
"605.3999999761581","","image-keyboard-response","67","488117","0.0-67.0","3QL2OFSM974YTF4YB1Z0V5NNABVCND","AY7WPVKHVNBLG","3ZXV7Q5FJBAKJ3TNMBBLYHIS0EBCFB","","img/set1/S2.jpg","68","2","random","68","random,structured_load,structured_normal,structured_incentive","2,3,4,2,1,2","4,1,3,2","true","","",""
"null","","html-keyboard-response","68","488468","0.0-68.0","3QL2OFSM974YTF4YB1Z0V5NNABVCND","AY7WPVKHVNBLG","3ZXV7Q5FJBAKJ3TNMBBLYHIS0EBCFB","","<img src=""img/set1/S2.jpg"" width=""540"" height = ""360"" style=""border:16px solid orange"">","null","","","","","","","","","",""
"null","","html-keyboard-response","69","488670","0.0-69.0","3QL2OFSM974YTF4YB1Z0V5NNABVCND","AY7WPVKHVNBLG","3ZXV7Q5FJBAKJ3TNMBBLYHIS0EBCFB","","","null","","","","","","","","","",""
"1020.7999999523163","","image-keyboard-response","70","489694","0.0-70.0","3QL2OFSM974YTF4YB1Z0V5NNABVCND","AY7WPVKHVNBLG","3ZXV7Q5FJBAKJ3TNMBBLYHIS0EBCFB","","img/set1/S1.jpg","74","1","random","83","random,structured_load,structured_normal,structured_incentive","2,3,4,2,1,2","4,1,3,2","false","","",""
"null","","html-keyboard-response","71","490045","0.0-71.0","3QL2OFSM974YTF4YB1Z0V5NNABVCND","AY7WPVKHVNBLG","3ZXV7Q5FJBAKJ3TNMBBLYHIS0EBCFB","","<img src=""img/set1/S1.jpg"" width=""540"" height = ""360"">","null","","","","","","","","","",""
"null","","html-keyboard-response","72","490247","0.0-72.0","3QL2OFSM974YTF4YB1Z0V5NNABVCND","AY7WPVKHVNBLG","3ZXV7Q5FJBAKJ3TNMBBLYHIS0EBCFB","","","null","","","","","","","","","",""
"1125.2999999523163","","image-keyboard-response","73","491373","0.0-73.0","3QL2OFSM974YTF4YB1Z0V5NNABVCND","AY7WPVKHVNBLG","3ZXV7Q5FJBAKJ3TNMBBLYHIS0EBCFB","","img/set1/S1.jpg","72","1","random","83","random,structured_load,structured_normal,structured_incentive","2,3,4,2,1,2","4,1,3,2","false","","",""
"null","","html-keyboard-response","74","491725","0.0-74.0","3QL2OFSM974YTF4YB1Z0V5NNABVCND","AY7WPVKHVNBLG","3ZXV7Q5FJBAKJ3TNMBBLYHIS0EBCFB","","<img src=""img/set1/S1.jpg"" width=""540"" height = ""360"">","null","","","","","","","","","",""
"null","","html-keyboard-response","75","491927","0.0-75.0","3QL2OFSM974YTF4YB1Z0V5NNABVCND","AY7WPVKHVNBLG","3ZXV7Q5FJBAKJ3TNMBBLYHIS0EBCFB","","","null","","","","","","","","","",""
"709.3999999761581","","image-keyboard-response","76","492637","0.0-76.0","3QL2OFSM974YTF4YB1Z0V5NNABVCND","AY7WPVKHVNBLG","3ZXV7Q5FJBAKJ3TNMBBLYHIS0EBCFB","","img/set1/S4.jpg","74","4","random","74","random,structured_load,structured_normal,structured_incentive","2,3,4,2,1,2","4,1,3,2","true","","",""
"null","","html-keyboard-response","77","492989","0.0-77.0","3QL2OFSM974YTF4YB1Z0V5NNABVCND","AY7WPVKHVNBLG","3ZXV7Q5FJBAKJ3TNMBBLYHIS0EBCFB","","<img src=""img/set1/S4.jpg"" width=""540"" height = ""360"" style=""border:16px solid orange"">","null","","","","","","","","","",""
"null","","html-keyboard-response","78","493191","0.0-78.0","3QL2OFSM974YTF4YB1Z0V5NNABVCND","AY7WPVKHVNBLG","3ZXV7Q5FJBAKJ3TNMBBLYHIS0EBCFB","","","null","","","","","","","","","",""
"628.7000000476837","","image-keyboard-response","79","493821","0.0-79.0","3QL2OFSM974YTF4YB1Z0V5NNABVCND","AY7WPVKHVNBLG","3ZXV7Q5FJBAKJ3TNMBBLYHIS0EBCFB","","img/set1/S2.jpg","68","2","random","68","random,structured_load,structured_normal,structured_incentive","2,3,4,2,1,2","4,1,3,2","true","","",""
"null","","html-keyboard-response","80","494172","0.0-80.0","3QL2OFSM974YTF4YB1Z0V5NNABVCND","AY7WPVKHVNBLG","3ZXV7Q5FJBAKJ3TNMBBLYHIS0EBCFB","","<img src=""img/set1/S2.jpg"" width=""540"" height = ""360"" style=""border:16px solid orange"">","null","","","","","","","","","",""
"null","","html-keyboard-response","81","494374","0.0-81.0","3QL2OFSM974YTF4YB1Z0V5NNABVCND","AY7WPVKHVNBLG","3ZXV7Q5FJBAKJ3TNMBBLYHIS0EBCFB","","","null","","","","","","","","","",""
"429.7000000476837","","image-keyboard-response","82","494805","0.0-82.0","3QL2OFSM974YTF4YB1Z0V5NNABVCND","AY7WPVKHVNBLG","3ZXV7Q5FJBAKJ3TNMBBLYHIS0EBCFB","","img/set1/S3.jpg","83","3","random","72","random,structured_load,structured_normal,structured_incentive","2,3,4,2,1,2","4,1,3,2","false","","",""
"null","","html-keyboard-response","83","495174","0.0-83.0","3QL2OFSM974YTF4YB1Z0V5NNABVCND","AY7WPVKHVNBLG","3ZXV7Q5FJBAKJ3TNMBBLYHIS0EBCFB","","<img src=""img/set1/S3.jpg"" width=""540"" height = ""360"">","null","","","","","","","","","",""
"null","","html-keyboard-response","84","495376","0.0-84.0","3QL2OFSM974YTF4YB1Z0V5NNABVCND","AY7WPVKHVNBLG","3ZXV7Q5FJBAKJ3TNMBBLYHIS0EBCFB","","","null","","","","","","","","","",""
"1012.1999999284744","","image-keyboard-response","85","496389","0.0-85.0","3QL2OFSM974YTF4YB1Z0V5NNABVCND","AY7WPVKHVNBLG","3ZXV7Q5FJBAKJ3TNMBBLYHIS0EBCFB","","img/set1/S2.jpg","74","2","random","68","random,structured_load,structured_normal,structured_incentive","2,3,4,2,1,2","4,1,3,2","false","","",""
"null","","html-keyboard-response","86","496741","0.0-86.0","3QL2OFSM974YTF4YB1Z0V5NNABVCND","AY7WPVKHVNBLG","3ZXV7Q5FJBAKJ3TNMBBLYHIS0EBCFB","","<img src=""img/set1/S2.jpg"" width=""540"" height = ""360"">","null","","","","","","","","","",""
"null","","html-keyboard-response","87","496943","0.0-87.0","3QL2OFSM974YTF4YB1Z0V5NNABVCND","AY7WPVKHVNBLG","3ZXV7Q5FJBAKJ3TNMBBLYHIS0EBCFB","","","null","","","","","","","","","",""
"1477.8999999761581","","image-keyboard-response","88","498421","0.0-88.0","3QL2OFSM974YTF4YB1Z0V5NNABVCND","AY7WPVKHVNBLG","3ZXV7Q5FJBAKJ3TNMBBLYHIS0EBCFB","","img/set1/S3.jpg","72","3","random","72","random,structured_load,structured_normal,structured_incentive","2,3,4,2,1,2","4,1,3,2","true","","",""
"null","","html-keyboard-response","89","498774","0.0-89.0","3QL2OFSM974YTF4YB1Z0V5NNABVCND","AY7WPVKHVNBLG","3ZXV7Q5FJBAKJ3TNMBBLYHIS0EBCFB","","<img src=""img/set1/S3.jpg"" width=""540"" height = ""360"" style=""border:16px solid orange"">","null","","","","","","","","","",""
"null","","html-keyboard-response","90","498976","0.0-90.0","3QL2OFSM974YTF4YB1Z0V5NNABVCND","AY7WPVKHVNBLG","3ZXV7Q5FJBAKJ3TNMBBLYHIS0EBCFB","","","null","","","","","","","","","",""
"709.1000000238419","","image-keyboard-response","91","499686","0.0-91.0","3QL2OFSM974YTF4YB1Z0V5NNABVCND","AY7WPVKHVNBLG","3ZXV7Q5FJBAKJ3TNMBBLYHIS0EBCFB","","img/set1/S2.jpg","68","2","random","68","random,structured_load,structured_normal,structured_incentive","2,3,4,2,1,2","4,1,3,2","true","","",""
"null","","html-keyboard-response","92","500037","0.0-92.0","3QL2OFSM974YTF4YB1Z0V5NNABVCND","AY7WPVKHVNBLG","3ZXV7Q5FJBAKJ3TNMBBLYHIS0EBCFB","","<img src=""img/set1/S2.jpg"" width=""540"" height = ""360"" style=""border:16px solid orange"">","null","","","","","","","","","",""
"null","","html-keyboard-response","93","500238","0.0-93.0","3QL2OFSM974YTF4YB1Z0V5NNABVCND","AY7WPVKHVNBLG","3ZXV7Q5FJBAKJ3TNMBBLYHIS0EBCFB","","","null","","","","","","","","","",""
"478.5","","image-keyboard-response","94","500717","0.0-94.0","3QL2OFSM974YTF4YB1Z0V5NNABVCND","AY7WPVKHVNBLG","3ZXV7Q5FJBAKJ3TNMBBLYHIS0EBCFB","","img/set1/S3.jpg","72","3","random","72","random,structured_load,structured_normal,structured_incentive","2,3,4,2,1,2","4,1,3,2","true","","",""
"null","","html-keyboard-response","95","501070","0.0-95.0","3QL2OFSM974YTF4YB1Z0V5NNABVCND","AY7WPVKHVNBLG","3ZXV7Q5FJBAKJ3TNMBBLYHIS0EBCFB","","<img src=""img/set1/S3.jpg"" width=""540"" height = ""360"" style=""border:16px solid orange"">","null","","","","","","","","","",""
"null","","html-keyboard-response","96","501283","0.0-96.0","3QL2OFSM974YTF4YB1Z0V5NNABVCND","AY7WPVKHVNBLG","3ZXV7Q5FJBAKJ3TNMBBLYHIS0EBCFB","","","null","","","","","","","","","",""
"1041.2000000476837","","image-keyboard-response","97","502325","0.0-97.0","3QL2OFSM974YTF4YB1Z0V5NNABVCND","AY7WPVKHVNBLG","3ZXV7Q5FJBAKJ3TNMBBLYHIS0EBCFB","","img/set1/S1.jpg","83","1","random","83","random,structured_load,structured_normal,structured_incentive","2,3,4,2,1,2","4,1,3,2","true","","",""
"null","","html-keyboard-response","98","502677","0.0-98.0","3QL2OFSM974YTF4YB1Z0V5NNABVCND","AY7WPVKHVNBLG","3ZXV7Q5FJBAKJ3TNMBBLYHIS0EBCFB","","<img src=""img/set1/S1.jpg"" width=""540"" height = ""360"" style=""border:16px solid orange"">","null","","","","","","","","","",""
"null","","html-keyboard-response","99","502879","0.0-99.0","3QL2OFSM974YTF4YB1Z0V5NNABVCND","AY7WPVKHVNBLG","3ZXV7Q5FJBAKJ3TNMBBLYHIS0EBCFB","","","null","","","","","","","","","",""
"1773.7999999523163","","image-keyboard-response","100","504653","0.0-100.0","3QL2OFSM974YTF4YB1Z0V5NNABVCND","AY7WPVKHVNBLG","3ZXV7Q5FJBAKJ3TNMBBLYHIS0EBCFB","","img/set1/S4.jpg","72","4","random","74","random,structured_load,structured_normal,structured_incentive","2,3,4,2,1,2","4,1,3,2","false","","",""
"null","","html-keyboard-response","101","505005","0.0-101.0","3QL2OFSM974YTF4YB1Z0V5NNABVCND","AY7WPVKHVNBLG","3ZXV7Q5FJBAKJ3TNMBBLYHIS0EBCFB","","<img src=""img/set1/S4.jpg"" width=""540"" height = ""360"">","null","","","","","","","","","",""
"null","","html-keyboard-response","102","505207","0.0-102.0","3QL2OFSM974YTF4YB1Z0V5NNABVCND","AY7WPVKHVNBLG","3ZXV7Q5FJBAKJ3TNMBBLYHIS0EBCFB","","","null","","","","","","","","","",""
"629.0999999046326","","image-keyboard-response","103","505837","0.0-103.0","3QL2OFSM974YTF4YB1Z0V5NNABVCND","AY7WPVKHVNBLG","3ZXV7Q5FJBAKJ3TNMBBLYHIS0EBCFB","","img/set1/S2.jpg","68","2","random","68","random,structured_load,structured_normal,structured_incentive","2,3,4,2,1,2","4,1,3,2","true","","",""
"null","","html-keyboard-response","104","506189","0.0-104.0","3QL2OFSM974YTF4YB1Z0V5NNABVCND","AY7WPVKHVNBLG","3ZXV7Q5FJBAKJ3TNMBBLYHIS0EBCFB","","<img src=""img/set1/S2.jpg"" width=""540"" height = ""360"" style=""border:16px solid orange"">","null","","","","","","","","","",""
"null","","html-keyboard-response","105","506391","0.0-105.0","3QL2OFSM974YTF4YB1Z0V5NNABVCND","AY7WPVKHVNBLG","3ZXV7Q5FJBAKJ3TNMBBLYHIS0EBCFB","","","null","","","","","","","","","",""
"637.2000000476837","","image-keyboard-response","106","507029","0.0-106.0","3QL2OFSM974YTF4YB1Z0V5NNABVCND","AY7WPVKHVNBLG","3ZXV7Q5FJBAKJ3TNMBBLYHIS0EBCFB","","img/set1/S4.jpg","74","4","random","74","random,structured_load,structured_normal,structured_incentive","2,3,4,2,1,2","4,1,3,2","true","","",""
"null","","html-keyboard-response","107","507381","0.0-107.0","3QL2OFSM974YTF4YB1Z0V5NNABVCND","AY7WPVKHVNBLG","3ZXV7Q5FJBAKJ3TNMBBLYHIS0EBCFB","","<img src=""img/set1/S4.jpg"" width=""540"" height = ""360"" style=""border:16px solid orange"">","null","","","","","","","","","",""
"null","","html-keyboard-response","108","507583","0.0-108.0","3QL2OFSM974YTF4YB1Z0V5NNABVCND","AY7WPVKHVNBLG","3ZXV7Q5FJBAKJ3TNMBBLYHIS0EBCFB","","","null","","","","","","","","","",""
"756.7000000476837","","image-keyboard-response","109","508341","0.0-109.0","3QL2OFSM974YTF4YB1Z0V5NNABVCND","AY7WPVKHVNBLG","3ZXV7Q5FJBAKJ3TNMBBLYHIS0EBCFB","","img/set1/S2.jpg","68","2","random","68","random,structured_load,structured_normal,structured_incentive","2,3,4,2,1,2","4,1,3,2","true","","",""
"null","","html-keyboard-response","110","508693","0.0-110.0","3QL2OFSM974YTF4YB1Z0V5NNABVCND","AY7WPVKHVNBLG","3ZXV7Q5FJBAKJ3TNMBBLYHIS0EBCFB","","<img src=""img/set1/S2.jpg"" width=""540"" height = ""360"" style=""border:16px solid orange"">","null","","","","","","","","","",""
"null","","html-keyboard-response","111","508895","0.0-111.0","3QL2OFSM974YTF4YB1Z0V5NNABVCND","AY7WPVKHVNBLG","3ZXV7Q5FJBAKJ3TNMBBLYHIS0EBCFB","","","null","","","","","","","","","",""
"772.6000000238419","","image-keyboard-response","112","509669","0.0-112.0","3QL2OFSM974YTF4YB1Z0V5NNABVCND","AY7WPVKHVNBLG","3ZXV7Q5FJBAKJ3TNMBBLYHIS0EBCFB","","img/set1/S1.jpg","83","1","random","83","random,structured_load,structured_normal,structured_incentive","2,3,4,2,1,2","4,1,3,2","true","","",""
"null","","html-keyboard-response","113","510021","0.0-113.0","3QL2OFSM974YTF4YB1Z0V5NNABVCND","AY7WPVKHVNBLG","3ZXV7Q5FJBAKJ3TNMBBLYHIS0EBCFB","","<img src=""img/set1/S1.jpg"" width=""540"" height = ""360"" style=""border:16px solid orange"">","null","","","","","","","","","",""
"null","","html-keyboard-response","114","510223","0.0-114.0","3QL2OFSM974YTF4YB1Z0V5NNABVCND","AY7WPVKHVNBLG","3ZXV7Q5FJBAKJ3TNMBBLYHIS0EBCFB","","","null","","","","","","","","","",""
"788.8999999761581","","image-keyboard-response","115","511013","0.0-115.0","3QL2OFSM974YTF4YB1Z0V5NNABVCND","AY7WPVKHVNBLG","3ZXV7Q5FJBAKJ3TNMBBLYHIS0EBCFB","","img/set1/S2.jpg","68","2","random","68","random,structured_load,structured_normal,structured_incentive","2,3,4,2,1,2","4,1,3,2","true","","",""
"null","","html-keyboard-response","116","511366","0.0-116.0","3QL2OFSM974YTF4YB1Z0V5NNABVCND","AY7WPVKHVNBLG","3ZXV7Q5FJBAKJ3TNMBBLYHIS0EBCFB","","<img src=""img/set1/S2.jpg"" width=""540"" height = ""360"" style=""border:16px solid orange"">","null","","","","","","","","","",""
"null","","html-keyboard-response","117","511568","0.0-117.0","3QL2OFSM974YTF4YB1Z0V5NNABVCND","AY7WPVKHVNBLG","3ZXV7Q5FJBAKJ3TNMBBLYHIS0EBCFB","","","null","","","","","","","","","",""
"844.5","","image-keyboard-response","118","512413","0.0-118.0","3QL2OFSM974YTF4YB1Z0V5NNABVCND","AY7WPVKHVNBLG","3ZXV7Q5FJBAKJ3TNMBBLYHIS0EBCFB","","img/set1/S2.jpg","68","2","random","68","random,structured_load,structured_normal,structured_incentive","2,3,4,2,1,2","4,1,3,2","true","","",""
"null","","html-keyboard-response","119","512764","0.0-119.0","3QL2OFSM974YTF4YB1Z0V5NNABVCND","AY7WPVKHVNBLG","3ZXV7Q5FJBAKJ3TNMBBLYHIS0EBCFB","","<img src=""img/set1/S2.jpg"" width=""540"" height = ""360"" style=""border:16px solid orange"">","null","","","","","","","","","",""
"null","","html-keyboard-response","120","512967","0.0-120.0","3QL2OFSM974YTF4YB1Z0V5NNABVCND","AY7WPVKHVNBLG","3ZXV7Q5FJBAKJ3TNMBBLYHIS0EBCFB","","","null","","","","","","","","","",""
"1189.1000000238419","","image-keyboard-response","121","514156","0.0-121.0","3QL2OFSM974YTF4YB1Z0V5NNABVCND","AY7WPVKHVNBLG","3ZXV7Q5FJBAKJ3TNMBBLYHIS0EBCFB","","img/set1/S1.jpg","72","1","random","83","random,structured_load,structured_normal,structured_incentive","2,3,4,2,1,2","4,1,3,2","false","","",""
"null","","html-keyboard-response","122","514508","0.0-122.0","3QL2OFSM974YTF4YB1Z0V5NNABVCND","AY7WPVKHVNBLG","3ZXV7Q5FJBAKJ3TNMBBLYHIS0EBCFB","","<img src=""img/set1/S1.jpg"" width=""540"" height = ""360"">","null","","","","","","","","","",""
"null","","html-keyboard-response","123","514709","0.0-123.0","3QL2OFSM974YTF4YB1Z0V5NNABVCND","AY7WPVKHVNBLG","3ZXV7Q5FJBAKJ3TNMBBLYHIS0EBCFB","","","null","","","","","","","","","",""
"990.7000000476837","","image-keyboard-response","124","515701","0.0-124.0","3QL2OFSM974YTF4YB1Z0V5NNABVCND","AY7WPVKHVNBLG","3ZXV7Q5FJBAKJ3TNMBBLYHIS0EBCFB","","img/set1/S4.jpg","72","4","random","74","random,structured_load,structured_normal,structured_incentive","2,3,4,2,1,2","4,1,3,2","false","","",""
"null","","html-keyboard-response","125","516053","0.0-125.0","3QL2OFSM974YTF4YB1Z0V5NNABVCND","AY7WPVKHVNBLG","3ZXV7Q5FJBAKJ3TNMBBLYHIS0EBCFB","","<img src=""img/set1/S4.jpg"" width=""540"" height = ""360"">","null","","","","","","","","","",""
"null","","html-keyboard-response","126","516254","0.0-126.0","3QL2OFSM974YTF4YB1Z0V5NNABVCND","AY7WPVKHVNBLG","3ZXV7Q5FJBAKJ3TNMBBLYHIS0EBCFB","","","null","","","","","","","","","",""
"909.5","","image-keyboard-response","127","517165","0.0-127.0","3QL2OFSM974YTF4YB1Z0V5NNABVCND","AY7WPVKHVNBLG","3ZXV7Q5FJBAKJ3TNMBBLYHIS0EBCFB","","img/set1/S1.jpg","83","1","random","83","random,structured_load,structured_normal,structured_incentive","2,3,4,2,1,2","4,1,3,2","true","","",""
"null","","html-keyboard-response","128","517517","0.0-128.0","3QL2OFSM974YTF4YB1Z0V5NNABVCND","AY7WPVKHVNBLG","3ZXV7Q5FJBAKJ3TNMBBLYHIS0EBCFB","","<img src=""img/set1/S1.jpg"" width=""540"" height = ""360"" style=""border:16px solid orange"">","null","","","","","","","","","",""
"null","","html-keyboard-response","129","517719","0.0-129.0","3QL2OFSM974YTF4YB1Z0V5NNABVCND","AY7WPVKHVNBLG","3ZXV7Q5FJBAKJ3TNMBBLYHIS0EBCFB","","","null","","","","","","","","","",""
"965.4000000953674","","image-keyboard-response","130","518685","0.0-130.0","3QL2OFSM974YTF4YB1Z0V5NNABVCND","AY7WPVKHVNBLG","3ZXV7Q5FJBAKJ3TNMBBLYHIS0EBCFB","","img/set1/S3.jpg","72","3","random","72","random,structured_load,structured_normal,structured_incentive","2,3,4,2,1,2","4,1,3,2","true","","",""
"null","","html-keyboard-response","131","519037","0.0-131.0","3QL2OFSM974YTF4YB1Z0V5NNABVCND","AY7WPVKHVNBLG","3ZXV7Q5FJBAKJ3TNMBBLYHIS0EBCFB","","<img src=""img/set1/S3.jpg"" width=""540"" height = ""360"" style=""border:16px solid orange"">","null","","","","","","","","","",""
"null","","html-keyboard-response","132","519244","0.0-132.0","3QL2OFSM974YTF4YB1Z0V5NNABVCND","AY7WPVKHVNBLG","3ZXV7Q5FJBAKJ3TNMBBLYHIS0EBCFB","","","null","","","","","","","","","",""
"847.5","","image-keyboard-response","133","520093","0.0-133.0","3QL2OFSM974YTF4YB1Z0V5NNABVCND","AY7WPVKHVNBLG","3ZXV7Q5FJBAKJ3TNMBBLYHIS0EBCFB","","img/set1/S4.jpg","74","4","random","74","random,structured_load,structured_normal,structured_incentive","2,3,4,2,1,2","4,1,3,2","true","","",""
"null","","html-keyboard-response","134","520445","0.0-134.0","3QL2OFSM974YTF4YB1Z0V5NNABVCND","AY7WPVKHVNBLG","3ZXV7Q5FJBAKJ3TNMBBLYHIS0EBCFB","","<img src=""img/set1/S4.jpg"" width=""540"" height = ""360"" style=""border:16px solid orange"">","null","","","","","","","","","",""
"null","","html-keyboard-response","135","520647","0.0-135.0","3QL2OFSM974YTF4YB1Z0V5NNABVCND","AY7WPVKHVNBLG","3ZXV7Q5FJBAKJ3TNMBBLYHIS0EBCFB","","","null","","","","","","","","","",""
"549.2999999523163","","image-keyboard-response","136","521197","0.0-136.0","3QL2OFSM974YTF4YB1Z0V5NNABVCND","AY7WPVKHVNBLG","3ZXV7Q5FJBAKJ3TNMBBLYHIS0EBCFB","","img/set1/S4.jpg","74","4","random","74","random,structured_load,structured_normal,structured_incentive","2,3,4,2,1,2","4,1,3,2","true","","",""
"null","","html-keyboard-response","137","521560","0.0-137.0","3QL2OFSM974YTF4YB1Z0V5NNABVCND","AY7WPVKHVNBLG","3ZXV7Q5FJBAKJ3TNMBBLYHIS0EBCFB","","<img src=""img/set1/S4.jpg"" width=""540"" height = ""360"" style=""border:16px solid orange"">","null","","","","","","","","","",""
"null","","html-keyboard-response","138","521762","0.0-138.0","3QL2OFSM974YTF4YB1Z0V5NNABVCND","AY7WPVKHVNBLG","3ZXV7Q5FJBAKJ3TNMBBLYHIS0EBCFB","","","null","","","","","","","","","",""
"1449.8000000715256","","image-keyboard-response","139","523213","0.0-139.0","3QL2OFSM974YTF4YB1Z0V5NNABVCND","AY7WPVKHVNBLG","3ZXV7Q5FJBAKJ3TNMBBLYHIS0EBCFB","","img/set1/S3.jpg","72","3","random","72","random,structured_load,structured_normal,structured_incentive","2,3,4,2,1,2","4,1,3,2","true","","",""
"null","","html-keyboard-response","140","523565","0.0-140.0","3QL2OFSM974YTF4YB1Z0V5NNABVCND","AY7WPVKHVNBLG","3ZXV7Q5FJBAKJ3TNMBBLYHIS0EBCFB","","<img src=""img/set1/S3.jpg"" width=""540"" height = ""360"" style=""border:16px solid orange"">","null","","","","","","","","","",""
"null","","html-keyboard-response","141","523767","0.0-141.0","3QL2OFSM974YTF4YB1Z0V5NNABVCND","AY7WPVKHVNBLG","3ZXV7Q5FJBAKJ3TNMBBLYHIS0EBCFB","","","null","","","","","","","","","",""
"837","","image-keyboard-response","142","524605","0.0-142.0","3QL2OFSM974YTF4YB1Z0V5NNABVCND","AY7WPVKHVNBLG","3ZXV7Q5FJBAKJ3TNMBBLYHIS0EBCFB","","img/set1/S1.jpg","83","1","random","83","random,structured_load,structured_normal,structured_incentive","2,3,4,2,1,2","4,1,3,2","true","","",""
"null","","html-keyboard-response","143","524958","0.0-143.0","3QL2OFSM974YTF4YB1Z0V5NNABVCND","AY7WPVKHVNBLG","3ZXV7Q5FJBAKJ3TNMBBLYHIS0EBCFB","","<img src=""img/set1/S1.jpg"" width=""540"" height = ""360"" style=""border:16px solid orange"">","null","","","","","","","","","",""
"null","","html-keyboard-response","144","525159","0.0-144.0","3QL2OFSM974YTF4YB1Z0V5NNABVCND","AY7WPVKHVNBLG","3ZXV7Q5FJBAKJ3TNMBBLYHIS0EBCFB","","","null","","","","","","","","","",""
"932.8000000715256","","image-keyboard-response","145","526093","0.0-145.0","3QL2OFSM974YTF4YB1Z0V5NNABVCND","AY7WPVKHVNBLG","3ZXV7Q5FJBAKJ3TNMBBLYHIS0EBCFB","","img/set1/S1.jpg","83","1","random","83","random,structured_load,structured_normal,structured_incentive","2,3,4,2,1,2","4,1,3,2","true","","",""
"null","","html-keyboard-response","146","526445","0.0-146.0","3QL2OFSM974YTF4YB1Z0V5NNABVCND","AY7WPVKHVNBLG","3ZXV7Q5FJBAKJ3TNMBBLYHIS0EBCFB","","<img src=""img/set1/S1.jpg"" width=""540"" height = ""360"" style=""border:16px solid orange"">","null","","","","","","","","","",""
"null","","html-keyboard-response","147","526647","0.0-147.0","3QL2OFSM974YTF4YB1Z0V5NNABVCND","AY7WPVKHVNBLG","3ZXV7Q5FJBAKJ3TNMBBLYHIS0EBCFB","","","null","","","","","","","","","",""
"629.4000000953674","","image-keyboard-response","148","527277","0.0-148.0","3QL2OFSM974YTF4YB1Z0V5NNABVCND","AY7WPVKHVNBLG","3ZXV7Q5FJBAKJ3TNMBBLYHIS0EBCFB","","img/set1/S1.jpg","83","1","random","83","random,structured_load,structured_normal,structured_incentive","2,3,4,2,1,2","4,1,3,2","true","","",""
"null","","html-keyboard-response","149","527630","0.0-149.0","3QL2OFSM974YTF4YB1Z0V5NNABVCND","AY7WPVKHVNBLG","3ZXV7Q5FJBAKJ3TNMBBLYHIS0EBCFB","","<img src=""img/set1/S1.jpg"" width=""540"" height = ""360"" style=""border:16px solid orange"">","null","","","","","","","","","",""
"null","","html-keyboard-response","150","527832","0.0-150.0","3QL2OFSM974YTF4YB1Z0V5NNABVCND","AY7WPVKHVNBLG","3ZXV7Q5FJBAKJ3TNMBBLYHIS0EBCFB","","","null","","","","","","","","","",""
"1347.5","","image-keyboard-response","151","529181","0.0-151.0","3QL2OFSM974YTF4YB1Z0V5NNABVCND","AY7WPVKHVNBLG","3ZXV7Q5FJBAKJ3TNMBBLYHIS0EBCFB","","img/set1/S4.jpg","74","4","random","74","random,structured_load,structured_normal,structured_incentive","2,3,4,2,1,2","4,1,3,2","true","","",""
"null","","html-keyboard-response","152","529534","0.0-152.0","3QL2OFSM974YTF4YB1Z0V5NNABVCND","AY7WPVKHVNBLG","3ZXV7Q5FJBAKJ3TNMBBLYHIS0EBCFB","","<img src=""img/set1/S4.jpg"" width=""540"" height = ""360"" style=""border:16px solid orange"">","null","","","","","","","","","",""
"null","","html-keyboard-response","153","529736","0.0-153.0","3QL2OFSM974YTF4YB1Z0V5NNABVCND","AY7WPVKHVNBLG","3ZXV7Q5FJBAKJ3TNMBBLYHIS0EBCFB","","","null","","","","","","","","","",""
"820.3999999761581","","image-keyboard-response","154","530558","0.0-154.0","3QL2OFSM974YTF4YB1Z0V5NNABVCND","AY7WPVKHVNBLG","3ZXV7Q5FJBAKJ3TNMBBLYHIS0EBCFB","","img/set1/S2.jpg","68","2","random","68","random,structured_load,structured_normal,structured_incentive","2,3,4,2,1,2","4,1,3,2","true","","",""
"null","","html-keyboard-response","155","530912","0.0-155.0","3QL2OFSM974YTF4YB1Z0V5NNABVCND","AY7WPVKHVNBLG","3ZXV7Q5FJBAKJ3TNMBBLYHIS0EBCFB","","<img src=""img/set1/S2.jpg"" width=""540"" height = ""360"" style=""border:16px solid orange"">","null","","","","","","","","","",""
"null","","html-keyboard-response","156","531128","0.0-156.0","3QL2OFSM974YTF4YB1Z0V5NNABVCND","AY7WPVKHVNBLG","3ZXV7Q5FJBAKJ3TNMBBLYHIS0EBCFB","","","null","","","","","","","","","",""
"548.2999999523163","","image-keyboard-response","157","531677","0.0-157.0","3QL2OFSM974YTF4YB1Z0V5NNABVCND","AY7WPVKHVNBLG","3ZXV7Q5FJBAKJ3TNMBBLYHIS0EBCFB","","img/set1/S2.jpg","68","2","random","68","random,structured_load,structured_normal,structured_incentive","2,3,4,2,1,2","4,1,3,2","true","","",""
"null","","html-keyboard-response","158","532029","0.0-158.0","3QL2OFSM974YTF4YB1Z0V5NNABVCND","AY7WPVKHVNBLG","3ZXV7Q5FJBAKJ3TNMBBLYHIS0EBCFB","","<img src=""img/set1/S2.jpg"" width=""540"" height = ""360"" style=""border:16px solid orange"">","null","","","","","","","","","",""
"null","","html-keyboard-response","159","532231","0.0-159.0","3QL2OFSM974YTF4YB1Z0V5NNABVCND","AY7WPVKHVNBLG","3ZXV7Q5FJBAKJ3TNMBBLYHIS0EBCFB","","","null","","","","","","","","","",""
"860.8000000715256","","image-keyboard-response","160","533093","0.0-160.0","3QL2OFSM974YTF4YB1Z0V5NNABVCND","AY7WPVKHVNBLG","3ZXV7Q5FJBAKJ3TNMBBLYHIS0EBCFB","","img/set1/S1.jpg","83","1","random","83","random,structured_load,structured_normal,structured_incentive","2,3,4,2,1,2","4,1,3,2","true","","",""
"null","","html-keyboard-response","161","533446","0.0-161.0","3QL2OFSM974YTF4YB1Z0V5NNABVCND","AY7WPVKHVNBLG","3ZXV7Q5FJBAKJ3TNMBBLYHIS0EBCFB","","<img src=""img/set1/S1.jpg"" width=""540"" height = ""360"" style=""border:16px solid orange"">","null","","","","","","","","","",""
"null","","html-keyboard-response","162","533647","0.0-162.0","3QL2OFSM974YTF4YB1Z0V5NNABVCND","AY7WPVKHVNBLG","3ZXV7Q5FJBAKJ3TNMBBLYHIS0EBCFB","","","null","","","","","","","","","",""
"396.2000000476837","","image-keyboard-response","163","534045","0.0-163.0","3QL2OFSM974YTF4YB1Z0V5NNABVCND","AY7WPVKHVNBLG","3ZXV7Q5FJBAKJ3TNMBBLYHIS0EBCFB","","img/set1/S1.jpg","83","1","random","83","random,structured_load,structured_normal,structured_incentive","2,3,4,2,1,2","4,1,3,2","true","","",""
"null","","html-keyboard-response","164","534396","0.0-164.0","3QL2OFSM974YTF4YB1Z0V5NNABVCND","AY7WPVKHVNBLG","3ZXV7Q5FJBAKJ3TNMBBLYHIS0EBCFB","","<img src=""img/set1/S1.jpg"" width=""540"" height = ""360"" style=""border:16px solid orange"">","null","","","","","","","","","",""
"null","","html-keyboard-response","165","534598","0.0-165.0","3QL2OFSM974YTF4YB1Z0V5NNABVCND","AY7WPVKHVNBLG","3ZXV7Q5FJBAKJ3TNMBBLYHIS0EBCFB","","","null","","","","","","","","","",""
"686.1000000238419","","image-keyboard-response","166","535285","0.0-166.0","3QL2OFSM974YTF4YB1Z0V5NNABVCND","AY7WPVKHVNBLG","3ZXV7Q5FJBAKJ3TNMBBLYHIS0EBCFB","","img/set1/S3.jpg","72","3","random","72","random,structured_load,structured_normal,structured_incentive","2,3,4,2,1,2","4,1,3,2","true","","",""
"null","","html-keyboard-response","167","535637","0.0-167.0","3QL2OFSM974YTF4YB1Z0V5NNABVCND","AY7WPVKHVNBLG","3ZXV7Q5FJBAKJ3TNMBBLYHIS0EBCFB","","<img src=""img/set1/S3.jpg"" width=""540"" height = ""360"" style=""border:16px solid orange"">","null","","","","","","","","","",""
"null","","html-keyboard-response","168","535839","0.0-168.0","3QL2OFSM974YTF4YB1Z0V5NNABVCND","AY7WPVKHVNBLG","3ZXV7Q5FJBAKJ3TNMBBLYHIS0EBCFB","","","null","","","","","","","","","",""
"796.9000000953674","","image-keyboard-response","169","536637","0.0-169.0","3QL2OFSM974YTF4YB1Z0V5NNABVCND","AY7WPVKHVNBLG","3ZXV7Q5FJBAKJ3TNMBBLYHIS0EBCFB","","img/set1/S4.jpg","83","4","random","74","random,structured_load,structured_normal,structured_incentive","2,3,4,2,1,2","4,1,3,2","false","","",""
"null","","html-keyboard-response","170","536989","0.0-170.0","3QL2OFSM974YTF4YB1Z0V5NNABVCND","AY7WPVKHVNBLG","3ZXV7Q5FJBAKJ3TNMBBLYHIS0EBCFB","","<img src=""img/set1/S4.jpg"" width=""540"" height = ""360"">","null","","","","","","","","","",""
"null","","html-keyboard-response","171","537190","0.0-171.0","3QL2OFSM974YTF4YB1Z0V5NNABVCND","AY7WPVKHVNBLG","3ZXV7Q5FJBAKJ3TNMBBLYHIS0EBCFB","","","null","","","","","","","","","",""
"629.5999999046326","","image-keyboard-response","172","537821","0.0-172.0","3QL2OFSM974YTF4YB1Z0V5NNABVCND","AY7WPVKHVNBLG","3ZXV7Q5FJBAKJ3TNMBBLYHIS0EBCFB","","img/set1/S4.jpg","74","4","random","74","random,structured_load,structured_normal,structured_incentive","2,3,4,2,1,2","4,1,3,2","true","","",""
"null","","html-keyboard-response","173","538173","0.0-173.0","3QL2OFSM974YTF4YB1Z0V5NNABVCND","AY7WPVKHVNBLG","3ZXV7Q5FJBAKJ3TNMBBLYHIS0EBCFB","","<img src=""img/set1/S4.jpg"" width=""540"" height = ""360"" style=""border:16px solid orange"">","null","","","","","","","","","",""
"null","","html-keyboard-response","174","538375","0.0-174.0","3QL2OFSM974YTF4YB1Z0V5NNABVCND","AY7WPVKHVNBLG","3ZXV7Q5FJBAKJ3TNMBBLYHIS0EBCFB","","","null","","","","","","","","","",""
"357.10000002384186","","image-keyboard-response","175","538733","0.0-175.0","3QL2OFSM974YTF4YB1Z0V5NNABVCND","AY7WPVKHVNBLG","3ZXV7Q5FJBAKJ3TNMBBLYHIS0EBCFB","","img/set1/S4.jpg","74","4","random","74","random,structured_load,structured_normal,structured_incentive","2,3,4,2,1,2","4,1,3,2","true","","",""
"null","","html-keyboard-response","176","539084","0.0-176.0","3QL2OFSM974YTF4YB1Z0V5NNABVCND","AY7WPVKHVNBLG","3ZXV7Q5FJBAKJ3TNMBBLYHIS0EBCFB","","<img src=""img/set1/S4.jpg"" width=""540"" height = ""360"" style=""border:16px solid orange"">","null","","","","","","","","","",""
"null","","html-keyboard-response","177","539286","0.0-177.0","3QL2OFSM974YTF4YB1Z0V5NNABVCND","AY7WPVKHVNBLG","3ZXV7Q5FJBAKJ3TNMBBLYHIS0EBCFB","","","null","","","","","","","","","",""
"853.4000000953674","","image-keyboard-response","178","540141","0.0-178.0","3QL2OFSM974YTF4YB1Z0V5NNABVCND","AY7WPVKHVNBLG","3ZXV7Q5FJBAKJ3TNMBBLYHIS0EBCFB","","img/set1/S3.jpg","72","3","random","72","random,structured_load,structured_normal,structured_incentive","2,3,4,2,1,2","4,1,3,2","true","","",""
"null","","html-keyboard-response","179","540493","0.0-179.0","3QL2OFSM974YTF4YB1Z0V5NNABVCND","AY7WPVKHVNBLG","3ZXV7Q5FJBAKJ3TNMBBLYHIS0EBCFB","","<img src=""img/set1/S3.jpg"" width=""540"" height = ""360"" style=""border:16px solid orange"">","null","","","","","","","","","",""
"null","","html-keyboard-response","180","540695","0.0-180.0","3QL2OFSM974YTF4YB1Z0V5NNABVCND","AY7WPVKHVNBLG","3ZXV7Q5FJBAKJ3TNMBBLYHIS0EBCFB","","","null","","","","","","","","","",""
"869.5","","image-keyboard-response","181","541565","0.0-181.0","3QL2OFSM974YTF4YB1Z0V5NNABVCND","AY7WPVKHVNBLG","3ZXV7Q5FJBAKJ3TNMBBLYHIS0EBCFB","","img/set1/S4.jpg","74","4","random","74","random,structured_load,structured_normal,structured_incentive","2,3,4,2,1,2","4,1,3,2","true","","",""
"null","","html-keyboard-response","182","541917","0.0-182.0","3QL2OFSM974YTF4YB1Z0V5NNABVCND","AY7WPVKHVNBLG","3ZXV7Q5FJBAKJ3TNMBBLYHIS0EBCFB","","<img src=""img/set1/S4.jpg"" width=""540"" height = ""360"" style=""border:16px solid orange"">","null","","","","","","","","","",""
"null","","html-keyboard-response","183","542119","0.0-183.0","3QL2OFSM974YTF4YB1Z0V5NNABVCND","AY7WPVKHVNBLG","3ZXV7Q5FJBAKJ3TNMBBLYHIS0EBCFB","","","null","","","","","","","","","",""
"549.1000000238419","","image-keyboard-response","184","542669","0.0-184.0","3QL2OFSM974YTF4YB1Z0V5NNABVCND","AY7WPVKHVNBLG","3ZXV7Q5FJBAKJ3TNMBBLYHIS0EBCFB","","img/set1/S4.jpg","74","4","random","74","random,structured_load,structured_normal,structured_incentive","2,3,4,2,1,2","4,1,3,2","true","","",""
"null","","html-keyboard-response","185","543021","0.0-185.0","3QL2OFSM974YTF4YB1Z0V5NNABVCND","AY7WPVKHVNBLG","3ZXV7Q5FJBAKJ3TNMBBLYHIS0EBCFB","","<img src=""img/set1/S4.jpg"" width=""540"" height = ""360"" style=""border:16px solid orange"">","null","","","","","","","","","",""
"null","","html-keyboard-response","186","543223","0.0-186.0","3QL2OFSM974YTF4YB1Z0V5NNABVCND","AY7WPVKHVNBLG","3ZXV7Q5FJBAKJ3TNMBBLYHIS0EBCFB","","","null","","","","","","","","","",""
"733","","image-keyboard-response","187","543957","0.0-187.0","3QL2OFSM974YTF4YB1Z0V5NNABVCND","AY7WPVKHVNBLG","3ZXV7Q5FJBAKJ3TNMBBLYHIS0EBCFB","","img/set1/S1.jpg","83","1","random","83","random,structured_load,structured_normal,structured_incentive","2,3,4,2,1,2","4,1,3,2","true","","",""
"null","","html-keyboard-response","188","544308","0.0-188.0","3QL2OFSM974YTF4YB1Z0V5NNABVCND","AY7WPVKHVNBLG","3ZXV7Q5FJBAKJ3TNMBBLYHIS0EBCFB","","<img src=""img/set1/S1.jpg"" width=""540"" height = ""360"" style=""border:16px solid orange"">","null","","","","","","","","","",""
"null","","html-keyboard-response","189","544510","0.0-189.0","3QL2OFSM974YTF4YB1Z0V5NNABVCND","AY7WPVKHVNBLG","3ZXV7Q5FJBAKJ3TNMBBLYHIS0EBCFB","","","null","","","","","","","","","",""
"653.6000000238419","","image-keyboard-response","190","545165","0.0-190.0","3QL2OFSM974YTF4YB1Z0V5NNABVCND","AY7WPVKHVNBLG","3ZXV7Q5FJBAKJ3TNMBBLYHIS0EBCFB","","img/set1/S4.jpg","74","4","random","74","random,structured_load,structured_normal,structured_incentive","2,3,4,2,1,2","4,1,3,2","true","","",""
"null","","html-keyboard-response","191","545517","0.0-191.0","3QL2OFSM974YTF4YB1Z0V5NNABVCND","AY7WPVKHVNBLG","3ZXV7Q5FJBAKJ3TNMBBLYHIS0EBCFB","","<img src=""img/set1/S4.jpg"" width=""540"" height = ""360"" style=""border:16px solid orange"">","null","","","","","","","","","",""
"null","","html-keyboard-response","192","545719","0.0-192.0","3QL2OFSM974YTF4YB1Z0V5NNABVCND","AY7WPVKHVNBLG","3ZXV7Q5FJBAKJ3TNMBBLYHIS0EBCFB","","","null","","","","","","","","","",""
"412.7000000476837","","image-keyboard-response","193","546133","0.0-193.0","3QL2OFSM974YTF4YB1Z0V5NNABVCND","AY7WPVKHVNBLG","3ZXV7Q5FJBAKJ3TNMBBLYHIS0EBCFB","","img/set1/S4.jpg","74","4","random","74","random,structured_load,structured_normal,structured_incentive","2,3,4,2,1,2","4,1,3,2","true","","",""
"null","","html-keyboard-response","194","546484","0.0-194.0","3QL2OFSM974YTF4YB1Z0V5NNABVCND","AY7WPVKHVNBLG","3ZXV7Q5FJBAKJ3TNMBBLYHIS0EBCFB","","<img src=""img/set1/S4.jpg"" width=""540"" height = ""360"" style=""border:16px solid orange"">","null","","","","","","","","","",""
"null","","html-keyboard-response","195","546686","0.0-195.0","3QL2OFSM974YTF4YB1Z0V5NNABVCND","AY7WPVKHVNBLG","3ZXV7Q5FJBAKJ3TNMBBLYHIS0EBCFB","","","null","","","","","","","","","",""
"445.8000000715256","","image-keyboard-response","196","547133","0.0-196.0","3QL2OFSM974YTF4YB1Z0V5NNABVCND","AY7WPVKHVNBLG","3ZXV7Q5FJBAKJ3TNMBBLYHIS0EBCFB","","img/set1/S4.jpg","74","4","random","74","random,structured_load,structured_normal,structured_incentive","2,3,4,2,1,2","4,1,3,2","true","","",""
"null","","html-keyboard-response","197","547485","0.0-197.0","3QL2OFSM974YTF4YB1Z0V5NNABVCND","AY7WPVKHVNBLG","3ZXV7Q5FJBAKJ3TNMBBLYHIS0EBCFB","","<img src=""img/set1/S4.jpg"" width=""540"" height = ""360"" style=""border:16px solid orange"">","null","","","","","","","","","",""
"null","","html-keyboard-response","198","547687","0.0-198.0","3QL2OFSM974YTF4YB1Z0V5NNABVCND","AY7WPVKHVNBLG","3ZXV7Q5FJBAKJ3TNMBBLYHIS0EBCFB","","","null","","","","","","","","","",""
"316.7000000476837","","image-keyboard-response","199","548005","0.0-199.0","3QL2OFSM974YTF4YB1Z0V5NNABVCND","AY7WPVKHVNBLG","3ZXV7Q5FJBAKJ3TNMBBLYHIS0EBCFB","","img/set1/S4.jpg","74","4","random","74","random,structured_load,structured_normal,structured_incentive","2,3,4,2,1,2","4,1,3,2","true","","",""
"null","","html-keyboard-response","200","548356","0.0-200.0","3QL2OFSM974YTF4YB1Z0V5NNABVCND","AY7WPVKHVNBLG","3ZXV7Q5FJBAKJ3TNMBBLYHIS0EBCFB","","<img src=""img/set1/S4.jpg"" width=""540"" height = ""360"" style=""border:16px solid orange"">","null","","","","","","","","","",""
"null","","html-keyboard-response","201","548558","0.0-201.0","3QL2OFSM974YTF4YB1Z0V5NNABVCND","AY7WPVKHVNBLG","3ZXV7Q5FJBAKJ3TNMBBLYHIS0EBCFB","","","null","","","","","","","","","",""
"614","","image-keyboard-response","202","549173","0.0-202.0","3QL2OFSM974YTF4YB1Z0V5NNABVCND","AY7WPVKHVNBLG","3ZXV7Q5FJBAKJ3TNMBBLYHIS0EBCFB","","img/set1/S1.jpg","83","1","random","83","random,structured_load,structured_normal,structured_incentive","2,3,4,2,1,2","4,1,3,2","true","","",""
"null","","html-keyboard-response","203","549525","0.0-203.0","3QL2OFSM974YTF4YB1Z0V5NNABVCND","AY7WPVKHVNBLG","3ZXV7Q5FJBAKJ3TNMBBLYHIS0EBCFB","","<img src=""img/set1/S1.jpg"" width=""540"" height = ""360"" style=""border:16px solid orange"">","null","","","","","","","","","",""
"null","","html-keyboard-response","204","549726","0.0-204.0","3QL2OFSM974YTF4YB1Z0V5NNABVCND","AY7WPVKHVNBLG","3ZXV7Q5FJBAKJ3TNMBBLYHIS0EBCFB","","","null","","","","","","","","","",""
"613.7000000476837","","image-keyboard-response","205","550341","0.0-205.0","3QL2OFSM974YTF4YB1Z0V5NNABVCND","AY7WPVKHVNBLG","3ZXV7Q5FJBAKJ3TNMBBLYHIS0EBCFB","","img/set1/S4.jpg","74","4","random","74","random,structured_load,structured_normal,structured_incentive","2,3,4,2,1,2","4,1,3,2","true","","",""
"null","","html-keyboard-response","206","550693","0.0-206.0","3QL2OFSM974YTF4YB1Z0V5NNABVCND","AY7WPVKHVNBLG","3ZXV7Q5FJBAKJ3TNMBBLYHIS0EBCFB","","<img src=""img/set1/S4.jpg"" width=""540"" height = ""360"" style=""border:16px solid orange"">","null","","","","","","","","","",""
"null","","html-keyboard-response","207","550895","0.0-207.0","3QL2OFSM974YTF4YB1Z0V5NNABVCND","AY7WPVKHVNBLG","3ZXV7Q5FJBAKJ3TNMBBLYHIS0EBCFB","","","null","","","","","","","","","",""
"621.1000000238419","","image-keyboard-response","208","551516","0.0-208.0","3QL2OFSM974YTF4YB1Z0V5NNABVCND","AY7WPVKHVNBLG","3ZXV7Q5FJBAKJ3TNMBBLYHIS0EBCFB","","img/set1/S2.jpg","72","2","random","68","random,structured_load,structured_normal,structured_incentive","2,3,4,2,1,2","4,1,3,2","false","","",""
"null","","html-keyboard-response","209","551868","0.0-209.0","3QL2OFSM974YTF4YB1Z0V5NNABVCND","AY7WPVKHVNBLG","3ZXV7Q5FJBAKJ3TNMBBLYHIS0EBCFB","","<img src=""img/set1/S2.jpg"" width=""540"" height = ""360"">","null","","","","","","","","","",""
"null","","html-keyboard-response","210","552070","0.0-210.0","3QL2OFSM974YTF4YB1Z0V5NNABVCND","AY7WPVKHVNBLG","3ZXV7Q5FJBAKJ3TNMBBLYHIS0EBCFB","","","null","","","","","","","","","",""
"430.10000002384186","","image-keyboard-response","211","552501","0.0-211.0","3QL2OFSM974YTF4YB1Z0V5NNABVCND","AY7WPVKHVNBLG","3ZXV7Q5FJBAKJ3TNMBBLYHIS0EBCFB","","img/set1/S2.jpg","68","2","random","68","random,structured_load,structured_normal,structured_incentive","2,3,4,2,1,2","4,1,3,2","true","","",""
"null","","html-keyboard-response","212","552853","0.0-212.0","3QL2OFSM974YTF4YB1Z0V5NNABVCND","AY7WPVKHVNBLG","3ZXV7Q5FJBAKJ3TNMBBLYHIS0EBCFB","","<img src=""img/set1/S2.jpg"" width=""540"" height = ""360"" style=""border:16px solid orange"">","null","","","","","","","","","",""
"null","","html-keyboard-response","213","553055","0.0-213.0","3QL2OFSM974YTF4YB1Z0V5NNABVCND","AY7WPVKHVNBLG","3ZXV7Q5FJBAKJ3TNMBBLYHIS0EBCFB","","","null","","","","","","","","","",""
"660.3999999761581","","image-keyboard-response","214","553717","0.0-214.0","3QL2OFSM974YTF4YB1Z0V5NNABVCND","AY7WPVKHVNBLG","3ZXV7Q5FJBAKJ3TNMBBLYHIS0EBCFB","","img/set1/S4.jpg","74","4","random","74","random,structured_load,structured_normal,structured_incentive","2,3,4,2,1,2","4,1,3,2","true","","",""
"null","","html-keyboard-response","215","554070","0.0-215.0","3QL2OFSM974YTF4YB1Z0V5NNABVCND","AY7WPVKHVNBLG","3ZXV7Q5FJBAKJ3TNMBBLYHIS0EBCFB","","<img src=""img/set1/S4.jpg"" width=""540"" height = ""360"" style=""border:16px solid orange"">","null","","","","","","","","","",""
"null","","html-keyboard-response","216","554272","0.0-216.0","3QL2OFSM974YTF4YB1Z0V5NNABVCND","AY7WPVKHVNBLG","3ZXV7Q5FJBAKJ3TNMBBLYHIS0EBCFB","","","null","","","","","","","","","",""
"1213.2000000476837","","image-keyboard-response","217","555486","0.0-217.0","3QL2OFSM974YTF4YB1Z0V5NNABVCND","AY7WPVKHVNBLG","3ZXV7Q5FJBAKJ3TNMBBLYHIS0EBCFB","","img/set1/S3.jpg","72","3","random","72","random,structured_load,structured_normal,structured_incentive","2,3,4,2,1,2","4,1,3,2","true","","",""
"null","","html-keyboard-response","218","555839","0.0-218.0","3QL2OFSM974YTF4YB1Z0V5NNABVCND","AY7WPVKHVNBLG","3ZXV7Q5FJBAKJ3TNMBBLYHIS0EBCFB","","<img src=""img/set1/S3.jpg"" width=""540"" height = ""360"" style=""border:16px solid orange"">","null","","","","","","","","","",""
"null","","html-keyboard-response","219","556041","0.0-219.0","3QL2OFSM974YTF4YB1Z0V5NNABVCND","AY7WPVKHVNBLG","3ZXV7Q5FJBAKJ3TNMBBLYHIS0EBCFB","","","null","","","","","","","","","",""
"771.1000000238419","","image-keyboard-response","220","556813","0.0-220.0","3QL2OFSM974YTF4YB1Z0V5NNABVCND","AY7WPVKHVNBLG","3ZXV7Q5FJBAKJ3TNMBBLYHIS0EBCFB","","img/set1/S1.jpg","83","1","random","83","random,structured_load,structured_normal,structured_incentive","2,3,4,2,1,2","4,1,3,2","true","","",""
"null","","html-keyboard-response","221","557165","0.0-221.0","3QL2OFSM974YTF4YB1Z0V5NNABVCND","AY7WPVKHVNBLG","3ZXV7Q5FJBAKJ3TNMBBLYHIS0EBCFB","","<img src=""img/set1/S1.jpg"" width=""540"" height = ""360"" style=""border:16px solid orange"">","null","","","","","","","","","",""
"null","","html-keyboard-response","222","557367","0.0-222.0","3QL2OFSM974YTF4YB1Z0V5NNABVCND","AY7WPVKHVNBLG","3ZXV7Q5FJBAKJ3TNMBBLYHIS0EBCFB","","","null","","","","","","","","","",""
"676.8000000715256","","image-keyboard-response","223","558045","0.0-223.0","3QL2OFSM974YTF4YB1Z0V5NNABVCND","AY7WPVKHVNBLG","3ZXV7Q5FJBAKJ3TNMBBLYHIS0EBCFB","","img/set1/S2.jpg","68","2","random","68","random,structured_load,structured_normal,structured_incentive","2,3,4,2,1,2","4,1,3,2","true","","",""
"null","","html-keyboard-response","224","558397","0.0-224.0","3QL2OFSM974YTF4YB1Z0V5NNABVCND","AY7WPVKHVNBLG","3ZXV7Q5FJBAKJ3TNMBBLYHIS0EBCFB","","<img src=""img/set1/S2.jpg"" width=""540"" height = ""360"" style=""border:16px solid orange"">","null","","","","","","","","","",""
"null","","html-keyboard-response","225","558599","0.0-225.0","3QL2OFSM974YTF4YB1Z0V5NNABVCND","AY7WPVKHVNBLG","3ZXV7Q5FJBAKJ3TNMBBLYHIS0EBCFB","","","null","","","","","","","","","",""
"724.3000000715256","","image-keyboard-response","226","559325","0.0-226.0","3QL2OFSM974YTF4YB1Z0V5NNABVCND","AY7WPVKHVNBLG","3ZXV7Q5FJBAKJ3TNMBBLYHIS0EBCFB","","img/set1/S1.jpg","83","1","random","83","random,structured_load,structured_normal,structured_incentive","2,3,4,2,1,2","4,1,3,2","true","","",""
"null","","html-keyboard-response","227","559676","0.0-227.0","3QL2OFSM974YTF4YB1Z0V5NNABVCND","AY7WPVKHVNBLG","3ZXV7Q5FJBAKJ3TNMBBLYHIS0EBCFB","","<img src=""img/set1/S1.jpg"" width=""540"" height = ""360"" style=""border:16px solid orange"">","null","","","","","","","","","",""
"null","","html-keyboard-response","228","559878","0.0-228.0","3QL2OFSM974YTF4YB1Z0V5NNABVCND","AY7WPVKHVNBLG","3ZXV7Q5FJBAKJ3TNMBBLYHIS0EBCFB","","","null","","","","","","","","","",""
"517.6000000238419","","image-keyboard-response","229","560397","0.0-229.0","3QL2OFSM974YTF4YB1Z0V5NNABVCND","AY7WPVKHVNBLG","3ZXV7Q5FJBAKJ3TNMBBLYHIS0EBCFB","","img/set1/S1.jpg","83","1","random","83","random,structured_load,structured_normal,structured_incentive","2,3,4,2,1,2","4,1,3,2","true","","",""
"null","","html-keyboard-response","230","560749","0.0-230.0","3QL2OFSM974YTF4YB1Z0V5NNABVCND","AY7WPVKHVNBLG","3ZXV7Q5FJBAKJ3TNMBBLYHIS0EBCFB","","<img src=""img/set1/S1.jpg"" width=""540"" height = ""360"" style=""border:16px solid orange"">","null","","","","","","","","","",""
"null","","html-keyboard-response","231","560960","0.0-231.0","3QL2OFSM974YTF4YB1Z0V5NNABVCND","AY7WPVKHVNBLG","3ZXV7Q5FJBAKJ3TNMBBLYHIS0EBCFB","","","null","","","","","","","","","",""
"675.7999999523163","","image-keyboard-response","232","561637","0.0-232.0","3QL2OFSM974YTF4YB1Z0V5NNABVCND","AY7WPVKHVNBLG","3ZXV7Q5FJBAKJ3TNMBBLYHIS0EBCFB","","img/set1/S3.jpg","72","3","random","72","random,structured_load,structured_normal,structured_incentive","2,3,4,2,1,2","4,1,3,2","true","","",""
"null","","html-keyboard-response","233","561989","0.0-233.0","3QL2OFSM974YTF4YB1Z0V5NNABVCND","AY7WPVKHVNBLG","3ZXV7Q5FJBAKJ3TNMBBLYHIS0EBCFB","","<img src=""img/set1/S3.jpg"" width=""540"" height = ""360"" style=""border:16px solid orange"">","null","","","","","","","","","",""
"null","","html-keyboard-response","234","562191","0.0-234.0","3QL2OFSM974YTF4YB1Z0V5NNABVCND","AY7WPVKHVNBLG","3ZXV7Q5FJBAKJ3TNMBBLYHIS0EBCFB","","","null","","","","","","","","","",""
"363.10000002384186","","image-keyboard-response","235","562557","0.0-235.0","3QL2OFSM974YTF4YB1Z0V5NNABVCND","AY7WPVKHVNBLG","3ZXV7Q5FJBAKJ3TNMBBLYHIS0EBCFB","","img/set1/S3.jpg","72","3","random","72","random,structured_load,structured_normal,structured_incentive","2,3,4,2,1,2","4,1,3,2","true","","",""
"null","","html-keyboard-response","236","562910","0.0-236.0","3QL2OFSM974YTF4YB1Z0V5NNABVCND","AY7WPVKHVNBLG","3ZXV7Q5FJBAKJ3TNMBBLYHIS0EBCFB","","<img src=""img/set1/S3.jpg"" width=""540"" height = ""360"" style=""border:16px solid orange"">","null","","","","","","","","","",""
"null","","html-keyboard-response","237","563112","0.0-237.0","3QL2OFSM974YTF4YB1Z0V5NNABVCND","AY7WPVKHVNBLG","3ZXV7Q5FJBAKJ3TNMBBLYHIS0EBCFB","","","null","","","","","","","","","",""
"412.09999990463257","","image-keyboard-response","238","563525","0.0-238.0","3QL2OFSM974YTF4YB1Z0V5NNABVCND","AY7WPVKHVNBLG","3ZXV7Q5FJBAKJ3TNMBBLYHIS0EBCFB","","img/set1/S3.jpg","72","3","random","72","random,structured_load,structured_normal,structured_incentive","2,3,4,2,1,2","4,1,3,2","true","","",""
"null","","html-keyboard-response","239","563877","0.0-239.0","3QL2OFSM974YTF4YB1Z0V5NNABVCND","AY7WPVKHVNBLG","3ZXV7Q5FJBAKJ3TNMBBLYHIS0EBCFB","","<img src=""img/set1/S3.jpg"" width=""540"" height = ""360"" style=""border:16px solid orange"">","null","","","","","","","","","",""
"null","","html-keyboard-response","240","564080","0.0-240.0","3QL2OFSM974YTF4YB1Z0V5NNABVCND","AY7WPVKHVNBLG","3ZXV7Q5FJBAKJ3TNMBBLYHIS0EBCFB","","","null","","","","","","","","","",""
"356","","image-keyboard-response","241","564437","0.0-241.0","3QL2OFSM974YTF4YB1Z0V5NNABVCND","AY7WPVKHVNBLG","3ZXV7Q5FJBAKJ3TNMBBLYHIS0EBCFB","","img/set1/S3.jpg","72","3","random","72","random,structured_load,structured_normal,structured_incentive","2,3,4,2,1,2","4,1,3,2","true","","",""
"null","","html-keyboard-response","242","564790","0.0-242.0","3QL2OFSM974YTF4YB1Z0V5NNABVCND","AY7WPVKHVNBLG","3ZXV7Q5FJBAKJ3TNMBBLYHIS0EBCFB","","<img src=""img/set1/S3.jpg"" width=""540"" height = ""360"" style=""border:16px solid orange"">","null","","","","","","","","","",""
"null","","html-keyboard-response","243","564992","0.0-243.0","3QL2OFSM974YTF4YB1Z0V5NNABVCND","AY7WPVKHVNBLG","3ZXV7Q5FJBAKJ3TNMBBLYHIS0EBCFB","","","null","","","","","","","","","",""
"780.4000000953674","","image-keyboard-response","244","565773","0.0-244.0","3QL2OFSM974YTF4YB1Z0V5NNABVCND","AY7WPVKHVNBLG","3ZXV7Q5FJBAKJ3TNMBBLYHIS0EBCFB","","img/set1/S4.jpg","74","4","random","74","random,structured_load,structured_normal,structured_incentive","2,3,4,2,1,2","4,1,3,2","true","","",""
"null","","html-keyboard-response","245","566127","0.0-245.0","3QL2OFSM974YTF4YB1Z0V5NNABVCND","AY7WPVKHVNBLG","3ZXV7Q5FJBAKJ3TNMBBLYHIS0EBCFB","","<img src=""img/set1/S4.jpg"" width=""540"" height = ""360"" style=""border:16px solid orange"">","null","","","","","","","","","",""
"null","","html-keyboard-response","246","566337","0.0-246.0","3QL2OFSM974YTF4YB1Z0V5NNABVCND","AY7WPVKHVNBLG","3ZXV7Q5FJBAKJ3TNMBBLYHIS0EBCFB","","","null","","","","","","","","","",""
"1660.2999999523163","","image-keyboard-response","247","567998","0.0-247.0","3QL2OFSM974YTF4YB1Z0V5NNABVCND","AY7WPVKHVNBLG","3ZXV7Q5FJBAKJ3TNMBBLYHIS0EBCFB","","img/set1/S1.jpg","83","1","random","83","random,structured_load,structured_normal,structured_incentive","2,3,4,2,1,2","4,1,3,2","true","","",""
"null","","html-keyboard-response","248","568351","0.0-248.0","3QL2OFSM974YTF4YB1Z0V5NNABVCND","AY7WPVKHVNBLG","3ZXV7Q5FJBAKJ3TNMBBLYHIS0EBCFB","","<img src=""img/set1/S1.jpg"" width=""540"" height = ""360"" style=""border:16px solid orange"">","null","","","","","","","","","",""
"null","","html-keyboard-response","249","568564","0.0-249.0","3QL2OFSM974YTF4YB1Z0V5NNABVCND","AY7WPVKHVNBLG","3ZXV7Q5FJBAKJ3TNMBBLYHIS0EBCFB","","","null","","","","","","","","","",""
"696.6000000238419","","image-keyboard-response","250","569262","0.0-250.0","3QL2OFSM974YTF4YB1Z0V5NNABVCND","AY7WPVKHVNBLG","3ZXV7Q5FJBAKJ3TNMBBLYHIS0EBCFB","","img/set1/S3.jpg","72","3","random","72","random,structured_load,structured_normal,structured_incentive","2,3,4,2,1,2","4,1,3,2","true","","",""
"null","","html-keyboard-response","251","569618","0.0-251.0","3QL2OFSM974YTF4YB1Z0V5NNABVCND","AY7WPVKHVNBLG","3ZXV7Q5FJBAKJ3TNMBBLYHIS0EBCFB","","<img src=""img/set1/S3.jpg"" width=""540"" height = ""360"" style=""border:16px solid orange"">","null","","","","","","","","","",""
"null","","html-keyboard-response","252","569820","0.0-252.0","3QL2OFSM974YTF4YB1Z0V5NNABVCND","AY7WPVKHVNBLG","3ZXV7Q5FJBAKJ3TNMBBLYHIS0EBCFB","","","null","","","","","","","","","",""
"625.2000000476837","","image-keyboard-response","253","570445","0.0-253.0","3QL2OFSM974YTF4YB1Z0V5NNABVCND","AY7WPVKHVNBLG","3ZXV7Q5FJBAKJ3TNMBBLYHIS0EBCFB","","img/set1/S3.jpg","72","3","random","72","random,structured_load,structured_normal,structured_incentive","2,3,4,2,1,2","4,1,3,2","true","","",""
"null","","html-keyboard-response","254","570798","0.0-254.0","3QL2OFSM974YTF4YB1Z0V5NNABVCND","AY7WPVKHVNBLG","3ZXV7Q5FJBAKJ3TNMBBLYHIS0EBCFB","","<img src=""img/set1/S3.jpg"" width=""540"" height = ""360"" style=""border:16px solid orange"">","null","","","","","","","","","",""
"null","","html-keyboard-response","255","571000","0.0-255.0","3QL2OFSM974YTF4YB1Z0V5NNABVCND","AY7WPVKHVNBLG","3ZXV7Q5FJBAKJ3TNMBBLYHIS0EBCFB","","","null","","","","","","","","","",""
"620.6999999284744","","image-keyboard-response","256","571622","0.0-256.0","3QL2OFSM974YTF4YB1Z0V5NNABVCND","AY7WPVKHVNBLG","3ZXV7Q5FJBAKJ3TNMBBLYHIS0EBCFB","","img/set1/S4.jpg","74","4","random","74","random,structured_load,structured_normal,structured_incentive","2,3,4,2,1,2","4,1,3,2","true","","",""
"null","","html-keyboard-response","257","571973","0.0-257.0","3QL2OFSM974YTF4YB1Z0V5NNABVCND","AY7WPVKHVNBLG","3ZXV7Q5FJBAKJ3TNMBBLYHIS0EBCFB","","<img src=""img/set1/S4.jpg"" width=""540"" height = ""360"" style=""border:16px solid orange"">","null","","","","","","","","","",""
"null","","html-keyboard-response","258","572175","0.0-258.0","3QL2OFSM974YTF4YB1Z0V5NNABVCND","AY7WPVKHVNBLG","3ZXV7Q5FJBAKJ3TNMBBLYHIS0EBCFB","","","null","","","","","","","","","",""
"813.8000000715256","","image-keyboard-response","259","572990","0.0-259.0","3QL2OFSM974YTF4YB1Z0V5NNABVCND","AY7WPVKHVNBLG","3ZXV7Q5FJBAKJ3TNMBBLYHIS0EBCFB","","img/set1/S1.jpg","83","1","random","83","random,structured_load,structured_normal,structured_incentive","2,3,4,2,1,2","4,1,3,2","true","","",""
"null","","html-keyboard-response","260","573342","0.0-260.0","3QL2OFSM974YTF4YB1Z0V5NNABVCND","AY7WPVKHVNBLG","3ZXV7Q5FJBAKJ3TNMBBLYHIS0EBCFB","","<img src=""img/set1/S1.jpg"" width=""540"" height = ""360"" style=""border:16px solid orange"">","null","","","","","","","","","",""
"null","","html-keyboard-response","261","573544","0.0-261.0","3QL2OFSM974YTF4YB1Z0V5NNABVCND","AY7WPVKHVNBLG","3ZXV7Q5FJBAKJ3TNMBBLYHIS0EBCFB","","","null","","","","","","","","","",""
"564.2000000476837","","image-keyboard-response","262","574110","0.0-262.0","3QL2OFSM974YTF4YB1Z0V5NNABVCND","AY7WPVKHVNBLG","3ZXV7Q5FJBAKJ3TNMBBLYHIS0EBCFB","","img/set1/S2.jpg","68","2","random","68","random,structured_load,structured_normal,structured_incentive","2,3,4,2,1,2","4,1,3,2","true","","",""
"null","","html-keyboard-response","263","574462","0.0-263.0","3QL2OFSM974YTF4YB1Z0V5NNABVCND","AY7WPVKHVNBLG","3ZXV7Q5FJBAKJ3TNMBBLYHIS0EBCFB","","<img src=""img/set1/S2.jpg"" width=""540"" height = ""360"" style=""border:16px solid orange"">","null","","","","","","","","","",""
"null","","html-keyboard-response","264","574664","0.0-264.0","3QL2OFSM974YTF4YB1Z0V5NNABVCND","AY7WPVKHVNBLG","3ZXV7Q5FJBAKJ3TNMBBLYHIS0EBCFB","","","null","","","","","","","","","",""
"949.1999999284744","","image-keyboard-response","265","575614","0.0-265.0","3QL2OFSM974YTF4YB1Z0V5NNABVCND","AY7WPVKHVNBLG","3ZXV7Q5FJBAKJ3TNMBBLYHIS0EBCFB","","img/set1/S1.jpg","83","1","random","83","random,structured_load,structured_normal,structured_incentive","2,3,4,2,1,2","4,1,3,2","true","","",""
"null","","html-keyboard-response","266","575966","0.0-266.0","3QL2OFSM974YTF4YB1Z0V5NNABVCND","AY7WPVKHVNBLG","3ZXV7Q5FJBAKJ3TNMBBLYHIS0EBCFB","","<img src=""img/set1/S1.jpg"" width=""540"" height = ""360"" style=""border:16px solid orange"">","null","","","","","","","","","",""
"null","","html-keyboard-response","267","576168","0.0-267.0","3QL2OFSM974YTF4YB1Z0V5NNABVCND","AY7WPVKHVNBLG","3ZXV7Q5FJBAKJ3TNMBBLYHIS0EBCFB","","","null","","","","","","","","","",""
"628.8000000715256","","image-keyboard-response","268","576798","0.0-268.0","3QL2OFSM974YTF4YB1Z0V5NNABVCND","AY7WPVKHVNBLG","3ZXV7Q5FJBAKJ3TNMBBLYHIS0EBCFB","","img/set1/S4.jpg","74","4","random","74","random,structured_load,structured_normal,structured_incentive","2,3,4,2,1,2","4,1,3,2","true","","",""
"null","","html-keyboard-response","269","577151","0.0-269.0","3QL2OFSM974YTF4YB1Z0V5NNABVCND","AY7WPVKHVNBLG","3ZXV7Q5FJBAKJ3TNMBBLYHIS0EBCFB","","<img src=""img/set1/S4.jpg"" width=""540"" height = ""360"" style=""border:16px solid orange"">","null","","","","","","","","","",""
"null","","html-keyboard-response","270","577353","0.0-270.0","3QL2OFSM974YTF4YB1Z0V5NNABVCND","AY7WPVKHVNBLG","3ZXV7Q5FJBAKJ3TNMBBLYHIS0EBCFB","","","null","","","","","","","","","",""
"442.2000000476837","","image-keyboard-response","271","577797","0.0-271.0","3QL2OFSM974YTF4YB1Z0V5NNABVCND","AY7WPVKHVNBLG","3ZXV7Q5FJBAKJ3TNMBBLYHIS0EBCFB","","img/set1/S4.jpg","74","4","random","74","random,structured_load,structured_normal,structured_incentive","2,3,4,2,1,2","4,1,3,2","true","","",""
"null","","html-keyboard-response","272","578150","0.0-272.0","3QL2OFSM974YTF4YB1Z0V5NNABVCND","AY7WPVKHVNBLG","3ZXV7Q5FJBAKJ3TNMBBLYHIS0EBCFB","","<img src=""img/set1/S4.jpg"" width=""540"" height = ""360"" style=""border:16px solid orange"">","null","","","","","","","","","",""
"null","","html-keyboard-response","273","578352","0.0-273.0","3QL2OFSM974YTF4YB1Z0V5NNABVCND","AY7WPVKHVNBLG","3ZXV7Q5FJBAKJ3TNMBBLYHIS0EBCFB","","","null","","","","","","","","","",""
"517","","image-keyboard-response","274","578869","0.0-274.0","3QL2OFSM974YTF4YB1Z0V5NNABVCND","AY7WPVKHVNBLG","3ZXV7Q5FJBAKJ3TNMBBLYHIS0EBCFB","","img/set1/S3.jpg","72","3","random","72","random,structured_load,structured_normal,structured_incentive","2,3,4,2,1,2","4,1,3,2","true","","",""
"null","","html-keyboard-response","275","579222","0.0-275.0","3QL2OFSM974YTF4YB1Z0V5NNABVCND","AY7WPVKHVNBLG","3ZXV7Q5FJBAKJ3TNMBBLYHIS0EBCFB","","<img src=""img/set1/S3.jpg"" width=""540"" height = ""360"" style=""border:16px solid orange"">","null","","","","","","","","","",""
"null","","html-keyboard-response","276","579424","0.0-276.0","3QL2OFSM974YTF4YB1Z0V5NNABVCND","AY7WPVKHVNBLG","3ZXV7Q5FJBAKJ3TNMBBLYHIS0EBCFB","","","null","","","","","","","","","",""
"700.7999999523163","","image-keyboard-response","277","580126","0.0-277.0","3QL2OFSM974YTF4YB1Z0V5NNABVCND","AY7WPVKHVNBLG","3ZXV7Q5FJBAKJ3TNMBBLYHIS0EBCFB","","img/set1/S2.jpg","68","2","random","68","random,structured_load,structured_normal,structured_incentive","2,3,4,2,1,2","4,1,3,2","true","","",""
"null","","html-keyboard-response","278","580478","0.0-278.0","3QL2OFSM974YTF4YB1Z0V5NNABVCND","AY7WPVKHVNBLG","3ZXV7Q5FJBAKJ3TNMBBLYHIS0EBCFB","","<img src=""img/set1/S2.jpg"" width=""540"" height = ""360"" style=""border:16px solid orange"">","null","","","","","","","","","",""
"null","","html-keyboard-response","279","580679","0.0-279.0","3QL2OFSM974YTF4YB1Z0V5NNABVCND","AY7WPVKHVNBLG","3ZXV7Q5FJBAKJ3TNMBBLYHIS0EBCFB","","","null","","","","","","","","","",""
"357.10000002384186","","image-keyboard-response","280","581037","0.0-280.0","3QL2OFSM974YTF4YB1Z0V5NNABVCND","AY7WPVKHVNBLG","3ZXV7Q5FJBAKJ3TNMBBLYHIS0EBCFB","","img/set1/S1.jpg","83","1","random","83","random,structured_load,structured_normal,structured_incentive","2,3,4,2,1,2","4,1,3,2","true","","",""
"null","","html-keyboard-response","281","581390","0.0-281.0","3QL2OFSM974YTF4YB1Z0V5NNABVCND","AY7WPVKHVNBLG","3ZXV7Q5FJBAKJ3TNMBBLYHIS0EBCFB","","<img src=""img/set1/S1.jpg"" width=""540"" height = ""360"" style=""border:16px solid orange"">","null","","","","","","","","","",""
"null","","html-keyboard-response","282","581601","0.0-282.0","3QL2OFSM974YTF4YB1Z0V5NNABVCND","AY7WPVKHVNBLG","3ZXV7Q5FJBAKJ3TNMBBLYHIS0EBCFB","","","null","","","","","","","","","",""
"899.2999999523163","","image-keyboard-response","283","582501","0.0-283.0","3QL2OFSM974YTF4YB1Z0V5NNABVCND","AY7WPVKHVNBLG","3ZXV7Q5FJBAKJ3TNMBBLYHIS0EBCFB","","img/set1/S3.jpg","72","3","random","72","random,structured_load,structured_normal,structured_incentive","2,3,4,2,1,2","4,1,3,2","true","","",""
"null","","html-keyboard-response","284","582853","0.0-284.0","3QL2OFSM974YTF4YB1Z0V5NNABVCND","AY7WPVKHVNBLG","3ZXV7Q5FJBAKJ3TNMBBLYHIS0EBCFB","","<img src=""img/set1/S3.jpg"" width=""540"" height = ""360"" style=""border:16px solid orange"">","null","","","","","","","","","",""
"null","","html-keyboard-response","285","583055","0.0-285.0","3QL2OFSM974YTF4YB1Z0V5NNABVCND","AY7WPVKHVNBLG","3ZXV7Q5FJBAKJ3TNMBBLYHIS0EBCFB","","","null","","","","","","","","","",""
"613.6000000238419","","image-keyboard-response","286","583670","0.0-286.0","3QL2OFSM974YTF4YB1Z0V5NNABVCND","AY7WPVKHVNBLG","3ZXV7Q5FJBAKJ3TNMBBLYHIS0EBCFB","","img/set1/S4.jpg","74","4","random","74","random,structured_load,structured_normal,structured_incentive","2,3,4,2,1,2","4,1,3,2","true","","",""
"null","","html-keyboard-response","287","584023","0.0-287.0","3QL2OFSM974YTF4YB1Z0V5NNABVCND","AY7WPVKHVNBLG","3ZXV7Q5FJBAKJ3TNMBBLYHIS0EBCFB","","<img src=""img/set1/S4.jpg"" width=""540"" height = ""360"" style=""border:16px solid orange"">","null","","","","","","","","","",""
"null","","html-keyboard-response","288","584224","0.0-288.0","3QL2OFSM974YTF4YB1Z0V5NNABVCND","AY7WPVKHVNBLG","3ZXV7Q5FJBAKJ3TNMBBLYHIS0EBCFB","","","null","","","","","","","","","",""
"1020.4000000953674","","image-keyboard-response","289","585246","0.0-289.0","3QL2OFSM974YTF4YB1Z0V5NNABVCND","AY7WPVKHVNBLG","3ZXV7Q5FJBAKJ3TNMBBLYHIS0EBCFB","","img/set1/S4.jpg","74","4","random","74","random,structured_load,structured_normal,structured_incentive","2,3,4,2,1,2","4,1,3,2","true","","",""
"null","","html-keyboard-response","290","585598","0.0-290.0","3QL2OFSM974YTF4YB1Z0V5NNABVCND","AY7WPVKHVNBLG","3ZXV7Q5FJBAKJ3TNMBBLYHIS0EBCFB","","<img src=""img/set1/S4.jpg"" width=""540"" height = ""360"" style=""border:16px solid orange"">","null","","","","","","","","","",""
"null","","html-keyboard-response","291","585799","0.0-291.0","3QL2OFSM974YTF4YB1Z0V5NNABVCND","AY7WPVKHVNBLG","3ZXV7Q5FJBAKJ3TNMBBLYHIS0EBCFB","","","null","","","","","","","","","",""
"581.6999999284744","","image-keyboard-response","292","586382","0.0-292.0","3QL2OFSM974YTF4YB1Z0V5NNABVCND","AY7WPVKHVNBLG","3ZXV7Q5FJBAKJ3TNMBBLYHIS0EBCFB","","img/set1/S2.jpg","68","2","random","68","random,structured_load,structured_normal,structured_incentive","2,3,4,2,1,2","4,1,3,2","true","","",""
"null","","html-keyboard-response","293","586734","0.0-293.0","3QL2OFSM974YTF4YB1Z0V5NNABVCND","AY7WPVKHVNBLG","3ZXV7Q5FJBAKJ3TNMBBLYHIS0EBCFB","","<img src=""img/set1/S2.jpg"" width=""540"" height = ""360"" style=""border:16px solid orange"">","null","","","","","","","","","",""
"null","","html-keyboard-response","294","586936","0.0-294.0","3QL2OFSM974YTF4YB1Z0V5NNABVCND","AY7WPVKHVNBLG","3ZXV7Q5FJBAKJ3TNMBBLYHIS0EBCFB","","","null","","","","","","","","","",""
"685.1999999284744","","image-keyboard-response","295","587622","0.0-295.0","3QL2OFSM974YTF4YB1Z0V5NNABVCND","AY7WPVKHVNBLG","3ZXV7Q5FJBAKJ3TNMBBLYHIS0EBCFB","","img/set1/S4.jpg","74","4","random","74","random,structured_load,structured_normal,structured_incentive","2,3,4,2,1,2","4,1,3,2","true","","",""
"null","","html-keyboard-response","296","587974","0.0-296.0","3QL2OFSM974YTF4YB1Z0V5NNABVCND","AY7WPVKHVNBLG","3ZXV7Q5FJBAKJ3TNMBBLYHIS0EBCFB","","<img src=""img/set1/S4.jpg"" width=""540"" height = ""360"" style=""border:16px solid orange"">","null","","","","","","","","","",""
"null","","html-keyboard-response","297","588176","0.0-297.0","3QL2OFSM974YTF4YB1Z0V5NNABVCND","AY7WPVKHVNBLG","3ZXV7Q5FJBAKJ3TNMBBLYHIS0EBCFB","","","null","","","","","","","","","",""
"1740.2999999523163","","image-keyboard-response","298","589918","0.0-298.0","3QL2OFSM974YTF4YB1Z0V5NNABVCND","AY7WPVKHVNBLG","3ZXV7Q5FJBAKJ3TNMBBLYHIS0EBCFB","","img/set1/S2.jpg","68","2","random","68","random,structured_load,structured_normal,structured_incentive","2,3,4,2,1,2","4,1,3,2","true","","",""
"null","","html-keyboard-response","299","590269","0.0-299.0","3QL2OFSM974YTF4YB1Z0V5NNABVCND","AY7WPVKHVNBLG","3ZXV7Q5FJBAKJ3TNMBBLYHIS0EBCFB","","<img src=""img/set1/S2.jpg"" width=""540"" height = ""360"" style=""border:16px solid orange"">","null","","","","","","","","","",""
"null","","html-keyboard-response","300","590481","0.0-300.0","3QL2OFSM974YTF4YB1Z0V5NNABVCND","AY7WPVKHVNBLG","3ZXV7Q5FJBAKJ3TNMBBLYHIS0EBCFB","","","null","","","","","","","","","",""
"707.3999999761581","","image-keyboard-response","301","591189","0.0-301.0","3QL2OFSM974YTF4YB1Z0V5NNABVCND","AY7WPVKHVNBLG","3ZXV7Q5FJBAKJ3TNMBBLYHIS0EBCFB","","img/set1/S1.jpg","83","1","random","83","random,structured_load,structured_normal,structured_incentive","2,3,4,2,1,2","4,1,3,2","true","","",""
"null","","html-keyboard-response","302","591541","0.0-302.0","3QL2OFSM974YTF4YB1Z0V5NNABVCND","AY7WPVKHVNBLG","3ZXV7Q5FJBAKJ3TNMBBLYHIS0EBCFB","","<img src=""img/set1/S1.jpg"" width=""540"" height = ""360"" style=""border:16px solid orange"">","null","","","","","","","","","",""
"null","","html-keyboard-response","303","591743","0.0-303.0","3QL2OFSM974YTF4YB1Z0V5NNABVCND","AY7WPVKHVNBLG","3ZXV7Q5FJBAKJ3TNMBBLYHIS0EBCFB","","","null","","","","","","","","","",""
"726","","image-keyboard-response","304","592469","0.0-304.0","3QL2OFSM974YTF4YB1Z0V5NNABVCND","AY7WPVKHVNBLG","3ZXV7Q5FJBAKJ3TNMBBLYHIS0EBCFB","","img/set1/S3.jpg","72","3","random","72","random,structured_load,structured_normal,structured_incentive","2,3,4,2,1,2","4,1,3,2","true","","",""
"null","","html-keyboard-response","305","592821","0.0-305.0","3QL2OFSM974YTF4YB1Z0V5NNABVCND","AY7WPVKHVNBLG","3ZXV7Q5FJBAKJ3TNMBBLYHIS0EBCFB","","<img src=""img/set1/S3.jpg"" width=""540"" height = ""360"" style=""border:16px solid orange"">","null","","","","","","","","","",""
"null","","html-keyboard-response","306","593023","0.0-306.0","3QL2OFSM974YTF4YB1Z0V5NNABVCND","AY7WPVKHVNBLG","3ZXV7Q5FJBAKJ3TNMBBLYHIS0EBCFB","","","null","","","","","","","","","",""
"606.2000000476837","","image-keyboard-response","307","593630","0.0-307.0","3QL2OFSM974YTF4YB1Z0V5NNABVCND","AY7WPVKHVNBLG","3ZXV7Q5FJBAKJ3TNMBBLYHIS0EBCFB","","img/set1/S4.jpg","74","4","random","74","random,structured_load,structured_normal,structured_incentive","2,3,4,2,1,2","4,1,3,2","true","","",""
"null","","html-keyboard-response","308","593982","0.0-308.0","3QL2OFSM974YTF4YB1Z0V5NNABVCND","AY7WPVKHVNBLG","3ZXV7Q5FJBAKJ3TNMBBLYHIS0EBCFB","","<img src=""img/set1/S4.jpg"" width=""540"" height = ""360"" style=""border:16px solid orange"">","null","","","","","","","","","",""
"null","","html-keyboard-response","309","594184","0.0-309.0","3QL2OFSM974YTF4YB1Z0V5NNABVCND","AY7WPVKHVNBLG","3ZXV7Q5FJBAKJ3TNMBBLYHIS0EBCFB","","","null","","","","","","","","","",""
"629.2000000476837","","image-keyboard-response","310","594814","0.0-310.0","3QL2OFSM974YTF4YB1Z0V5NNABVCND","AY7WPVKHVNBLG","3ZXV7Q5FJBAKJ3TNMBBLYHIS0EBCFB","","img/set1/S3.jpg","68","3","random","72","random,structured_load,structured_normal,structured_incentive","2,3,4,2,1,2","4,1,3,2","false","","",""
"null","","html-keyboard-response","311","595167","0.0-311.0","3QL2OFSM974YTF4YB1Z0V5NNABVCND","AY7WPVKHVNBLG","3ZXV7Q5FJBAKJ3TNMBBLYHIS0EBCFB","","<img src=""img/set1/S3.jpg"" width=""540"" height = ""360"">","null","","","","","","","","","",""
"null","","html-keyboard-response","312","595368","0.0-312.0","3QL2OFSM974YTF4YB1Z0V5NNABVCND","AY7WPVKHVNBLG","3ZXV7Q5FJBAKJ3TNMBBLYHIS0EBCFB","","","null","","","","","","","","","",""
"484.3000000715256","","image-keyboard-response","313","595854","0.0-313.0","3QL2OFSM974YTF4YB1Z0V5NNABVCND","AY7WPVKHVNBLG","3ZXV7Q5FJBAKJ3TNMBBLYHIS0EBCFB","","img/set1/S3.jpg","72","3","random","72","random,structured_load,structured_normal,structured_incentive","2,3,4,2,1,2","4,1,3,2","true","","",""
"null","","html-keyboard-response","314","596206","0.0-314.0","3QL2OFSM974YTF4YB1Z0V5NNABVCND","AY7WPVKHVNBLG","3ZXV7Q5FJBAKJ3TNMBBLYHIS0EBCFB","","<img src=""img/set1/S3.jpg"" width=""540"" height = ""360"" style=""border:16px solid orange"">","null","","","","","","","","","",""
"null","","html-keyboard-response","315","596408","0.0-315.0","3QL2OFSM974YTF4YB1Z0V5NNABVCND","AY7WPVKHVNBLG","3ZXV7Q5FJBAKJ3TNMBBLYHIS0EBCFB","","","null","","","","","","","","","",""
"581.2000000476837","","image-keyboard-response","316","596990","0.0-316.0","3QL2OFSM974YTF4YB1Z0V5NNABVCND","AY7WPVKHVNBLG","3ZXV7Q5FJBAKJ3TNMBBLYHIS0EBCFB","","img/set1/S2.jpg","68","2","random","68","random,structured_load,structured_normal,structured_incentive","2,3,4,2,1,2","4,1,3,2","true","","",""
"null","","html-keyboard-response","317","597342","0.0-317.0","3QL2OFSM974YTF4YB1Z0V5NNABVCND","AY7WPVKHVNBLG","3ZXV7Q5FJBAKJ3TNMBBLYHIS0EBCFB","","<img src=""img/set1/S2.jpg"" width=""540"" height = ""360"" style=""border:16px solid orange"">","null","","","","","","","","","",""
"null","","html-keyboard-response","318","597543","0.0-318.0","3QL2OFSM974YTF4YB1Z0V5NNABVCND","AY7WPVKHVNBLG","3ZXV7Q5FJBAKJ3TNMBBLYHIS0EBCFB","","","null","","","","","","","","","",""
"429.40000009536743","","image-keyboard-response","319","597974","0.0-319.0","3QL2OFSM974YTF4YB1Z0V5NNABVCND","AY7WPVKHVNBLG","3ZXV7Q5FJBAKJ3TNMBBLYHIS0EBCFB","","img/set1/S2.jpg","68","2","random","68","random,structured_load,structured_normal,structured_incentive","2,3,4,2,1,2","4,1,3,2","true","","",""
"null","","html-keyboard-response","320","598326","0.0-320.0","3QL2OFSM974YTF4YB1Z0V5NNABVCND","AY7WPVKHVNBLG","3ZXV7Q5FJBAKJ3TNMBBLYHIS0EBCFB","","<img src=""img/set1/S2.jpg"" width=""540"" height = ""360"" style=""border:16px solid orange"">","null","","","","","","","","","",""
"null","","html-keyboard-response","321","598527","0.0-321.0","3QL2OFSM974YTF4YB1Z0V5NNABVCND","AY7WPVKHVNBLG","3ZXV7Q5FJBAKJ3TNMBBLYHIS0EBCFB","","","null","","","","","","","","","",""
"701.3000000715256","","image-keyboard-response","322","599229","0.0-322.0","3QL2OFSM974YTF4YB1Z0V5NNABVCND","AY7WPVKHVNBLG","3ZXV7Q5FJBAKJ3TNMBBLYHIS0EBCFB","","img/set1/S3.jpg","72","3","random","72","random,structured_load,structured_normal,structured_incentive","2,3,4,2,1,2","4,1,3,2","true","","",""
"null","","html-keyboard-response","323","599582","0.0-323.0","3QL2OFSM974YTF4YB1Z0V5NNABVCND","AY7WPVKHVNBLG","3ZXV7Q5FJBAKJ3TNMBBLYHIS0EBCFB","","<img src=""img/set1/S3.jpg"" width=""540"" height = ""360"" style=""border:16px solid orange"">","null","","","","","","","","","",""
"null","","html-keyboard-response","324","599784","0.0-324.0","3QL2OFSM974YTF4YB1Z0V5NNABVCND","AY7WPVKHVNBLG","3ZXV7Q5FJBAKJ3TNMBBLYHIS0EBCFB","","","null","","","","","","","","","",""
"700.9000000953674","","image-keyboard-response","325","600486","0.0-325.0","3QL2OFSM974YTF4YB1Z0V5NNABVCND","AY7WPVKHVNBLG","3ZXV7Q5FJBAKJ3TNMBBLYHIS0EBCFB","","img/set1/S2.jpg","68","2","random","68","random,structured_load,structured_normal,structured_incentive","2,3,4,2,1,2","4,1,3,2","true","","",""
"null","","html-keyboard-response","326","600838","0.0-326.0","3QL2OFSM974YTF4YB1Z0V5NNABVCND","AY7WPVKHVNBLG","3ZXV7Q5FJBAKJ3TNMBBLYHIS0EBCFB","","<img src=""img/set1/S2.jpg"" width=""540"" height = ""360"" style=""border:16px solid orange"">","null","","","","","","","","","",""
"null","","html-keyboard-response","327","601040","0.0-327.0","3QL2OFSM974YTF4YB1Z0V5NNABVCND","AY7WPVKHVNBLG","3ZXV7Q5FJBAKJ3TNMBBLYHIS0EBCFB","","","null","","","","","","","","","",""
"413.09999990463257","","image-keyboard-response","328","601454","0.0-328.0","3QL2OFSM974YTF4YB1Z0V5NNABVCND","AY7WPVKHVNBLG","3ZXV7Q5FJBAKJ3TNMBBLYHIS0EBCFB","","img/set1/S2.jpg","68","2","random","68","random,structured_load,structured_normal,structured_incentive","2,3,4,2,1,2","4,1,3,2","true","","",""
"null","","html-keyboard-response","329","601807","0.0-329.0","3QL2OFSM974YTF4YB1Z0V5NNABVCND","AY7WPVKHVNBLG","3ZXV7Q5FJBAKJ3TNMBBLYHIS0EBCFB","","<img src=""img/set1/S2.jpg"" width=""540"" height = ""360"" style=""border:16px solid orange"">","null","","","","","","","","","",""
"null","","html-keyboard-response","330","602008","0.0-330.0","3QL2OFSM974YTF4YB1Z0V5NNABVCND","AY7WPVKHVNBLG","3ZXV7Q5FJBAKJ3TNMBBLYHIS0EBCFB","","","null","","","","","","","","","",""
"796.2000000476837","","image-keyboard-response","331","602806","0.0-331.0","3QL2OFSM974YTF4YB1Z0V5NNABVCND","AY7WPVKHVNBLG","3ZXV7Q5FJBAKJ3TNMBBLYHIS0EBCFB","","img/set1/S4.jpg","74","4","random","74","random,structured_load,structured_normal,structured_incentive","2,3,4,2,1,2","4,1,3,2","true","","",""
"null","","html-keyboard-response","332","603158","0.0-332.0","3QL2OFSM974YTF4YB1Z0V5NNABVCND","AY7WPVKHVNBLG","3ZXV7Q5FJBAKJ3TNMBBLYHIS0EBCFB","","<img src=""img/set1/S4.jpg"" width=""540"" height = ""360"" style=""border:16px solid orange"">","null","","","","","","","","","",""
"null","","html-keyboard-response","333","603360","0.0-333.0","3QL2OFSM974YTF4YB1Z0V5NNABVCND","AY7WPVKHVNBLG","3ZXV7Q5FJBAKJ3TNMBBLYHIS0EBCFB","","","null","","","","","","","","","",""
"853.1000000238419","","image-keyboard-response","334","604214","0.0-334.0","3QL2OFSM974YTF4YB1Z0V5NNABVCND","AY7WPVKHVNBLG","3ZXV7Q5FJBAKJ3TNMBBLYHIS0EBCFB","","img/set1/S1.jpg","83","1","random","83","random,structured_load,structured_normal,structured_incentive","2,3,4,2,1,2","4,1,3,2","true","","",""
"null","","html-keyboard-response","335","604566","0.0-335.0","3QL2OFSM974YTF4YB1Z0V5NNABVCND","AY7WPVKHVNBLG","3ZXV7Q5FJBAKJ3TNMBBLYHIS0EBCFB","","<img src=""img/set1/S1.jpg"" width=""540"" height = ""360"" style=""border:16px solid orange"">","null","","","","","","","","","",""
"null","","html-keyboard-response","336","604768","0.0-336.0","3QL2OFSM974YTF4YB1Z0V5NNABVCND","AY7WPVKHVNBLG","3ZXV7Q5FJBAKJ3TNMBBLYHIS0EBCFB","","","null","","","","","","","","","",""
"805","","image-keyboard-response","337","605574","0.0-337.0","3QL2OFSM974YTF4YB1Z0V5NNABVCND","AY7WPVKHVNBLG","3ZXV7Q5FJBAKJ3TNMBBLYHIS0EBCFB","","img/set1/S4.jpg","74","4","random","74","random,structured_load,structured_normal,structured_incentive","2,3,4,2,1,2","4,1,3,2","true","","",""
"null","","html-keyboard-response","338","605926","0.0-338.0","3QL2OFSM974YTF4YB1Z0V5NNABVCND","AY7WPVKHVNBLG","3ZXV7Q5FJBAKJ3TNMBBLYHIS0EBCFB","","<img src=""img/set1/S4.jpg"" width=""540"" height = ""360"" style=""border:16px solid orange"">","null","","","","","","","","","",""
"null","","html-keyboard-response","339","606128","0.0-339.0","3QL2OFSM974YTF4YB1Z0V5NNABVCND","AY7WPVKHVNBLG","3ZXV7Q5FJBAKJ3TNMBBLYHIS0EBCFB","","","null","","","","","","","","","",""
"885.2000000476837","","image-keyboard-response","340","607014","0.0-340.0","3QL2OFSM974YTF4YB1Z0V5NNABVCND","AY7WPVKHVNBLG","3ZXV7Q5FJBAKJ3TNMBBLYHIS0EBCFB","","img/set1/S1.jpg","83","1","random","83","random,structured_load,structured_normal,structured_incentive","2,3,4,2,1,2","4,1,3,2","true","","",""
"null","","html-keyboard-response","341","607368","0.0-341.0","3QL2OFSM974YTF4YB1Z0V5NNABVCND","AY7WPVKHVNBLG","3ZXV7Q5FJBAKJ3TNMBBLYHIS0EBCFB","","<img src=""img/set1/S1.jpg"" width=""540"" height = ""360"" style=""border:16px solid orange"">","null","","","","","","","","","",""
"null","","html-keyboard-response","342","607570","0.0-342.0","3QL2OFSM974YTF4YB1Z0V5NNABVCND","AY7WPVKHVNBLG","3ZXV7Q5FJBAKJ3TNMBBLYHIS0EBCFB","","","null","","","","","","","","","",""
"850.3999999761581","","image-keyboard-response","343","608421","0.0-343.0","3QL2OFSM974YTF4YB1Z0V5NNABVCND","AY7WPVKHVNBLG","3ZXV7Q5FJBAKJ3TNMBBLYHIS0EBCFB","","img/set1/S2.jpg","68","2","random","68","random,structured_load,structured_normal,structured_incentive","2,3,4,2,1,2","4,1,3,2","true","","",""
"null","","html-keyboard-response","344","608774","0.0-344.0","3QL2OFSM974YTF4YB1Z0V5NNABVCND","AY7WPVKHVNBLG","3ZXV7Q5FJBAKJ3TNMBBLYHIS0EBCFB","","<img src=""img/set1/S2.jpg"" width=""540"" height = ""360"" style=""border:16px solid orange"">","null","","","","","","","","","",""
"null","","html-keyboard-response","345","608976","0.0-345.0","3QL2OFSM974YTF4YB1Z0V5NNABVCND","AY7WPVKHVNBLG","3ZXV7Q5FJBAKJ3TNMBBLYHIS0EBCFB","","","null","","","","","","","","","",""
"1196.8999999761581","","image-keyboard-response","346","610174","0.0-346.0","3QL2OFSM974YTF4YB1Z0V5NNABVCND","AY7WPVKHVNBLG","3ZXV7Q5FJBAKJ3TNMBBLYHIS0EBCFB","","img/set1/S1.jpg","83","1","random","83","random,structured_load,structured_normal,structured_incentive","2,3,4,2,1,2","4,1,3,2","true","","",""
"null","","html-keyboard-response","347","610526","0.0-347.0","3QL2OFSM974YTF4YB1Z0V5NNABVCND","AY7WPVKHVNBLG","3ZXV7Q5FJBAKJ3TNMBBLYHIS0EBCFB","","<img src=""img/set1/S1.jpg"" width=""540"" height = ""360"" style=""border:16px solid orange"">","null","","","","","","","","","",""
"null","","html-keyboard-response","348","610728","0.0-348.0","3QL2OFSM974YTF4YB1Z0V5NNABVCND","AY7WPVKHVNBLG","3ZXV7Q5FJBAKJ3TNMBBLYHIS0EBCFB","","","null","","","","","","","","","",""
"637.6999999284744","","image-keyboard-response","349","611366","0.0-349.0","3QL2OFSM974YTF4YB1Z0V5NNABVCND","AY7WPVKHVNBLG","3ZXV7Q5FJBAKJ3TNMBBLYHIS0EBCFB","","img/set1/S3.jpg","72","3","random","72","random,structured_load,structured_normal,structured_incentive","2,3,4,2,1,2","4,1,3,2","true","","",""
"null","","html-keyboard-response","350","611719","0.0-350.0","3QL2OFSM974YTF4YB1Z0V5NNABVCND","AY7WPVKHVNBLG","3ZXV7Q5FJBAKJ3TNMBBLYHIS0EBCFB","","<img src=""img/set1/S3.jpg"" width=""540"" height = ""360"" style=""border:16px solid orange"">","null","","","","","","","","","",""
"null","","html-keyboard-response","351","611921","0.0-351.0","3QL2OFSM974YTF4YB1Z0V5NNABVCND","AY7WPVKHVNBLG","3ZXV7Q5FJBAKJ3TNMBBLYHIS0EBCFB","","","null","","","","","","","","","",""
"492","","image-keyboard-response","352","612414","0.0-352.0","3QL2OFSM974YTF4YB1Z0V5NNABVCND","AY7WPVKHVNBLG","3ZXV7Q5FJBAKJ3TNMBBLYHIS0EBCFB","","img/set1/S4.jpg","74","4","random","74","random,structured_load,structured_normal,structured_incentive","2,3,4,2,1,2","4,1,3,2","true","","",""
"null","","html-keyboard-response","353","612766","0.0-353.0","3QL2OFSM974YTF4YB1Z0V5NNABVCND","AY7WPVKHVNBLG","3ZXV7Q5FJBAKJ3TNMBBLYHIS0EBCFB","","<img src=""img/set1/S4.jpg"" width=""540"" height = ""360"" style=""border:16px solid orange"">","null","","","","","","","","","",""
"null","","html-keyboard-response","354","612968","0.0-354.0","3QL2OFSM974YTF4YB1Z0V5NNABVCND","AY7WPVKHVNBLG","3ZXV7Q5FJBAKJ3TNMBBLYHIS0EBCFB","","","null","","","","","","","","","",""
"756.6000000238419","","image-keyboard-response","355","613725","0.0-355.0","3QL2OFSM974YTF4YB1Z0V5NNABVCND","AY7WPVKHVNBLG","3ZXV7Q5FJBAKJ3TNMBBLYHIS0EBCFB","","img/set1/S3.jpg","72","3","random","72","random,structured_load,structured_normal,structured_incentive","2,3,4,2,1,2","4,1,3,2","true","","",""
"null","","html-keyboard-response","356","614077","0.0-356.0","3QL2OFSM974YTF4YB1Z0V5NNABVCND","AY7WPVKHVNBLG","3ZXV7Q5FJBAKJ3TNMBBLYHIS0EBCFB","","<img src=""img/set1/S3.jpg"" width=""540"" height = ""360"" style=""border:16px solid orange"">","null","","","","","","","","","",""
"null","","html-keyboard-response","357","614278","0.0-357.0","3QL2OFSM974YTF4YB1Z0V5NNABVCND","AY7WPVKHVNBLG","3ZXV7Q5FJBAKJ3TNMBBLYHIS0EBCFB","","","null","","","","","","","","","",""
"1078.2000000476837","","image-keyboard-response","358","615357","0.0-358.0","3QL2OFSM974YTF4YB1Z0V5NNABVCND","AY7WPVKHVNBLG","3ZXV7Q5FJBAKJ3TNMBBLYHIS0EBCFB","","img/set1/S4.jpg","83","4","random","74","random,structured_load,structured_normal,structured_incentive","2,3,4,2,1,2","4,1,3,2","false","","",""
"null","","html-keyboard-response","359","615711","0.0-359.0","3QL2OFSM974YTF4YB1Z0V5NNABVCND","AY7WPVKHVNBLG","3ZXV7Q5FJBAKJ3TNMBBLYHIS0EBCFB","","<img src=""img/set1/S4.jpg"" width=""540"" height = ""360"">","null","","","","","","","","","",""
"null","","html-keyboard-response","360","615921","0.0-360.0","3QL2OFSM974YTF4YB1Z0V5NNABVCND","AY7WPVKHVNBLG","3ZXV7Q5FJBAKJ3TNMBBLYHIS0EBCFB","","","null","","","","","","","","","",""
"595.5","","image-keyboard-response","361","616517","0.0-361.0","3QL2OFSM974YTF4YB1Z0V5NNABVCND","AY7WPVKHVNBLG","3ZXV7Q5FJBAKJ3TNMBBLYHIS0EBCFB","","img/set1/S4.jpg","74","4","random","74","random,structured_load,structured_normal,structured_incentive","2,3,4,2,1,2","4,1,3,2","true","","",""
"null","","html-keyboard-response","362","616870","0.0-362.0","3QL2OFSM974YTF4YB1Z0V5NNABVCND","AY7WPVKHVNBLG","3ZXV7Q5FJBAKJ3TNMBBLYHIS0EBCFB","","<img src=""img/set1/S4.jpg"" width=""540"" height = ""360"" style=""border:16px solid orange"">","null","","","","","","","","","",""
"null","","html-keyboard-response","363","617072","0.0-363.0","3QL2OFSM974YTF4YB1Z0V5NNABVCND","AY7WPVKHVNBLG","3ZXV7Q5FJBAKJ3TNMBBLYHIS0EBCFB","","","null","","","","","","","","","",""
"740.6999999284744","","image-keyboard-response","364","617814","0.0-364.0","3QL2OFSM974YTF4YB1Z0V5NNABVCND","AY7WPVKHVNBLG","3ZXV7Q5FJBAKJ3TNMBBLYHIS0EBCFB","","img/set1/S3.jpg","72","3","random","72","random,structured_load,structured_normal,structured_incentive","2,3,4,2,1,2","4,1,3,2","true","","",""
"null","","html-keyboard-response","365","618166","0.0-365.0","3QL2OFSM974YTF4YB1Z0V5NNABVCND","AY7WPVKHVNBLG","3ZXV7Q5FJBAKJ3TNMBBLYHIS0EBCFB","","<img src=""img/set1/S3.jpg"" width=""540"" height = ""360"" style=""border:16px solid orange"">","null","","","","","","","","","",""
"null","","html-keyboard-response","366","618368","0.0-366.0","3QL2OFSM974YTF4YB1Z0V5NNABVCND","AY7WPVKHVNBLG","3ZXV7Q5FJBAKJ3TNMBBLYHIS0EBCFB","","","null","","","","","","","","","",""
"1012.3000000715256","","image-keyboard-response","367","619382","0.0-367.0","3QL2OFSM974YTF4YB1Z0V5NNABVCND","AY7WPVKHVNBLG","3ZXV7Q5FJBAKJ3TNMBBLYHIS0EBCFB","","img/set1/S4.jpg","74","4","random","74","random,structured_load,structured_normal,structured_incentive","2,3,4,2,1,2","4,1,3,2","true","","",""
"null","","html-keyboard-response","368","619734","0.0-368.0","3QL2OFSM974YTF4YB1Z0V5NNABVCND","AY7WPVKHVNBLG","3ZXV7Q5FJBAKJ3TNMBBLYHIS0EBCFB","","<img src=""img/set1/S4.jpg"" width=""540"" height = ""360"" style=""border:16px solid orange"">","null","","","","","","","","","",""
"null","","html-keyboard-response","369","619936","0.0-369.0","3QL2OFSM974YTF4YB1Z0V5NNABVCND","AY7WPVKHVNBLG","3ZXV7Q5FJBAKJ3TNMBBLYHIS0EBCFB","","","null","","","","","","","","","",""
"460.7000000476837","","image-keyboard-response","370","620398","0.0-370.0","3QL2OFSM974YTF4YB1Z0V5NNABVCND","AY7WPVKHVNBLG","3ZXV7Q5FJBAKJ3TNMBBLYHIS0EBCFB","","img/set1/S4.jpg","74","4","random","74","random,structured_load,structured_normal,structured_incentive","2,3,4,2,1,2","4,1,3,2","true","","",""
"null","","html-keyboard-response","371","620750","0.0-371.0","3QL2OFSM974YTF4YB1Z0V5NNABVCND","AY7WPVKHVNBLG","3ZXV7Q5FJBAKJ3TNMBBLYHIS0EBCFB","","<img src=""img/set1/S4.jpg"" width=""540"" height = ""360"" style=""border:16px solid orange"">","null","","","","","","","","","",""
"null","","html-keyboard-response","372","620952","0.0-372.0","3QL2OFSM974YTF4YB1Z0V5NNABVCND","AY7WPVKHVNBLG","3ZXV7Q5FJBAKJ3TNMBBLYHIS0EBCFB","","","null","","","","","","","","","",""
"429.2999999523163","","image-keyboard-response","373","621382","0.0-373.0","3QL2OFSM974YTF4YB1Z0V5NNABVCND","AY7WPVKHVNBLG","3ZXV7Q5FJBAKJ3TNMBBLYHIS0EBCFB","","img/set1/S4.jpg","74","4","random","74","random,structured_load,structured_normal,structured_incentive","2,3,4,2,1,2","4,1,3,2","true","","",""
"null","","html-keyboard-response","374","621734","0.0-374.0","3QL2OFSM974YTF4YB1Z0V5NNABVCND","AY7WPVKHVNBLG","3ZXV7Q5FJBAKJ3TNMBBLYHIS0EBCFB","","<img src=""img/set1/S4.jpg"" width=""540"" height = ""360"" style=""border:16px solid orange"">","null","","","","","","","","","",""
"null","","html-keyboard-response","375","621936","0.0-375.0","3QL2OFSM974YTF4YB1Z0V5NNABVCND","AY7WPVKHVNBLG","3ZXV7Q5FJBAKJ3TNMBBLYHIS0EBCFB","","","null","","","","","","","","","",""
"796.6000000238419","","image-keyboard-response","376","622733","0.0-376.0","3QL2OFSM974YTF4YB1Z0V5NNABVCND","AY7WPVKHVNBLG","3ZXV7Q5FJBAKJ3TNMBBLYHIS0EBCFB","","img/set1/S3.jpg","72","3","random","72","random,structured_load,structured_normal,structured_incentive","2,3,4,2,1,2","4,1,3,2","true","","",""
"null","","html-keyboard-response","377","623085","0.0-377.0","3QL2OFSM974YTF4YB1Z0V5NNABVCND","AY7WPVKHVNBLG","3ZXV7Q5FJBAKJ3TNMBBLYHIS0EBCFB","","<img src=""img/set1/S3.jpg"" width=""540"" height = ""360"" style=""border:16px solid orange"">","null","","","","","","","","","",""
"null","","html-keyboard-response","378","623287","0.0-378.0","3QL2OFSM974YTF4YB1Z0V5NNABVCND","AY7WPVKHVNBLG","3ZXV7Q5FJBAKJ3TNMBBLYHIS0EBCFB","","","null","","","","","","","","","",""
"573.8999999761581","","image-keyboard-response","379","623862","0.0-379.0","3QL2OFSM974YTF4YB1Z0V5NNABVCND","AY7WPVKHVNBLG","3ZXV7Q5FJBAKJ3TNMBBLYHIS0EBCFB","","img/set1/S4.jpg","74","4","random","74","random,structured_load,structured_normal,structured_incentive","2,3,4,2,1,2","4,1,3,2","true","","",""
"null","","html-keyboard-response","380","624223","0.0-380.0","3QL2OFSM974YTF4YB1Z0V5NNABVCND","AY7WPVKHVNBLG","3ZXV7Q5FJBAKJ3TNMBBLYHIS0EBCFB","","<img src=""img/set1/S4.jpg"" width=""540"" height = ""360"" style=""border:16px solid orange"">","null","","","","","","","","","",""
"null","","html-keyboard-response","381","624425","0.0-381.0","3QL2OFSM974YTF4YB1Z0V5NNABVCND","AY7WPVKHVNBLG","3ZXV7Q5FJBAKJ3TNMBBLYHIS0EBCFB","","","null","","","","","","","","","",""
"1291.3999999761581","","image-keyboard-response","382","625717","0.0-382.0","3QL2OFSM974YTF4YB1Z0V5NNABVCND","AY7WPVKHVNBLG","3ZXV7Q5FJBAKJ3TNMBBLYHIS0EBCFB","","img/set1/S1.jpg","83","1","random","83","random,structured_load,structured_normal,structured_incentive","2,3,4,2,1,2","4,1,3,2","true","","",""
"null","","html-keyboard-response","383","626069","0.0-383.0","3QL2OFSM974YTF4YB1Z0V5NNABVCND","AY7WPVKHVNBLG","3ZXV7Q5FJBAKJ3TNMBBLYHIS0EBCFB","","<img src=""img/set1/S1.jpg"" width=""540"" height = ""360"" style=""border:16px solid orange"">","null","","","","","","","","","",""
"null","","html-keyboard-response","384","626270","0.0-384.0","3QL2OFSM974YTF4YB1Z0V5NNABVCND","AY7WPVKHVNBLG","3ZXV7Q5FJBAKJ3TNMBBLYHIS0EBCFB","","","null","","","","","","","","","",""
"878.8999999761581","","image-keyboard-response","385","627150","0.0-385.0","3QL2OFSM974YTF4YB1Z0V5NNABVCND","AY7WPVKHVNBLG","3ZXV7Q5FJBAKJ3TNMBBLYHIS0EBCFB","","img/set1/S3.jpg","72","3","random","72","random,structured_load,structured_normal,structured_incentive","2,3,4,2,1,2","4,1,3,2","true","","",""
