"rt","url","trial_type","trial_index","time_elapsed","internal_node_id","assignmentID","mturkID","hitID","view_history","stimulus","key_press","state","test_part","correct_response","order_block","order_chunk","order_freq","correct","responses","question_order","bonus"
"15599","consent.html","external-html","0","16243","0.0-0.0","3137ONMDKHR7GL7QKOS0V9ETTZVGEM","AZ9VWEDBI364C","3RSBJ6YZECCLSSQQCGKCTHC9OPAFOK","","","","","","","","","","","","",""
"32130","","instructions","1","48379","0.0-1.0","3137ONMDKHR7GL7QKOS0V9ETTZVGEM","AZ9VWEDBI364C","3RSBJ6YZECCLSSQQCGKCTHC9OPAFOK","[{""page_index"":0,""viewing_time"":4016},{""page_index"":1,""viewing_time"":5902},{""page_index"":2,""viewing_time"":1310},{""page_index"":3,""viewing_time"":11908},{""page_index"":4,""viewing_time"":3951},{""page_index"":5,""viewing_time"":3561},{""page_index"":6,""viewing_time"":1481}]","","","","","","","","","","","",""
"3161","","instructions","2","51541","0.0-2.0","3137ONMDKHR7GL7QKOS0V9ETTZVGEM","AZ9VWEDBI364C","3RSBJ6YZECCLSSQQCGKCTHC9OPAFOK","[{""page_index"":0,""viewing_time"":3161}]","","","","","","","","","","","",""
"2738","","instructions","3","54280","0.0-3.0","3137ONMDKHR7GL7QKOS0V9ETTZVGEM","AZ9VWEDBI364C","3RSBJ6YZECCLSSQQCGKCTHC9OPAFOK","[{""page_index"":0,""viewing_time"":1273},{""page_index"":1,""viewing_time"":1464}]","","","","","","","","","","","",""
"null","","image-keyboard-response","4","56784","0.0-4.0","3137ONMDKHR7GL7QKOS0V9ETTZVGEM","AZ9VWEDBI364C","3RSBJ6YZECCLSSQQCGKCTHC9OPAFOK","","img/set1/S2.jpg","null","2","structured_load","68","structured_load,structured_incentive,structured_normal,random","2,3,1,2,4,2","2,1,3,4","false","","",""
"null","","html-keyboard-response","5","57140","0.0-5.0","3137ONMDKHR7GL7QKOS0V9ETTZVGEM","AZ9VWEDBI364C","3RSBJ6YZECCLSSQQCGKCTHC9OPAFOK","","<img src=""img/set1/S2.jpg"" width=""540"" height = ""360"">","null","","","","","","","","","",""
"null","","html-keyboard-response","6","57345","0.0-6.0","3137ONMDKHR7GL7QKOS0V9ETTZVGEM","AZ9VWEDBI364C","3RSBJ6YZECCLSSQQCGKCTHC9OPAFOK","","","null","","","","","","","","","",""
"113","","image-keyboard-response","7","57460","0.0-7.0","3137ONMDKHR7GL7QKOS0V9ETTZVGEM","AZ9VWEDBI364C","3RSBJ6YZECCLSSQQCGKCTHC9OPAFOK","","img/set1/S3.jpg","72","3","structured_load","72","structured_load,structured_incentive,structured_normal,random","2,3,1,2,4,2","2,1,3,4","true","","",""
"null","","html-keyboard-response","8","57812","0.0-8.0","3137ONMDKHR7GL7QKOS0V9ETTZVGEM","AZ9VWEDBI364C","3RSBJ6YZECCLSSQQCGKCTHC9OPAFOK","","<img src=""img/set1/S3.jpg"" width=""540"" height = ""360"" style=""border:16px solid orange"">","null","","","","","","","","","",""
"null","","html-keyboard-response","9","58013","0.0-9.0","3137ONMDKHR7GL7QKOS0V9ETTZVGEM","AZ9VWEDBI364C","3RSBJ6YZECCLSSQQCGKCTHC9OPAFOK","","","null","","","","","","","","","",""
"44","","image-keyboard-response","10","58059","0.0-10.0","3137ONMDKHR7GL7QKOS0V9ETTZVGEM","AZ9VWEDBI364C","3RSBJ6YZECCLSSQQCGKCTHC9OPAFOK","","img/set1/S4.jpg","74","4","structured_load","74","structured_load,structured_incentive,structured_normal,random","2,3,1,2,4,2","2,1,3,4","true","","",""
"null","","html-keyboard-response","11","58411","0.0-11.0","3137ONMDKHR7GL7QKOS0V9ETTZVGEM","AZ9VWEDBI364C","3RSBJ6YZECCLSSQQCGKCTHC9OPAFOK","","<img src=""img/set1/S4.jpg"" width=""540"" height = ""360"" style=""border:16px solid orange"">","null","","","","","","","","","",""
"null","","html-keyboard-response","12","58613","0.0-12.0","3137ONMDKHR7GL7QKOS0V9ETTZVGEM","AZ9VWEDBI364C","3RSBJ6YZECCLSSQQCGKCTHC9OPAFOK","","","null","","","","","","","","","",""
"8","","image-keyboard-response","13","58623","0.0-13.0","3137ONMDKHR7GL7QKOS0V9ETTZVGEM","AZ9VWEDBI364C","3RSBJ6YZECCLSSQQCGKCTHC9OPAFOK","","img/set1/S2.jpg","68","2","structured_load","68","structured_load,structured_incentive,structured_normal,random","2,3,1,2,4,2","2,1,3,4","true","","",""
"null","","html-keyboard-response","14","58975","0.0-14.0","3137ONMDKHR7GL7QKOS0V9ETTZVGEM","AZ9VWEDBI364C","3RSBJ6YZECCLSSQQCGKCTHC9OPAFOK","","<img src=""img/set1/S2.jpg"" width=""540"" height = ""360"" style=""border:16px solid orange"">","null","","","","","","","","","",""
"null","","html-keyboard-response","15","59176","0.0-15.0","3137ONMDKHR7GL7QKOS0V9ETTZVGEM","AZ9VWEDBI364C","3RSBJ6YZECCLSSQQCGKCTHC9OPAFOK","","","null","","","","","","","","","",""
"41","","image-keyboard-response","16","59218","0.0-16.0","3137ONMDKHR7GL7QKOS0V9ETTZVGEM","AZ9VWEDBI364C","3RSBJ6YZECCLSSQQCGKCTHC9OPAFOK","","img/set1/S4.jpg","83","4","structured_load","74","structured_load,structured_incentive,structured_normal,random","2,3,1,2,4,2","2,1,3,4","false","","",""
"null","","html-keyboard-response","17","59571","0.0-17.0","3137ONMDKHR7GL7QKOS0V9ETTZVGEM","AZ9VWEDBI364C","3RSBJ6YZECCLSSQQCGKCTHC9OPAFOK","","<img src=""img/set1/S4.jpg"" width=""540"" height = ""360"">","null","","","","","","","","","",""
"null","","html-keyboard-response","18","59772","0.0-18.0","3137ONMDKHR7GL7QKOS0V9ETTZVGEM","AZ9VWEDBI364C","3RSBJ6YZECCLSSQQCGKCTHC9OPAFOK","","","null","","","","","","","","","",""
"5","","image-keyboard-response","19","59778","0.0-19.0","3137ONMDKHR7GL7QKOS0V9ETTZVGEM","AZ9VWEDBI364C","3RSBJ6YZECCLSSQQCGKCTHC9OPAFOK","","img/set1/S4.jpg","68","4","structured_load","74","structured_load,structured_incentive,structured_normal,random","2,3,1,2,4,2","2,1,3,4","false","","",""
"null","","html-keyboard-response","20","60129","0.0-20.0","3137ONMDKHR7GL7QKOS0V9ETTZVGEM","AZ9VWEDBI364C","3RSBJ6YZECCLSSQQCGKCTHC9OPAFOK","","<img src=""img/set1/S4.jpg"" width=""540"" height = ""360"">","null","","","","","","","","","",""
"null","","html-keyboard-response","21","60330","0.0-21.0","3137ONMDKHR7GL7QKOS0V9ETTZVGEM","AZ9VWEDBI364C","3RSBJ6YZECCLSSQQCGKCTHC9OPAFOK","","","null","","","","","","","","","",""
"19","","image-keyboard-response","22","60350","0.0-22.0","3137ONMDKHR7GL7QKOS0V9ETTZVGEM","AZ9VWEDBI364C","3RSBJ6YZECCLSSQQCGKCTHC9OPAFOK","","img/set1/S2.jpg","72","2","structured_load","68","structured_load,structured_incentive,structured_normal,random","2,3,1,2,4,2","2,1,3,4","false","","",""
"null","","html-keyboard-response","23","60702","0.0-23.0","3137ONMDKHR7GL7QKOS0V9ETTZVGEM","AZ9VWEDBI364C","3RSBJ6YZECCLSSQQCGKCTHC9OPAFOK","","<img src=""img/set1/S2.jpg"" width=""540"" height = ""360"">","null","","","","","","","","","",""
"null","","html-keyboard-response","24","60903","0.0-24.0","3137ONMDKHR7GL7QKOS0V9ETTZVGEM","AZ9VWEDBI364C","3RSBJ6YZECCLSSQQCGKCTHC9OPAFOK","","","null","","","","","","","","","",""
"24","","image-keyboard-response","25","60928","0.0-25.0","3137ONMDKHR7GL7QKOS0V9ETTZVGEM","AZ9VWEDBI364C","3RSBJ6YZECCLSSQQCGKCTHC9OPAFOK","","img/set1/S3.jpg","72","3","structured_load","72","structured_load,structured_incentive,structured_normal,random","2,3,1,2,4,2","2,1,3,4","true","","",""
"null","","html-keyboard-response","26","61279","0.0-26.0","3137ONMDKHR7GL7QKOS0V9ETTZVGEM","AZ9VWEDBI364C","3RSBJ6YZECCLSSQQCGKCTHC9OPAFOK","","<img src=""img/set1/S3.jpg"" width=""540"" height = ""360"" style=""border:16px solid orange"">","null","","","","","","","","","",""
"null","","html-keyboard-response","27","61481","0.0-27.0","3137ONMDKHR7GL7QKOS0V9ETTZVGEM","AZ9VWEDBI364C","3RSBJ6YZECCLSSQQCGKCTHC9OPAFOK","","","null","","","","","","","","","",""
"66","","image-keyboard-response","28","61547","0.0-28.0","3137ONMDKHR7GL7QKOS0V9ETTZVGEM","AZ9VWEDBI364C","3RSBJ6YZECCLSSQQCGKCTHC9OPAFOK","","img/set1/S4.jpg","74","4","structured_load","74","structured_load,structured_incentive,structured_normal,random","2,3,1,2,4,2","2,1,3,4","true","","",""
"null","","html-keyboard-response","29","61898","0.0-29.0","3137ONMDKHR7GL7QKOS0V9ETTZVGEM","AZ9VWEDBI364C","3RSBJ6YZECCLSSQQCGKCTHC9OPAFOK","","<img src=""img/set1/S4.jpg"" width=""540"" height = ""360"" style=""border:16px solid orange"">","null","","","","","","","","","",""
"null","","html-keyboard-response","30","62100","0.0-30.0","3137ONMDKHR7GL7QKOS0V9ETTZVGEM","AZ9VWEDBI364C","3RSBJ6YZECCLSSQQCGKCTHC9OPAFOK","","","null","","","","","","","","","",""
"12","","image-keyboard-response","31","62114","0.0-31.0","3137ONMDKHR7GL7QKOS0V9ETTZVGEM","AZ9VWEDBI364C","3RSBJ6YZECCLSSQQCGKCTHC9OPAFOK","","img/set1/S1.jpg","74","1","structured_load","83","structured_load,structured_incentive,structured_normal,random","2,3,1,2,4,2","2,1,3,4","false","","",""
"null","","html-keyboard-response","32","62466","0.0-32.0","3137ONMDKHR7GL7QKOS0V9ETTZVGEM","AZ9VWEDBI364C","3RSBJ6YZECCLSSQQCGKCTHC9OPAFOK","","<img src=""img/set1/S1.jpg"" width=""540"" height = ""360"">","null","","","","","","","","","",""
"null","","html-keyboard-response","33","62667","0.0-33.0","3137ONMDKHR7GL7QKOS0V9ETTZVGEM","AZ9VWEDBI364C","3RSBJ6YZECCLSSQQCGKCTHC9OPAFOK","","","null","","","","","","","","","",""
"41","","image-keyboard-response","34","62709","0.0-34.0","3137ONMDKHR7GL7QKOS0V9ETTZVGEM","AZ9VWEDBI364C","3RSBJ6YZECCLSSQQCGKCTHC9OPAFOK","","img/set1/S3.jpg","74","3","structured_load","72","structured_load,structured_incentive,structured_normal,random","2,3,1,2,4,2","2,1,3,4","false","","",""
"null","","html-keyboard-response","35","63060","0.0-35.0","3137ONMDKHR7GL7QKOS0V9ETTZVGEM","AZ9VWEDBI364C","3RSBJ6YZECCLSSQQCGKCTHC9OPAFOK","","<img src=""img/set1/S3.jpg"" width=""540"" height = ""360"">","null","","","","","","","","","",""
"null","","html-keyboard-response","36","63286","0.0-36.0","3137ONMDKHR7GL7QKOS0V9ETTZVGEM","AZ9VWEDBI364C","3RSBJ6YZECCLSSQQCGKCTHC9OPAFOK","","","null","","","","","","","","","",""
"10","","image-keyboard-response","37","63298","0.0-37.0","3137ONMDKHR7GL7QKOS0V9ETTZVGEM","AZ9VWEDBI364C","3RSBJ6YZECCLSSQQCGKCTHC9OPAFOK","","img/set1/S2.jpg","74","2","structured_load","68","structured_load,structured_incentive,structured_normal,random","2,3,1,2,4,2","2,1,3,4","false","","",""
"null","","html-keyboard-response","38","63651","0.0-38.0","3137ONMDKHR7GL7QKOS0V9ETTZVGEM","AZ9VWEDBI364C","3RSBJ6YZECCLSSQQCGKCTHC9OPAFOK","","<img src=""img/set1/S2.jpg"" width=""540"" height = ""360"">","null","","","","","","","","","",""
"null","","html-keyboard-response","39","63852","0.0-39.0","3137ONMDKHR7GL7QKOS0V9ETTZVGEM","AZ9VWEDBI364C","3RSBJ6YZECCLSSQQCGKCTHC9OPAFOK","","","null","","","","","","","","","",""
"30","","image-keyboard-response","40","63883","0.0-40.0","3137ONMDKHR7GL7QKOS0V9ETTZVGEM","AZ9VWEDBI364C","3RSBJ6YZECCLSSQQCGKCTHC9OPAFOK","","img/set1/S4.jpg","74","4","structured_load","74","structured_load,structured_incentive,structured_normal,random","2,3,1,2,4,2","2,1,3,4","true","","",""
"null","","html-keyboard-response","41","64237","0.0-41.0","3137ONMDKHR7GL7QKOS0V9ETTZVGEM","AZ9VWEDBI364C","3RSBJ6YZECCLSSQQCGKCTHC9OPAFOK","","<img src=""img/set1/S4.jpg"" width=""540"" height = ""360"" style=""border:16px solid orange"">","null","","","","","","","","","",""
"null","","html-keyboard-response","42","64437","0.0-42.0","3137ONMDKHR7GL7QKOS0V9ETTZVGEM","AZ9VWEDBI364C","3RSBJ6YZECCLSSQQCGKCTHC9OPAFOK","","","null","","","","","","","","","",""
"79","","image-keyboard-response","43","64518","0.0-43.0","3137ONMDKHR7GL7QKOS0V9ETTZVGEM","AZ9VWEDBI364C","3RSBJ6YZECCLSSQQCGKCTHC9OPAFOK","","img/set1/S3.jpg","72","3","structured_load","72","structured_load,structured_incentive,structured_normal,random","2,3,1,2,4,2","2,1,3,4","true","","",""
"null","","html-keyboard-response","44","64871","0.0-44.0","3137ONMDKHR7GL7QKOS0V9ETTZVGEM","AZ9VWEDBI364C","3RSBJ6YZECCLSSQQCGKCTHC9OPAFOK","","<img src=""img/set1/S3.jpg"" width=""540"" height = ""360"" style=""border:16px solid orange"">","null","","","","","","","","","",""
"null","","html-keyboard-response","45","65094","0.0-45.0","3137ONMDKHR7GL7QKOS0V9ETTZVGEM","AZ9VWEDBI364C","3RSBJ6YZECCLSSQQCGKCTHC9OPAFOK","","","null","","","","","","","","","",""
"2","","image-keyboard-response","46","65097","0.0-46.0","3137ONMDKHR7GL7QKOS0V9ETTZVGEM","AZ9VWEDBI364C","3RSBJ6YZECCLSSQQCGKCTHC9OPAFOK","","img/set1/S2.jpg","72","2","structured_load","68","structured_load,structured_incentive,structured_normal,random","2,3,1,2,4,2","2,1,3,4","false","","",""
"null","","html-keyboard-response","47","65448","0.0-47.0","3137ONMDKHR7GL7QKOS0V9ETTZVGEM","AZ9VWEDBI364C","3RSBJ6YZECCLSSQQCGKCTHC9OPAFOK","","<img src=""img/set1/S2.jpg"" width=""540"" height = ""360"">","null","","","","","","","","","",""
"null","","html-keyboard-response","48","65649","0.0-48.0","3137ONMDKHR7GL7QKOS0V9ETTZVGEM","AZ9VWEDBI364C","3RSBJ6YZECCLSSQQCGKCTHC9OPAFOK","","","null","","","","","","","","","",""
"71","","image-keyboard-response","49","65721","0.0-49.0","3137ONMDKHR7GL7QKOS0V9ETTZVGEM","AZ9VWEDBI364C","3RSBJ6YZECCLSSQQCGKCTHC9OPAFOK","","img/set1/S3.jpg","74","3","structured_load","72","structured_load,structured_incentive,structured_normal,random","2,3,1,2,4,2","2,1,3,4","false","","",""
"null","","html-keyboard-response","50","66073","0.0-50.0","3137ONMDKHR7GL7QKOS0V9ETTZVGEM","AZ9VWEDBI364C","3RSBJ6YZECCLSSQQCGKCTHC9OPAFOK","","<img src=""img/set1/S3.jpg"" width=""540"" height = ""360"">","null","","","","","","","","","",""
"null","","html-keyboard-response","51","66273","0.0-51.0","3137ONMDKHR7GL7QKOS0V9ETTZVGEM","AZ9VWEDBI364C","3RSBJ6YZECCLSSQQCGKCTHC9OPAFOK","","","null","","","","","","","","","",""
"10","","image-keyboard-response","52","66284","0.0-52.0","3137ONMDKHR7GL7QKOS0V9ETTZVGEM","AZ9VWEDBI364C","3RSBJ6YZECCLSSQQCGKCTHC9OPAFOK","","img/set1/S1.jpg","74","1","structured_load","83","structured_load,structured_incentive,structured_normal,random","2,3,1,2,4,2","2,1,3,4","false","","",""
"null","","html-keyboard-response","53","66636","0.0-53.0","3137ONMDKHR7GL7QKOS0V9ETTZVGEM","AZ9VWEDBI364C","3RSBJ6YZECCLSSQQCGKCTHC9OPAFOK","","<img src=""img/set1/S1.jpg"" width=""540"" height = ""360"">","null","","","","","","","","","",""
"null","","html-keyboard-response","54","66837","0.0-54.0","3137ONMDKHR7GL7QKOS0V9ETTZVGEM","AZ9VWEDBI364C","3RSBJ6YZECCLSSQQCGKCTHC9OPAFOK","","","null","","","","","","","","","",""
"18","","image-keyboard-response","55","66857","0.0-55.0","3137ONMDKHR7GL7QKOS0V9ETTZVGEM","AZ9VWEDBI364C","3RSBJ6YZECCLSSQQCGKCTHC9OPAFOK","","img/set1/S2.jpg","68","2","structured_load","68","structured_load,structured_incentive,structured_normal,random","2,3,1,2,4,2","2,1,3,4","true","","",""
"null","","html-keyboard-response","56","67210","0.0-56.0","3137ONMDKHR7GL7QKOS0V9ETTZVGEM","AZ9VWEDBI364C","3RSBJ6YZECCLSSQQCGKCTHC9OPAFOK","","<img src=""img/set1/S2.jpg"" width=""540"" height = ""360"" style=""border:16px solid orange"">","null","","","","","","","","","",""
"null","","html-keyboard-response","57","67410","0.0-57.0","3137ONMDKHR7GL7QKOS0V9ETTZVGEM","AZ9VWEDBI364C","3RSBJ6YZECCLSSQQCGKCTHC9OPAFOK","","","null","","","","","","","","","",""
"35","","image-keyboard-response","58","67447","0.0-58.0","3137ONMDKHR7GL7QKOS0V9ETTZVGEM","AZ9VWEDBI364C","3RSBJ6YZECCLSSQQCGKCTHC9OPAFOK","","img/set1/S4.jpg","72","4","structured_load","74","structured_load,structured_incentive,structured_normal,random","2,3,1,2,4,2","2,1,3,4","false","","",""
"null","","html-keyboard-response","59","67799","0.0-59.0","3137ONMDKHR7GL7QKOS0V9ETTZVGEM","AZ9VWEDBI364C","3RSBJ6YZECCLSSQQCGKCTHC9OPAFOK","","<img src=""img/set1/S4.jpg"" width=""540"" height = ""360"">","null","","","","","","","","","",""
"null","","html-keyboard-response","60","68026","0.0-60.0","3137ONMDKHR7GL7QKOS0V9ETTZVGEM","AZ9VWEDBI364C","3RSBJ6YZECCLSSQQCGKCTHC9OPAFOK","","","null","","","","","","","","","",""
"15","","image-keyboard-response","61","68042","0.0-61.0","3137ONMDKHR7GL7QKOS0V9ETTZVGEM","AZ9VWEDBI364C","3RSBJ6YZECCLSSQQCGKCTHC9OPAFOK","","img/set1/S4.jpg","72","4","structured_load","74","structured_load,structured_incentive,structured_normal,random","2,3,1,2,4,2","2,1,3,4","false","","",""
"null","","html-keyboard-response","62","68394","0.0-62.0","3137ONMDKHR7GL7QKOS0V9ETTZVGEM","AZ9VWEDBI364C","3RSBJ6YZECCLSSQQCGKCTHC9OPAFOK","","<img src=""img/set1/S4.jpg"" width=""540"" height = ""360"">","null","","","","","","","","","",""
"null","","html-keyboard-response","63","68595","0.0-63.0","3137ONMDKHR7GL7QKOS0V9ETTZVGEM","AZ9VWEDBI364C","3RSBJ6YZECCLSSQQCGKCTHC9OPAFOK","","","null","","","","","","","","","",""
"47","","image-keyboard-response","64","68643","0.0-64.0","3137ONMDKHR7GL7QKOS0V9ETTZVGEM","AZ9VWEDBI364C","3RSBJ6YZECCLSSQQCGKCTHC9OPAFOK","","img/set1/S3.jpg","68","3","structured_load","72","structured_load,structured_incentive,structured_normal,random","2,3,1,2,4,2","2,1,3,4","false","","",""
"null","","html-keyboard-response","65","68994","0.0-65.0","3137ONMDKHR7GL7QKOS0V9ETTZVGEM","AZ9VWEDBI364C","3RSBJ6YZECCLSSQQCGKCTHC9OPAFOK","","<img src=""img/set1/S3.jpg"" width=""540"" height = ""360"">","null","","","","","","","","","",""
"null","","html-keyboard-response","66","69195","0.0-66.0","3137ONMDKHR7GL7QKOS0V9ETTZVGEM","AZ9VWEDBI364C","3RSBJ6YZECCLSSQQCGKCTHC9OPAFOK","","","null","","","","","","","","","",""
"32","","image-keyboard-response","67","69228","0.0-67.0","3137ONMDKHR7GL7QKOS0V9ETTZVGEM","AZ9VWEDBI364C","3RSBJ6YZECCLSSQQCGKCTHC9OPAFOK","","img/set1/S4.jpg","72","4","structured_load","74","structured_load,structured_incentive,structured_normal,random","2,3,1,2,4,2","2,1,3,4","false","","",""
"null","","html-keyboard-response","68","69580","0.0-68.0","3137ONMDKHR7GL7QKOS0V9ETTZVGEM","AZ9VWEDBI364C","3RSBJ6YZECCLSSQQCGKCTHC9OPAFOK","","<img src=""img/set1/S4.jpg"" width=""540"" height = ""360"">","null","","","","","","","","","",""
"null","","html-keyboard-response","69","69781","0.0-69.0","3137ONMDKHR7GL7QKOS0V9ETTZVGEM","AZ9VWEDBI364C","3RSBJ6YZECCLSSQQCGKCTHC9OPAFOK","","","null","","","","","","","","","",""
"4","","image-keyboard-response","70","69800","0.0-70.0","3137ONMDKHR7GL7QKOS0V9ETTZVGEM","AZ9VWEDBI364C","3RSBJ6YZECCLSSQQCGKCTHC9OPAFOK","","img/set1/S4.jpg","72","4","structured_load","74","structured_load,structured_incentive,structured_normal,random","2,3,1,2,4,2","2,1,3,4","false","","",""
"null","","html-keyboard-response","71","70153","0.0-71.0","3137ONMDKHR7GL7QKOS0V9ETTZVGEM","AZ9VWEDBI364C","3RSBJ6YZECCLSSQQCGKCTHC9OPAFOK","","<img src=""img/set1/S4.jpg"" width=""540"" height = ""360"">","null","","","","","","","","","",""
"null","","html-keyboard-response","72","70355","0.0-72.0","3137ONMDKHR7GL7QKOS0V9ETTZVGEM","AZ9VWEDBI364C","3RSBJ6YZECCLSSQQCGKCTHC9OPAFOK","","","null","","","","","","","","","",""
"54","","image-keyboard-response","73","70410","0.0-73.0","3137ONMDKHR7GL7QKOS0V9ETTZVGEM","AZ9VWEDBI364C","3RSBJ6YZECCLSSQQCGKCTHC9OPAFOK","","img/set1/S4.jpg","74","4","structured_load","74","structured_load,structured_incentive,structured_normal,random","2,3,1,2,4,2","2,1,3,4","true","","",""
"null","","html-keyboard-response","74","70761","0.0-74.0","3137ONMDKHR7GL7QKOS0V9ETTZVGEM","AZ9VWEDBI364C","3RSBJ6YZECCLSSQQCGKCTHC9OPAFOK","","<img src=""img/set1/S4.jpg"" width=""540"" height = ""360"" style=""border:16px solid orange"">","null","","","","","","","","","",""
"null","","html-keyboard-response","75","70962","0.0-75.0","3137ONMDKHR7GL7QKOS0V9ETTZVGEM","AZ9VWEDBI364C","3RSBJ6YZECCLSSQQCGKCTHC9OPAFOK","","","null","","","","","","","","","",""
"84","","image-keyboard-response","76","71048","0.0-76.0","3137ONMDKHR7GL7QKOS0V9ETTZVGEM","AZ9VWEDBI364C","3RSBJ6YZECCLSSQQCGKCTHC9OPAFOK","","img/set1/S4.jpg","83","4","structured_load","74","structured_load,structured_incentive,structured_normal,random","2,3,1,2,4,2","2,1,3,4","false","","",""
"null","","html-keyboard-response","77","71399","0.0-77.0","3137ONMDKHR7GL7QKOS0V9ETTZVGEM","AZ9VWEDBI364C","3RSBJ6YZECCLSSQQCGKCTHC9OPAFOK","","<img src=""img/set1/S4.jpg"" width=""540"" height = ""360"">","null","","","","","","","","","",""
"null","","html-keyboard-response","78","71600","0.0-78.0","3137ONMDKHR7GL7QKOS0V9ETTZVGEM","AZ9VWEDBI364C","3RSBJ6YZECCLSSQQCGKCTHC9OPAFOK","","","null","","","","","","","","","",""
"85","","image-keyboard-response","79","71687","0.0-79.0","3137ONMDKHR7GL7QKOS0V9ETTZVGEM","AZ9VWEDBI364C","3RSBJ6YZECCLSSQQCGKCTHC9OPAFOK","","img/set1/S3.jpg","74","3","structured_load","72","structured_load,structured_incentive,structured_normal,random","2,3,1,2,4,2","2,1,3,4","false","","",""
"null","","html-keyboard-response","80","72039","0.0-80.0","3137ONMDKHR7GL7QKOS0V9ETTZVGEM","AZ9VWEDBI364C","3RSBJ6YZECCLSSQQCGKCTHC9OPAFOK","","<img src=""img/set1/S3.jpg"" width=""540"" height = ""360"">","null","","","","","","","","","",""
"null","","html-keyboard-response","81","72239","0.0-81.0","3137ONMDKHR7GL7QKOS0V9ETTZVGEM","AZ9VWEDBI364C","3RSBJ6YZECCLSSQQCGKCTHC9OPAFOK","","","null","","","","","","","","","",""
"7","","image-keyboard-response","82","72248","0.0-82.0","3137ONMDKHR7GL7QKOS0V9ETTZVGEM","AZ9VWEDBI364C","3RSBJ6YZECCLSSQQCGKCTHC9OPAFOK","","img/set1/S3.jpg","68","3","structured_load","72","structured_load,structured_incentive,structured_normal,random","2,3,1,2,4,2","2,1,3,4","false","","",""
"null","","html-keyboard-response","83","72600","0.0-83.0","3137ONMDKHR7GL7QKOS0V9ETTZVGEM","AZ9VWEDBI364C","3RSBJ6YZECCLSSQQCGKCTHC9OPAFOK","","<img src=""img/set1/S3.jpg"" width=""540"" height = ""360"">","null","","","","","","","","","",""
"null","","html-keyboard-response","84","72801","0.0-84.0","3137ONMDKHR7GL7QKOS0V9ETTZVGEM","AZ9VWEDBI364C","3RSBJ6YZECCLSSQQCGKCTHC9OPAFOK","","","null","","","","","","","","","",""
"103","","image-keyboard-response","85","72905","0.0-85.0","3137ONMDKHR7GL7QKOS0V9ETTZVGEM","AZ9VWEDBI364C","3RSBJ6YZECCLSSQQCGKCTHC9OPAFOK","","img/set1/S2.jpg","74","2","structured_load","68","structured_load,structured_incentive,structured_normal,random","2,3,1,2,4,2","2,1,3,4","false","","",""
"null","","html-keyboard-response","86","73258","0.0-86.0","3137ONMDKHR7GL7QKOS0V9ETTZVGEM","AZ9VWEDBI364C","3RSBJ6YZECCLSSQQCGKCTHC9OPAFOK","","<img src=""img/set1/S2.jpg"" width=""540"" height = ""360"">","null","","","","","","","","","",""
"null","","html-keyboard-response","87","73458","0.0-87.0","3137ONMDKHR7GL7QKOS0V9ETTZVGEM","AZ9VWEDBI364C","3RSBJ6YZECCLSSQQCGKCTHC9OPAFOK","","","null","","","","","","","","","",""
"50","","image-keyboard-response","88","73510","0.0-88.0","3137ONMDKHR7GL7QKOS0V9ETTZVGEM","AZ9VWEDBI364C","3RSBJ6YZECCLSSQQCGKCTHC9OPAFOK","","img/set1/S3.jpg","74","3","structured_load","72","structured_load,structured_incentive,structured_normal,random","2,3,1,2,4,2","2,1,3,4","false","","",""
"null","","html-keyboard-response","89","73862","0.0-89.0","3137ONMDKHR7GL7QKOS0V9ETTZVGEM","AZ9VWEDBI364C","3RSBJ6YZECCLSSQQCGKCTHC9OPAFOK","","<img src=""img/set1/S3.jpg"" width=""540"" height = ""360"">","null","","","","","","","","","",""
"null","","html-keyboard-response","90","74063","0.0-90.0","3137ONMDKHR7GL7QKOS0V9ETTZVGEM","AZ9VWEDBI364C","3RSBJ6YZECCLSSQQCGKCTHC9OPAFOK","","","null","","","","","","","","","",""
"14","","image-keyboard-response","91","74077","0.0-91.0","3137ONMDKHR7GL7QKOS0V9ETTZVGEM","AZ9VWEDBI364C","3RSBJ6YZECCLSSQQCGKCTHC9OPAFOK","","img/set1/S2.jpg","74","2","structured_load","68","structured_load,structured_incentive,structured_normal,random","2,3,1,2,4,2","2,1,3,4","false","","",""
"null","","html-keyboard-response","92","74429","0.0-92.0","3137ONMDKHR7GL7QKOS0V9ETTZVGEM","AZ9VWEDBI364C","3RSBJ6YZECCLSSQQCGKCTHC9OPAFOK","","<img src=""img/set1/S2.jpg"" width=""540"" height = ""360"">","null","","","","","","","","","",""
"null","","html-keyboard-response","93","74631","0.0-93.0","3137ONMDKHR7GL7QKOS0V9ETTZVGEM","AZ9VWEDBI364C","3RSBJ6YZECCLSSQQCGKCTHC9OPAFOK","","","null","","","","","","","","","",""
"43","","image-keyboard-response","94","74677","0.0-94.0","3137ONMDKHR7GL7QKOS0V9ETTZVGEM","AZ9VWEDBI364C","3RSBJ6YZECCLSSQQCGKCTHC9OPAFOK","","img/set1/S4.jpg","68","4","structured_load","74","structured_load,structured_incentive,structured_normal,random","2,3,1,2,4,2","2,1,3,4","false","","",""
"null","","html-keyboard-response","95","75028","0.0-95.0","3137ONMDKHR7GL7QKOS0V9ETTZVGEM","AZ9VWEDBI364C","3RSBJ6YZECCLSSQQCGKCTHC9OPAFOK","","<img src=""img/set1/S4.jpg"" width=""540"" height = ""360"">","null","","","","","","","","","",""
"null","","html-keyboard-response","96","75229","0.0-96.0","3137ONMDKHR7GL7QKOS0V9ETTZVGEM","AZ9VWEDBI364C","3RSBJ6YZECCLSSQQCGKCTHC9OPAFOK","","","null","","","","","","","","","",""
"16","","image-keyboard-response","97","75245","0.0-97.0","3137ONMDKHR7GL7QKOS0V9ETTZVGEM","AZ9VWEDBI364C","3RSBJ6YZECCLSSQQCGKCTHC9OPAFOK","","img/set1/S1.jpg","72","1","structured_load","83","structured_load,structured_incentive,structured_normal,random","2,3,1,2,4,2","2,1,3,4","false","","",""
"null","","html-keyboard-response","98","75598","0.0-98.0","3137ONMDKHR7GL7QKOS0V9ETTZVGEM","AZ9VWEDBI364C","3RSBJ6YZECCLSSQQCGKCTHC9OPAFOK","","<img src=""img/set1/S1.jpg"" width=""540"" height = ""360"">","null","","","","","","","","","",""
"null","","html-keyboard-response","99","75799","0.0-99.0","3137ONMDKHR7GL7QKOS0V9ETTZVGEM","AZ9VWEDBI364C","3RSBJ6YZECCLSSQQCGKCTHC9OPAFOK","","","null","","","","","","","","","",""
"1","","image-keyboard-response","100","75804","0.0-100.0","3137ONMDKHR7GL7QKOS0V9ETTZVGEM","AZ9VWEDBI364C","3RSBJ6YZECCLSSQQCGKCTHC9OPAFOK","","img/set1/S2.jpg","83","2","structured_load","68","structured_load,structured_incentive,structured_normal,random","2,3,1,2,4,2","2,1,3,4","false","","",""
"null","","html-keyboard-response","101","76156","0.0-101.0","3137ONMDKHR7GL7QKOS0V9ETTZVGEM","AZ9VWEDBI364C","3RSBJ6YZECCLSSQQCGKCTHC9OPAFOK","","<img src=""img/set1/S2.jpg"" width=""540"" height = ""360"">","null","","","","","","","","","",""
"null","","html-keyboard-response","102","76356","0.0-102.0","3137ONMDKHR7GL7QKOS0V9ETTZVGEM","AZ9VWEDBI364C","3RSBJ6YZECCLSSQQCGKCTHC9OPAFOK","","","null","","","","","","","","","",""
"40","","image-keyboard-response","103","76397","0.0-103.0","3137ONMDKHR7GL7QKOS0V9ETTZVGEM","AZ9VWEDBI364C","3RSBJ6YZECCLSSQQCGKCTHC9OPAFOK","","img/set1/S3.jpg","74","3","structured_load","72","structured_load,structured_incentive,structured_normal,random","2,3,1,2,4,2","2,1,3,4","false","","",""
"null","","html-keyboard-response","104","76749","0.0-104.0","3137ONMDKHR7GL7QKOS0V9ETTZVGEM","AZ9VWEDBI364C","3RSBJ6YZECCLSSQQCGKCTHC9OPAFOK","","<img src=""img/set1/S3.jpg"" width=""540"" height = ""360"">","null","","","","","","","","","",""
"null","","html-keyboard-response","105","76951","0.0-105.0","3137ONMDKHR7GL7QKOS0V9ETTZVGEM","AZ9VWEDBI364C","3RSBJ6YZECCLSSQQCGKCTHC9OPAFOK","","","null","","","","","","","","","",""
"51","","image-keyboard-response","106","77002","0.0-106.0","3137ONMDKHR7GL7QKOS0V9ETTZVGEM","AZ9VWEDBI364C","3RSBJ6YZECCLSSQQCGKCTHC9OPAFOK","","img/set1/S2.jpg","74","2","structured_load","68","structured_load,structured_incentive,structured_normal,random","2,3,1,2,4,2","2,1,3,4","false","","",""
"null","","html-keyboard-response","107","77355","0.0-107.0","3137ONMDKHR7GL7QKOS0V9ETTZVGEM","AZ9VWEDBI364C","3RSBJ6YZECCLSSQQCGKCTHC9OPAFOK","","<img src=""img/set1/S2.jpg"" width=""540"" height = ""360"">","null","","","","","","","","","",""
"null","","html-keyboard-response","108","77556","0.0-108.0","3137ONMDKHR7GL7QKOS0V9ETTZVGEM","AZ9VWEDBI364C","3RSBJ6YZECCLSSQQCGKCTHC9OPAFOK","","","null","","","","","","","","","",""
"69","","image-keyboard-response","109","77627","0.0-109.0","3137ONMDKHR7GL7QKOS0V9ETTZVGEM","AZ9VWEDBI364C","3RSBJ6YZECCLSSQQCGKCTHC9OPAFOK","","img/set1/S3.jpg","74","3","structured_load","72","structured_load,structured_incentive,structured_normal,random","2,3,1,2,4,2","2,1,3,4","false","","",""
"null","","html-keyboard-response","110","77978","0.0-110.0","3137ONMDKHR7GL7QKOS0V9ETTZVGEM","AZ9VWEDBI364C","3RSBJ6YZECCLSSQQCGKCTHC9OPAFOK","","<img src=""img/set1/S3.jpg"" width=""540"" height = ""360"">","null","","","","","","","","","",""
"null","","html-keyboard-response","111","78180","0.0-111.0","3137ONMDKHR7GL7QKOS0V9ETTZVGEM","AZ9VWEDBI364C","3RSBJ6YZECCLSSQQCGKCTHC9OPAFOK","","","null","","","","","","","","","",""
"6","","image-keyboard-response","112","78187","0.0-112.0","3137ONMDKHR7GL7QKOS0V9ETTZVGEM","AZ9VWEDBI364C","3RSBJ6YZECCLSSQQCGKCTHC9OPAFOK","","img/set1/S3.jpg","72","3","structured_load","72","structured_load,structured_incentive,structured_normal,random","2,3,1,2,4,2","2,1,3,4","true","","",""
"null","","html-keyboard-response","113","78539","0.0-113.0","3137ONMDKHR7GL7QKOS0V9ETTZVGEM","AZ9VWEDBI364C","3RSBJ6YZECCLSSQQCGKCTHC9OPAFOK","","<img src=""img/set1/S3.jpg"" width=""540"" height = ""360"" style=""border:16px solid orange"">","null","","","","","","","","","",""
"null","","html-keyboard-response","114","78741","0.0-114.0","3137ONMDKHR7GL7QKOS0V9ETTZVGEM","AZ9VWEDBI364C","3RSBJ6YZECCLSSQQCGKCTHC9OPAFOK","","","null","","","","","","","","","",""
"86","","image-keyboard-response","115","78829","0.0-115.0","3137ONMDKHR7GL7QKOS0V9ETTZVGEM","AZ9VWEDBI364C","3RSBJ6YZECCLSSQQCGKCTHC9OPAFOK","","img/set1/S1.jpg","72","1","structured_load","83","structured_load,structured_incentive,structured_normal,random","2,3,1,2,4,2","2,1,3,4","false","","",""
"null","","html-keyboard-response","116","79180","0.0-116.0","3137ONMDKHR7GL7QKOS0V9ETTZVGEM","AZ9VWEDBI364C","3RSBJ6YZECCLSSQQCGKCTHC9OPAFOK","","<img src=""img/set1/S1.jpg"" width=""540"" height = ""360"">","null","","","","","","","","","",""
"null","","html-keyboard-response","117","79382","0.0-117.0","3137ONMDKHR7GL7QKOS0V9ETTZVGEM","AZ9VWEDBI364C","3RSBJ6YZECCLSSQQCGKCTHC9OPAFOK","","","null","","","","","","","","","",""
"18","","image-keyboard-response","118","79401","0.0-118.0","3137ONMDKHR7GL7QKOS0V9ETTZVGEM","AZ9VWEDBI364C","3RSBJ6YZECCLSSQQCGKCTHC9OPAFOK","","img/set1/S1.jpg","74","1","structured_load","83","structured_load,structured_incentive,structured_normal,random","2,3,1,2,4,2","2,1,3,4","false","","",""
"null","","html-keyboard-response","119","79753","0.0-119.0","3137ONMDKHR7GL7QKOS0V9ETTZVGEM","AZ9VWEDBI364C","3RSBJ6YZECCLSSQQCGKCTHC9OPAFOK","","<img src=""img/set1/S1.jpg"" width=""540"" height = ""360"">","null","","","","","","","","","",""
"null","","html-keyboard-response","120","79954","0.0-120.0","3137ONMDKHR7GL7QKOS0V9ETTZVGEM","AZ9VWEDBI364C","3RSBJ6YZECCLSSQQCGKCTHC9OPAFOK","","","null","","","","","","","","","",""
"88","","image-keyboard-response","121","80043","0.0-121.0","3137ONMDKHR7GL7QKOS0V9ETTZVGEM","AZ9VWEDBI364C","3RSBJ6YZECCLSSQQCGKCTHC9OPAFOK","","img/set1/S4.jpg","74","4","structured_load","74","structured_load,structured_incentive,structured_normal,random","2,3,1,2,4,2","2,1,3,4","true","","",""
"null","","html-keyboard-response","122","80395","0.0-122.0","3137ONMDKHR7GL7QKOS0V9ETTZVGEM","AZ9VWEDBI364C","3RSBJ6YZECCLSSQQCGKCTHC9OPAFOK","","<img src=""img/set1/S4.jpg"" width=""540"" height = ""360"" style=""border:16px solid orange"">","null","","","","","","","","","",""
"null","","html-keyboard-response","123","80598","0.0-123.0","3137ONMDKHR7GL7QKOS0V9ETTZVGEM","AZ9VWEDBI364C","3RSBJ6YZECCLSSQQCGKCTHC9OPAFOK","","","null","","","","","","","","","",""
"12","","image-keyboard-response","124","80610","0.0-124.0","3137ONMDKHR7GL7QKOS0V9ETTZVGEM","AZ9VWEDBI364C","3RSBJ6YZECCLSSQQCGKCTHC9OPAFOK","","img/set1/S1.jpg","72","1","structured_load","83","structured_load,structured_incentive,structured_normal,random","2,3,1,2,4,2","2,1,3,4","false","","",""
"null","","html-keyboard-response","125","80962","0.0-125.0","3137ONMDKHR7GL7QKOS0V9ETTZVGEM","AZ9VWEDBI364C","3RSBJ6YZECCLSSQQCGKCTHC9OPAFOK","","<img src=""img/set1/S1.jpg"" width=""540"" height = ""360"">","null","","","","","","","","","",""
"null","","html-keyboard-response","126","81164","0.0-126.0","3137ONMDKHR7GL7QKOS0V9ETTZVGEM","AZ9VWEDBI364C","3RSBJ6YZECCLSSQQCGKCTHC9OPAFOK","","","null","","","","","","","","","",""
"73","","image-keyboard-response","127","81237","0.0-127.0","3137ONMDKHR7GL7QKOS0V9ETTZVGEM","AZ9VWEDBI364C","3RSBJ6YZECCLSSQQCGKCTHC9OPAFOK","","img/set1/S2.jpg","72","2","structured_load","68","structured_load,structured_incentive,structured_normal,random","2,3,1,2,4,2","2,1,3,4","false","","",""
"null","","html-keyboard-response","128","81589","0.0-128.0","3137ONMDKHR7GL7QKOS0V9ETTZVGEM","AZ9VWEDBI364C","3RSBJ6YZECCLSSQQCGKCTHC9OPAFOK","","<img src=""img/set1/S2.jpg"" width=""540"" height = ""360"">","null","","","","","","","","","",""
"null","","html-keyboard-response","129","81792","0.0-129.0","3137ONMDKHR7GL7QKOS0V9ETTZVGEM","AZ9VWEDBI364C","3RSBJ6YZECCLSSQQCGKCTHC9OPAFOK","","","null","","","","","","","","","",""
"78","","image-keyboard-response","130","81871","0.0-130.0","3137ONMDKHR7GL7QKOS0V9ETTZVGEM","AZ9VWEDBI364C","3RSBJ6YZECCLSSQQCGKCTHC9OPAFOK","","img/set1/S4.jpg","72","4","structured_load","74","structured_load,structured_incentive,structured_normal,random","2,3,1,2,4,2","2,1,3,4","false","","",""
"null","","html-keyboard-response","131","82224","0.0-131.0","3137ONMDKHR7GL7QKOS0V9ETTZVGEM","AZ9VWEDBI364C","3RSBJ6YZECCLSSQQCGKCTHC9OPAFOK","","<img src=""img/set1/S4.jpg"" width=""540"" height = ""360"">","null","","","","","","","","","",""
"null","","html-keyboard-response","132","82426","0.0-132.0","3137ONMDKHR7GL7QKOS0V9ETTZVGEM","AZ9VWEDBI364C","3RSBJ6YZECCLSSQQCGKCTHC9OPAFOK","","","null","","","","","","","","","",""
"105","","image-keyboard-response","133","82533","0.0-133.0","3137ONMDKHR7GL7QKOS0V9ETTZVGEM","AZ9VWEDBI364C","3RSBJ6YZECCLSSQQCGKCTHC9OPAFOK","","img/set1/S2.jpg","74","2","structured_load","68","structured_load,structured_incentive,structured_normal,random","2,3,1,2,4,2","2,1,3,4","false","","",""
"null","","html-keyboard-response","134","82886","0.0-134.0","3137ONMDKHR7GL7QKOS0V9ETTZVGEM","AZ9VWEDBI364C","3RSBJ6YZECCLSSQQCGKCTHC9OPAFOK","","<img src=""img/set1/S2.jpg"" width=""540"" height = ""360"">","null","","","","","","","","","",""
"null","","html-keyboard-response","135","83089","0.0-135.0","3137ONMDKHR7GL7QKOS0V9ETTZVGEM","AZ9VWEDBI364C","3RSBJ6YZECCLSSQQCGKCTHC9OPAFOK","","","null","","","","","","","","","",""
"41","","image-keyboard-response","136","83132","0.0-136.0","3137ONMDKHR7GL7QKOS0V9ETTZVGEM","AZ9VWEDBI364C","3RSBJ6YZECCLSSQQCGKCTHC9OPAFOK","","img/set1/S3.jpg","72","3","structured_load","72","structured_load,structured_incentive,structured_normal,random","2,3,1,2,4,2","2,1,3,4","true","","",""
"null","","html-keyboard-response","137","83483","0.0-137.0","3137ONMDKHR7GL7QKOS0V9ETTZVGEM","AZ9VWEDBI364C","3RSBJ6YZECCLSSQQCGKCTHC9OPAFOK","","<img src=""img/set1/S3.jpg"" width=""540"" height = ""360"" style=""border:16px solid orange"">","null","","","","","","","","","",""
"null","","html-keyboard-response","138","83684","0.0-138.0","3137ONMDKHR7GL7QKOS0V9ETTZVGEM","AZ9VWEDBI364C","3RSBJ6YZECCLSSQQCGKCTHC9OPAFOK","","","null","","","","","","","","","",""
"55","","image-keyboard-response","139","83740","0.0-139.0","3137ONMDKHR7GL7QKOS0V9ETTZVGEM","AZ9VWEDBI364C","3RSBJ6YZECCLSSQQCGKCTHC9OPAFOK","","img/set1/S1.jpg","68","1","structured_load","83","structured_load,structured_incentive,structured_normal,random","2,3,1,2,4,2","2,1,3,4","false","","",""
"null","","html-keyboard-response","140","84093","0.0-140.0","3137ONMDKHR7GL7QKOS0V9ETTZVGEM","AZ9VWEDBI364C","3RSBJ6YZECCLSSQQCGKCTHC9OPAFOK","","<img src=""img/set1/S1.jpg"" width=""540"" height = ""360"">","null","","","","","","","","","",""
"null","","html-keyboard-response","141","84294","0.0-141.0","3137ONMDKHR7GL7QKOS0V9ETTZVGEM","AZ9VWEDBI364C","3RSBJ6YZECCLSSQQCGKCTHC9OPAFOK","","","null","","","","","","","","","",""
"116","","image-keyboard-response","142","84412","0.0-142.0","3137ONMDKHR7GL7QKOS0V9ETTZVGEM","AZ9VWEDBI364C","3RSBJ6YZECCLSSQQCGKCTHC9OPAFOK","","img/set1/S1.jpg","74","1","structured_load","83","structured_load,structured_incentive,structured_normal,random","2,3,1,2,4,2","2,1,3,4","false","","",""
"null","","html-keyboard-response","143","84764","0.0-143.0","3137ONMDKHR7GL7QKOS0V9ETTZVGEM","AZ9VWEDBI364C","3RSBJ6YZECCLSSQQCGKCTHC9OPAFOK","","<img src=""img/set1/S1.jpg"" width=""540"" height = ""360"">","null","","","","","","","","","",""
"null","","html-keyboard-response","144","84975","0.0-144.0","3137ONMDKHR7GL7QKOS0V9ETTZVGEM","AZ9VWEDBI364C","3RSBJ6YZECCLSSQQCGKCTHC9OPAFOK","","","null","","","","","","","","","",""
"8","","image-keyboard-response","145","84983","0.0-145.0","3137ONMDKHR7GL7QKOS0V9ETTZVGEM","AZ9VWEDBI364C","3RSBJ6YZECCLSSQQCGKCTHC9OPAFOK","","img/set1/S3.jpg","72","3","structured_load","72","structured_load,structured_incentive,structured_normal,random","2,3,1,2,4,2","2,1,3,4","true","","",""
"null","","html-keyboard-response","146","85335","0.0-146.0","3137ONMDKHR7GL7QKOS0V9ETTZVGEM","AZ9VWEDBI364C","3RSBJ6YZECCLSSQQCGKCTHC9OPAFOK","","<img src=""img/set1/S3.jpg"" width=""540"" height = ""360"" style=""border:16px solid orange"">","null","","","","","","","","","",""
"null","","html-keyboard-response","147","85537","0.0-147.0","3137ONMDKHR7GL7QKOS0V9ETTZVGEM","AZ9VWEDBI364C","3RSBJ6YZECCLSSQQCGKCTHC9OPAFOK","","","null","","","","","","","","","",""
"57","","image-keyboard-response","148","85596","0.0-148.0","3137ONMDKHR7GL7QKOS0V9ETTZVGEM","AZ9VWEDBI364C","3RSBJ6YZECCLSSQQCGKCTHC9OPAFOK","","img/set1/S1.jpg","74","1","structured_load","83","structured_load,structured_incentive,structured_normal,random","2,3,1,2,4,2","2,1,3,4","false","","",""
"null","","html-keyboard-response","149","85948","0.0-149.0","3137ONMDKHR7GL7QKOS0V9ETTZVGEM","AZ9VWEDBI364C","3RSBJ6YZECCLSSQQCGKCTHC9OPAFOK","","<img src=""img/set1/S1.jpg"" width=""540"" height = ""360"">","null","","","","","","","","","",""
"null","","html-keyboard-response","150","86149","0.0-150.0","3137ONMDKHR7GL7QKOS0V9ETTZVGEM","AZ9VWEDBI364C","3RSBJ6YZECCLSSQQCGKCTHC9OPAFOK","","","null","","","","","","","","","",""
"135","","image-keyboard-response","151","86286","0.0-151.0","3137ONMDKHR7GL7QKOS0V9ETTZVGEM","AZ9VWEDBI364C","3RSBJ6YZECCLSSQQCGKCTHC9OPAFOK","","img/set1/S2.jpg","74","2","structured_load","68","structured_load,structured_incentive,structured_normal,random","2,3,1,2,4,2","2,1,3,4","false","","",""
"null","","html-keyboard-response","152","86638","0.0-152.0","3137ONMDKHR7GL7QKOS0V9ETTZVGEM","AZ9VWEDBI364C","3RSBJ6YZECCLSSQQCGKCTHC9OPAFOK","","<img src=""img/set1/S2.jpg"" width=""540"" height = ""360"">","null","","","","","","","","","",""
"null","","html-keyboard-response","153","86847","0.0-153.0","3137ONMDKHR7GL7QKOS0V9ETTZVGEM","AZ9VWEDBI364C","3RSBJ6YZECCLSSQQCGKCTHC9OPAFOK","","","null","","","","","","","","","",""
"143","","image-keyboard-response","154","86991","0.0-154.0","3137ONMDKHR7GL7QKOS0V9ETTZVGEM","AZ9VWEDBI364C","3RSBJ6YZECCLSSQQCGKCTHC9OPAFOK","","img/set1/S3.jpg","74","3","structured_load","72","structured_load,structured_incentive,structured_normal,random","2,3,1,2,4,2","2,1,3,4","false","","",""
"null","","html-keyboard-response","155","87344","0.0-155.0","3137ONMDKHR7GL7QKOS0V9ETTZVGEM","AZ9VWEDBI364C","3RSBJ6YZECCLSSQQCGKCTHC9OPAFOK","","<img src=""img/set1/S3.jpg"" width=""540"" height = ""360"">","null","","","","","","","","","",""
"null","","html-keyboard-response","156","87545","0.0-156.0","3137ONMDKHR7GL7QKOS0V9ETTZVGEM","AZ9VWEDBI364C","3RSBJ6YZECCLSSQQCGKCTHC9OPAFOK","","","null","","","","","","","","","",""
"17","","image-keyboard-response","157","87564","0.0-157.0","3137ONMDKHR7GL7QKOS0V9ETTZVGEM","AZ9VWEDBI364C","3RSBJ6YZECCLSSQQCGKCTHC9OPAFOK","","img/set1/S2.jpg","68","2","structured_load","68","structured_load,structured_incentive,structured_normal,random","2,3,1,2,4,2","2,1,3,4","true","","",""
"null","","html-keyboard-response","158","87916","0.0-158.0","3137ONMDKHR7GL7QKOS0V9ETTZVGEM","AZ9VWEDBI364C","3RSBJ6YZECCLSSQQCGKCTHC9OPAFOK","","<img src=""img/set1/S2.jpg"" width=""540"" height = ""360"" style=""border:16px solid orange"">","null","","","","","","","","","",""
"null","","html-keyboard-response","159","88117","0.0-159.0","3137ONMDKHR7GL7QKOS0V9ETTZVGEM","AZ9VWEDBI364C","3RSBJ6YZECCLSSQQCGKCTHC9OPAFOK","","","null","","","","","","","","","",""
"40","","image-keyboard-response","160","88158","0.0-160.0","3137ONMDKHR7GL7QKOS0V9ETTZVGEM","AZ9VWEDBI364C","3RSBJ6YZECCLSSQQCGKCTHC9OPAFOK","","img/set1/S3.jpg","68","3","structured_load","72","structured_load,structured_incentive,structured_normal,random","2,3,1,2,4,2","2,1,3,4","false","","",""
"null","","html-keyboard-response","161","88511","0.0-161.0","3137ONMDKHR7GL7QKOS0V9ETTZVGEM","AZ9VWEDBI364C","3RSBJ6YZECCLSSQQCGKCTHC9OPAFOK","","<img src=""img/set1/S3.jpg"" width=""540"" height = ""360"">","null","","","","","","","","","",""
"null","","html-keyboard-response","162","88712","0.0-162.0","3137ONMDKHR7GL7QKOS0V9ETTZVGEM","AZ9VWEDBI364C","3RSBJ6YZECCLSSQQCGKCTHC9OPAFOK","","","null","","","","","","","","","",""
"33","","image-keyboard-response","163","88746","0.0-163.0","3137ONMDKHR7GL7QKOS0V9ETTZVGEM","AZ9VWEDBI364C","3RSBJ6YZECCLSSQQCGKCTHC9OPAFOK","","img/set1/S3.jpg","72","3","structured_load","72","structured_load,structured_incentive,structured_normal,random","2,3,1,2,4,2","2,1,3,4","true","","",""
"null","","html-keyboard-response","164","89098","0.0-164.0","3137ONMDKHR7GL7QKOS0V9ETTZVGEM","AZ9VWEDBI364C","3RSBJ6YZECCLSSQQCGKCTHC9OPAFOK","","<img src=""img/set1/S3.jpg"" width=""540"" height = ""360"" style=""border:16px solid orange"">","null","","","","","","","","","",""
"null","","html-keyboard-response","165","89300","0.0-165.0","3137ONMDKHR7GL7QKOS0V9ETTZVGEM","AZ9VWEDBI364C","3RSBJ6YZECCLSSQQCGKCTHC9OPAFOK","","","null","","","","","","","","","",""
"153","","image-keyboard-response","166","89454","0.0-166.0","3137ONMDKHR7GL7QKOS0V9ETTZVGEM","AZ9VWEDBI364C","3RSBJ6YZECCLSSQQCGKCTHC9OPAFOK","","img/set1/S1.jpg","83","1","structured_load","83","structured_load,structured_incentive,structured_normal,random","2,3,1,2,4,2","2,1,3,4","true","","",""
"null","","html-keyboard-response","167","89806","0.0-167.0","3137ONMDKHR7GL7QKOS0V9ETTZVGEM","AZ9VWEDBI364C","3RSBJ6YZECCLSSQQCGKCTHC9OPAFOK","","<img src=""img/set1/S1.jpg"" width=""540"" height = ""360"" style=""border:16px solid orange"">","null","","","","","","","","","",""
"null","","html-keyboard-response","168","90010","0.0-168.0","3137ONMDKHR7GL7QKOS0V9ETTZVGEM","AZ9VWEDBI364C","3RSBJ6YZECCLSSQQCGKCTHC9OPAFOK","","","null","","","","","","","","","",""
"177","","image-keyboard-response","169","90188","0.0-169.0","3137ONMDKHR7GL7QKOS0V9ETTZVGEM","AZ9VWEDBI364C","3RSBJ6YZECCLSSQQCGKCTHC9OPAFOK","","img/set1/S2.jpg","68","2","structured_load","68","structured_load,structured_incentive,structured_normal,random","2,3,1,2,4,2","2,1,3,4","true","","",""
"null","","html-keyboard-response","170","90546","0.0-170.0","3137ONMDKHR7GL7QKOS0V9ETTZVGEM","AZ9VWEDBI364C","3RSBJ6YZECCLSSQQCGKCTHC9OPAFOK","","<img src=""img/set1/S2.jpg"" width=""540"" height = ""360"" style=""border:16px solid orange"">","null","","","","","","","","","",""
"null","","html-keyboard-response","171","90755","0.0-171.0","3137ONMDKHR7GL7QKOS0V9ETTZVGEM","AZ9VWEDBI364C","3RSBJ6YZECCLSSQQCGKCTHC9OPAFOK","","","null","","","","","","","","","",""
"5","","image-keyboard-response","172","90762","0.0-172.0","3137ONMDKHR7GL7QKOS0V9ETTZVGEM","AZ9VWEDBI364C","3RSBJ6YZECCLSSQQCGKCTHC9OPAFOK","","img/set1/S4.jpg","72","4","structured_load","74","structured_load,structured_incentive,structured_normal,random","2,3,1,2,4,2","2,1,3,4","false","","",""
"null","","html-keyboard-response","173","91112","0.0-173.0","3137ONMDKHR7GL7QKOS0V9ETTZVGEM","AZ9VWEDBI364C","3RSBJ6YZECCLSSQQCGKCTHC9OPAFOK","","<img src=""img/set1/S4.jpg"" width=""540"" height = ""360"">","null","","","","","","","","","",""
"null","","html-keyboard-response","174","91313","0.0-174.0","3137ONMDKHR7GL7QKOS0V9ETTZVGEM","AZ9VWEDBI364C","3RSBJ6YZECCLSSQQCGKCTHC9OPAFOK","","","null","","","","","","","","","",""
"101","","image-keyboard-response","175","91416","0.0-175.0","3137ONMDKHR7GL7QKOS0V9ETTZVGEM","AZ9VWEDBI364C","3RSBJ6YZECCLSSQQCGKCTHC9OPAFOK","","img/set1/S2.jpg","72","2","structured_load","68","structured_load,structured_incentive,structured_normal,random","2,3,1,2,4,2","2,1,3,4","false","","",""
"null","","html-keyboard-response","176","91768","0.0-176.0","3137ONMDKHR7GL7QKOS0V9ETTZVGEM","AZ9VWEDBI364C","3RSBJ6YZECCLSSQQCGKCTHC9OPAFOK","","<img src=""img/set1/S2.jpg"" width=""540"" height = ""360"">","null","","","","","","","","","",""
"null","","html-keyboard-response","177","91969","0.0-177.0","3137ONMDKHR7GL7QKOS0V9ETTZVGEM","AZ9VWEDBI364C","3RSBJ6YZECCLSSQQCGKCTHC9OPAFOK","","","null","","","","","","","","","",""
"162","","image-keyboard-response","178","92132","0.0-178.0","3137ONMDKHR7GL7QKOS0V9ETTZVGEM","AZ9VWEDBI364C","3RSBJ6YZECCLSSQQCGKCTHC9OPAFOK","","img/set1/S4.jpg","68","4","structured_load","74","structured_load,structured_incentive,structured_normal,random","2,3,1,2,4,2","2,1,3,4","false","","",""
"null","","html-keyboard-response","179","92484","0.0-179.0","3137ONMDKHR7GL7QKOS0V9ETTZVGEM","AZ9VWEDBI364C","3RSBJ6YZECCLSSQQCGKCTHC9OPAFOK","","<img src=""img/set1/S4.jpg"" width=""540"" height = ""360"">","null","","","","","","","","","",""
"null","","html-keyboard-response","180","92686","0.0-180.0","3137ONMDKHR7GL7QKOS0V9ETTZVGEM","AZ9VWEDBI364C","3RSBJ6YZECCLSSQQCGKCTHC9OPAFOK","","","null","","","","","","","","","",""
"188","","image-keyboard-response","181","92875","0.0-181.0","3137ONMDKHR7GL7QKOS0V9ETTZVGEM","AZ9VWEDBI364C","3RSBJ6YZECCLSSQQCGKCTHC9OPAFOK","","img/set1/S2.jpg","72","2","structured_load","68","structured_load,structured_incentive,structured_normal,random","2,3,1,2,4,2","2,1,3,4","false","","",""
"null","","html-keyboard-response","182","93228","0.0-182.0","3137ONMDKHR7GL7QKOS0V9ETTZVGEM","AZ9VWEDBI364C","3RSBJ6YZECCLSSQQCGKCTHC9OPAFOK","","<img src=""img/set1/S2.jpg"" width=""540"" height = ""360"">","null","","","","","","","","","",""
"null","","html-keyboard-response","183","93430","0.0-183.0","3137ONMDKHR7GL7QKOS0V9ETTZVGEM","AZ9VWEDBI364C","3RSBJ6YZECCLSSQQCGKCTHC9OPAFOK","","","null","","","","","","","","","",""
"93","","image-keyboard-response","184","93524","0.0-184.0","3137ONMDKHR7GL7QKOS0V9ETTZVGEM","AZ9VWEDBI364C","3RSBJ6YZECCLSSQQCGKCTHC9OPAFOK","","img/set1/S3.jpg","74","3","structured_load","72","structured_load,structured_incentive,structured_normal,random","2,3,1,2,4,2","2,1,3,4","false","","",""
"null","","html-keyboard-response","185","93876","0.0-185.0","3137ONMDKHR7GL7QKOS0V9ETTZVGEM","AZ9VWEDBI364C","3RSBJ6YZECCLSSQQCGKCTHC9OPAFOK","","<img src=""img/set1/S3.jpg"" width=""540"" height = ""360"">","null","","","","","","","","","",""
"null","","html-keyboard-response","186","94078","0.0-186.0","3137ONMDKHR7GL7QKOS0V9ETTZVGEM","AZ9VWEDBI364C","3RSBJ6YZECCLSSQQCGKCTHC9OPAFOK","","","null","","","","","","","","","",""
"33","","image-keyboard-response","187","94112","0.0-187.0","3137ONMDKHR7GL7QKOS0V9ETTZVGEM","AZ9VWEDBI364C","3RSBJ6YZECCLSSQQCGKCTHC9OPAFOK","","img/set1/S4.jpg","72","4","structured_load","74","structured_load,structured_incentive,structured_normal,random","2,3,1,2,4,2","2,1,3,4","false","","",""
"null","","html-keyboard-response","188","94464","0.0-188.0","3137ONMDKHR7GL7QKOS0V9ETTZVGEM","AZ9VWEDBI364C","3RSBJ6YZECCLSSQQCGKCTHC9OPAFOK","","<img src=""img/set1/S4.jpg"" width=""540"" height = ""360"">","null","","","","","","","","","",""
"null","","html-keyboard-response","189","94666","0.0-189.0","3137ONMDKHR7GL7QKOS0V9ETTZVGEM","AZ9VWEDBI364C","3RSBJ6YZECCLSSQQCGKCTHC9OPAFOK","","","null","","","","","","","","","",""
"21","","image-keyboard-response","190","94689","0.0-190.0","3137ONMDKHR7GL7QKOS0V9ETTZVGEM","AZ9VWEDBI364C","3RSBJ6YZECCLSSQQCGKCTHC9OPAFOK","","img/set1/S4.jpg","72","4","structured_load","74","structured_load,structured_incentive,structured_normal,random","2,3,1,2,4,2","2,1,3,4","false","","",""
"null","","html-keyboard-response","191","95040","0.0-191.0","3137ONMDKHR7GL7QKOS0V9ETTZVGEM","AZ9VWEDBI364C","3RSBJ6YZECCLSSQQCGKCTHC9OPAFOK","","<img src=""img/set1/S4.jpg"" width=""540"" height = ""360"">","null","","","","","","","","","",""
"null","","html-keyboard-response","192","95242","0.0-192.0","3137ONMDKHR7GL7QKOS0V9ETTZVGEM","AZ9VWEDBI364C","3RSBJ6YZECCLSSQQCGKCTHC9OPAFOK","","","null","","","","","","","","","",""
"12","","image-keyboard-response","193","95255","0.0-193.0","3137ONMDKHR7GL7QKOS0V9ETTZVGEM","AZ9VWEDBI364C","3RSBJ6YZECCLSSQQCGKCTHC9OPAFOK","","img/set1/S1.jpg","68","1","structured_load","83","structured_load,structured_incentive,structured_normal,random","2,3,1,2,4,2","2,1,3,4","false","","",""
"null","","html-keyboard-response","194","95608","0.0-194.0","3137ONMDKHR7GL7QKOS0V9ETTZVGEM","AZ9VWEDBI364C","3RSBJ6YZECCLSSQQCGKCTHC9OPAFOK","","<img src=""img/set1/S1.jpg"" width=""540"" height = ""360"">","null","","","","","","","","","",""
"null","","html-keyboard-response","195","95809","0.0-195.0","3137ONMDKHR7GL7QKOS0V9ETTZVGEM","AZ9VWEDBI364C","3RSBJ6YZECCLSSQQCGKCTHC9OPAFOK","","","null","","","","","","","","","",""
"73","","image-keyboard-response","196","95883","0.0-196.0","3137ONMDKHR7GL7QKOS0V9ETTZVGEM","AZ9VWEDBI364C","3RSBJ6YZECCLSSQQCGKCTHC9OPAFOK","","img/set1/S4.jpg","68","4","structured_load","74","structured_load,structured_incentive,structured_normal,random","2,3,1,2,4,2","2,1,3,4","false","","",""
"null","","html-keyboard-response","197","96234","0.0-197.0","3137ONMDKHR7GL7QKOS0V9ETTZVGEM","AZ9VWEDBI364C","3RSBJ6YZECCLSSQQCGKCTHC9OPAFOK","","<img src=""img/set1/S4.jpg"" width=""540"" height = ""360"">","null","","","","","","","","","",""
"null","","html-keyboard-response","198","96436","0.0-198.0","3137ONMDKHR7GL7QKOS0V9ETTZVGEM","AZ9VWEDBI364C","3RSBJ6YZECCLSSQQCGKCTHC9OPAFOK","","","null","","","","","","","","","",""
"126","","image-keyboard-response","199","96564","0.0-199.0","3137ONMDKHR7GL7QKOS0V9ETTZVGEM","AZ9VWEDBI364C","3RSBJ6YZECCLSSQQCGKCTHC9OPAFOK","","img/set1/S1.jpg","72","1","structured_load","83","structured_load,structured_incentive,structured_normal,random","2,3,1,2,4,2","2,1,3,4","false","","",""
"null","","html-keyboard-response","200","96922","0.0-200.0","3137ONMDKHR7GL7QKOS0V9ETTZVGEM","AZ9VWEDBI364C","3RSBJ6YZECCLSSQQCGKCTHC9OPAFOK","","<img src=""img/set1/S1.jpg"" width=""540"" height = ""360"">","null","","","","","","","","","",""
"null","","html-keyboard-response","201","97124","0.0-201.0","3137ONMDKHR7GL7QKOS0V9ETTZVGEM","AZ9VWEDBI364C","3RSBJ6YZECCLSSQQCGKCTHC9OPAFOK","","","null","","","","","","","","","",""
"22","","image-keyboard-response","202","97146","0.0-202.0","3137ONMDKHR7GL7QKOS0V9ETTZVGEM","AZ9VWEDBI364C","3RSBJ6YZECCLSSQQCGKCTHC9OPAFOK","","img/set1/S1.jpg","68","1","structured_load","83","structured_load,structured_incentive,structured_normal,random","2,3,1,2,4,2","2,1,3,4","false","","",""
"null","","html-keyboard-response","203","97499","0.0-203.0","3137ONMDKHR7GL7QKOS0V9ETTZVGEM","AZ9VWEDBI364C","3RSBJ6YZECCLSSQQCGKCTHC9OPAFOK","","<img src=""img/set1/S1.jpg"" width=""540"" height = ""360"">","null","","","","","","","","","",""
"null","","html-keyboard-response","204","97701","0.0-204.0","3137ONMDKHR7GL7QKOS0V9ETTZVGEM","AZ9VWEDBI364C","3RSBJ6YZECCLSSQQCGKCTHC9OPAFOK","","","null","","","","","","","","","",""
"70","","image-keyboard-response","205","97772","0.0-205.0","3137ONMDKHR7GL7QKOS0V9ETTZVGEM","AZ9VWEDBI364C","3RSBJ6YZECCLSSQQCGKCTHC9OPAFOK","","img/set1/S2.jpg","74","2","structured_load","68","structured_load,structured_incentive,structured_normal,random","2,3,1,2,4,2","2,1,3,4","false","","",""
"null","","html-keyboard-response","206","98123","0.0-206.0","3137ONMDKHR7GL7QKOS0V9ETTZVGEM","AZ9VWEDBI364C","3RSBJ6YZECCLSSQQCGKCTHC9OPAFOK","","<img src=""img/set1/S2.jpg"" width=""540"" height = ""360"">","null","","","","","","","","","",""
"null","","html-keyboard-response","207","98324","0.0-207.0","3137ONMDKHR7GL7QKOS0V9ETTZVGEM","AZ9VWEDBI364C","3RSBJ6YZECCLSSQQCGKCTHC9OPAFOK","","","null","","","","","","","","","",""
"62","","image-keyboard-response","208","98387","0.0-208.0","3137ONMDKHR7GL7QKOS0V9ETTZVGEM","AZ9VWEDBI364C","3RSBJ6YZECCLSSQQCGKCTHC9OPAFOK","","img/set1/S3.jpg","83","3","structured_load","72","structured_load,structured_incentive,structured_normal,random","2,3,1,2,4,2","2,1,3,4","false","","",""
"null","","html-keyboard-response","209","98747","0.0-209.0","3137ONMDKHR7GL7QKOS0V9ETTZVGEM","AZ9VWEDBI364C","3RSBJ6YZECCLSSQQCGKCTHC9OPAFOK","","<img src=""img/set1/S3.jpg"" width=""540"" height = ""360"">","null","","","","","","","","","",""
"null","","html-keyboard-response","210","98947","0.0-210.0","3137ONMDKHR7GL7QKOS0V9ETTZVGEM","AZ9VWEDBI364C","3RSBJ6YZECCLSSQQCGKCTHC9OPAFOK","","","null","","","","","","","","","",""
"27","","image-keyboard-response","211","98975","0.0-211.0","3137ONMDKHR7GL7QKOS0V9ETTZVGEM","AZ9VWEDBI364C","3RSBJ6YZECCLSSQQCGKCTHC9OPAFOK","","img/set1/S1.jpg","74","1","structured_load","83","structured_load,structured_incentive,structured_normal,random","2,3,1,2,4,2","2,1,3,4","false","","",""
"null","","html-keyboard-response","212","99326","0.0-212.0","3137ONMDKHR7GL7QKOS0V9ETTZVGEM","AZ9VWEDBI364C","3RSBJ6YZECCLSSQQCGKCTHC9OPAFOK","","<img src=""img/set1/S1.jpg"" width=""540"" height = ""360"">","null","","","","","","","","","",""
"null","","html-keyboard-response","213","99527","0.0-213.0","3137ONMDKHR7GL7QKOS0V9ETTZVGEM","AZ9VWEDBI364C","3RSBJ6YZECCLSSQQCGKCTHC9OPAFOK","","","null","","","","","","","","","",""
"21","","image-keyboard-response","214","99549","0.0-214.0","3137ONMDKHR7GL7QKOS0V9ETTZVGEM","AZ9VWEDBI364C","3RSBJ6YZECCLSSQQCGKCTHC9OPAFOK","","img/set1/S2.jpg","72","2","structured_load","68","structured_load,structured_incentive,structured_normal,random","2,3,1,2,4,2","2,1,3,4","false","","",""
"null","","html-keyboard-response","215","99901","0.0-215.0","3137ONMDKHR7GL7QKOS0V9ETTZVGEM","AZ9VWEDBI364C","3RSBJ6YZECCLSSQQCGKCTHC9OPAFOK","","<img src=""img/set1/S2.jpg"" width=""540"" height = ""360"">","null","","","","","","","","","",""
"null","","html-keyboard-response","216","100102","0.0-216.0","3137ONMDKHR7GL7QKOS0V9ETTZVGEM","AZ9VWEDBI364C","3RSBJ6YZECCLSSQQCGKCTHC9OPAFOK","","","null","","","","","","","","","",""
"68","","image-keyboard-response","217","100172","0.0-217.0","3137ONMDKHR7GL7QKOS0V9ETTZVGEM","AZ9VWEDBI364C","3RSBJ6YZECCLSSQQCGKCTHC9OPAFOK","","img/set1/S3.jpg","72","3","structured_load","72","structured_load,structured_incentive,structured_normal,random","2,3,1,2,4,2","2,1,3,4","true","","",""
"null","","html-keyboard-response","218","100524","0.0-218.0","3137ONMDKHR7GL7QKOS0V9ETTZVGEM","AZ9VWEDBI364C","3RSBJ6YZECCLSSQQCGKCTHC9OPAFOK","","<img src=""img/set1/S3.jpg"" width=""540"" height = ""360"" style=""border:16px solid orange"">","null","","","","","","","","","",""
"null","","html-keyboard-response","219","100726","0.0-219.0","3137ONMDKHR7GL7QKOS0V9ETTZVGEM","AZ9VWEDBI364C","3RSBJ6YZECCLSSQQCGKCTHC9OPAFOK","","","null","","","","","","","","","",""
"26","","image-keyboard-response","220","100757","0.0-220.0","3137ONMDKHR7GL7QKOS0V9ETTZVGEM","AZ9VWEDBI364C","3RSBJ6YZECCLSSQQCGKCTHC9OPAFOK","","img/set1/S2.jpg","83","2","structured_load","68","structured_load,structured_incentive,structured_normal,random","2,3,1,2,4,2","2,1,3,4","false","","",""
"null","","html-keyboard-response","221","101108","0.0-221.0","3137ONMDKHR7GL7QKOS0V9ETTZVGEM","AZ9VWEDBI364C","3RSBJ6YZECCLSSQQCGKCTHC9OPAFOK","","<img src=""img/set1/S2.jpg"" width=""540"" height = ""360"">","null","","","","","","","","","",""
"null","","html-keyboard-response","222","101315","0.0-222.0","3137ONMDKHR7GL7QKOS0V9ETTZVGEM","AZ9VWEDBI364C","3RSBJ6YZECCLSSQQCGKCTHC9OPAFOK","","","null","","","","","","","","","",""
"0","","image-keyboard-response","223","101316","0.0-223.0","3137ONMDKHR7GL7QKOS0V9ETTZVGEM","AZ9VWEDBI364C","3RSBJ6YZECCLSSQQCGKCTHC9OPAFOK","","img/set1/S3.jpg","83","3","structured_load","72","structured_load,structured_incentive,structured_normal,random","2,3,1,2,4,2","2,1,3,4","false","","",""
"null","","html-keyboard-response","224","101667","0.0-224.0","3137ONMDKHR7GL7QKOS0V9ETTZVGEM","AZ9VWEDBI364C","3RSBJ6YZECCLSSQQCGKCTHC9OPAFOK","","<img src=""img/set1/S3.jpg"" width=""540"" height = ""360"">","null","","","","","","","","","",""
"null","","html-keyboard-response","225","101867","0.0-225.0","3137ONMDKHR7GL7QKOS0V9ETTZVGEM","AZ9VWEDBI364C","3RSBJ6YZECCLSSQQCGKCTHC9OPAFOK","","","null","","","","","","","","","",""
"45","","image-keyboard-response","226","101913","0.0-226.0","3137ONMDKHR7GL7QKOS0V9ETTZVGEM","AZ9VWEDBI364C","3RSBJ6YZECCLSSQQCGKCTHC9OPAFOK","","img/set1/S4.jpg","83","4","structured_load","74","structured_load,structured_incentive,structured_normal,random","2,3,1,2,4,2","2,1,3,4","false","","",""
"null","","html-keyboard-response","227","102265","0.0-227.0","3137ONMDKHR7GL7QKOS0V9ETTZVGEM","AZ9VWEDBI364C","3RSBJ6YZECCLSSQQCGKCTHC9OPAFOK","","<img src=""img/set1/S4.jpg"" width=""540"" height = ""360"">","null","","","","","","","","","",""
"null","","html-keyboard-response","228","102467","0.0-228.0","3137ONMDKHR7GL7QKOS0V9ETTZVGEM","AZ9VWEDBI364C","3RSBJ6YZECCLSSQQCGKCTHC9OPAFOK","","","null","","","","","","","","","",""
"346","","image-keyboard-response","229","102815","0.0-229.0","3137ONMDKHR7GL7QKOS0V9ETTZVGEM","AZ9VWEDBI364C","3RSBJ6YZECCLSSQQCGKCTHC9OPAFOK","","img/set1/S4.jpg","74","4","structured_load","74","structured_load,structured_incentive,structured_normal,random","2,3,1,2,4,2","2,1,3,4","true","","",""
"null","","html-keyboard-response","230","103165","0.0-230.0","3137ONMDKHR7GL7QKOS0V9ETTZVGEM","AZ9VWEDBI364C","3RSBJ6YZECCLSSQQCGKCTHC9OPAFOK","","<img src=""img/set1/S4.jpg"" width=""540"" height = ""360"" style=""border:16px solid orange"">","null","","","","","","","","","",""
"null","","html-keyboard-response","231","103365","0.0-231.0","3137ONMDKHR7GL7QKOS0V9ETTZVGEM","AZ9VWEDBI364C","3RSBJ6YZECCLSSQQCGKCTHC9OPAFOK","","","null","","","","","","","","","",""
"51","","image-keyboard-response","232","103418","0.0-232.0","3137ONMDKHR7GL7QKOS0V9ETTZVGEM","AZ9VWEDBI364C","3RSBJ6YZECCLSSQQCGKCTHC9OPAFOK","","img/set1/S1.jpg","72","1","structured_load","83","structured_load,structured_incentive,structured_normal,random","2,3,1,2,4,2","2,1,3,4","false","","",""
"null","","html-keyboard-response","233","103770","0.0-233.0","3137ONMDKHR7GL7QKOS0V9ETTZVGEM","AZ9VWEDBI364C","3RSBJ6YZECCLSSQQCGKCTHC9OPAFOK","","<img src=""img/set1/S1.jpg"" width=""540"" height = ""360"">","null","","","","","","","","","",""
"null","","html-keyboard-response","234","103971","0.0-234.0","3137ONMDKHR7GL7QKOS0V9ETTZVGEM","AZ9VWEDBI364C","3RSBJ6YZECCLSSQQCGKCTHC9OPAFOK","","","null","","","","","","","","","",""
"37","","image-keyboard-response","235","104009","0.0-235.0","3137ONMDKHR7GL7QKOS0V9ETTZVGEM","AZ9VWEDBI364C","3RSBJ6YZECCLSSQQCGKCTHC9OPAFOK","","img/set1/S4.jpg","83","4","structured_load","74","structured_load,structured_incentive,structured_normal,random","2,3,1,2,4,2","2,1,3,4","false","","",""
"null","","html-keyboard-response","236","104361","0.0-236.0","3137ONMDKHR7GL7QKOS0V9ETTZVGEM","AZ9VWEDBI364C","3RSBJ6YZECCLSSQQCGKCTHC9OPAFOK","","<img src=""img/set1/S4.jpg"" width=""540"" height = ""360"">","null","","","","","","","","","",""
"null","","html-keyboard-response","237","104562","0.0-237.0","3137ONMDKHR7GL7QKOS0V9ETTZVGEM","AZ9VWEDBI364C","3RSBJ6YZECCLSSQQCGKCTHC9OPAFOK","","","null","","","","","","","","","",""
"8","","image-keyboard-response","238","104571","0.0-238.0","3137ONMDKHR7GL7QKOS0V9ETTZVGEM","AZ9VWEDBI364C","3RSBJ6YZECCLSSQQCGKCTHC9OPAFOK","","img/set1/S4.jpg","68","4","structured_load","74","structured_load,structured_incentive,structured_normal,random","2,3,1,2,4,2","2,1,3,4","false","","",""
"null","","html-keyboard-response","239","104923","0.0-239.0","3137ONMDKHR7GL7QKOS0V9ETTZVGEM","AZ9VWEDBI364C","3RSBJ6YZECCLSSQQCGKCTHC9OPAFOK","","<img src=""img/set1/S4.jpg"" width=""540"" height = ""360"">","null","","","","","","","","","",""
"null","","html-keyboard-response","240","105125","0.0-240.0","3137ONMDKHR7GL7QKOS0V9ETTZVGEM","AZ9VWEDBI364C","3RSBJ6YZECCLSSQQCGKCTHC9OPAFOK","","","null","","","","","","","","","",""
"32","","image-keyboard-response","241","105158","0.0-241.0","3137ONMDKHR7GL7QKOS0V9ETTZVGEM","AZ9VWEDBI364C","3RSBJ6YZECCLSSQQCGKCTHC9OPAFOK","","img/set1/S2.jpg","74","2","structured_load","68","structured_load,structured_incentive,structured_normal,random","2,3,1,2,4,2","2,1,3,4","false","","",""
"null","","html-keyboard-response","242","105510","0.0-242.0","3137ONMDKHR7GL7QKOS0V9ETTZVGEM","AZ9VWEDBI364C","3RSBJ6YZECCLSSQQCGKCTHC9OPAFOK","","<img src=""img/set1/S2.jpg"" width=""540"" height = ""360"">","null","","","","","","","","","",""
"null","","html-keyboard-response","243","105711","0.0-243.0","3137ONMDKHR7GL7QKOS0V9ETTZVGEM","AZ9VWEDBI364C","3RSBJ6YZECCLSSQQCGKCTHC9OPAFOK","","","null","","","","","","","","","",""
"112","","image-keyboard-response","244","105824","0.0-244.0","3137ONMDKHR7GL7QKOS0V9ETTZVGEM","AZ9VWEDBI364C","3RSBJ6YZECCLSSQQCGKCTHC9OPAFOK","","img/set1/S3.jpg","83","3","structured_load","72","structured_load,structured_incentive,structured_normal,random","2,3,1,2,4,2","2,1,3,4","false","","",""
"null","","html-keyboard-response","245","106176","0.0-245.0","3137ONMDKHR7GL7QKOS0V9ETTZVGEM","AZ9VWEDBI364C","3RSBJ6YZECCLSSQQCGKCTHC9OPAFOK","","<img src=""img/set1/S3.jpg"" width=""540"" height = ""360"">","null","","","","","","","","","",""
"null","","html-keyboard-response","246","106378","0.0-246.0","3137ONMDKHR7GL7QKOS0V9ETTZVGEM","AZ9VWEDBI364C","3RSBJ6YZECCLSSQQCGKCTHC9OPAFOK","","","null","","","","","","","","","",""
"23","","image-keyboard-response","247","106402","0.0-247.0","3137ONMDKHR7GL7QKOS0V9ETTZVGEM","AZ9VWEDBI364C","3RSBJ6YZECCLSSQQCGKCTHC9OPAFOK","","img/set1/S4.jpg","83","4","structured_load","74","structured_load,structured_incentive,structured_normal,random","2,3,1,2,4,2","2,1,3,4","false","","",""
"null","","html-keyboard-response","248","106755","0.0-248.0","3137ONMDKHR7GL7QKOS0V9ETTZVGEM","AZ9VWEDBI364C","3RSBJ6YZECCLSSQQCGKCTHC9OPAFOK","","<img src=""img/set1/S4.jpg"" width=""540"" height = ""360"">","null","","","","","","","","","",""
"null","","html-keyboard-response","249","106961","0.0-249.0","3137ONMDKHR7GL7QKOS0V9ETTZVGEM","AZ9VWEDBI364C","3RSBJ6YZECCLSSQQCGKCTHC9OPAFOK","","","null","","","","","","","","","",""
"138","","image-keyboard-response","250","107100","0.0-250.0","3137ONMDKHR7GL7QKOS0V9ETTZVGEM","AZ9VWEDBI364C","3RSBJ6YZECCLSSQQCGKCTHC9OPAFOK","","img/set1/S2.jpg","68","2","structured_load","68","structured_load,structured_incentive,structured_normal,random","2,3,1,2,4,2","2,1,3,4","true","","",""
"null","","html-keyboard-response","251","107451","0.0-251.0","3137ONMDKHR7GL7QKOS0V9ETTZVGEM","AZ9VWEDBI364C","3RSBJ6YZECCLSSQQCGKCTHC9OPAFOK","","<img src=""img/set1/S2.jpg"" width=""540"" height = ""360"" style=""border:16px solid orange"">","null","","","","","","","","","",""
"null","","html-keyboard-response","252","107652","0.0-252.0","3137ONMDKHR7GL7QKOS0V9ETTZVGEM","AZ9VWEDBI364C","3RSBJ6YZECCLSSQQCGKCTHC9OPAFOK","","","null","","","","","","","","","",""
"10","","image-keyboard-response","253","107664","0.0-253.0","3137ONMDKHR7GL7QKOS0V9ETTZVGEM","AZ9VWEDBI364C","3RSBJ6YZECCLSSQQCGKCTHC9OPAFOK","","img/set1/S4.jpg","68","4","structured_load","74","structured_load,structured_incentive,structured_normal,random","2,3,1,2,4,2","2,1,3,4","false","","",""
"null","","html-keyboard-response","254","108016","0.0-254.0","3137ONMDKHR7GL7QKOS0V9ETTZVGEM","AZ9VWEDBI364C","3RSBJ6YZECCLSSQQCGKCTHC9OPAFOK","","<img src=""img/set1/S4.jpg"" width=""540"" height = ""360"">","null","","","","","","","","","",""
"null","","html-keyboard-response","255","108218","0.0-255.0","3137ONMDKHR7GL7QKOS0V9ETTZVGEM","AZ9VWEDBI364C","3RSBJ6YZECCLSSQQCGKCTHC9OPAFOK","","","null","","","","","","","","","",""
"166","","image-keyboard-response","256","108385","0.0-256.0","3137ONMDKHR7GL7QKOS0V9ETTZVGEM","AZ9VWEDBI364C","3RSBJ6YZECCLSSQQCGKCTHC9OPAFOK","","img/set1/S2.jpg","74","2","structured_load","68","structured_load,structured_incentive,structured_normal,random","2,3,1,2,4,2","2,1,3,4","false","","",""
"null","","html-keyboard-response","257","108738","0.0-257.0","3137ONMDKHR7GL7QKOS0V9ETTZVGEM","AZ9VWEDBI364C","3RSBJ6YZECCLSSQQCGKCTHC9OPAFOK","","<img src=""img/set1/S2.jpg"" width=""540"" height = ""360"">","null","","","","","","","","","",""
"null","","html-keyboard-response","258","108938","0.0-258.0","3137ONMDKHR7GL7QKOS0V9ETTZVGEM","AZ9VWEDBI364C","3RSBJ6YZECCLSSQQCGKCTHC9OPAFOK","","","null","","","","","","","","","",""
"69","","image-keyboard-response","259","109008","0.0-259.0","3137ONMDKHR7GL7QKOS0V9ETTZVGEM","AZ9VWEDBI364C","3RSBJ6YZECCLSSQQCGKCTHC9OPAFOK","","img/set1/S3.jpg","72","3","structured_load","72","structured_load,structured_incentive,structured_normal,random","2,3,1,2,4,2","2,1,3,4","true","","",""
"null","","html-keyboard-response","260","109359","0.0-260.0","3137ONMDKHR7GL7QKOS0V9ETTZVGEM","AZ9VWEDBI364C","3RSBJ6YZECCLSSQQCGKCTHC9OPAFOK","","<img src=""img/set1/S3.jpg"" width=""540"" height = ""360"" style=""border:16px solid orange"">","null","","","","","","","","","",""
"null","","html-keyboard-response","261","109560","0.0-261.0","3137ONMDKHR7GL7QKOS0V9ETTZVGEM","AZ9VWEDBI364C","3RSBJ6YZECCLSSQQCGKCTHC9OPAFOK","","","null","","","","","","","","","",""
"23","","image-keyboard-response","262","109586","0.0-262.0","3137ONMDKHR7GL7QKOS0V9ETTZVGEM","AZ9VWEDBI364C","3RSBJ6YZECCLSSQQCGKCTHC9OPAFOK","","img/set1/S1.jpg","74","1","structured_load","83","structured_load,structured_incentive,structured_normal,random","2,3,1,2,4,2","2,1,3,4","false","","",""
"null","","html-keyboard-response","263","109937","0.0-263.0","3137ONMDKHR7GL7QKOS0V9ETTZVGEM","AZ9VWEDBI364C","3RSBJ6YZECCLSSQQCGKCTHC9OPAFOK","","<img src=""img/set1/S1.jpg"" width=""540"" height = ""360"">","null","","","","","","","","","",""
"null","","html-keyboard-response","264","110138","0.0-264.0","3137ONMDKHR7GL7QKOS0V9ETTZVGEM","AZ9VWEDBI364C","3RSBJ6YZECCLSSQQCGKCTHC9OPAFOK","","","null","","","","","","","","","",""
"20","","image-keyboard-response","265","110159","0.0-265.0","3137ONMDKHR7GL7QKOS0V9ETTZVGEM","AZ9VWEDBI364C","3RSBJ6YZECCLSSQQCGKCTHC9OPAFOK","","img/set1/S1.jpg","83","1","structured_load","83","structured_load,structured_incentive,structured_normal,random","2,3,1,2,4,2","2,1,3,4","true","","",""
"null","","html-keyboard-response","266","110512","0.0-266.0","3137ONMDKHR7GL7QKOS0V9ETTZVGEM","AZ9VWEDBI364C","3RSBJ6YZECCLSSQQCGKCTHC9OPAFOK","","<img src=""img/set1/S1.jpg"" width=""540"" height = ""360"" style=""border:16px solid orange"">","null","","","","","","","","","",""
"null","","html-keyboard-response","267","110713","0.0-267.0","3137ONMDKHR7GL7QKOS0V9ETTZVGEM","AZ9VWEDBI364C","3RSBJ6YZECCLSSQQCGKCTHC9OPAFOK","","","null","","","","","","","","","",""
"131","","image-keyboard-response","268","110845","0.0-268.0","3137ONMDKHR7GL7QKOS0V9ETTZVGEM","AZ9VWEDBI364C","3RSBJ6YZECCLSSQQCGKCTHC9OPAFOK","","img/set1/S2.jpg","68","2","structured_load","68","structured_load,structured_incentive,structured_normal,random","2,3,1,2,4,2","2,1,3,4","true","","",""
"null","","html-keyboard-response","269","111198","0.0-269.0","3137ONMDKHR7GL7QKOS0V9ETTZVGEM","AZ9VWEDBI364C","3RSBJ6YZECCLSSQQCGKCTHC9OPAFOK","","<img src=""img/set1/S2.jpg"" width=""540"" height = ""360"" style=""border:16px solid orange"">","null","","","","","","","","","",""
"null","","html-keyboard-response","270","111398","0.0-270.0","3137ONMDKHR7GL7QKOS0V9ETTZVGEM","AZ9VWEDBI364C","3RSBJ6YZECCLSSQQCGKCTHC9OPAFOK","","","null","","","","","","","","","",""
"18","","image-keyboard-response","271","111417","0.0-271.0","3137ONMDKHR7GL7QKOS0V9ETTZVGEM","AZ9VWEDBI364C","3RSBJ6YZECCLSSQQCGKCTHC9OPAFOK","","img/set1/S3.jpg","83","3","structured_load","72","structured_load,structured_incentive,structured_normal,random","2,3,1,2,4,2","2,1,3,4","false","","",""
"null","","html-keyboard-response","272","111769","0.0-272.0","3137ONMDKHR7GL7QKOS0V9ETTZVGEM","AZ9VWEDBI364C","3RSBJ6YZECCLSSQQCGKCTHC9OPAFOK","","<img src=""img/set1/S3.jpg"" width=""540"" height = ""360"">","null","","","","","","","","","",""
"null","","html-keyboard-response","273","111971","0.0-273.0","3137ONMDKHR7GL7QKOS0V9ETTZVGEM","AZ9VWEDBI364C","3RSBJ6YZECCLSSQQCGKCTHC9OPAFOK","","","null","","","","","","","","","",""
"76","","image-keyboard-response","274","112048","0.0-274.0","3137ONMDKHR7GL7QKOS0V9ETTZVGEM","AZ9VWEDBI364C","3RSBJ6YZECCLSSQQCGKCTHC9OPAFOK","","img/set1/S1.jpg","74","1","structured_load","83","structured_load,structured_incentive,structured_normal,random","2,3,1,2,4,2","2,1,3,4","false","","",""
"null","","html-keyboard-response","275","112401","0.0-275.0","3137ONMDKHR7GL7QKOS0V9ETTZVGEM","AZ9VWEDBI364C","3RSBJ6YZECCLSSQQCGKCTHC9OPAFOK","","<img src=""img/set1/S1.jpg"" width=""540"" height = ""360"">","null","","","","","","","","","",""
"null","","html-keyboard-response","276","112602","0.0-276.0","3137ONMDKHR7GL7QKOS0V9ETTZVGEM","AZ9VWEDBI364C","3RSBJ6YZECCLSSQQCGKCTHC9OPAFOK","","","null","","","","","","","","","",""
"121","","image-keyboard-response","277","112725","0.0-277.0","3137ONMDKHR7GL7QKOS0V9ETTZVGEM","AZ9VWEDBI364C","3RSBJ6YZECCLSSQQCGKCTHC9OPAFOK","","img/set1/S1.jpg","83","1","structured_load","83","structured_load,structured_incentive,structured_normal,random","2,3,1,2,4,2","2,1,3,4","true","","",""
"null","","html-keyboard-response","278","113077","0.0-278.0","3137ONMDKHR7GL7QKOS0V9ETTZVGEM","AZ9VWEDBI364C","3RSBJ6YZECCLSSQQCGKCTHC9OPAFOK","","<img src=""img/set1/S1.jpg"" width=""540"" height = ""360"" style=""border:16px solid orange"">","null","","","","","","","","","",""
"null","","html-keyboard-response","279","113278","0.0-279.0","3137ONMDKHR7GL7QKOS0V9ETTZVGEM","AZ9VWEDBI364C","3RSBJ6YZECCLSSQQCGKCTHC9OPAFOK","","","null","","","","","","","","","",""
"79","","image-keyboard-response","280","113359","0.0-280.0","3137ONMDKHR7GL7QKOS0V9ETTZVGEM","AZ9VWEDBI364C","3RSBJ6YZECCLSSQQCGKCTHC9OPAFOK","","img/set1/S4.jpg","68","4","structured_load","74","structured_load,structured_incentive,structured_normal,random","2,3,1,2,4,2","2,1,3,4","false","","",""
"null","","html-keyboard-response","281","113711","0.0-281.0","3137ONMDKHR7GL7QKOS0V9ETTZVGEM","AZ9VWEDBI364C","3RSBJ6YZECCLSSQQCGKCTHC9OPAFOK","","<img src=""img/set1/S4.jpg"" width=""540"" height = ""360"">","null","","","","","","","","","",""
"null","","html-keyboard-response","282","113958","0.0-282.0","3137ONMDKHR7GL7QKOS0V9ETTZVGEM","AZ9VWEDBI364C","3RSBJ6YZECCLSSQQCGKCTHC9OPAFOK","","","null","","","","","","","","","",""
"179","","image-keyboard-response","283","114138","0.0-283.0","3137ONMDKHR7GL7QKOS0V9ETTZVGEM","AZ9VWEDBI364C","3RSBJ6YZECCLSSQQCGKCTHC9OPAFOK","","img/set1/S2.jpg","83","2","structured_load","68","structured_load,structured_incentive,structured_normal,random","2,3,1,2,4,2","2,1,3,4","false","","",""
"null","","html-keyboard-response","284","114489","0.0-284.0","3137ONMDKHR7GL7QKOS0V9ETTZVGEM","AZ9VWEDBI364C","3RSBJ6YZECCLSSQQCGKCTHC9OPAFOK","","<img src=""img/set1/S2.jpg"" width=""540"" height = ""360"">","null","","","","","","","","","",""
"null","","html-keyboard-response","285","114691","0.0-285.0","3137ONMDKHR7GL7QKOS0V9ETTZVGEM","AZ9VWEDBI364C","3RSBJ6YZECCLSSQQCGKCTHC9OPAFOK","","","null","","","","","","","","","",""
"149","","image-keyboard-response","286","114840","0.0-286.0","3137ONMDKHR7GL7QKOS0V9ETTZVGEM","AZ9VWEDBI364C","3RSBJ6YZECCLSSQQCGKCTHC9OPAFOK","","img/set1/S3.jpg","68","3","structured_load","72","structured_load,structured_incentive,structured_normal,random","2,3,1,2,4,2","2,1,3,4","false","","",""
"null","","html-keyboard-response","287","115191","0.0-287.0","3137ONMDKHR7GL7QKOS0V9ETTZVGEM","AZ9VWEDBI364C","3RSBJ6YZECCLSSQQCGKCTHC9OPAFOK","","<img src=""img/set1/S3.jpg"" width=""540"" height = ""360"">","null","","","","","","","","","",""
"null","","html-keyboard-response","288","115393","0.0-288.0","3137ONMDKHR7GL7QKOS0V9ETTZVGEM","AZ9VWEDBI364C","3RSBJ6YZECCLSSQQCGKCTHC9OPAFOK","","","null","","","","","","","","","",""
"34","","image-keyboard-response","289","115428","0.0-289.0","3137ONMDKHR7GL7QKOS0V9ETTZVGEM","AZ9VWEDBI364C","3RSBJ6YZECCLSSQQCGKCTHC9OPAFOK","","img/set1/S1.jpg","68","1","structured_load","83","structured_load,structured_incentive,structured_normal,random","2,3,1,2,4,2","2,1,3,4","false","","",""
"null","","html-keyboard-response","290","115781","0.0-290.0","3137ONMDKHR7GL7QKOS0V9ETTZVGEM","AZ9VWEDBI364C","3RSBJ6YZECCLSSQQCGKCTHC9OPAFOK","","<img src=""img/set1/S1.jpg"" width=""540"" height = ""360"">","null","","","","","","","","","",""
"null","","html-keyboard-response","291","115981","0.0-291.0","3137ONMDKHR7GL7QKOS0V9ETTZVGEM","AZ9VWEDBI364C","3RSBJ6YZECCLSSQQCGKCTHC9OPAFOK","","","null","","","","","","","","","",""
"284","","image-keyboard-response","292","116267","0.0-292.0","3137ONMDKHR7GL7QKOS0V9ETTZVGEM","AZ9VWEDBI364C","3RSBJ6YZECCLSSQQCGKCTHC9OPAFOK","","img/set1/S1.jpg","68","1","structured_load","83","structured_load,structured_incentive,structured_normal,random","2,3,1,2,4,2","2,1,3,4","false","","",""
"null","","html-keyboard-response","293","116621","0.0-293.0","3137ONMDKHR7GL7QKOS0V9ETTZVGEM","AZ9VWEDBI364C","3RSBJ6YZECCLSSQQCGKCTHC9OPAFOK","","<img src=""img/set1/S1.jpg"" width=""540"" height = ""360"">","null","","","","","","","","","",""
"null","","html-keyboard-response","294","116821","0.0-294.0","3137ONMDKHR7GL7QKOS0V9ETTZVGEM","AZ9VWEDBI364C","3RSBJ6YZECCLSSQQCGKCTHC9OPAFOK","","","null","","","","","","","","","",""
"120","","image-keyboard-response","295","116943","0.0-295.0","3137ONMDKHR7GL7QKOS0V9ETTZVGEM","AZ9VWEDBI364C","3RSBJ6YZECCLSSQQCGKCTHC9OPAFOK","","img/set1/S1.jpg","68","1","structured_load","83","structured_load,structured_incentive,structured_normal,random","2,3,1,2,4,2","2,1,3,4","false","","",""
"null","","html-keyboard-response","296","117295","0.0-296.0","3137ONMDKHR7GL7QKOS0V9ETTZVGEM","AZ9VWEDBI364C","3RSBJ6YZECCLSSQQCGKCTHC9OPAFOK","","<img src=""img/set1/S1.jpg"" width=""540"" height = ""360"">","null","","","","","","","","","",""
"null","","html-keyboard-response","297","117500","0.0-297.0","3137ONMDKHR7GL7QKOS0V9ETTZVGEM","AZ9VWEDBI364C","3RSBJ6YZECCLSSQQCGKCTHC9OPAFOK","","","null","","","","","","","","","",""
"137","","image-keyboard-response","298","117642","0.0-298.0","3137ONMDKHR7GL7QKOS0V9ETTZVGEM","AZ9VWEDBI364C","3RSBJ6YZECCLSSQQCGKCTHC9OPAFOK","","img/set1/S4.jpg","83","4","structured_load","74","structured_load,structured_incentive,structured_normal,random","2,3,1,2,4,2","2,1,3,4","false","","",""
"null","","html-keyboard-response","299","118024","0.0-299.0","3137ONMDKHR7GL7QKOS0V9ETTZVGEM","AZ9VWEDBI364C","3RSBJ6YZECCLSSQQCGKCTHC9OPAFOK","","<img src=""img/set1/S4.jpg"" width=""540"" height = ""360"">","null","","","","","","","","","",""
"null","","html-keyboard-response","300","118226","0.0-300.0","3137ONMDKHR7GL7QKOS0V9ETTZVGEM","AZ9VWEDBI364C","3RSBJ6YZECCLSSQQCGKCTHC9OPAFOK","","","null","","","","","","","","","",""
"74","","image-keyboard-response","301","118301","0.0-301.0","3137ONMDKHR7GL7QKOS0V9ETTZVGEM","AZ9VWEDBI364C","3RSBJ6YZECCLSSQQCGKCTHC9OPAFOK","","img/set1/S1.jpg","74","1","structured_load","83","structured_load,structured_incentive,structured_normal,random","2,3,1,2,4,2","2,1,3,4","false","","",""
"null","","html-keyboard-response","302","118652","0.0-302.0","3137ONMDKHR7GL7QKOS0V9ETTZVGEM","AZ9VWEDBI364C","3RSBJ6YZECCLSSQQCGKCTHC9OPAFOK","","<img src=""img/set1/S1.jpg"" width=""540"" height = ""360"">","null","","","","","","","","","",""
"null","","html-keyboard-response","303","118854","0.0-303.0","3137ONMDKHR7GL7QKOS0V9ETTZVGEM","AZ9VWEDBI364C","3RSBJ6YZECCLSSQQCGKCTHC9OPAFOK","","","null","","","","","","","","","",""
"26","","image-keyboard-response","304","118880","0.0-304.0","3137ONMDKHR7GL7QKOS0V9ETTZVGEM","AZ9VWEDBI364C","3RSBJ6YZECCLSSQQCGKCTHC9OPAFOK","","img/set1/S4.jpg","74","4","structured_load","74","structured_load,structured_incentive,structured_normal,random","2,3,1,2,4,2","2,1,3,4","true","","",""
"null","","html-keyboard-response","305","119231","0.0-305.0","3137ONMDKHR7GL7QKOS0V9ETTZVGEM","AZ9VWEDBI364C","3RSBJ6YZECCLSSQQCGKCTHC9OPAFOK","","<img src=""img/set1/S4.jpg"" width=""540"" height = ""360"" style=""border:16px solid orange"">","null","","","","","","","","","",""
"null","","html-keyboard-response","306","119433","0.0-306.0","3137ONMDKHR7GL7QKOS0V9ETTZVGEM","AZ9VWEDBI364C","3RSBJ6YZECCLSSQQCGKCTHC9OPAFOK","","","null","","","","","","","","","",""
"44","","image-keyboard-response","307","119478","0.0-307.0","3137ONMDKHR7GL7QKOS0V9ETTZVGEM","AZ9VWEDBI364C","3RSBJ6YZECCLSSQQCGKCTHC9OPAFOK","","img/set1/S1.jpg","68","1","structured_load","83","structured_load,structured_incentive,structured_normal,random","2,3,1,2,4,2","2,1,3,4","false","","",""
"null","","html-keyboard-response","308","119829","0.0-308.0","3137ONMDKHR7GL7QKOS0V9ETTZVGEM","AZ9VWEDBI364C","3RSBJ6YZECCLSSQQCGKCTHC9OPAFOK","","<img src=""img/set1/S1.jpg"" width=""540"" height = ""360"">","null","","","","","","","","","",""
"null","","html-keyboard-response","309","120031","0.0-309.0","3137ONMDKHR7GL7QKOS0V9ETTZVGEM","AZ9VWEDBI364C","3RSBJ6YZECCLSSQQCGKCTHC9OPAFOK","","","null","","","","","","","","","",""
"27","","image-keyboard-response","310","120058","0.0-310.0","3137ONMDKHR7GL7QKOS0V9ETTZVGEM","AZ9VWEDBI364C","3RSBJ6YZECCLSSQQCGKCTHC9OPAFOK","","img/set1/S1.jpg","72","1","structured_load","83","structured_load,structured_incentive,structured_normal,random","2,3,1,2,4,2","2,1,3,4","false","","",""
"null","","html-keyboard-response","311","120410","0.0-311.0","3137ONMDKHR7GL7QKOS0V9ETTZVGEM","AZ9VWEDBI364C","3RSBJ6YZECCLSSQQCGKCTHC9OPAFOK","","<img src=""img/set1/S1.jpg"" width=""540"" height = ""360"">","null","","","","","","","","","",""
"null","","html-keyboard-response","312","120612","0.0-312.0","3137ONMDKHR7GL7QKOS0V9ETTZVGEM","AZ9VWEDBI364C","3RSBJ6YZECCLSSQQCGKCTHC9OPAFOK","","","null","","","","","","","","","",""
"213","","image-keyboard-response","313","120825","0.0-313.0","3137ONMDKHR7GL7QKOS0V9ETTZVGEM","AZ9VWEDBI364C","3RSBJ6YZECCLSSQQCGKCTHC9OPAFOK","","img/set1/S2.jpg","68","2","structured_load","68","structured_load,structured_incentive,structured_normal,random","2,3,1,2,4,2","2,1,3,4","true","","",""
"null","","html-keyboard-response","314","121177","0.0-314.0","3137ONMDKHR7GL7QKOS0V9ETTZVGEM","AZ9VWEDBI364C","3RSBJ6YZECCLSSQQCGKCTHC9OPAFOK","","<img src=""img/set1/S2.jpg"" width=""540"" height = ""360"" style=""border:16px solid orange"">","null","","","","","","","","","",""
"null","","html-keyboard-response","315","121378","0.0-315.0","3137ONMDKHR7GL7QKOS0V9ETTZVGEM","AZ9VWEDBI364C","3RSBJ6YZECCLSSQQCGKCTHC9OPAFOK","","","null","","","","","","","","","",""
"52","","image-keyboard-response","316","121432","0.0-316.0","3137ONMDKHR7GL7QKOS0V9ETTZVGEM","AZ9VWEDBI364C","3RSBJ6YZECCLSSQQCGKCTHC9OPAFOK","","img/set1/S3.jpg","83","3","structured_load","72","structured_load,structured_incentive,structured_normal,random","2,3,1,2,4,2","2,1,3,4","false","","",""
"null","","html-keyboard-response","317","121784","0.0-317.0","3137ONMDKHR7GL7QKOS0V9ETTZVGEM","AZ9VWEDBI364C","3RSBJ6YZECCLSSQQCGKCTHC9OPAFOK","","<img src=""img/set1/S3.jpg"" width=""540"" height = ""360"">","null","","","","","","","","","",""
"null","","html-keyboard-response","318","121989","0.0-318.0","3137ONMDKHR7GL7QKOS0V9ETTZVGEM","AZ9VWEDBI364C","3RSBJ6YZECCLSSQQCGKCTHC9OPAFOK","","","null","","","","","","","","","",""
"33","","image-keyboard-response","319","122026","0.0-319.0","3137ONMDKHR7GL7QKOS0V9ETTZVGEM","AZ9VWEDBI364C","3RSBJ6YZECCLSSQQCGKCTHC9OPAFOK","","img/set1/S2.jpg","72","2","structured_load","68","structured_load,structured_incentive,structured_normal,random","2,3,1,2,4,2","2,1,3,4","false","","",""
"null","","html-keyboard-response","320","122377","0.0-320.0","3137ONMDKHR7GL7QKOS0V9ETTZVGEM","AZ9VWEDBI364C","3RSBJ6YZECCLSSQQCGKCTHC9OPAFOK","","<img src=""img/set1/S2.jpg"" width=""540"" height = ""360"">","null","","","","","","","","","",""
"null","","html-keyboard-response","321","122586","0.0-321.0","3137ONMDKHR7GL7QKOS0V9ETTZVGEM","AZ9VWEDBI364C","3RSBJ6YZECCLSSQQCGKCTHC9OPAFOK","","","null","","","","","","","","","",""
"26","","image-keyboard-response","322","122613","0.0-322.0","3137ONMDKHR7GL7QKOS0V9ETTZVGEM","AZ9VWEDBI364C","3RSBJ6YZECCLSSQQCGKCTHC9OPAFOK","","img/set1/S3.jpg","68","3","structured_load","72","structured_load,structured_incentive,structured_normal,random","2,3,1,2,4,2","2,1,3,4","false","","",""
"null","","html-keyboard-response","323","122967","0.0-323.0","3137ONMDKHR7GL7QKOS0V9ETTZVGEM","AZ9VWEDBI364C","3RSBJ6YZECCLSSQQCGKCTHC9OPAFOK","","<img src=""img/set1/S3.jpg"" width=""540"" height = ""360"">","null","","","","","","","","","",""
"null","","html-keyboard-response","324","123169","0.0-324.0","3137ONMDKHR7GL7QKOS0V9ETTZVGEM","AZ9VWEDBI364C","3RSBJ6YZECCLSSQQCGKCTHC9OPAFOK","","","null","","","","","","","","","",""
"76","","image-keyboard-response","325","123247","0.0-325.0","3137ONMDKHR7GL7QKOS0V9ETTZVGEM","AZ9VWEDBI364C","3RSBJ6YZECCLSSQQCGKCTHC9OPAFOK","","img/set1/S1.jpg","72","1","structured_load","83","structured_load,structured_incentive,structured_normal,random","2,3,1,2,4,2","2,1,3,4","false","","",""
"null","","html-keyboard-response","326","123599","0.0-326.0","3137ONMDKHR7GL7QKOS0V9ETTZVGEM","AZ9VWEDBI364C","3RSBJ6YZECCLSSQQCGKCTHC9OPAFOK","","<img src=""img/set1/S1.jpg"" width=""540"" height = ""360"">","null","","","","","","","","","",""
"null","","html-keyboard-response","327","123802","0.0-327.0","3137ONMDKHR7GL7QKOS0V9ETTZVGEM","AZ9VWEDBI364C","3RSBJ6YZECCLSSQQCGKCTHC9OPAFOK","","","null","","","","","","","","","",""
"0","","image-keyboard-response","328","123803","0.0-328.0","3137ONMDKHR7GL7QKOS0V9ETTZVGEM","AZ9VWEDBI364C","3RSBJ6YZECCLSSQQCGKCTHC9OPAFOK","","img/set1/S4.jpg","72","4","structured_load","74","structured_load,structured_incentive,structured_normal,random","2,3,1,2,4,2","2,1,3,4","false","","",""
"null","","html-keyboard-response","329","124155","0.0-329.0","3137ONMDKHR7GL7QKOS0V9ETTZVGEM","AZ9VWEDBI364C","3RSBJ6YZECCLSSQQCGKCTHC9OPAFOK","","<img src=""img/set1/S4.jpg"" width=""540"" height = ""360"">","null","","","","","","","","","",""
"null","","html-keyboard-response","330","124356","0.0-330.0","3137ONMDKHR7GL7QKOS0V9ETTZVGEM","AZ9VWEDBI364C","3RSBJ6YZECCLSSQQCGKCTHC9OPAFOK","","","null","","","","","","","","","",""
"77","","image-keyboard-response","331","124434","0.0-331.0","3137ONMDKHR7GL7QKOS0V9ETTZVGEM","AZ9VWEDBI364C","3RSBJ6YZECCLSSQQCGKCTHC9OPAFOK","","img/set1/S1.jpg","72","1","structured_load","83","structured_load,structured_incentive,structured_normal,random","2,3,1,2,4,2","2,1,3,4","false","","",""
"null","","html-keyboard-response","332","124785","0.0-332.0","3137ONMDKHR7GL7QKOS0V9ETTZVGEM","AZ9VWEDBI364C","3RSBJ6YZECCLSSQQCGKCTHC9OPAFOK","","<img src=""img/set1/S1.jpg"" width=""540"" height = ""360"">","null","","","","","","","","","",""
"null","","html-keyboard-response","333","124986","0.0-333.0","3137ONMDKHR7GL7QKOS0V9ETTZVGEM","AZ9VWEDBI364C","3RSBJ6YZECCLSSQQCGKCTHC9OPAFOK","","","null","","","","","","","","","",""
"45","","image-keyboard-response","334","125032","0.0-334.0","3137ONMDKHR7GL7QKOS0V9ETTZVGEM","AZ9VWEDBI364C","3RSBJ6YZECCLSSQQCGKCTHC9OPAFOK","","img/set1/S2.jpg","72","2","structured_load","68","structured_load,structured_incentive,structured_normal,random","2,3,1,2,4,2","2,1,3,4","false","","",""
"null","","html-keyboard-response","335","125384","0.0-335.0","3137ONMDKHR7GL7QKOS0V9ETTZVGEM","AZ9VWEDBI364C","3RSBJ6YZECCLSSQQCGKCTHC9OPAFOK","","<img src=""img/set1/S2.jpg"" width=""540"" height = ""360"">","null","","","","","","","","","",""
"null","","html-keyboard-response","336","125584","0.0-336.0","3137ONMDKHR7GL7QKOS0V9ETTZVGEM","AZ9VWEDBI364C","3RSBJ6YZECCLSSQQCGKCTHC9OPAFOK","","","null","","","","","","","","","",""
"4","","image-keyboard-response","337","125589","0.0-337.0","3137ONMDKHR7GL7QKOS0V9ETTZVGEM","AZ9VWEDBI364C","3RSBJ6YZECCLSSQQCGKCTHC9OPAFOK","","img/set1/S3.jpg","72","3","structured_load","72","structured_load,structured_incentive,structured_normal,random","2,3,1,2,4,2","2,1,3,4","true","","",""
"null","","html-keyboard-response","338","125941","0.0-338.0","3137ONMDKHR7GL7QKOS0V9ETTZVGEM","AZ9VWEDBI364C","3RSBJ6YZECCLSSQQCGKCTHC9OPAFOK","","<img src=""img/set1/S3.jpg"" width=""540"" height = ""360"" style=""border:16px solid orange"">","null","","","","","","","","","",""
"null","","html-keyboard-response","339","126143","0.0-339.0","3137ONMDKHR7GL7QKOS0V9ETTZVGEM","AZ9VWEDBI364C","3RSBJ6YZECCLSSQQCGKCTHC9OPAFOK","","","null","","","","","","","","","",""
"63","","image-keyboard-response","340","126207","0.0-340.0","3137ONMDKHR7GL7QKOS0V9ETTZVGEM","AZ9VWEDBI364C","3RSBJ6YZECCLSSQQCGKCTHC9OPAFOK","","img/set1/S4.jpg","74","4","structured_load","74","structured_load,structured_incentive,structured_normal,random","2,3,1,2,4,2","2,1,3,4","true","","",""
"null","","html-keyboard-response","341","126560","0.0-341.0","3137ONMDKHR7GL7QKOS0V9ETTZVGEM","AZ9VWEDBI364C","3RSBJ6YZECCLSSQQCGKCTHC9OPAFOK","","<img src=""img/set1/S4.jpg"" width=""540"" height = ""360"" style=""border:16px solid orange"">","null","","","","","","","","","",""
"null","","html-keyboard-response","342","126762","0.0-342.0","3137ONMDKHR7GL7QKOS0V9ETTZVGEM","AZ9VWEDBI364C","3RSBJ6YZECCLSSQQCGKCTHC9OPAFOK","","","null","","","","","","","","","",""
"106","","image-keyboard-response","343","126869","0.0-343.0","3137ONMDKHR7GL7QKOS0V9ETTZVGEM","AZ9VWEDBI364C","3RSBJ6YZECCLSSQQCGKCTHC9OPAFOK","","img/set1/S4.jpg","68","4","structured_load","74","structured_load,structured_incentive,structured_normal,random","2,3,1,2,4,2","2,1,3,4","false","","",""
"null","","html-keyboard-response","344","127221","0.0-344.0","3137ONMDKHR7GL7QKOS0V9ETTZVGEM","AZ9VWEDBI364C","3RSBJ6YZECCLSSQQCGKCTHC9OPAFOK","","<img src=""img/set1/S4.jpg"" width=""540"" height = ""360"">","null","","","","","","","","","",""
"null","","html-keyboard-response","345","127422","0.0-345.0","3137ONMDKHR7GL7QKOS0V9ETTZVGEM","AZ9VWEDBI364C","3RSBJ6YZECCLSSQQCGKCTHC9OPAFOK","","","null","","","","","","","","","",""
"18","","image-keyboard-response","346","127441","0.0-346.0","3137ONMDKHR7GL7QKOS0V9ETTZVGEM","AZ9VWEDBI364C","3RSBJ6YZECCLSSQQCGKCTHC9OPAFOK","","img/set1/S1.jpg","83","1","structured_load","83","structured_load,structured_incentive,structured_normal,random","2,3,1,2,4,2","2,1,3,4","true","","",""
"null","","html-keyboard-response","347","127794","0.0-347.0","3137ONMDKHR7GL7QKOS0V9ETTZVGEM","AZ9VWEDBI364C","3RSBJ6YZECCLSSQQCGKCTHC9OPAFOK","","<img src=""img/set1/S1.jpg"" width=""540"" height = ""360"" style=""border:16px solid orange"">","null","","","","","","","","","",""
"null","","html-keyboard-response","348","127995","0.0-348.0","3137ONMDKHR7GL7QKOS0V9ETTZVGEM","AZ9VWEDBI364C","3RSBJ6YZECCLSSQQCGKCTHC9OPAFOK","","","null","","","","","","","","","",""
"27","","image-keyboard-response","349","128023","0.0-349.0","3137ONMDKHR7GL7QKOS0V9ETTZVGEM","AZ9VWEDBI364C","3RSBJ6YZECCLSSQQCGKCTHC9OPAFOK","","img/set1/S1.jpg","74","1","structured_load","83","structured_load,structured_incentive,structured_normal,random","2,3,1,2,4,2","2,1,3,4","false","","",""
"null","","html-keyboard-response","350","128376","0.0-350.0","3137ONMDKHR7GL7QKOS0V9ETTZVGEM","AZ9VWEDBI364C","3RSBJ6YZECCLSSQQCGKCTHC9OPAFOK","","<img src=""img/set1/S1.jpg"" width=""540"" height = ""360"">","null","","","","","","","","","",""
"null","","html-keyboard-response","351","128577","0.0-351.0","3137ONMDKHR7GL7QKOS0V9ETTZVGEM","AZ9VWEDBI364C","3RSBJ6YZECCLSSQQCGKCTHC9OPAFOK","","","null","","","","","","","","","",""
"93","","image-keyboard-response","352","128671","0.0-352.0","3137ONMDKHR7GL7QKOS0V9ETTZVGEM","AZ9VWEDBI364C","3RSBJ6YZECCLSSQQCGKCTHC9OPAFOK","","img/set1/S2.jpg","74","2","structured_load","68","structured_load,structured_incentive,structured_normal,random","2,3,1,2,4,2","2,1,3,4","false","","",""
"null","","html-keyboard-response","353","129023","0.0-353.0","3137ONMDKHR7GL7QKOS0V9ETTZVGEM","AZ9VWEDBI364C","3RSBJ6YZECCLSSQQCGKCTHC9OPAFOK","","<img src=""img/set1/S2.jpg"" width=""540"" height = ""360"">","null","","","","","","","","","",""
"null","","html-keyboard-response","354","129224","0.0-354.0","3137ONMDKHR7GL7QKOS0V9ETTZVGEM","AZ9VWEDBI364C","3RSBJ6YZECCLSSQQCGKCTHC9OPAFOK","","","null","","","","","","","","","",""
"50","","image-keyboard-response","355","129276","0.0-355.0","3137ONMDKHR7GL7QKOS0V9ETTZVGEM","AZ9VWEDBI364C","3RSBJ6YZECCLSSQQCGKCTHC9OPAFOK","","img/set1/S3.jpg","68","3","structured_load","72","structured_load,structured_incentive,structured_normal,random","2,3,1,2,4,2","2,1,3,4","false","","",""
"null","","html-keyboard-response","356","129628","0.0-356.0","3137ONMDKHR7GL7QKOS0V9ETTZVGEM","AZ9VWEDBI364C","3RSBJ6YZECCLSSQQCGKCTHC9OPAFOK","","<img src=""img/set1/S3.jpg"" width=""540"" height = ""360"">","null","","","","","","","","","",""
"null","","html-keyboard-response","357","129830","0.0-357.0","3137ONMDKHR7GL7QKOS0V9ETTZVGEM","AZ9VWEDBI364C","3RSBJ6YZECCLSSQQCGKCTHC9OPAFOK","","","null","","","","","","","","","",""
"43","","image-keyboard-response","358","129874","0.0-358.0","3137ONMDKHR7GL7QKOS0V9ETTZVGEM","AZ9VWEDBI364C","3RSBJ6YZECCLSSQQCGKCTHC9OPAFOK","","img/set1/S4.jpg","68","4","structured_load","74","structured_load,structured_incentive,structured_normal,random","2,3,1,2,4,2","2,1,3,4","false","","",""
"null","","html-keyboard-response","359","130228","0.0-359.0","3137ONMDKHR7GL7QKOS0V9ETTZVGEM","AZ9VWEDBI364C","3RSBJ6YZECCLSSQQCGKCTHC9OPAFOK","","<img src=""img/set1/S4.jpg"" width=""540"" height = ""360"">","null","","","","","","","","","",""
"null","","html-keyboard-response","360","130433","0.0-360.0","3137ONMDKHR7GL7QKOS0V9ETTZVGEM","AZ9VWEDBI364C","3RSBJ6YZECCLSSQQCGKCTHC9OPAFOK","","","null","","","","","","","","","",""
"42","","image-keyboard-response","361","130477","0.0-361.0","3137ONMDKHR7GL7QKOS0V9ETTZVGEM","AZ9VWEDBI364C","3RSBJ6YZECCLSSQQCGKCTHC9OPAFOK","","img/set1/S1.jpg","74","1","structured_load","83","structured_load,structured_incentive,structured_normal,random","2,3,1,2,4,2","2,1,3,4","false","","",""
"null","","html-keyboard-response","362","130828","0.0-362.0","3137ONMDKHR7GL7QKOS0V9ETTZVGEM","AZ9VWEDBI364C","3RSBJ6YZECCLSSQQCGKCTHC9OPAFOK","","<img src=""img/set1/S1.jpg"" width=""540"" height = ""360"">","null","","","","","","","","","",""
"null","","html-keyboard-response","363","131029","0.0-363.0","3137ONMDKHR7GL7QKOS0V9ETTZVGEM","AZ9VWEDBI364C","3RSBJ6YZECCLSSQQCGKCTHC9OPAFOK","","","null","","","","","","","","","",""
"0","","image-keyboard-response","364","131030","0.0-364.0","3137ONMDKHR7GL7QKOS0V9ETTZVGEM","AZ9VWEDBI364C","3RSBJ6YZECCLSSQQCGKCTHC9OPAFOK","","img/set1/S2.jpg","68","2","structured_load","68","structured_load,structured_incentive,structured_normal,random","2,3,1,2,4,2","2,1,3,4","true","","",""
"null","","html-keyboard-response","365","131401","0.0-365.0","3137ONMDKHR7GL7QKOS0V9ETTZVGEM","AZ9VWEDBI364C","3RSBJ6YZECCLSSQQCGKCTHC9OPAFOK","","<img src=""img/set1/S2.jpg"" width=""540"" height = ""360"" style=""border:16px solid orange"">","null","","","","","","","","","",""
"null","","html-keyboard-response","366","131622","0.0-366.0","3137ONMDKHR7GL7QKOS0V9ETTZVGEM","AZ9VWEDBI364C","3RSBJ6YZECCLSSQQCGKCTHC9OPAFOK","","","null","","","","","","","","","",""
"5","","image-keyboard-response","367","131628","0.0-367.0","3137ONMDKHR7GL7QKOS0V9ETTZVGEM","AZ9VWEDBI364C","3RSBJ6YZECCLSSQQCGKCTHC9OPAFOK","","img/set1/S3.jpg","68","3","structured_load","72","structured_load,structured_incentive,structured_normal,random","2,3,1,2,4,2","2,1,3,4","false","","",""
"null","","html-keyboard-response","368","131980","0.0-368.0","3137ONMDKHR7GL7QKOS0V9ETTZVGEM","AZ9VWEDBI364C","3RSBJ6YZECCLSSQQCGKCTHC9OPAFOK","","<img src=""img/set1/S3.jpg"" width=""540"" height = ""360"">","null","","","","","","","","","",""
"null","","html-keyboard-response","369","132204","0.0-369.0","3137ONMDKHR7GL7QKOS0V9ETTZVGEM","AZ9VWEDBI364C","3RSBJ6YZECCLSSQQCGKCTHC9OPAFOK","","","null","","","","","","","","","",""
"118","","image-keyboard-response","370","132323","0.0-370.0","3137ONMDKHR7GL7QKOS0V9ETTZVGEM","AZ9VWEDBI364C","3RSBJ6YZECCLSSQQCGKCTHC9OPAFOK","","img/set1/S2.jpg","74","2","structured_load","68","structured_load,structured_incentive,structured_normal,random","2,3,1,2,4,2","2,1,3,4","false","","",""
"null","","html-keyboard-response","371","132676","0.0-371.0","3137ONMDKHR7GL7QKOS0V9ETTZVGEM","AZ9VWEDBI364C","3RSBJ6YZECCLSSQQCGKCTHC9OPAFOK","","<img src=""img/set1/S2.jpg"" width=""540"" height = ""360"">","null","","","","","","","","","",""
"null","","html-keyboard-response","372","132877","0.0-372.0","3137ONMDKHR7GL7QKOS0V9ETTZVGEM","AZ9VWEDBI364C","3RSBJ6YZECCLSSQQCGKCTHC9OPAFOK","","","null","","","","","","","","","",""
"46","","image-keyboard-response","373","132925","0.0-373.0","3137ONMDKHR7GL7QKOS0V9ETTZVGEM","AZ9VWEDBI364C","3RSBJ6YZECCLSSQQCGKCTHC9OPAFOK","","img/set1/S3.jpg","83","3","structured_load","72","structured_load,structured_incentive,structured_normal,random","2,3,1,2,4,2","2,1,3,4","false","","",""
"null","","html-keyboard-response","374","133277","0.0-374.0","3137ONMDKHR7GL7QKOS0V9ETTZVGEM","AZ9VWEDBI364C","3RSBJ6YZECCLSSQQCGKCTHC9OPAFOK","","<img src=""img/set1/S3.jpg"" width=""540"" height = ""360"">","null","","","","","","","","","",""
"null","","html-keyboard-response","375","133478","0.0-375.0","3137ONMDKHR7GL7QKOS0V9ETTZVGEM","AZ9VWEDBI364C","3RSBJ6YZECCLSSQQCGKCTHC9OPAFOK","","","null","","","","","","","","","",""
"90","","image-keyboard-response","376","133569","0.0-376.0","3137ONMDKHR7GL7QKOS0V9ETTZVGEM","AZ9VWEDBI364C","3RSBJ6YZECCLSSQQCGKCTHC9OPAFOK","","img/set1/S1.jpg","68","1","structured_load","83","structured_load,structured_incentive,structured_normal,random","2,3,1,2,4,2","2,1,3,4","false","","",""
"null","","html-keyboard-response","377","133921","0.0-377.0","3137ONMDKHR7GL7QKOS0V9ETTZVGEM","AZ9VWEDBI364C","3RSBJ6YZECCLSSQQCGKCTHC9OPAFOK","","<img src=""img/set1/S1.jpg"" width=""540"" height = ""360"">","null","","","","","","","","","",""
"null","","html-keyboard-response","378","134122","0.0-378.0","3137ONMDKHR7GL7QKOS0V9ETTZVGEM","AZ9VWEDBI364C","3RSBJ6YZECCLSSQQCGKCTHC9OPAFOK","","","null","","","","","","","","","",""
"84","","image-keyboard-response","379","134207","0.0-379.0","3137ONMDKHR7GL7QKOS0V9ETTZVGEM","AZ9VWEDBI364C","3RSBJ6YZECCLSSQQCGKCTHC9OPAFOK","","img/set1/S1.jpg","68","1","structured_load","83","structured_load,structured_incentive,structured_normal,random","2,3,1,2,4,2","2,1,3,4","false","","",""
"null","","html-keyboard-response","380","134559","0.0-380.0","3137ONMDKHR7GL7QKOS0V9ETTZVGEM","AZ9VWEDBI364C","3RSBJ6YZECCLSSQQCGKCTHC9OPAFOK","","<img src=""img/set1/S1.jpg"" width=""540"" height = ""360"">","null","","","","","","","","","",""
"null","","html-keyboard-response","381","134766","0.0-381.0","3137ONMDKHR7GL7QKOS0V9ETTZVGEM","AZ9VWEDBI364C","3RSBJ6YZECCLSSQQCGKCTHC9OPAFOK","","","null","","","","","","","","","",""
"118","","image-keyboard-response","382","134885","0.0-382.0","3137ONMDKHR7GL7QKOS0V9ETTZVGEM","AZ9VWEDBI364C","3RSBJ6YZECCLSSQQCGKCTHC9OPAFOK","","img/set1/S1.jpg","74","1","structured_load","83","structured_load,structured_incentive,structured_normal,random","2,3,1,2,4,2","2,1,3,4","false","","",""
"null","","html-keyboard-response","383","135236","0.0-383.0","3137ONMDKHR7GL7QKOS0V9ETTZVGEM","AZ9VWEDBI364C","3RSBJ6YZECCLSSQQCGKCTHC9OPAFOK","","<img src=""img/set1/S1.jpg"" width=""540"" height = ""360"">","null","","","","","","","","","",""
"null","","html-keyboard-response","384","135441","0.0-384.0","3137ONMDKHR7GL7QKOS0V9ETTZVGEM","AZ9VWEDBI364C","3RSBJ6YZECCLSSQQCGKCTHC9OPAFOK","","","null","","","","","","","","","",""
"36","","image-keyboard-response","385","135478","0.0-385.0","3137ONMDKHR7GL7QKOS0V9ETTZVGEM","AZ9VWEDBI364C","3RSBJ6YZECCLSSQQCGKCTHC9OPAFOK","","img/set1/S2.jpg","72","2","structured_load","68","structured_load,structured_incentive,structured_normal,random","2,3,1,2,4,2","2,1,3,4","false","","",""
"null","","html-keyboard-response","386","135830","0.0-386.0","3137ONMDKHR7GL7QKOS0V9ETTZVGEM","AZ9VWEDBI364C","3RSBJ6YZECCLSSQQCGKCTHC9OPAFOK","","<img src=""img/set1/S2.jpg"" width=""540"" height = ""360"">","null","","","","","","","","","",""
"null","","html-keyboard-response","387","136030","0.0-387.0","3137ONMDKHR7GL7QKOS0V9ETTZVGEM","AZ9VWEDBI364C","3RSBJ6YZECCLSSQQCGKCTHC9OPAFOK","","","null","","","","","","","","","",""
"16","","image-keyboard-response","388","136047","0.0-388.0","3137ONMDKHR7GL7QKOS0V9ETTZVGEM","AZ9VWEDBI364C","3RSBJ6YZECCLSSQQCGKCTHC9OPAFOK","","img/set1/S3.jpg","68","3","structured_load","72","structured_load,structured_incentive,structured_normal,random","2,3,1,2,4,2","2,1,3,4","false","","",""
"null","","html-keyboard-response","389","136398","0.0-389.0","3137ONMDKHR7GL7QKOS0V9ETTZVGEM","AZ9VWEDBI364C","3RSBJ6YZECCLSSQQCGKCTHC9OPAFOK","","<img src=""img/set1/S3.jpg"" width=""540"" height = ""360"">","null","","","","","","","","","",""
"null","","html-keyboard-response","390","136600","0.0-390.0","3137ONMDKHR7GL7QKOS0V9ETTZVGEM","AZ9VWEDBI364C","3RSBJ6YZECCLSSQQCGKCTHC9OPAFOK","","","null","","","","","","","","","",""
"100","","image-keyboard-response","391","136702","0.0-391.0","3137ONMDKHR7GL7QKOS0V9ETTZVGEM","AZ9VWEDBI364C","3RSBJ6YZECCLSSQQCGKCTHC9OPAFOK","","img/set1/S4.jpg","83","4","structured_load","74","structured_load,structured_incentive,structured_normal,random","2,3,1,2,4,2","2,1,3,4","false","","",""
"null","","html-keyboard-response","392","137053","0.0-392.0","3137ONMDKHR7GL7QKOS0V9ETTZVGEM","AZ9VWEDBI364C","3RSBJ6YZECCLSSQQCGKCTHC9OPAFOK","","<img src=""img/set1/S4.jpg"" width=""540"" height = ""360"">","null","","","","","","","","","",""
"null","","html-keyboard-response","393","137254","0.0-393.0","3137ONMDKHR7GL7QKOS0V9ETTZVGEM","AZ9VWEDBI364C","3RSBJ6YZECCLSSQQCGKCTHC9OPAFOK","","","null","","","","","","","","","",""
"32","","image-keyboard-response","394","137287","0.0-394.0","3137ONMDKHR7GL7QKOS0V9ETTZVGEM","AZ9VWEDBI364C","3RSBJ6YZECCLSSQQCGKCTHC9OPAFOK","","img/set1/S2.jpg","74","2","structured_load","68","structured_load,structured_incentive,structured_normal,random","2,3,1,2,4,2","2,1,3,4","false","","",""
"null","","html-keyboard-response","395","137639","0.0-395.0","3137ONMDKHR7GL7QKOS0V9ETTZVGEM","AZ9VWEDBI364C","3RSBJ6YZECCLSSQQCGKCTHC9OPAFOK","","<img src=""img/set1/S2.jpg"" width=""540"" height = ""360"">","null","","","","","","","","","",""
"null","","html-keyboard-response","396","137841","0.0-396.0","3137ONMDKHR7GL7QKOS0V9ETTZVGEM","AZ9VWEDBI364C","3RSBJ6YZECCLSSQQCGKCTHC9OPAFOK","","","null","","","","","","","","","",""
"114","","image-keyboard-response","397","137956","0.0-397.0","3137ONMDKHR7GL7QKOS0V9ETTZVGEM","AZ9VWEDBI364C","3RSBJ6YZECCLSSQQCGKCTHC9OPAFOK","","img/set1/S3.jpg","74","3","structured_load","72","structured_load,structured_incentive,structured_normal,random","2,3,1,2,4,2","2,1,3,4","false","","",""
"null","","html-keyboard-response","398","138308","0.0-398.0","3137ONMDKHR7GL7QKOS0V9ETTZVGEM","AZ9VWEDBI364C","3RSBJ6YZECCLSSQQCGKCTHC9OPAFOK","","<img src=""img/set1/S3.jpg"" width=""540"" height = ""360"">","null","","","","","","","","","",""
"null","","html-keyboard-response","399","138510","0.0-399.0","3137ONMDKHR7GL7QKOS0V9ETTZVGEM","AZ9VWEDBI364C","3RSBJ6YZECCLSSQQCGKCTHC9OPAFOK","","","null","","","","","","","","","",""
"112","","image-keyboard-response","400","138623","0.0-400.0","3137ONMDKHR7GL7QKOS0V9ETTZVGEM","AZ9VWEDBI364C","3RSBJ6YZECCLSSQQCGKCTHC9OPAFOK","","img/set1/S1.jpg","74","1","structured_load","83","structured_load,structured_incentive,structured_normal,random","2,3,1,2,4,2","2,1,3,4","false","","",""
"null","","html-keyboard-response","401","138975","0.0-401.0","3137ONMDKHR7GL7QKOS0V9ETTZVGEM","AZ9VWEDBI364C","3RSBJ6YZECCLSSQQCGKCTHC9OPAFOK","","<img src=""img/set1/S1.jpg"" width=""540"" height = ""360"">","null","","","","","","","","","",""
