"rt","url","trial_type","trial_index","time_elapsed","internal_node_id","assignmentID","mturkID","hitID","view_history","stimulus","key_press","state","test_part","correct_response","order_block","order_chunk","order_freq","correct","responses","question_order","bonus"
"2667.4000000953674","consent.html","external-html","0","2759","0.0-0.0","","","","","","","","","","","","","","","",""
"4713.699999809265","","instructions","1","7477","0.0-1.0","","","","[{""page_index"":0,""viewing_time"":909.1999998092651},{""page_index"":1,""viewing_time"":556.8000001907349},{""page_index"":2,""viewing_time"":462.2999997138977},{""page_index"":3,""viewing_time"":930.5999999046326},{""page_index"":4,""viewing_time"":640},{""page_index"":5,""viewing_time"":696},{""page_index"":6,""viewing_time"":518.1000003814697}]","","","","","","","","","","","",""
"637.7999997138977","","instructions","2","8117","0.0-2.0","","","","[{""page_index"":0,""viewing_time"":637.5999999046326}]","","","","","","","","","","","",""
"565","","instructions","3","8683","0.0-3.0","","","","[{""page_index"":0,""viewing_time"":564.8000001907349}]","","","","","","","","","","","",""
"null","","image-keyboard-response","4","8695","0.0-4.0","","","","","img/set1/S3.jpg","null","3","structured_normal","72","structured_normal,random,structured_load,structured_incentive","3,4,2,1,2,3","2,4,3,1","false","","",""
"null","","html-keyboard-response","5","8707","0.0-5.0","","","","","<img src=""img/set1/S3.jpg"" width=""540"" height = ""360"">","null","","","","","","","","","",""
"null","","html-keyboard-response","6","8909","0.0-6.0","","","","","","null","","","","","","","","","",""
"null","","image-keyboard-response","7","8920","0.0-7.0","","","","","img/set1/S4.jpg","null","4","structured_normal","74","structured_normal,random,structured_load,structured_incentive","3,4,2,1,2,3","2,4,3,1","false","","",""
"null","","html-keyboard-response","8","8932","0.0-8.0","","","","","<img src=""img/set1/S4.jpg"" width=""540"" height = ""360"">","null","","","","","","","","","",""
"null","","html-keyboard-response","9","9133","0.0-9.0","","","","","","null","","","","","","","","","",""
"null","","image-keyboard-response","10","9145","0.0-10.0","","","","","img/set1/S2.jpg","null","2","structured_normal","68","structured_normal,random,structured_load,structured_incentive","3,4,2,1,2,3","2,4,3,1","false","","",""
"null","","html-keyboard-response","11","9157","0.0-11.0","","","","","<img src=""img/set1/S2.jpg"" width=""540"" height = ""360"">","null","","","","","","","","","",""
"null","","html-keyboard-response","12","9360","0.0-12.0","","","","","","null","","","","","","","","","",""
"null","","image-keyboard-response","13","9373","0.0-13.0","","","","","img/set1/S2.jpg","null","2","structured_normal","68","structured_normal,random,structured_load,structured_incentive","3,4,2,1,2,3","2,4,3,1","false","","",""
"null","","html-keyboard-response","14","9386","0.0-14.0","","","","","<img src=""img/set1/S2.jpg"" width=""540"" height = ""360"">","null","","","","","","","","","",""
"null","","html-keyboard-response","15","9588","0.0-15.0","","","","","","null","","","","","","","","","",""
"null","","image-keyboard-response","16","9599","0.0-16.0","","","","","img/set1/S1.jpg","null","1","structured_normal","83","structured_normal,random,structured_load,structured_incentive","3,4,2,1,2,3","2,4,3,1","false","","",""
"null","","html-keyboard-response","17","9611","0.0-17.0","","","","","<img src=""img/set1/S1.jpg"" width=""540"" height = ""360"">","null","","","","","","","","","",""
"null","","html-keyboard-response","18","9812","0.0-18.0","","","","","","null","","","","","","","","","",""
"null","","image-keyboard-response","19","9824","0.0-19.0","","","","","img/set1/S3.jpg","null","3","structured_normal","72","structured_normal,random,structured_load,structured_incentive","3,4,2,1,2,3","2,4,3,1","false","","",""
"null","","html-keyboard-response","20","9835","0.0-20.0","","","","","<img src=""img/set1/S3.jpg"" width=""540"" height = ""360"">","null","","","","","","","","","",""
"null","","html-keyboard-response","21","10038","0.0-21.0","","","","","","null","","","","","","","","","",""
"null","","image-keyboard-response","22","10050","0.0-22.0","","","","","img/set1/S4.jpg","null","4","structured_normal","74","structured_normal,random,structured_load,structured_incentive","3,4,2,1,2,3","2,4,3,1","false","","",""
"null","","html-keyboard-response","23","10062","0.0-23.0","","","","","<img src=""img/set1/S4.jpg"" width=""540"" height = ""360"">","null","","","","","","","","","",""
"null","","html-keyboard-response","24","10262","0.0-24.0","","","","","","null","","","","","","","","","",""
"null","","image-keyboard-response","25","10274","0.0-25.0","","","","","img/set1/S1.jpg","null","1","structured_normal","83","structured_normal,random,structured_load,structured_incentive","3,4,2,1,2,3","2,4,3,1","false","","",""
"null","","html-keyboard-response","26","10285","0.0-26.0","","","","","<img src=""img/set1/S1.jpg"" width=""540"" height = ""360"">","null","","","","","","","","","",""
"null","","html-keyboard-response","27","10486","0.0-27.0","","","","","","null","","","","","","","","","",""
"null","","image-keyboard-response","28","10498","0.0-28.0","","","","","img/set1/S1.jpg","null","1","structured_normal","83","structured_normal,random,structured_load,structured_incentive","3,4,2,1,2,3","2,4,3,1","false","","",""
"null","","html-keyboard-response","29","10510","0.0-29.0","","","","","<img src=""img/set1/S1.jpg"" width=""540"" height = ""360"">","null","","","","","","","","","",""
"null","","html-keyboard-response","30","10711","0.0-30.0","","","","","","null","","","","","","","","","",""
"null","","image-keyboard-response","31","10722","0.0-31.0","","","","","img/set1/S2.jpg","null","2","structured_normal","68","structured_normal,random,structured_load,structured_incentive","3,4,2,1,2,3","2,4,3,1","false","","",""
"null","","html-keyboard-response","32","10734","0.0-32.0","","","","","<img src=""img/set1/S2.jpg"" width=""540"" height = ""360"">","null","","","","","","","","","",""
"null","","html-keyboard-response","33","10937","0.0-33.0","","","","","","null","","","","","","","","","",""
"null","","image-keyboard-response","34","10948","0.0-34.0","","","","","img/set1/S2.jpg","null","2","structured_normal","68","structured_normal,random,structured_load,structured_incentive","3,4,2,1,2,3","2,4,3,1","false","","",""
"null","","html-keyboard-response","35","10960","0.0-35.0","","","","","<img src=""img/set1/S2.jpg"" width=""540"" height = ""360"">","null","","","","","","","","","",""
"null","","html-keyboard-response","36","11162","0.0-36.0","","","","","","null","","","","","","","","","",""
"null","","image-keyboard-response","37","11173","0.0-37.0","","","","","img/set1/S3.jpg","null","3","structured_normal","72","structured_normal,random,structured_load,structured_incentive","3,4,2,1,2,3","2,4,3,1","false","","",""
"null","","html-keyboard-response","38","11185","0.0-38.0","","","","","<img src=""img/set1/S3.jpg"" width=""540"" height = ""360"">","null","","","","","","","","","",""
"null","","html-keyboard-response","39","11387","0.0-39.0","","","","","","null","","","","","","","","","",""
"null","","image-keyboard-response","40","11398","0.0-40.0","","","","","img/set1/S4.jpg","null","4","structured_normal","74","structured_normal,random,structured_load,structured_incentive","3,4,2,1,2,3","2,4,3,1","false","","",""
"null","","html-keyboard-response","41","11410","0.0-41.0","","","","","<img src=""img/set1/S4.jpg"" width=""540"" height = ""360"">","null","","","","","","","","","",""
"null","","html-keyboard-response","42","11612","0.0-42.0","","","","","","null","","","","","","","","","",""
"null","","image-keyboard-response","43","11626","0.0-43.0","","","","","img/set1/S1.jpg","null","1","structured_normal","83","structured_normal,random,structured_load,structured_incentive","3,4,2,1,2,3","2,4,3,1","false","","",""
"null","","html-keyboard-response","44","11637","0.0-44.0","","","","","<img src=""img/set1/S1.jpg"" width=""540"" height = ""360"">","null","","","","","","","","","",""
"null","","html-keyboard-response","45","11839","0.0-45.0","","","","","","null","","","","","","","","","",""
"null","","image-keyboard-response","46","11850","0.0-46.0","","","","","img/set1/S1.jpg","null","1","structured_normal","83","structured_normal,random,structured_load,structured_incentive","3,4,2,1,2,3","2,4,3,1","false","","",""
"null","","html-keyboard-response","47","11862","0.0-47.0","","","","","<img src=""img/set1/S1.jpg"" width=""540"" height = ""360"">","null","","","","","","","","","",""
"null","","html-keyboard-response","48","12063","0.0-48.0","","","","","","null","","","","","","","","","",""
"null","","image-keyboard-response","49","12075","0.0-49.0","","","","","img/set1/S3.jpg","null","3","structured_normal","72","structured_normal,random,structured_load,structured_incentive","3,4,2,1,2,3","2,4,3,1","false","","",""
"null","","html-keyboard-response","50","12086","0.0-50.0","","","","","<img src=""img/set1/S3.jpg"" width=""540"" height = ""360"">","null","","","","","","","","","",""
"null","","html-keyboard-response","51","13009","0.0-51.0","","","","","","null","","","","","","","","","",""
"null","","image-keyboard-response","52","13876","0.0-52.0","","","","","img/set1/S4.jpg","null","4","structured_normal","74","structured_normal,random,structured_load,structured_incentive","3,4,2,1,2,3","2,4,3,1","false","","",""
"null","","html-keyboard-response","53","15116","0.0-53.0","","","","","<img src=""img/set1/S4.jpg"" width=""540"" height = ""360"">","null","","","","","","","","","",""
"null","","html-keyboard-response","54","15832","0.0-54.0","","","","","","null","","","","","","","","","",""
"null","","image-keyboard-response","55","16956","0.0-55.0","","","","","img/set1/S2.jpg","null","2","structured_normal","68","structured_normal,random,structured_load,structured_incentive","3,4,2,1,2,3","2,4,3,1","false","","",""
"null","","html-keyboard-response","56","18221","0.0-56.0","","","","","<img src=""img/set1/S2.jpg"" width=""540"" height = ""360"">","null","","","","","","","","","",""
"null","","html-keyboard-response","57","19006","0.0-57.0","","","","","","null","","","","","","","","","",""
"null","","image-keyboard-response","58","19928","0.0-58.0","","","","","img/set1/S2.jpg","null","2","structured_normal","68","structured_normal,random,structured_load,structured_incentive","3,4,2,1,2,3","2,4,3,1","false","","",""
"null","","html-keyboard-response","59","19943","0.0-59.0","","","","","<img src=""img/set1/S2.jpg"" width=""540"" height = ""360"">","null","","","","","","","","","",""
"null","","html-keyboard-response","60","20143","0.0-60.0","","","","","","null","","","","","","","","","",""
"null","","image-keyboard-response","61","20156","0.0-61.0","","","","","img/set1/S1.jpg","null","1","structured_normal","83","structured_normal,random,structured_load,structured_incentive","3,4,2,1,2,3","2,4,3,1","false","","",""
"null","","html-keyboard-response","62","20167","0.0-62.0","","","","","<img src=""img/set1/S1.jpg"" width=""540"" height = ""360"">","null","","","","","","","","","",""
"null","","html-keyboard-response","63","20370","0.0-63.0","","","","","","null","","","","","","","","","",""
"null","","image-keyboard-response","64","20381","0.0-64.0","","","","","img/set1/S3.jpg","null","3","structured_normal","72","structured_normal,random,structured_load,structured_incentive","3,4,2,1,2,3","2,4,3,1","false","","",""
"null","","html-keyboard-response","65","20394","0.0-65.0","","","","","<img src=""img/set1/S3.jpg"" width=""540"" height = ""360"">","null","","","","","","","","","",""
"null","","html-keyboard-response","66","20595","0.0-66.0","","","","","","null","","","","","","","","","",""
"null","","image-keyboard-response","67","20608","0.0-67.0","","","","","img/set1/S4.jpg","null","4","structured_normal","74","structured_normal,random,structured_load,structured_incentive","3,4,2,1,2,3","2,4,3,1","false","","",""
"null","","html-keyboard-response","68","20622","0.0-68.0","","","","","<img src=""img/set1/S4.jpg"" width=""540"" height = ""360"">","null","","","","","","","","","",""
"null","","html-keyboard-response","69","20826","0.0-69.0","","","","","","null","","","","","","","","","",""
"null","","image-keyboard-response","70","20838","0.0-70.0","","","","","img/set1/S3.jpg","null","3","structured_normal","72","structured_normal,random,structured_load,structured_incentive","3,4,2,1,2,3","2,4,3,1","false","","",""
"null","","html-keyboard-response","71","20850","0.0-71.0","","","","","<img src=""img/set1/S3.jpg"" width=""540"" height = ""360"">","null","","","","","","","","","",""
"null","","html-keyboard-response","72","21052","0.0-72.0","","","","","","null","","","","","","","","","",""
"null","","image-keyboard-response","73","21063","0.0-73.0","","","","","img/set1/S4.jpg","null","4","structured_normal","74","structured_normal,random,structured_load,structured_incentive","3,4,2,1,2,3","2,4,3,1","false","","",""
"null","","html-keyboard-response","74","21077","0.0-74.0","","","","","<img src=""img/set1/S4.jpg"" width=""540"" height = ""360"">","null","","","","","","","","","",""
"null","","html-keyboard-response","75","21278","0.0-75.0","","","","","","null","","","","","","","","","",""
"null","","image-keyboard-response","76","21292","0.0-76.0","","","","","img/set1/S1.jpg","null","1","structured_normal","83","structured_normal,random,structured_load,structured_incentive","3,4,2,1,2,3","2,4,3,1","false","","",""
"null","","html-keyboard-response","77","21305","0.0-77.0","","","","","<img src=""img/set1/S1.jpg"" width=""540"" height = ""360"">","null","","","","","","","","","",""
"null","","html-keyboard-response","78","21506","0.0-78.0","","","","","","null","","","","","","","","","",""
"null","","image-keyboard-response","79","21518","0.0-79.0","","","","","img/set1/S1.jpg","null","1","structured_normal","83","structured_normal,random,structured_load,structured_incentive","3,4,2,1,2,3","2,4,3,1","false","","",""
"null","","html-keyboard-response","80","21529","0.0-80.0","","","","","<img src=""img/set1/S1.jpg"" width=""540"" height = ""360"">","null","","","","","","","","","",""
"null","","html-keyboard-response","81","21732","0.0-81.0","","","","","","null","","","","","","","","","",""
"null","","image-keyboard-response","82","21745","0.0-82.0","","","","","img/set1/S2.jpg","null","2","structured_normal","68","structured_normal,random,structured_load,structured_incentive","3,4,2,1,2,3","2,4,3,1","false","","",""
"null","","html-keyboard-response","83","21758","0.0-83.0","","","","","<img src=""img/set1/S2.jpg"" width=""540"" height = ""360"">","null","","","","","","","","","",""
"null","","html-keyboard-response","84","21961","0.0-84.0","","","","","","null","","","","","","","","","",""
"null","","image-keyboard-response","85","21973","0.0-85.0","","","","","img/set1/S3.jpg","null","3","structured_normal","72","structured_normal,random,structured_load,structured_incentive","3,4,2,1,2,3","2,4,3,1","false","","",""
"null","","html-keyboard-response","86","21986","0.0-86.0","","","","","<img src=""img/set1/S3.jpg"" width=""540"" height = ""360"">","null","","","","","","","","","",""
"null","","html-keyboard-response","87","22189","0.0-87.0","","","","","","null","","","","","","","","","",""
"null","","image-keyboard-response","88","22201","0.0-88.0","","","","","img/set1/S4.jpg","null","4","structured_normal","74","structured_normal,random,structured_load,structured_incentive","3,4,2,1,2,3","2,4,3,1","false","","",""
"null","","html-keyboard-response","89","22213","0.0-89.0","","","","","<img src=""img/set1/S4.jpg"" width=""540"" height = ""360"">","null","","","","","","","","","",""
"null","","html-keyboard-response","90","22414","0.0-90.0","","","","","","null","","","","","","","","","",""
"null","","image-keyboard-response","91","22426","0.0-91.0","","","","","img/set1/S2.jpg","null","2","structured_normal","68","structured_normal,random,structured_load,structured_incentive","3,4,2,1,2,3","2,4,3,1","false","","",""
"null","","html-keyboard-response","92","22439","0.0-92.0","","","","","<img src=""img/set1/S2.jpg"" width=""540"" height = ""360"">","null","","","","","","","","","",""
"null","","html-keyboard-response","93","22642","0.0-93.0","","","","","","null","","","","","","","","","",""
"null","","image-keyboard-response","94","22655","0.0-94.0","","","","","img/set1/S1.jpg","null","1","structured_normal","83","structured_normal,random,structured_load,structured_incentive","3,4,2,1,2,3","2,4,3,1","false","","",""
"null","","html-keyboard-response","95","22668","0.0-95.0","","","","","<img src=""img/set1/S1.jpg"" width=""540"" height = ""360"">","null","","","","","","","","","",""
"null","","html-keyboard-response","96","22870","0.0-96.0","","","","","","null","","","","","","","","","",""
"null","","image-keyboard-response","97","22881","0.0-97.0","","","","","img/set1/S2.jpg","null","2","structured_normal","68","structured_normal,random,structured_load,structured_incentive","3,4,2,1,2,3","2,4,3,1","false","","",""
"null","","html-keyboard-response","98","22894","0.0-98.0","","","","","<img src=""img/set1/S2.jpg"" width=""540"" height = ""360"">","null","","","","","","","","","",""
"null","","html-keyboard-response","99","23095","0.0-99.0","","","","","","null","","","","","","","","","",""
"null","","image-keyboard-response","100","23108","0.0-100.0","","","","","img/set1/S3.jpg","null","3","structured_normal","72","structured_normal,random,structured_load,structured_incentive","3,4,2,1,2,3","2,4,3,1","false","","",""
"null","","html-keyboard-response","101","23121","0.0-101.0","","","","","<img src=""img/set1/S3.jpg"" width=""540"" height = ""360"">","null","","","","","","","","","",""
"null","","html-keyboard-response","102","23322","0.0-102.0","","","","","","null","","","","","","","","","",""
"null","","image-keyboard-response","103","23334","0.0-103.0","","","","","img/set1/S4.jpg","null","4","structured_normal","74","structured_normal,random,structured_load,structured_incentive","3,4,2,1,2,3","2,4,3,1","false","","",""
"null","","html-keyboard-response","104","23345","0.0-104.0","","","","","<img src=""img/set1/S4.jpg"" width=""540"" height = ""360"">","null","","","","","","","","","",""
"null","","html-keyboard-response","105","23546","0.0-105.0","","","","","","null","","","","","","","","","",""
"null","","image-keyboard-response","106","23560","0.0-106.0","","","","","img/set1/S3.jpg","null","3","structured_normal","72","structured_normal,random,structured_load,structured_incentive","3,4,2,1,2,3","2,4,3,1","false","","",""
"null","","html-keyboard-response","107","23574","0.0-107.0","","","","","<img src=""img/set1/S3.jpg"" width=""540"" height = ""360"">","null","","","","","","","","","",""
"null","","html-keyboard-response","108","23777","0.0-108.0","","","","","","null","","","","","","","","","",""
"null","","image-keyboard-response","109","23790","0.0-109.0","","","","","img/set1/S4.jpg","null","4","structured_normal","74","structured_normal,random,structured_load,structured_incentive","3,4,2,1,2,3","2,4,3,1","false","","",""
"null","","html-keyboard-response","110","23803","0.0-110.0","","","","","<img src=""img/set1/S4.jpg"" width=""540"" height = ""360"">","null","","","","","","","","","",""
"null","","html-keyboard-response","111","24005","0.0-111.0","","","","","","null","","","","","","","","","",""
"null","","image-keyboard-response","112","24016","0.0-112.0","","","","","img/set1/S2.jpg","null","2","structured_normal","68","structured_normal,random,structured_load,structured_incentive","3,4,2,1,2,3","2,4,3,1","false","","",""
"null","","html-keyboard-response","113","24028","0.0-113.0","","","","","<img src=""img/set1/S2.jpg"" width=""540"" height = ""360"">","null","","","","","","","","","",""
"null","","html-keyboard-response","114","24230","0.0-114.0","","","","","","null","","","","","","","","","",""
"null","","image-keyboard-response","115","24244","0.0-115.0","","","","","img/set1/S1.jpg","null","1","structured_normal","83","structured_normal,random,structured_load,structured_incentive","3,4,2,1,2,3","2,4,3,1","false","","",""
"null","","html-keyboard-response","116","24257","0.0-116.0","","","","","<img src=""img/set1/S1.jpg"" width=""540"" height = ""360"">","null","","","","","","","","","",""
"null","","html-keyboard-response","117","24461","0.0-117.0","","","","","","null","","","","","","","","","",""
"null","","image-keyboard-response","118","24473","0.0-118.0","","","","","img/set1/S3.jpg","null","3","structured_normal","72","structured_normal,random,structured_load,structured_incentive","3,4,2,1,2,3","2,4,3,1","false","","",""
"null","","html-keyboard-response","119","24486","0.0-119.0","","","","","<img src=""img/set1/S3.jpg"" width=""540"" height = ""360"">","null","","","","","","","","","",""
"null","","html-keyboard-response","120","24689","0.0-120.0","","","","","","null","","","","","","","","","",""
"null","","image-keyboard-response","121","24701","0.0-121.0","","","","","img/set1/S4.jpg","null","4","structured_normal","74","structured_normal,random,structured_load,structured_incentive","3,4,2,1,2,3","2,4,3,1","false","","",""
"null","","html-keyboard-response","122","24712","0.0-122.0","","","","","<img src=""img/set1/S4.jpg"" width=""540"" height = ""360"">","null","","","","","","","","","",""
"null","","html-keyboard-response","123","24913","0.0-123.0","","","","","","null","","","","","","","","","",""
"null","","image-keyboard-response","124","24927","0.0-124.0","","","","","img/set1/S1.jpg","null","1","structured_normal","83","structured_normal,random,structured_load,structured_incentive","3,4,2,1,2,3","2,4,3,1","false","","",""
"null","","html-keyboard-response","125","24940","0.0-125.0","","","","","<img src=""img/set1/S1.jpg"" width=""540"" height = ""360"">","null","","","","","","","","","",""
"null","","html-keyboard-response","126","25144","0.0-126.0","","","","","","null","","","","","","","","","",""
"null","","image-keyboard-response","127","25157","0.0-127.0","","","","","img/set1/S3.jpg","null","3","structured_normal","72","structured_normal,random,structured_load,structured_incentive","3,4,2,1,2,3","2,4,3,1","false","","",""
"null","","html-keyboard-response","128","25169","0.0-128.0","","","","","<img src=""img/set1/S3.jpg"" width=""540"" height = ""360"">","null","","","","","","","","","",""
"null","","html-keyboard-response","129","25370","0.0-129.0","","","","","","null","","","","","","","","","",""
"null","","image-keyboard-response","130","25381","0.0-130.0","","","","","img/set1/S4.jpg","null","4","structured_normal","74","structured_normal,random,structured_load,structured_incentive","3,4,2,1,2,3","2,4,3,1","false","","",""
"null","","html-keyboard-response","131","25394","0.0-131.0","","","","","<img src=""img/set1/S4.jpg"" width=""540"" height = ""360"">","null","","","","","","","","","",""
"null","","html-keyboard-response","132","25595","0.0-132.0","","","","","","null","","","","","","","","","",""
"null","","image-keyboard-response","133","25606","0.0-133.0","","","","","img/set1/S1.jpg","null","1","structured_normal","83","structured_normal,random,structured_load,structured_incentive","3,4,2,1,2,3","2,4,3,1","false","","",""
"null","","html-keyboard-response","134","25618","0.0-134.0","","","","","<img src=""img/set1/S1.jpg"" width=""540"" height = ""360"">","null","","","","","","","","","",""
"null","","html-keyboard-response","135","25821","0.0-135.0","","","","","","null","","","","","","","","","",""
"null","","image-keyboard-response","136","25833","0.0-136.0","","","","","img/set1/S2.jpg","null","2","structured_normal","68","structured_normal,random,structured_load,structured_incentive","3,4,2,1,2,3","2,4,3,1","false","","",""
"null","","html-keyboard-response","137","25844","0.0-137.0","","","","","<img src=""img/set1/S2.jpg"" width=""540"" height = ""360"">","null","","","","","","","","","",""
"null","","html-keyboard-response","138","26045","0.0-138.0","","","","","","null","","","","","","","","","",""
"null","","image-keyboard-response","139","26058","0.0-139.0","","","","","img/set1/S2.jpg","null","2","structured_normal","68","structured_normal,random,structured_load,structured_incentive","3,4,2,1,2,3","2,4,3,1","false","","",""
"null","","html-keyboard-response","140","26071","0.0-140.0","","","","","<img src=""img/set1/S2.jpg"" width=""540"" height = ""360"">","null","","","","","","","","","",""
"null","","html-keyboard-response","141","26274","0.0-141.0","","","","","","null","","","","","","","","","",""
"null","","image-keyboard-response","142","26286","0.0-142.0","","","","","img/set1/S3.jpg","null","3","structured_normal","72","structured_normal,random,structured_load,structured_incentive","3,4,2,1,2,3","2,4,3,1","false","","",""
"null","","html-keyboard-response","143","26298","0.0-143.0","","","","","<img src=""img/set1/S3.jpg"" width=""540"" height = ""360"">","null","","","","","","","","","",""
"null","","html-keyboard-response","144","26500","0.0-144.0","","","","","","null","","","","","","","","","",""
"null","","image-keyboard-response","145","26513","0.0-145.0","","","","","img/set1/S4.jpg","null","4","structured_normal","74","structured_normal,random,structured_load,structured_incentive","3,4,2,1,2,3","2,4,3,1","false","","",""
"null","","html-keyboard-response","146","26525","0.0-146.0","","","","","<img src=""img/set1/S4.jpg"" width=""540"" height = ""360"">","null","","","","","","","","","",""
"null","","html-keyboard-response","147","26728","0.0-147.0","","","","","","null","","","","","","","","","",""
"null","","image-keyboard-response","148","26740","0.0-148.0","","","","","img/set1/S1.jpg","null","1","structured_normal","83","structured_normal,random,structured_load,structured_incentive","3,4,2,1,2,3","2,4,3,1","false","","",""
"null","","html-keyboard-response","149","26753","0.0-149.0","","","","","<img src=""img/set1/S1.jpg"" width=""540"" height = ""360"">","null","","","","","","","","","",""
"null","","html-keyboard-response","150","26956","0.0-150.0","","","","","","null","","","","","","","","","",""
"null","","image-keyboard-response","151","26968","0.0-151.0","","","","","img/set1/S1.jpg","null","1","structured_normal","83","structured_normal,random,structured_load,structured_incentive","3,4,2,1,2,3","2,4,3,1","false","","",""
"null","","html-keyboard-response","152","26979","0.0-152.0","","","","","<img src=""img/set1/S1.jpg"" width=""540"" height = ""360"">","null","","","","","","","","","",""
"null","","html-keyboard-response","153","27180","0.0-153.0","","","","","","null","","","","","","","","","",""
"null","","image-keyboard-response","154","27195","0.0-154.0","","","","","img/set1/S2.jpg","null","2","structured_normal","68","structured_normal,random,structured_load,structured_incentive","3,4,2,1,2,3","2,4,3,1","false","","",""
"null","","html-keyboard-response","155","27209","0.0-155.0","","","","","<img src=""img/set1/S2.jpg"" width=""540"" height = ""360"">","null","","","","","","","","","",""
"null","","html-keyboard-response","156","27410","0.0-156.0","","","","","","null","","","","","","","","","",""
"null","","image-keyboard-response","157","27422","0.0-157.0","","","","","img/set1/S3.jpg","null","3","structured_normal","72","structured_normal,random,structured_load,structured_incentive","3,4,2,1,2,3","2,4,3,1","false","","",""
"null","","html-keyboard-response","158","27433","0.0-158.0","","","","","<img src=""img/set1/S3.jpg"" width=""540"" height = ""360"">","null","","","","","","","","","",""
"null","","html-keyboard-response","159","27635","0.0-159.0","","","","","","null","","","","","","","","","",""
"null","","image-keyboard-response","160","27647","0.0-160.0","","","","","img/set1/S4.jpg","null","4","structured_normal","74","structured_normal,random,structured_load,structured_incentive","3,4,2,1,2,3","2,4,3,1","false","","",""
"null","","html-keyboard-response","161","27660","0.0-161.0","","","","","<img src=""img/set1/S4.jpg"" width=""540"" height = ""360"">","null","","","","","","","","","",""
"null","","html-keyboard-response","162","27861","0.0-162.0","","","","","","null","","","","","","","","","",""
"null","","image-keyboard-response","163","27874","0.0-163.0","","","","","img/set1/S3.jpg","null","3","structured_normal","72","structured_normal,random,structured_load,structured_incentive","3,4,2,1,2,3","2,4,3,1","false","","",""
"null","","html-keyboard-response","164","27886","0.0-164.0","","","","","<img src=""img/set1/S3.jpg"" width=""540"" height = ""360"">","null","","","","","","","","","",""
"null","","html-keyboard-response","165","28089","0.0-165.0","","","","","","null","","","","","","","","","",""
"null","","image-keyboard-response","166","28100","0.0-166.0","","","","","img/set1/S4.jpg","null","4","structured_normal","74","structured_normal,random,structured_load,structured_incentive","3,4,2,1,2,3","2,4,3,1","false","","",""
"null","","html-keyboard-response","167","28112","0.0-167.0","","","","","<img src=""img/set1/S4.jpg"" width=""540"" height = ""360"">","null","","","","","","","","","",""
"null","","html-keyboard-response","168","28313","0.0-168.0","","","","","","null","","","","","","","","","",""
"null","","image-keyboard-response","169","28326","0.0-169.0","","","","","img/set1/S1.jpg","null","1","structured_normal","83","structured_normal,random,structured_load,structured_incentive","3,4,2,1,2,3","2,4,3,1","false","","",""
"null","","html-keyboard-response","170","28340","0.0-170.0","","","","","<img src=""img/set1/S1.jpg"" width=""540"" height = ""360"">","null","","","","","","","","","",""
"null","","html-keyboard-response","171","28544","0.0-171.0","","","","","","null","","","","","","","","","",""
"null","","image-keyboard-response","172","28555","0.0-172.0","","","","","img/set1/S2.jpg","null","2","structured_normal","68","structured_normal,random,structured_load,structured_incentive","3,4,2,1,2,3","2,4,3,1","false","","",""
"null","","html-keyboard-response","173","28568","0.0-173.0","","","","","<img src=""img/set1/S2.jpg"" width=""540"" height = ""360"">","null","","","","","","","","","",""
"null","","html-keyboard-response","174","28771","0.0-174.0","","","","","","null","","","","","","","","","",""
"null","","image-keyboard-response","175","28783","0.0-175.0","","","","","img/set1/S3.jpg","null","3","structured_normal","72","structured_normal,random,structured_load,structured_incentive","3,4,2,1,2,3","2,4,3,1","false","","",""
"null","","html-keyboard-response","176","28794","0.0-176.0","","","","","<img src=""img/set1/S3.jpg"" width=""540"" height = ""360"">","null","","","","","","","","","",""
"null","","html-keyboard-response","177","28995","0.0-177.0","","","","","","null","","","","","","","","","",""
"null","","image-keyboard-response","178","29007","0.0-178.0","","","","","img/set1/S4.jpg","null","4","structured_normal","74","structured_normal,random,structured_load,structured_incentive","3,4,2,1,2,3","2,4,3,1","false","","",""
"null","","html-keyboard-response","179","29021","0.0-179.0","","","","","<img src=""img/set1/S4.jpg"" width=""540"" height = ""360"">","null","","","","","","","","","",""
"null","","html-keyboard-response","180","29222","0.0-180.0","","","","","","null","","","","","","","","","",""
"null","","image-keyboard-response","181","29234","0.0-181.0","","","","","img/set1/S1.jpg","null","1","structured_normal","83","structured_normal,random,structured_load,structured_incentive","3,4,2,1,2,3","2,4,3,1","false","","",""
"null","","html-keyboard-response","182","29245","0.0-182.0","","","","","<img src=""img/set1/S1.jpg"" width=""540"" height = ""360"">","null","","","","","","","","","",""
"null","","html-keyboard-response","183","29446","0.0-183.0","","","","","","null","","","","","","","","","",""
"null","","image-keyboard-response","184","29460","0.0-184.0","","","","","img/set1/S1.jpg","null","1","structured_normal","83","structured_normal,random,structured_load,structured_incentive","3,4,2,1,2,3","2,4,3,1","false","","",""
"null","","html-keyboard-response","185","29473","0.0-185.0","","","","","<img src=""img/set1/S1.jpg"" width=""540"" height = ""360"">","null","","","","","","","","","",""
"null","","html-keyboard-response","186","29676","0.0-186.0","","","","","","null","","","","","","","","","",""
"null","","image-keyboard-response","187","29689","0.0-187.0","","","","","img/set1/S1.jpg","null","1","structured_normal","83","structured_normal,random,structured_load,structured_incentive","3,4,2,1,2,3","2,4,3,1","false","","",""
"null","","html-keyboard-response","188","29702","0.0-188.0","","","","","<img src=""img/set1/S1.jpg"" width=""540"" height = ""360"">","null","","","","","","","","","",""
"null","","html-keyboard-response","189","29904","0.0-189.0","","","","","","null","","","","","","","","","",""
"null","","image-keyboard-response","190","29916","0.0-190.0","","","","","img/set1/S1.jpg","null","1","structured_normal","83","structured_normal,random,structured_load,structured_incentive","3,4,2,1,2,3","2,4,3,1","false","","",""
"null","","html-keyboard-response","191","29927","0.0-191.0","","","","","<img src=""img/set1/S1.jpg"" width=""540"" height = ""360"">","null","","","","","","","","","",""
"null","","html-keyboard-response","192","30129","0.0-192.0","","","","","","null","","","","","","","","","",""
"null","","image-keyboard-response","193","30140","0.0-193.0","","","","","img/set1/S3.jpg","null","3","structured_normal","72","structured_normal,random,structured_load,structured_incentive","3,4,2,1,2,3","2,4,3,1","false","","",""
"null","","html-keyboard-response","194","30153","0.0-194.0","","","","","<img src=""img/set1/S3.jpg"" width=""540"" height = ""360"">","null","","","","","","","","","",""
"null","","html-keyboard-response","195","30354","0.0-195.0","","","","","","null","","","","","","","","","",""
"null","","image-keyboard-response","196","30366","0.0-196.0","","","","","img/set1/S4.jpg","null","4","structured_normal","74","structured_normal,random,structured_load,structured_incentive","3,4,2,1,2,3","2,4,3,1","false","","",""
"null","","html-keyboard-response","197","30377","0.0-197.0","","","","","<img src=""img/set1/S4.jpg"" width=""540"" height = ""360"">","null","","","","","","","","","",""
"null","","html-keyboard-response","198","30578","0.0-198.0","","","","","","null","","","","","","","","","",""
"null","","image-keyboard-response","199","30591","0.0-199.0","","","","","img/set1/S3.jpg","null","3","structured_normal","72","structured_normal,random,structured_load,structured_incentive","3,4,2,1,2,3","2,4,3,1","false","","",""
"null","","html-keyboard-response","200","30604","0.0-200.0","","","","","<img src=""img/set1/S3.jpg"" width=""540"" height = ""360"">","null","","","","","","","","","",""
"null","","html-keyboard-response","201","30808","0.0-201.0","","","","","","null","","","","","","","","","",""
"null","","image-keyboard-response","202","30819","0.0-202.0","","","","","img/set1/S4.jpg","null","4","structured_normal","74","structured_normal,random,structured_load,structured_incentive","3,4,2,1,2,3","2,4,3,1","false","","",""
"null","","html-keyboard-response","203","30831","0.0-203.0","","","","","<img src=""img/set1/S4.jpg"" width=""540"" height = ""360"">","null","","","","","","","","","",""
"null","","html-keyboard-response","204","31033","0.0-204.0","","","","","","null","","","","","","","","","",""
"null","","image-keyboard-response","205","31045","0.0-205.0","","","","","img/set1/S1.jpg","null","1","structured_normal","83","structured_normal,random,structured_load,structured_incentive","3,4,2,1,2,3","2,4,3,1","false","","",""
"null","","html-keyboard-response","206","31058","0.0-206.0","","","","","<img src=""img/set1/S1.jpg"" width=""540"" height = ""360"">","null","","","","","","","","","",""
"null","","html-keyboard-response","207","31260","0.0-207.0","","","","","","null","","","","","","","","","",""
"null","","image-keyboard-response","208","31274","0.0-208.0","","","","","img/set1/S1.jpg","null","1","structured_normal","83","structured_normal,random,structured_load,structured_incentive","3,4,2,1,2,3","2,4,3,1","false","","",""
"null","","html-keyboard-response","209","31287","0.0-209.0","","","","","<img src=""img/set1/S1.jpg"" width=""540"" height = ""360"">","null","","","","","","","","","",""
"null","","html-keyboard-response","210","31488","0.0-210.0","","","","","","null","","","","","","","","","",""
"null","","image-keyboard-response","211","31501","0.0-211.0","","","","","img/set1/S3.jpg","null","3","structured_normal","72","structured_normal,random,structured_load,structured_incentive","3,4,2,1,2,3","2,4,3,1","false","","",""
"null","","html-keyboard-response","212","31512","0.0-212.0","","","","","<img src=""img/set1/S3.jpg"" width=""540"" height = ""360"">","null","","","","","","","","","",""
"null","","html-keyboard-response","213","31713","0.0-213.0","","","","","","null","","","","","","","","","",""
"null","","image-keyboard-response","214","31727","0.0-214.0","","","","","img/set1/S4.jpg","null","4","structured_normal","74","structured_normal,random,structured_load,structured_incentive","3,4,2,1,2,3","2,4,3,1","false","","",""
"null","","html-keyboard-response","215","31738","0.0-215.0","","","","","<img src=""img/set1/S4.jpg"" width=""540"" height = ""360"">","null","","","","","","","","","",""
"null","","html-keyboard-response","216","31942","0.0-216.0","","","","","","null","","","","","","","","","",""
"null","","image-keyboard-response","217","31955","0.0-217.0","","","","","img/set1/S3.jpg","null","3","structured_normal","72","structured_normal,random,structured_load,structured_incentive","3,4,2,1,2,3","2,4,3,1","false","","",""
"null","","html-keyboard-response","218","31966","0.0-218.0","","","","","<img src=""img/set1/S3.jpg"" width=""540"" height = ""360"">","null","","","","","","","","","",""
"null","","html-keyboard-response","219","32168","0.0-219.0","","","","","","null","","","","","","","","","",""
"null","","image-keyboard-response","220","32180","0.0-220.0","","","","","img/set1/S4.jpg","null","4","structured_normal","74","structured_normal,random,structured_load,structured_incentive","3,4,2,1,2,3","2,4,3,1","false","","",""
"null","","html-keyboard-response","221","32194","0.0-221.0","","","","","<img src=""img/set1/S4.jpg"" width=""540"" height = ""360"">","null","","","","","","","","","",""
"null","","html-keyboard-response","222","32395","0.0-222.0","","","","","","null","","","","","","","","","",""
"null","","image-keyboard-response","223","32406","0.0-223.0","","","","","img/set1/S2.jpg","null","2","structured_normal","68","structured_normal,random,structured_load,structured_incentive","3,4,2,1,2,3","2,4,3,1","false","","",""
"null","","html-keyboard-response","224","32419","0.0-224.0","","","","","<img src=""img/set1/S2.jpg"" width=""540"" height = ""360"">","null","","","","","","","","","",""
"null","","html-keyboard-response","225","32622","0.0-225.0","","","","","","null","","","","","","","","","",""
"null","","image-keyboard-response","226","32634","0.0-226.0","","","","","img/set1/S2.jpg","null","2","structured_normal","68","structured_normal,random,structured_load,structured_incentive","3,4,2,1,2,3","2,4,3,1","false","","",""
"null","","html-keyboard-response","227","32645","0.0-227.0","","","","","<img src=""img/set1/S2.jpg"" width=""540"" height = ""360"">","null","","","","","","","","","",""
"null","","html-keyboard-response","228","32846","0.0-228.0","","","","","","null","","","","","","","","","",""
"null","","image-keyboard-response","229","32860","0.0-229.0","","","","","img/set1/S1.jpg","null","1","structured_normal","83","structured_normal,random,structured_load,structured_incentive","3,4,2,1,2,3","2,4,3,1","false","","",""
"null","","html-keyboard-response","230","32873","0.0-230.0","","","","","<img src=""img/set1/S1.jpg"" width=""540"" height = ""360"">","null","","","","","","","","","",""
"null","","html-keyboard-response","231","33077","0.0-231.0","","","","","","null","","","","","","","","","",""
"null","","image-keyboard-response","232","33090","0.0-232.0","","","","","img/set1/S2.jpg","null","2","structured_normal","68","structured_normal,random,structured_load,structured_incentive","3,4,2,1,2,3","2,4,3,1","false","","",""
"null","","html-keyboard-response","233","33102","0.0-233.0","","","","","<img src=""img/set1/S2.jpg"" width=""540"" height = ""360"">","null","","","","","","","","","",""
"null","","html-keyboard-response","234","33305","0.0-234.0","","","","","","null","","","","","","","","","",""
"null","","image-keyboard-response","235","33317","0.0-235.0","","","","","img/set1/S1.jpg","null","1","structured_normal","83","structured_normal,random,structured_load,structured_incentive","3,4,2,1,2,3","2,4,3,1","false","","",""
"null","","html-keyboard-response","236","33328","0.0-236.0","","","","","<img src=""img/set1/S1.jpg"" width=""540"" height = ""360"">","null","","","","","","","","","",""
"null","","html-keyboard-response","237","33529","0.0-237.0","","","","","","null","","","","","","","","","",""
"null","","image-keyboard-response","238","33543","0.0-238.0","","","","","img/set1/S3.jpg","null","3","structured_normal","72","structured_normal,random,structured_load,structured_incentive","3,4,2,1,2,3","2,4,3,1","false","","",""
"null","","html-keyboard-response","239","33555","0.0-239.0","","","","","<img src=""img/set1/S3.jpg"" width=""540"" height = ""360"">","null","","","","","","","","","",""
"null","","html-keyboard-response","240","33758","0.0-240.0","","","","","","null","","","","","","","","","",""
"null","","image-keyboard-response","241","33769","0.0-241.0","","","","","img/set1/S4.jpg","null","4","structured_normal","74","structured_normal,random,structured_load,structured_incentive","3,4,2,1,2,3","2,4,3,1","false","","",""
"null","","html-keyboard-response","242","33780","0.0-242.0","","","","","<img src=""img/set1/S4.jpg"" width=""540"" height = ""360"">","null","","","","","","","","","",""
"null","","html-keyboard-response","243","33981","0.0-243.0","","","","","","null","","","","","","","","","",""
"null","","image-keyboard-response","244","33994","0.0-244.0","","","","","img/set1/S1.jpg","null","1","structured_normal","83","structured_normal,random,structured_load,structured_incentive","3,4,2,1,2,3","2,4,3,1","false","","",""
"null","","html-keyboard-response","245","34005","0.0-245.0","","","","","<img src=""img/set1/S1.jpg"" width=""540"" height = ""360"">","null","","","","","","","","","",""
"null","","html-keyboard-response","246","34209","0.0-246.0","","","","","","null","","","","","","","","","",""
"null","","image-keyboard-response","247","34222","0.0-247.0","","","","","img/set1/S2.jpg","null","2","structured_normal","68","structured_normal,random,structured_load,structured_incentive","3,4,2,1,2,3","2,4,3,1","false","","",""
"null","","html-keyboard-response","248","34233","0.0-248.0","","","","","<img src=""img/set1/S2.jpg"" width=""540"" height = ""360"">","null","","","","","","","","","",""
"null","","html-keyboard-response","249","34435","0.0-249.0","","","","","","null","","","","","","","","","",""
"null","","image-keyboard-response","250","34447","0.0-250.0","","","","","img/set1/S2.jpg","null","2","structured_normal","68","structured_normal,random,structured_load,structured_incentive","3,4,2,1,2,3","2,4,3,1","false","","",""
"null","","html-keyboard-response","251","34461","0.0-251.0","","","","","<img src=""img/set1/S2.jpg"" width=""540"" height = ""360"">","null","","","","","","","","","",""
"null","","html-keyboard-response","252","34662","0.0-252.0","","","","","","null","","","","","","","","","",""
"null","","image-keyboard-response","253","34676","0.0-253.0","","","","","img/set1/S2.jpg","null","2","structured_normal","68","structured_normal,random,structured_load,structured_incentive","3,4,2,1,2,3","2,4,3,1","false","","",""
"null","","html-keyboard-response","254","34690","0.0-254.0","","","","","<img src=""img/set1/S2.jpg"" width=""540"" height = ""360"">","null","","","","","","","","","",""
"null","","html-keyboard-response","255","34892","0.0-255.0","","","","","","null","","","","","","","","","",""
"null","","image-keyboard-response","256","34904","0.0-256.0","","","","","img/set1/S3.jpg","null","3","structured_normal","72","structured_normal,random,structured_load,structured_incentive","3,4,2,1,2,3","2,4,3,1","false","","",""
"null","","html-keyboard-response","257","34917","0.0-257.0","","","","","<img src=""img/set1/S3.jpg"" width=""540"" height = ""360"">","null","","","","","","","","","",""
"null","","html-keyboard-response","258","35119","0.0-258.0","","","","","","null","","","","","","","","","",""
"null","","image-keyboard-response","259","35130","0.0-259.0","","","","","img/set1/S4.jpg","null","4","structured_normal","74","structured_normal,random,structured_load,structured_incentive","3,4,2,1,2,3","2,4,3,1","false","","",""
"null","","html-keyboard-response","260","35144","0.0-260.0","","","","","<img src=""img/set1/S4.jpg"" width=""540"" height = ""360"">","null","","","","","","","","","",""
"null","","html-keyboard-response","261","35345","0.0-261.0","","","","","","null","","","","","","","","","",""
"null","","image-keyboard-response","262","35357","0.0-262.0","","","","","img/set1/S1.jpg","null","1","structured_normal","83","structured_normal,random,structured_load,structured_incentive","3,4,2,1,2,3","2,4,3,1","false","","",""
"null","","html-keyboard-response","263","35370","0.0-263.0","","","","","<img src=""img/set1/S1.jpg"" width=""540"" height = ""360"">","null","","","","","","","","","",""
"null","","html-keyboard-response","264","35574","0.0-264.0","","","","","","null","","","","","","","","","",""
"null","","image-keyboard-response","265","35585","0.0-265.0","","","","","img/set1/S2.jpg","null","2","structured_normal","68","structured_normal,random,structured_load,structured_incentive","3,4,2,1,2,3","2,4,3,1","false","","",""
"null","","html-keyboard-response","266","35597","0.0-266.0","","","","","<img src=""img/set1/S2.jpg"" width=""540"" height = ""360"">","null","","","","","","","","","",""
"null","","html-keyboard-response","267","35798","0.0-267.0","","","","","","null","","","","","","","","","",""
"null","","image-keyboard-response","268","35810","0.0-268.0","","","","","img/set1/S2.jpg","null","2","structured_normal","68","structured_normal,random,structured_load,structured_incentive","3,4,2,1,2,3","2,4,3,1","false","","",""
"null","","html-keyboard-response","269","35822","0.0-269.0","","","","","<img src=""img/set1/S2.jpg"" width=""540"" height = ""360"">","null","","","","","","","","","",""
"null","","html-keyboard-response","270","36025","0.0-270.0","","","","","","null","","","","","","","","","",""
"null","","image-keyboard-response","271","36037","0.0-271.0","","","","","img/set1/S1.jpg","null","1","structured_normal","83","structured_normal,random,structured_load,structured_incentive","3,4,2,1,2,3","2,4,3,1","false","","",""
"null","","html-keyboard-response","272","36050","0.0-272.0","","","","","<img src=""img/set1/S1.jpg"" width=""540"" height = ""360"">","null","","","","","","","","","",""
"null","","html-keyboard-response","273","36252","0.0-273.0","","","","","","null","","","","","","","","","",""
"null","","image-keyboard-response","274","36264","0.0-274.0","","","","","img/set1/S1.jpg","null","1","structured_normal","83","structured_normal,random,structured_load,structured_incentive","3,4,2,1,2,3","2,4,3,1","false","","",""
"null","","html-keyboard-response","275","36277","0.0-275.0","","","","","<img src=""img/set1/S1.jpg"" width=""540"" height = ""360"">","null","","","","","","","","","",""
"null","","html-keyboard-response","276","36479","0.0-276.0","","","","","","null","","","","","","","","","",""
"null","","image-keyboard-response","277","36492","0.0-277.0","","","","","img/set1/S3.jpg","null","3","structured_normal","72","structured_normal,random,structured_load,structured_incentive","3,4,2,1,2,3","2,4,3,1","false","","",""
"null","","html-keyboard-response","278","36504","0.0-278.0","","","","","<img src=""img/set1/S3.jpg"" width=""540"" height = ""360"">","null","","","","","","","","","",""
"null","","html-keyboard-response","279","36706","0.0-279.0","","","","","","null","","","","","","","","","",""
"null","","image-keyboard-response","280","36718","0.0-280.0","","","","","img/set1/S4.jpg","null","4","structured_normal","74","structured_normal,random,structured_load,structured_incentive","3,4,2,1,2,3","2,4,3,1","false","","",""
"null","","html-keyboard-response","281","36730","0.0-281.0","","","","","<img src=""img/set1/S4.jpg"" width=""540"" height = ""360"">","null","","","","","","","","","",""
"null","","html-keyboard-response","282","36931","0.0-282.0","","","","","","null","","","","","","","","","",""
"null","","image-keyboard-response","283","36944","0.0-283.0","","","","","img/set1/S3.jpg","null","3","structured_normal","72","structured_normal,random,structured_load,structured_incentive","3,4,2,1,2,3","2,4,3,1","false","","",""
"null","","html-keyboard-response","284","36955","0.0-284.0","","","","","<img src=""img/set1/S3.jpg"" width=""540"" height = ""360"">","null","","","","","","","","","",""
"null","","html-keyboard-response","285","37158","0.0-285.0","","","","","","null","","","","","","","","","",""
"null","","image-keyboard-response","286","37171","0.0-286.0","","","","","img/set1/S4.jpg","null","4","structured_normal","74","structured_normal,random,structured_load,structured_incentive","3,4,2,1,2,3","2,4,3,1","false","","",""
"null","","html-keyboard-response","287","37182","0.0-287.0","","","","","<img src=""img/set1/S4.jpg"" width=""540"" height = ""360"">","null","","","","","","","","","",""
"null","","html-keyboard-response","288","37384","0.0-288.0","","","","","","null","","","","","","","","","",""
"null","","image-keyboard-response","289","37396","0.0-289.0","","","","","img/set1/S1.jpg","null","1","structured_normal","83","structured_normal,random,structured_load,structured_incentive","3,4,2,1,2,3","2,4,3,1","false","","",""
"null","","html-keyboard-response","290","37408","0.0-290.0","","","","","<img src=""img/set1/S1.jpg"" width=""540"" height = ""360"">","null","","","","","","","","","",""
"null","","html-keyboard-response","291","37611","0.0-291.0","","","","","","null","","","","","","","","","",""
"null","","image-keyboard-response","292","37623","0.0-292.0","","","","","img/set1/S2.jpg","null","2","structured_normal","68","structured_normal,random,structured_load,structured_incentive","3,4,2,1,2,3","2,4,3,1","false","","",""
"null","","html-keyboard-response","293","37636","0.0-293.0","","","","","<img src=""img/set1/S2.jpg"" width=""540"" height = ""360"">","null","","","","","","","","","",""
"null","","html-keyboard-response","294","37837","0.0-294.0","","","","","","null","","","","","","","","","",""
"null","","image-keyboard-response","295","37848","0.0-295.0","","","","","img/set1/S3.jpg","null","3","structured_normal","72","structured_normal,random,structured_load,structured_incentive","3,4,2,1,2,3","2,4,3,1","false","","",""
"null","","html-keyboard-response","296","37860","0.0-296.0","","","","","<img src=""img/set1/S3.jpg"" width=""540"" height = ""360"">","null","","","","","","","","","",""
"null","","html-keyboard-response","297","38061","0.0-297.0","","","","","","null","","","","","","","","","",""
"null","","image-keyboard-response","298","38075","0.0-298.0","","","","","img/set1/S4.jpg","null","4","structured_normal","74","structured_normal,random,structured_load,structured_incentive","3,4,2,1,2,3","2,4,3,1","false","","",""
"null","","html-keyboard-response","299","38088","0.0-299.0","","","","","<img src=""img/set1/S4.jpg"" width=""540"" height = ""360"">","null","","","","","","","","","",""
"null","","html-keyboard-response","300","38289","0.0-300.0","","","","","","null","","","","","","","","","",""
"null","","image-keyboard-response","301","38300","0.0-301.0","","","","","img/set1/S3.jpg","null","3","structured_normal","72","structured_normal,random,structured_load,structured_incentive","3,4,2,1,2,3","2,4,3,1","false","","",""
"null","","html-keyboard-response","302","38312","0.0-302.0","","","","","<img src=""img/set1/S3.jpg"" width=""540"" height = ""360"">","null","","","","","","","","","",""
"null","","html-keyboard-response","303","38512","0.0-303.0","","","","","","null","","","","","","","","","",""
"null","","image-keyboard-response","304","38526","0.0-304.0","","","","","img/set1/S4.jpg","null","4","structured_normal","74","structured_normal,random,structured_load,structured_incentive","3,4,2,1,2,3","2,4,3,1","false","","",""
"null","","html-keyboard-response","305","38539","0.0-305.0","","","","","<img src=""img/set1/S4.jpg"" width=""540"" height = ""360"">","null","","","","","","","","","",""
"null","","html-keyboard-response","306","38743","0.0-306.0","","","","","","null","","","","","","","","","",""
"null","","image-keyboard-response","307","38757","0.0-307.0","","","","","img/set1/S1.jpg","null","1","structured_normal","83","structured_normal,random,structured_load,structured_incentive","3,4,2,1,2,3","2,4,3,1","false","","",""
"null","","html-keyboard-response","308","38770","0.0-308.0","","","","","<img src=""img/set1/S1.jpg"" width=""540"" height = ""360"">","null","","","","","","","","","",""
"null","","html-keyboard-response","309","38972","0.0-309.0","","","","","","null","","","","","","","","","",""
"null","","image-keyboard-response","310","38983","0.0-310.0","","","","","img/set1/S2.jpg","null","2","structured_normal","68","structured_normal,random,structured_load,structured_incentive","3,4,2,1,2,3","2,4,3,1","false","","",""
"null","","html-keyboard-response","311","38995","0.0-311.0","","","","","<img src=""img/set1/S2.jpg"" width=""540"" height = ""360"">","null","","","","","","","","","",""
"null","","html-keyboard-response","312","39196","0.0-312.0","","","","","","null","","","","","","","","","",""
"null","","image-keyboard-response","313","39208","0.0-313.0","","","","","img/set1/S3.jpg","null","3","structured_normal","72","structured_normal,random,structured_load,structured_incentive","3,4,2,1,2,3","2,4,3,1","false","","",""
"null","","html-keyboard-response","314","39222","0.0-314.0","","","","","<img src=""img/set1/S3.jpg"" width=""540"" height = ""360"">","null","","","","","","","","","",""
"null","","html-keyboard-response","315","39424","0.0-315.0","","","","","","null","","","","","","","","","",""
"null","","image-keyboard-response","316","39437","0.0-316.0","","","","","img/set1/S4.jpg","null","4","structured_normal","74","structured_normal,random,structured_load,structured_incentive","3,4,2,1,2,3","2,4,3,1","false","","",""
"null","","html-keyboard-response","317","39450","0.0-317.0","","","","","<img src=""img/set1/S4.jpg"" width=""540"" height = ""360"">","null","","","","","","","","","",""
"null","","html-keyboard-response","318","39652","0.0-318.0","","","","","","null","","","","","","","","","",""
"null","","image-keyboard-response","319","39663","0.0-319.0","","","","","img/set1/S2.jpg","null","2","structured_normal","68","structured_normal,random,structured_load,structured_incentive","3,4,2,1,2,3","2,4,3,1","false","","",""
"null","","html-keyboard-response","320","39677","0.0-320.0","","","","","<img src=""img/set1/S2.jpg"" width=""540"" height = ""360"">","null","","","","","","","","","",""
"null","","html-keyboard-response","321","39878","0.0-321.0","","","","","","null","","","","","","","","","",""
"null","","image-keyboard-response","322","39892","0.0-322.0","","","","","img/set1/S3.jpg","null","3","structured_normal","72","structured_normal,random,structured_load,structured_incentive","3,4,2,1,2,3","2,4,3,1","false","","",""
"null","","html-keyboard-response","323","39906","0.0-323.0","","","","","<img src=""img/set1/S3.jpg"" width=""540"" height = ""360"">","null","","","","","","","","","",""
"null","","html-keyboard-response","324","40109","0.0-324.0","","","","","","null","","","","","","","","","",""
"null","","image-keyboard-response","325","40121","0.0-325.0","","","","","img/set1/S4.jpg","null","4","structured_normal","74","structured_normal,random,structured_load,structured_incentive","3,4,2,1,2,3","2,4,3,1","false","","",""
"null","","html-keyboard-response","326","40133","0.0-326.0","","","","","<img src=""img/set1/S4.jpg"" width=""540"" height = ""360"">","null","","","","","","","","","",""
"null","","html-keyboard-response","327","40334","0.0-327.0","","","","","","null","","","","","","","","","",""
"null","","image-keyboard-response","328","40345","0.0-328.0","","","","","img/set1/S3.jpg","null","3","structured_normal","72","structured_normal,random,structured_load,structured_incentive","3,4,2,1,2,3","2,4,3,1","false","","",""
"null","","html-keyboard-response","329","40357","0.0-329.0","","","","","<img src=""img/set1/S3.jpg"" width=""540"" height = ""360"">","null","","","","","","","","","",""
"null","","html-keyboard-response","330","40560","0.0-330.0","","","","","","null","","","","","","","","","",""
"null","","image-keyboard-response","331","40571","0.0-331.0","","","","","img/set1/S4.jpg","null","4","structured_normal","74","structured_normal,random,structured_load,structured_incentive","3,4,2,1,2,3","2,4,3,1","false","","",""
"null","","html-keyboard-response","332","40584","0.0-332.0","","","","","<img src=""img/set1/S4.jpg"" width=""540"" height = ""360"">","null","","","","","","","","","",""
"null","","html-keyboard-response","333","40784","0.0-333.0","","","","","","null","","","","","","","","","",""
"null","","image-keyboard-response","334","40797","0.0-334.0","","","","","img/set1/S3.jpg","null","3","structured_normal","72","structured_normal,random,structured_load,structured_incentive","3,4,2,1,2,3","2,4,3,1","false","","",""
"null","","html-keyboard-response","335","40810","0.0-335.0","","","","","<img src=""img/set1/S3.jpg"" width=""540"" height = ""360"">","null","","","","","","","","","",""
"null","","html-keyboard-response","336","41013","0.0-336.0","","","","","","null","","","","","","","","","",""
"null","","image-keyboard-response","337","41026","0.0-337.0","","","","","img/set1/S4.jpg","null","4","structured_normal","74","structured_normal,random,structured_load,structured_incentive","3,4,2,1,2,3","2,4,3,1","false","","",""
"null","","html-keyboard-response","338","41040","0.0-338.0","","","","","<img src=""img/set1/S4.jpg"" width=""540"" height = ""360"">","null","","","","","","","","","",""
"null","","html-keyboard-response","339","41244","0.0-339.0","","","","","","null","","","","","","","","","",""
"null","","image-keyboard-response","340","41256","0.0-340.0","","","","","img/set1/S2.jpg","null","2","structured_normal","68","structured_normal,random,structured_load,structured_incentive","3,4,2,1,2,3","2,4,3,1","false","","",""
"null","","html-keyboard-response","341","41267","0.0-341.0","","","","","<img src=""img/set1/S2.jpg"" width=""540"" height = ""360"">","null","","","","","","","","","",""
"null","","html-keyboard-response","342","41468","0.0-342.0","","","","","","null","","","","","","","","","",""
"null","","image-keyboard-response","343","41479","0.0-343.0","","","","","img/set1/S2.jpg","null","2","structured_normal","68","structured_normal,random,structured_load,structured_incentive","3,4,2,1,2,3","2,4,3,1","false","","",""
"null","","html-keyboard-response","344","41493","0.0-344.0","","","","","<img src=""img/set1/S2.jpg"" width=""540"" height = ""360"">","null","","","","","","","","","",""
"null","","html-keyboard-response","345","41695","0.0-345.0","","","","","","null","","","","","","","","","",""
"null","","image-keyboard-response","346","41708","0.0-346.0","","","","","img/set1/S1.jpg","null","1","structured_normal","83","structured_normal,random,structured_load,structured_incentive","3,4,2,1,2,3","2,4,3,1","false","","",""
"null","","html-keyboard-response","347","41721","0.0-347.0","","","","","<img src=""img/set1/S1.jpg"" width=""540"" height = ""360"">","null","","","","","","","","","",""
"null","","html-keyboard-response","348","41923","0.0-348.0","","","","","","null","","","","","","","","","",""
"null","","image-keyboard-response","349","41936","0.0-349.0","","","","","img/set1/S1.jpg","null","1","structured_normal","83","structured_normal,random,structured_load,structured_incentive","3,4,2,1,2,3","2,4,3,1","false","","",""
"null","","html-keyboard-response","350","41947","0.0-350.0","","","","","<img src=""img/set1/S1.jpg"" width=""540"" height = ""360"">","null","","","","","","","","","",""
"null","","html-keyboard-response","351","42149","0.0-351.0","","","","","","null","","","","","","","","","",""
"null","","image-keyboard-response","352","42161","0.0-352.0","","","","","img/set1/S3.jpg","null","3","structured_normal","72","structured_normal,random,structured_load,structured_incentive","3,4,2,1,2,3","2,4,3,1","false","","",""
"null","","html-keyboard-response","353","42175","0.0-353.0","","","","","<img src=""img/set1/S3.jpg"" width=""540"" height = ""360"">","null","","","","","","","","","",""
"null","","html-keyboard-response","354","42377","0.0-354.0","","","","","","null","","","","","","","","","",""
"null","","image-keyboard-response","355","42388","0.0-355.0","","","","","img/set1/S4.jpg","null","4","structured_normal","74","structured_normal,random,structured_load,structured_incentive","3,4,2,1,2,3","2,4,3,1","false","","",""
"null","","html-keyboard-response","356","42401","0.0-356.0","","","","","<img src=""img/set1/S4.jpg"" width=""540"" height = ""360"">","null","","","","","","","","","",""
"null","","html-keyboard-response","357","42603","0.0-357.0","","","","","","null","","","","","","","","","",""
"null","","image-keyboard-response","358","42615","0.0-358.0","","","","","img/set1/S1.jpg","null","1","structured_normal","83","structured_normal,random,structured_load,structured_incentive","3,4,2,1,2,3","2,4,3,1","false","","",""
"null","","html-keyboard-response","359","42627","0.0-359.0","","","","","<img src=""img/set1/S1.jpg"" width=""540"" height = ""360"">","null","","","","","","","","","",""
"null","","html-keyboard-response","360","42828","0.0-360.0","","","","","","null","","","","","","","","","",""
"null","","image-keyboard-response","361","42842","0.0-361.0","","","","","img/set1/S2.jpg","null","2","structured_normal","68","structured_normal,random,structured_load,structured_incentive","3,4,2,1,2,3","2,4,3,1","false","","",""
"null","","html-keyboard-response","362","42855","0.0-362.0","","","","","<img src=""img/set1/S2.jpg"" width=""540"" height = ""360"">","null","","","","","","","","","",""
"null","","html-keyboard-response","363","43058","0.0-363.0","","","","","","null","","","","","","","","","",""
"null","","html-keyboard-response","364","103060","0.0-364.0","","","","","<p class=""center-content"">You have completed a block! </p><p class=""center-content"">Press any key on the keyboard to continue, </p><p class=""center-content"">or wait for the automatic progression to the next block after one minute.</p>","null","","","","","","","","","",""
"5083.400000095367","","instructions","365","108144","0.0-365.0","","","","[{""page_index"":0,""viewing_time"":5083.099999904633}]","","","","","","","","","","","",""
"1019.8999996185303","","instructions","366","109164","0.0-366.0","","","","[{""page_index"":0,""viewing_time"":1019.7999997138977}]","","","","","","","","","","","",""
"null","","image-keyboard-response","367","109176","0.0-367.0","","","","","img/set2/S2.jpg","null","2","random","68","structured_normal,random,structured_load,structured_incentive","3,4,2,1,2,3","2,4,3,1","false","","",""
"null","","html-keyboard-response","368","109189","0.0-368.0","","","","","<img src=""img/set2/S2.jpg"" width=""540"" height = ""360"">","null","","","","","","","","","",""
"null","","html-keyboard-response","369","109390","0.0-369.0","","","","","","null","","","","","","","","","",""
"null","","image-keyboard-response","370","109402","0.0-370.0","","","","","img/set2/S4.jpg","null","4","random","74","structured_normal,random,structured_load,structured_incentive","3,4,2,1,2,3","2,4,3,1","false","","",""
"null","","html-keyboard-response","371","109413","0.0-371.0","","","","","<img src=""img/set2/S4.jpg"" width=""540"" height = ""360"">","null","","","","","","","","","",""
"null","","html-keyboard-response","372","109615","0.0-372.0","","","","","","null","","","","","","","","","",""
"null","","image-keyboard-response","373","109628","0.0-373.0","","","","","img/set2/S3.jpg","null","3","random","72","structured_normal,random,structured_load,structured_incentive","3,4,2,1,2,3","2,4,3,1","false","","",""
"null","","html-keyboard-response","374","109642","0.0-374.0","","","","","<img src=""img/set2/S3.jpg"" width=""540"" height = ""360"">","null","","","","","","","","","",""
"null","","html-keyboard-response","375","109844","0.0-375.0","","","","","","null","","","","","","","","","",""
"null","","image-keyboard-response","376","109856","0.0-376.0","","","","","img/set2/S1.jpg","null","1","random","83","structured_normal,random,structured_load,structured_incentive","3,4,2,1,2,3","2,4,3,1","false","","",""
"null","","html-keyboard-response","377","109867","0.0-377.0","","","","","<img src=""img/set2/S1.jpg"" width=""540"" height = ""360"">","null","","","","","","","","","",""
"null","","html-keyboard-response","378","110069","0.0-378.0","","","","","","null","","","","","","","","","",""
"null","","image-keyboard-response","379","110081","0.0-379.0","","","","","img/set2/S4.jpg","null","4","random","74","structured_normal,random,structured_load,structured_incentive","3,4,2,1,2,3","2,4,3,1","false","","",""
"null","","html-keyboard-response","380","110094","0.0-380.0","","","","","<img src=""img/set2/S4.jpg"" width=""540"" height = ""360"">","null","","","","","","","","","",""
"null","","html-keyboard-response","381","110295","0.0-381.0","","","","","","null","","","","","","","","","",""
"null","","image-keyboard-response","382","110308","0.0-382.0","","","","","img/set2/S3.jpg","null","3","random","72","structured_normal,random,structured_load,structured_incentive","3,4,2,1,2,3","2,4,3,1","false","","",""
"null","","html-keyboard-response","383","110320","0.0-383.0","","","","","<img src=""img/set2/S3.jpg"" width=""540"" height = ""360"">","null","","","","","","","","","",""
"null","","html-keyboard-response","384","110523","0.0-384.0","","","","","","null","","","","","","","","","",""
"null","","image-keyboard-response","385","110534","0.0-385.0","","","","","img/set2/S1.jpg","null","1","random","83","structured_normal,random,structured_load,structured_incentive","3,4,2,1,2,3","2,4,3,1","false","","",""
"null","","html-keyboard-response","386","110546","0.0-386.0","","","","","<img src=""img/set2/S1.jpg"" width=""540"" height = ""360"">","null","","","","","","","","","",""
"null","","html-keyboard-response","387","110747","0.0-387.0","","","","","","null","","","","","","","","","",""
"null","","image-keyboard-response","388","110761","0.0-388.0","","","","","img/set2/S2.jpg","null","2","random","68","structured_normal,random,structured_load,structured_incentive","3,4,2,1,2,3","2,4,3,1","false","","",""
"null","","html-keyboard-response","389","110772","0.0-389.0","","","","","<img src=""img/set2/S2.jpg"" width=""540"" height = ""360"">","null","","","","","","","","","",""
"null","","html-keyboard-response","390","110975","0.0-390.0","","","","","","null","","","","","","","","","",""
"null","","image-keyboard-response","391","110986","0.0-391.0","","","","","img/set2/S3.jpg","null","3","random","72","structured_normal,random,structured_load,structured_incentive","3,4,2,1,2,3","2,4,3,1","false","","",""
"null","","html-keyboard-response","392","110998","0.0-392.0","","","","","<img src=""img/set2/S3.jpg"" width=""540"" height = ""360"">","null","","","","","","","","","",""
"null","","html-keyboard-response","393","111200","0.0-393.0","","","","","","null","","","","","","","","","",""
"null","","image-keyboard-response","394","111212","0.0-394.0","","","","","img/set2/S3.jpg","null","3","random","72","structured_normal,random,structured_load,structured_incentive","3,4,2,1,2,3","2,4,3,1","false","","",""
"null","","html-keyboard-response","395","111226","0.0-395.0","","","","","<img src=""img/set2/S3.jpg"" width=""540"" height = ""360"">","null","","","","","","","","","",""
"null","","html-keyboard-response","396","111429","0.0-396.0","","","","","","null","","","","","","","","","",""
"null","","image-keyboard-response","397","111442","0.0-397.0","","","","","img/set2/S1.jpg","null","1","random","83","structured_normal,random,structured_load,structured_incentive","3,4,2,1,2,3","2,4,3,1","false","","",""
"null","","html-keyboard-response","398","111454","0.0-398.0","","","","","<img src=""img/set2/S1.jpg"" width=""540"" height = ""360"">","null","","","","","","","","","",""
"null","","html-keyboard-response","399","111657","0.0-399.0","","","","","","null","","","","","","","","","",""
"null","","image-keyboard-response","400","111669","0.0-400.0","","","","","img/set2/S4.jpg","null","4","random","74","structured_normal,random,structured_load,structured_incentive","3,4,2,1,2,3","2,4,3,1","false","","",""
"null","","html-keyboard-response","401","111680","0.0-401.0","","","","","<img src=""img/set2/S4.jpg"" width=""540"" height = ""360"">","null","","","","","","","","","",""
"null","","html-keyboard-response","402","111882","0.0-402.0","","","","","","null","","","","","","","","","",""
"null","","image-keyboard-response","403","111895","0.0-403.0","","","","","img/set2/S3.jpg","null","3","random","72","structured_normal,random,structured_load,structured_incentive","3,4,2,1,2,3","2,4,3,1","false","","",""
"null","","html-keyboard-response","404","111908","0.0-404.0","","","","","<img src=""img/set2/S3.jpg"" width=""540"" height = ""360"">","null","","","","","","","","","",""
"null","","html-keyboard-response","405","112111","0.0-405.0","","","","","","null","","","","","","","","","",""
"null","","image-keyboard-response","406","112122","0.0-406.0","","","","","img/set2/S1.jpg","null","1","random","83","structured_normal,random,structured_load,structured_incentive","3,4,2,1,2,3","2,4,3,1","false","","",""
"null","","html-keyboard-response","407","112133","0.0-407.0","","","","","<img src=""img/set2/S1.jpg"" width=""540"" height = ""360"">","null","","","","","","","","","",""
"null","","html-keyboard-response","408","112335","0.0-408.0","","","","","","null","","","","","","","","","",""
"null","","image-keyboard-response","409","112347","0.0-409.0","","","","","img/set2/S2.jpg","null","2","random","68","structured_normal,random,structured_load,structured_incentive","3,4,2,1,2,3","2,4,3,1","false","","",""
"null","","html-keyboard-response","410","112358","0.0-410.0","","","","","<img src=""img/set2/S2.jpg"" width=""540"" height = ""360"">","null","","","","","","","","","",""
"null","","html-keyboard-response","411","112562","0.0-411.0","","","","","","null","","","","","","","","","",""
"null","","image-keyboard-response","412","112575","0.0-412.0","","","","","img/set2/S2.jpg","null","2","random","68","structured_normal,random,structured_load,structured_incentive","3,4,2,1,2,3","2,4,3,1","false","","",""
"null","","html-keyboard-response","413","112587","0.0-413.0","","","","","<img src=""img/set2/S2.jpg"" width=""540"" height = ""360"">","null","","","","","","","","","",""
"null","","html-keyboard-response","414","112789","0.0-414.0","","","","","","null","","","","","","","","","",""
"null","","image-keyboard-response","415","112801","0.0-415.0","","","","","img/set2/S2.jpg","null","2","random","68","structured_normal,random,structured_load,structured_incentive","3,4,2,1,2,3","2,4,3,1","false","","",""
"null","","html-keyboard-response","416","112813","0.0-416.0","","","","","<img src=""img/set2/S2.jpg"" width=""540"" height = ""360"">","null","","","","","","","","","",""
"null","","html-keyboard-response","417","113014","0.0-417.0","","","","","","null","","","","","","","","","",""
"null","","image-keyboard-response","418","113027","0.0-418.0","","","","","img/set2/S1.jpg","null","1","random","83","structured_normal,random,structured_load,structured_incentive","3,4,2,1,2,3","2,4,3,1","false","","",""
"null","","html-keyboard-response","419","113040","0.0-419.0","","","","","<img src=""img/set2/S1.jpg"" width=""540"" height = ""360"">","null","","","","","","","","","",""
"null","","html-keyboard-response","420","113241","0.0-420.0","","","","","","null","","","","","","","","","",""
"null","","image-keyboard-response","421","113253","0.0-421.0","","","","","img/set2/S2.jpg","null","2","random","68","structured_normal,random,structured_load,structured_incentive","3,4,2,1,2,3","2,4,3,1","false","","",""
"null","","html-keyboard-response","422","113265","0.0-422.0","","","","","<img src=""img/set2/S2.jpg"" width=""540"" height = ""360"">","null","","","","","","","","","",""
"null","","html-keyboard-response","423","113467","0.0-423.0","","","","","","null","","","","","","","","","",""
"null","","image-keyboard-response","424","113479","0.0-424.0","","","","","img/set2/S4.jpg","null","4","random","74","structured_normal,random,structured_load,structured_incentive","3,4,2,1,2,3","2,4,3,1","false","","",""
"null","","html-keyboard-response","425","113492","0.0-425.0","","","","","<img src=""img/set2/S4.jpg"" width=""540"" height = ""360"">","null","","","","","","","","","",""
"null","","html-keyboard-response","426","113696","0.0-426.0","","","","","","null","","","","","","","","","",""
"null","","image-keyboard-response","427","113709","0.0-427.0","","","","","img/set2/S1.jpg","null","1","random","83","structured_normal,random,structured_load,structured_incentive","3,4,2,1,2,3","2,4,3,1","false","","",""
"null","","html-keyboard-response","428","113721","0.0-428.0","","","","","<img src=""img/set2/S1.jpg"" width=""540"" height = ""360"">","null","","","","","","","","","",""
"null","","html-keyboard-response","429","113924","0.0-429.0","","","","","","null","","","","","","","","","",""
"null","","image-keyboard-response","430","113936","0.0-430.0","","","","","img/set2/S2.jpg","null","2","random","68","structured_normal,random,structured_load,structured_incentive","3,4,2,1,2,3","2,4,3,1","false","","",""
"null","","html-keyboard-response","431","113948","0.0-431.0","","","","","<img src=""img/set2/S2.jpg"" width=""540"" height = ""360"">","null","","","","","","","","","",""
"null","","html-keyboard-response","432","114149","0.0-432.0","","","","","","null","","","","","","","","","",""
"null","","image-keyboard-response","433","114163","0.0-433.0","","","","","img/set2/S4.jpg","null","4","random","74","structured_normal,random,structured_load,structured_incentive","3,4,2,1,2,3","2,4,3,1","false","","",""
"null","","html-keyboard-response","434","114176","0.0-434.0","","","","","<img src=""img/set2/S4.jpg"" width=""540"" height = ""360"">","null","","","","","","","","","",""
"null","","html-keyboard-response","435","114380","0.0-435.0","","","","","","null","","","","","","","","","",""
"null","","image-keyboard-response","436","114394","0.0-436.0","","","","","img/set2/S3.jpg","null","3","random","72","structured_normal,random,structured_load,structured_incentive","3,4,2,1,2,3","2,4,3,1","false","","",""
"null","","html-keyboard-response","437","114407","0.0-437.0","","","","","<img src=""img/set2/S3.jpg"" width=""540"" height = ""360"">","null","","","","","","","","","",""
"null","","html-keyboard-response","438","114610","0.0-438.0","","","","","","null","","","","","","","","","",""
"null","","image-keyboard-response","439","114622","0.0-439.0","","","","","img/set2/S4.jpg","null","4","random","74","structured_normal,random,structured_load,structured_incentive","3,4,2,1,2,3","2,4,3,1","false","","",""
"null","","html-keyboard-response","440","114633","0.0-440.0","","","","","<img src=""img/set2/S4.jpg"" width=""540"" height = ""360"">","null","","","","","","","","","",""
"null","","html-keyboard-response","441","114834","0.0-441.0","","","","","","null","","","","","","","","","",""
"null","","image-keyboard-response","442","114846","0.0-442.0","","","","","img/set2/S4.jpg","null","4","random","74","structured_normal,random,structured_load,structured_incentive","3,4,2,1,2,3","2,4,3,1","false","","",""
"null","","html-keyboard-response","443","114860","0.0-443.0","","","","","<img src=""img/set2/S4.jpg"" width=""540"" height = ""360"">","null","","","","","","","","","",""
"null","","html-keyboard-response","444","115063","0.0-444.0","","","","","","null","","","","","","","","","",""
"null","","image-keyboard-response","445","115076","0.0-445.0","","","","","img/set2/S1.jpg","null","1","random","83","structured_normal,random,structured_load,structured_incentive","3,4,2,1,2,3","2,4,3,1","false","","",""
"null","","html-keyboard-response","446","115089","0.0-446.0","","","","","<img src=""img/set2/S1.jpg"" width=""540"" height = ""360"">","null","","","","","","","","","",""
"null","","html-keyboard-response","447","115290","0.0-447.0","","","","","","null","","","","","","","","","",""
"null","","image-keyboard-response","448","115302","0.0-448.0","","","","","img/set2/S1.jpg","null","1","random","83","structured_normal,random,structured_load,structured_incentive","3,4,2,1,2,3","2,4,3,1","false","","",""
"null","","html-keyboard-response","449","115313","0.0-449.0","","","","","<img src=""img/set2/S1.jpg"" width=""540"" height = ""360"">","null","","","","","","","","","",""
"null","","html-keyboard-response","450","115514","0.0-450.0","","","","","","null","","","","","","","","","",""
"null","","image-keyboard-response","451","115526","0.0-451.0","","","","","img/set2/S3.jpg","null","3","random","72","structured_normal,random,structured_load,structured_incentive","3,4,2,1,2,3","2,4,3,1","false","","",""
"null","","html-keyboard-response","452","115539","0.0-452.0","","","","","<img src=""img/set2/S3.jpg"" width=""540"" height = ""360"">","null","","","","","","","","","",""
"null","","html-keyboard-response","453","115741","0.0-453.0","","","","","","null","","","","","","","","","",""
"null","","image-keyboard-response","454","115753","0.0-454.0","","","","","img/set2/S1.jpg","null","1","random","83","structured_normal,random,structured_load,structured_incentive","3,4,2,1,2,3","2,4,3,1","false","","",""
"null","","html-keyboard-response","455","115765","0.0-455.0","","","","","<img src=""img/set2/S1.jpg"" width=""540"" height = ""360"">","null","","","","","","","","","",""
"null","","html-keyboard-response","456","115966","0.0-456.0","","","","","","null","","","","","","","","","",""
"null","","image-keyboard-response","457","115979","0.0-457.0","","","","","img/set2/S4.jpg","null","4","random","74","structured_normal,random,structured_load,structured_incentive","3,4,2,1,2,3","2,4,3,1","false","","",""
"null","","html-keyboard-response","458","115993","0.0-458.0","","","","","<img src=""img/set2/S4.jpg"" width=""540"" height = ""360"">","null","","","","","","","","","",""
"null","","html-keyboard-response","459","116195","0.0-459.0","","","","","","null","","","","","","","","","",""
"null","","image-keyboard-response","460","116207","0.0-460.0","","","","","img/set2/S1.jpg","null","1","random","83","structured_normal,random,structured_load,structured_incentive","3,4,2,1,2,3","2,4,3,1","false","","",""
"null","","html-keyboard-response","461","116219","0.0-461.0","","","","","<img src=""img/set2/S1.jpg"" width=""540"" height = ""360"">","null","","","","","","","","","",""
"null","","html-keyboard-response","462","116420","0.0-462.0","","","","","","null","","","","","","","","","",""
"null","","image-keyboard-response","463","116432","0.0-463.0","","","","","img/set2/S3.jpg","null","3","random","72","structured_normal,random,structured_load,structured_incentive","3,4,2,1,2,3","2,4,3,1","false","","",""
"null","","html-keyboard-response","464","116444","0.0-464.0","","","","","<img src=""img/set2/S3.jpg"" width=""540"" height = ""360"">","null","","","","","","","","","",""
"null","","html-keyboard-response","465","116646","0.0-465.0","","","","","","null","","","","","","","","","",""
"null","","image-keyboard-response","466","116660","0.0-466.0","","","","","img/set2/S4.jpg","null","4","random","74","structured_normal,random,structured_load,structured_incentive","3,4,2,1,2,3","2,4,3,1","false","","",""
"null","","html-keyboard-response","467","116673","0.0-467.0","","","","","<img src=""img/set2/S4.jpg"" width=""540"" height = ""360"">","null","","","","","","","","","",""
"null","","html-keyboard-response","468","116875","0.0-468.0","","","","","","null","","","","","","","","","",""
"null","","image-keyboard-response","469","116886","0.0-469.0","","","","","img/set2/S3.jpg","null","3","random","72","structured_normal,random,structured_load,structured_incentive","3,4,2,1,2,3","2,4,3,1","false","","",""
"null","","html-keyboard-response","470","116898","0.0-470.0","","","","","<img src=""img/set2/S3.jpg"" width=""540"" height = ""360"">","null","","","","","","","","","",""
"null","","html-keyboard-response","471","117100","0.0-471.0","","","","","","null","","","","","","","","","",""
"null","","image-keyboard-response","472","117113","0.0-472.0","","","","","img/set2/S4.jpg","null","4","random","74","structured_normal,random,structured_load,structured_incentive","3,4,2,1,2,3","2,4,3,1","false","","",""
"null","","html-keyboard-response","473","117125","0.0-473.0","","","","","<img src=""img/set2/S4.jpg"" width=""540"" height = ""360"">","null","","","","","","","","","",""
"null","","html-keyboard-response","474","117328","0.0-474.0","","","","","","null","","","","","","","","","",""
"null","","image-keyboard-response","475","117342","0.0-475.0","","","","","img/set2/S3.jpg","null","3","random","72","structured_normal,random,structured_load,structured_incentive","3,4,2,1,2,3","2,4,3,1","false","","",""
"null","","html-keyboard-response","476","117355","0.0-476.0","","","","","<img src=""img/set2/S3.jpg"" width=""540"" height = ""360"">","null","","","","","","","","","",""
"null","","html-keyboard-response","477","117556","0.0-477.0","","","","","","null","","","","","","","","","",""
"null","","image-keyboard-response","478","117568","0.0-478.0","","","","","img/set2/S2.jpg","null","2","random","68","structured_normal,random,structured_load,structured_incentive","3,4,2,1,2,3","2,4,3,1","false","","",""
"null","","html-keyboard-response","479","117579","0.0-479.0","","","","","<img src=""img/set2/S2.jpg"" width=""540"" height = ""360"">","null","","","","","","","","","",""
"null","","html-keyboard-response","480","117780","0.0-480.0","","","","","","null","","","","","","","","","",""
"null","","image-keyboard-response","481","117794","0.0-481.0","","","","","img/set2/S1.jpg","null","1","random","83","structured_normal,random,structured_load,structured_incentive","3,4,2,1,2,3","2,4,3,1","false","","",""
"null","","html-keyboard-response","482","117806","0.0-482.0","","","","","<img src=""img/set2/S1.jpg"" width=""540"" height = ""360"">","null","","","","","","","","","",""
"null","","html-keyboard-response","483","118009","0.0-483.0","","","","","","null","","","","","","","","","",""
"null","","image-keyboard-response","484","118020","0.0-484.0","","","","","img/set2/S2.jpg","null","2","random","68","structured_normal,random,structured_load,structured_incentive","3,4,2,1,2,3","2,4,3,1","false","","",""
"null","","html-keyboard-response","485","118032","0.0-485.0","","","","","<img src=""img/set2/S2.jpg"" width=""540"" height = ""360"">","null","","","","","","","","","",""
"null","","html-keyboard-response","486","118234","0.0-486.0","","","","","","null","","","","","","","","","",""
"null","","image-keyboard-response","487","118246","0.0-487.0","","","","","img/set2/S1.jpg","null","1","random","83","structured_normal,random,structured_load,structured_incentive","3,4,2,1,2,3","2,4,3,1","false","","",""
"null","","html-keyboard-response","488","118259","0.0-488.0","","","","","<img src=""img/set2/S1.jpg"" width=""540"" height = ""360"">","null","","","","","","","","","",""
"null","","html-keyboard-response","489","118462","0.0-489.0","","","","","","null","","","","","","","","","",""
"null","","image-keyboard-response","490","118474","0.0-490.0","","","","","img/set2/S1.jpg","null","1","random","83","structured_normal,random,structured_load,structured_incentive","3,4,2,1,2,3","2,4,3,1","false","","",""
"null","","html-keyboard-response","491","118487","0.0-491.0","","","","","<img src=""img/set2/S1.jpg"" width=""540"" height = ""360"">","null","","","","","","","","","",""
"null","","html-keyboard-response","492","118688","0.0-492.0","","","","","","null","","","","","","","","","",""
"null","","image-keyboard-response","493","118699","0.0-493.0","","","","","img/set2/S1.jpg","null","1","random","83","structured_normal,random,structured_load,structured_incentive","3,4,2,1,2,3","2,4,3,1","false","","",""
"null","","html-keyboard-response","494","118711","0.0-494.0","","","","","<img src=""img/set2/S1.jpg"" width=""540"" height = ""360"">","null","","","","","","","","","",""
"null","","html-keyboard-response","495","118912","0.0-495.0","","","","","","null","","","","","","","","","",""
"null","","image-keyboard-response","496","118926","0.0-496.0","","","","","img/set2/S4.jpg","null","4","random","74","structured_normal,random,structured_load,structured_incentive","3,4,2,1,2,3","2,4,3,1","false","","",""
"null","","html-keyboard-response","497","118938","0.0-497.0","","","","","<img src=""img/set2/S4.jpg"" width=""540"" height = ""360"">","null","","","","","","","","","",""
"null","","html-keyboard-response","498","119142","0.0-498.0","","","","","","null","","","","","","","","","",""
"null","","image-keyboard-response","499","119154","0.0-499.0","","","","","img/set2/S1.jpg","null","1","random","83","structured_normal,random,structured_load,structured_incentive","3,4,2,1,2,3","2,4,3,1","false","","",""
"null","","html-keyboard-response","500","119165","0.0-500.0","","","","","<img src=""img/set2/S1.jpg"" width=""540"" height = ""360"">","null","","","","","","","","","",""
"null","","html-keyboard-response","501","119367","0.0-501.0","","","","","","null","","","","","","","","","",""
"null","","image-keyboard-response","502","119379","0.0-502.0","","","","","img/set2/S4.jpg","null","4","random","74","structured_normal,random,structured_load,structured_incentive","3,4,2,1,2,3","2,4,3,1","false","","",""
"null","","html-keyboard-response","503","119393","0.0-503.0","","","","","<img src=""img/set2/S4.jpg"" width=""540"" height = ""360"">","null","","","","","","","","","",""
"null","","html-keyboard-response","504","119596","0.0-504.0","","","","","","null","","","","","","","","","",""
"null","","image-keyboard-response","505","119609","0.0-505.0","","","","","img/set2/S4.jpg","null","4","random","74","structured_normal,random,structured_load,structured_incentive","3,4,2,1,2,3","2,4,3,1","false","","",""
"null","","html-keyboard-response","506","119623","0.0-506.0","","","","","<img src=""img/set2/S4.jpg"" width=""540"" height = ""360"">","null","","","","","","","","","",""
"null","","html-keyboard-response","507","119825","0.0-507.0","","","","","","null","","","","","","","","","",""
"null","","image-keyboard-response","508","119837","0.0-508.0","","","","","img/set2/S4.jpg","null","4","random","74","structured_normal,random,structured_load,structured_incentive","3,4,2,1,2,3","2,4,3,1","false","","",""
"null","","html-keyboard-response","509","119849","0.0-509.0","","","","","<img src=""img/set2/S4.jpg"" width=""540"" height = ""360"">","null","","","","","","","","","",""
"null","","html-keyboard-response","510","120051","0.0-510.0","","","","","","null","","","","","","","","","",""
"null","","image-keyboard-response","511","120063","0.0-511.0","","","","","img/set2/S2.jpg","null","2","random","68","structured_normal,random,structured_load,structured_incentive","3,4,2,1,2,3","2,4,3,1","false","","",""
"null","","html-keyboard-response","512","120078","0.0-512.0","","","","","<img src=""img/set2/S2.jpg"" width=""540"" height = ""360"">","null","","","","","","","","","",""
"null","","html-keyboard-response","513","120278","0.0-513.0","","","","","","null","","","","","","","","","",""
"null","","image-keyboard-response","514","120290","0.0-514.0","","","","","img/set2/S3.jpg","null","3","random","72","structured_normal,random,structured_load,structured_incentive","3,4,2,1,2,3","2,4,3,1","false","","",""
"null","","html-keyboard-response","515","120303","0.0-515.0","","","","","<img src=""img/set2/S3.jpg"" width=""540"" height = ""360"">","null","","","","","","","","","",""
"null","","html-keyboard-response","516","120506","0.0-516.0","","","","","","null","","","","","","","","","",""
"null","","image-keyboard-response","517","120518","0.0-517.0","","","","","img/set2/S3.jpg","null","3","random","72","structured_normal,random,structured_load,structured_incentive","3,4,2,1,2,3","2,4,3,1","false","","",""
"null","","html-keyboard-response","518","120530","0.0-518.0","","","","","<img src=""img/set2/S3.jpg"" width=""540"" height = ""360"">","null","","","","","","","","","",""
"null","","html-keyboard-response","519","120731","0.0-519.0","","","","","","null","","","","","","","","","",""
"null","","image-keyboard-response","520","120744","0.0-520.0","","","","","img/set2/S3.jpg","null","3","random","72","structured_normal,random,structured_load,structured_incentive","3,4,2,1,2,3","2,4,3,1","false","","",""
"null","","html-keyboard-response","521","120757","0.0-521.0","","","","","<img src=""img/set2/S3.jpg"" width=""540"" height = ""360"">","null","","","","","","","","","",""
"null","","html-keyboard-response","522","120961","0.0-522.0","","","","","","null","","","","","","","","","",""
"null","","image-keyboard-response","523","120973","0.0-523.0","","","","","img/set2/S1.jpg","null","1","random","83","structured_normal,random,structured_load,structured_incentive","3,4,2,1,2,3","2,4,3,1","false","","",""
"null","","html-keyboard-response","524","120986","0.0-524.0","","","","","<img src=""img/set2/S1.jpg"" width=""540"" height = ""360"">","null","","","","","","","","","",""
"null","","html-keyboard-response","525","121187","0.0-525.0","","","","","","null","","","","","","","","","",""
"null","","image-keyboard-response","526","121198","0.0-526.0","","","","","img/set2/S1.jpg","null","1","random","83","structured_normal,random,structured_load,structured_incentive","3,4,2,1,2,3","2,4,3,1","false","","",""
"null","","html-keyboard-response","527","121211","0.0-527.0","","","","","<img src=""img/set2/S1.jpg"" width=""540"" height = ""360"">","null","","","","","","","","","",""
"null","","html-keyboard-response","528","121413","0.0-528.0","","","","","","null","","","","","","","","","",""
"null","","image-keyboard-response","529","121426","0.0-529.0","","","","","img/set2/S3.jpg","null","3","random","72","structured_normal,random,structured_load,structured_incentive","3,4,2,1,2,3","2,4,3,1","false","","",""
"null","","html-keyboard-response","530","121440","0.0-530.0","","","","","<img src=""img/set2/S3.jpg"" width=""540"" height = ""360"">","null","","","","","","","","","",""
"null","","html-keyboard-response","531","121643","0.0-531.0","","","","","","null","","","","","","","","","",""
"null","","image-keyboard-response","532","121655","0.0-532.0","","","","","img/set2/S1.jpg","null","1","random","83","structured_normal,random,structured_load,structured_incentive","3,4,2,1,2,3","2,4,3,1","false","","",""
"null","","html-keyboard-response","533","121666","0.0-533.0","","","","","<img src=""img/set2/S1.jpg"" width=""540"" height = ""360"">","null","","","","","","","","","",""
"null","","html-keyboard-response","534","121867","0.0-534.0","","","","","","null","","","","","","","","","",""
"null","","image-keyboard-response","535","121879","0.0-535.0","","","","","img/set2/S1.jpg","null","1","random","83","structured_normal,random,structured_load,structured_incentive","3,4,2,1,2,3","2,4,3,1","false","","",""
"null","","html-keyboard-response","536","121893","0.0-536.0","","","","","<img src=""img/set2/S1.jpg"" width=""540"" height = ""360"">","null","","","","","","","","","",""
"null","","html-keyboard-response","537","122096","0.0-537.0","","","","","","null","","","","","","","","","",""
"null","","image-keyboard-response","538","122108","0.0-538.0","","","","","img/set2/S4.jpg","null","4","random","74","structured_normal,random,structured_load,structured_incentive","3,4,2,1,2,3","2,4,3,1","false","","",""
"null","","html-keyboard-response","539","122121","0.0-539.0","","","","","<img src=""img/set2/S4.jpg"" width=""540"" height = ""360"">","null","","","","","","","","","",""
"null","","html-keyboard-response","540","122323","0.0-540.0","","","","","","null","","","","","","","","","",""
"null","","image-keyboard-response","541","122335","0.0-541.0","","","","","img/set2/S4.jpg","null","4","random","74","structured_normal,random,structured_load,structured_incentive","3,4,2,1,2,3","2,4,3,1","false","","",""
"null","","html-keyboard-response","542","122346","0.0-542.0","","","","","<img src=""img/set2/S4.jpg"" width=""540"" height = ""360"">","null","","","","","","","","","",""
"null","","html-keyboard-response","543","122547","0.0-543.0","","","","","","null","","","","","","","","","",""
"null","","image-keyboard-response","544","122561","0.0-544.0","","","","","img/set2/S3.jpg","null","3","random","72","structured_normal,random,structured_load,structured_incentive","3,4,2,1,2,3","2,4,3,1","false","","",""
"null","","html-keyboard-response","545","122574","0.0-545.0","","","","","<img src=""img/set2/S3.jpg"" width=""540"" height = ""360"">","null","","","","","","","","","",""
"null","","html-keyboard-response","546","122776","0.0-546.0","","","","","","null","","","","","","","","","",""
"null","","image-keyboard-response","547","122788","0.0-547.0","","","","","img/set2/S4.jpg","null","4","random","74","structured_normal,random,structured_load,structured_incentive","3,4,2,1,2,3","2,4,3,1","false","","",""
"null","","html-keyboard-response","548","122800","0.0-548.0","","","","","<img src=""img/set2/S4.jpg"" width=""540"" height = ""360"">","null","","","","","","","","","",""
"null","","html-keyboard-response","549","123002","0.0-549.0","","","","","","null","","","","","","","","","",""
"null","","image-keyboard-response","550","123013","0.0-550.0","","","","","img/set2/S1.jpg","null","1","random","83","structured_normal,random,structured_load,structured_incentive","3,4,2,1,2,3","2,4,3,1","false","","",""
"null","","html-keyboard-response","551","123028","0.0-551.0","","","","","<img src=""img/set2/S1.jpg"" width=""540"" height = ""360"">","null","","","","","","","","","",""
"null","","html-keyboard-response","552","123229","0.0-552.0","","","","","","null","","","","","","","","","",""
"null","","image-keyboard-response","553","123240","0.0-553.0","","","","","img/set2/S1.jpg","null","1","random","83","structured_normal,random,structured_load,structured_incentive","3,4,2,1,2,3","2,4,3,1","false","","",""
"null","","html-keyboard-response","554","123252","0.0-554.0","","","","","<img src=""img/set2/S1.jpg"" width=""540"" height = ""360"">","null","","","","","","","","","",""
"null","","html-keyboard-response","555","123454","0.0-555.0","","","","","","null","","","","","","","","","",""
"null","","image-keyboard-response","556","123465","0.0-556.0","","","","","img/set2/S2.jpg","null","2","random","68","structured_normal,random,structured_load,structured_incentive","3,4,2,1,2,3","2,4,3,1","false","","",""
"null","","html-keyboard-response","557","123478","0.0-557.0","","","","","<img src=""img/set2/S2.jpg"" width=""540"" height = ""360"">","null","","","","","","","","","",""
"null","","html-keyboard-response","558","123680","0.0-558.0","","","","","","null","","","","","","","","","",""
"null","","image-keyboard-response","559","123692","0.0-559.0","","","","","img/set2/S4.jpg","null","4","random","74","structured_normal,random,structured_load,structured_incentive","3,4,2,1,2,3","2,4,3,1","false","","",""
"null","","html-keyboard-response","560","123705","0.0-560.0","","","","","<img src=""img/set2/S4.jpg"" width=""540"" height = ""360"">","null","","","","","","","","","",""
"null","","html-keyboard-response","561","123908","0.0-561.0","","","","","","null","","","","","","","","","",""
"null","","image-keyboard-response","562","123919","0.0-562.0","","","","","img/set2/S1.jpg","null","1","random","83","structured_normal,random,structured_load,structured_incentive","3,4,2,1,2,3","2,4,3,1","false","","",""
"null","","html-keyboard-response","563","123931","0.0-563.0","","","","","<img src=""img/set2/S1.jpg"" width=""540"" height = ""360"">","null","","","","","","","","","",""
"null","","html-keyboard-response","564","124132","0.0-564.0","","","","","","null","","","","","","","","","",""
"null","","image-keyboard-response","565","124145","0.0-565.0","","","","","img/set2/S3.jpg","null","3","random","72","structured_normal,random,structured_load,structured_incentive","3,4,2,1,2,3","2,4,3,1","false","","",""
"null","","html-keyboard-response","566","124158","0.0-566.0","","","","","<img src=""img/set2/S3.jpg"" width=""540"" height = ""360"">","null","","","","","","","","","",""
"null","","html-keyboard-response","567","124361","0.0-567.0","","","","","","null","","","","","","","","","",""
"null","","image-keyboard-response","568","124374","0.0-568.0","","","","","img/set2/S3.jpg","null","3","random","72","structured_normal,random,structured_load,structured_incentive","3,4,2,1,2,3","2,4,3,1","false","","",""
"null","","html-keyboard-response","569","124385","0.0-569.0","","","","","<img src=""img/set2/S3.jpg"" width=""540"" height = ""360"">","null","","","","","","","","","",""
"null","","html-keyboard-response","570","124588","0.0-570.0","","","","","","null","","","","","","","","","",""
"null","","image-keyboard-response","571","124599","0.0-571.0","","","","","img/set2/S1.jpg","null","1","random","83","structured_normal,random,structured_load,structured_incentive","3,4,2,1,2,3","2,4,3,1","false","","",""
"null","","html-keyboard-response","572","124611","0.0-572.0","","","","","<img src=""img/set2/S1.jpg"" width=""540"" height = ""360"">","null","","","","","","","","","",""
"null","","html-keyboard-response","573","124812","0.0-573.0","","","","","","null","","","","","","","","","",""
"null","","image-keyboard-response","574","124824","0.0-574.0","","","","","img/set2/S4.jpg","null","4","random","74","structured_normal,random,structured_load,structured_incentive","3,4,2,1,2,3","2,4,3,1","false","","",""
