"rt","url","trial_type","trial_index","time_elapsed","internal_node_id","assignmentID","mturkID","hitID","view_history","stimulus","key_press","state","test_part","correct_response","order_block","order_chunk","order_freq","correct","responses","question_order","bonus"
"1857.4000000953674","consent.html","external-html","0","2103","0.0-0.0","","","","","","","","","","","","","","","",""
"5418.300000190735","","instructions","1","7526","0.0-1.0","","","","[{""page_index"":0,""viewing_time"":785.7000002861023},{""page_index"":1,""viewing_time"":1005.6999998092651},{""page_index"":2,""viewing_time"":566},{""page_index"":3,""viewing_time"":777.5},{""page_index"":4,""viewing_time"":776.5},{""page_index"":5,""viewing_time"":696.3000001907349},{""page_index"":6,""viewing_time"":809.6999998092651}]","","","","","","","","","","","",""
"644.7999997138977","","instructions","2","8173","0.0-2.0","","","","[{""page_index"":0,""viewing_time"":644.5}]","","","","","","","","","","","",""
"1148.0999999046326","","instructions","3","9322","0.0-3.0","","","","[{""page_index"":0,""viewing_time"":556.6999998092651},{""page_index"":1,""viewing_time"":591.2000002861023}]","","","","","","","","","","","",""
"null","","image-keyboard-response","4","9337","0.0-4.0","","","","","img/set1/S3.jpg","null","3","structured_incentive","72","structured_incentive,structured_load,structured_normal,random","2,1,3,4,2,3","1,3,2,4","false","","",""
"null","","html-keyboard-response","5","9689","0.0-5.0","","","","","<img src=""img/set1/S3.jpg"" width=""540"" height = ""360"">","null","","","","","","","","","",""
"null","","html-keyboard-response","6","9891","0.0-6.0","","","","","","null","","","","","","","","","",""
"null","","image-keyboard-response","7","9904","0.0-7.0","","","","","img/set1/S3.jpg","null","3","structured_incentive","72","structured_incentive,structured_load,structured_normal,random","2,1,3,4,2,3","1,3,2,4","false","","",""
"null","","html-keyboard-response","8","10259","0.0-8.0","","","","","<img src=""img/set1/S3.jpg"" width=""540"" height = ""360"">","null","","","","","","","","","",""
"null","","html-keyboard-response","9","10461","0.0-9.0","","","","","","null","","","","","","","","","",""
"null","","image-keyboard-response","10","10474","0.0-10.0","","","","","img/set1/S2.jpg","null","2","structured_incentive","68","structured_incentive,structured_load,structured_normal,random","2,1,3,4,2,3","1,3,2,4","false","","",""
"null","","html-keyboard-response","11","10827","0.0-11.0","","","","","<img src=""img/set1/S2.jpg"" width=""540"" height = ""360"">","null","","","","","","","","","",""
"null","","html-keyboard-response","12","11028","0.0-12.0","","","","","","null","","","","","","","","","",""
"null","","image-keyboard-response","13","11042","0.0-13.0","","","","","img/set1/S1.jpg","null","1","structured_incentive","83","structured_incentive,structured_load,structured_normal,random","2,1,3,4,2,3","1,3,2,4","false","","",""
"null","","html-keyboard-response","14","11394","0.0-14.0","","","","","<img src=""img/set1/S1.jpg"" width=""540"" height = ""360"">","null","","","","","","","","","",""
"null","","html-keyboard-response","15","11595","0.0-15.0","","","","","","null","","","","","","","","","",""
"null","","image-keyboard-response","16","11608","0.0-16.0","","","","","img/set1/S2.jpg","null","2","structured_incentive","68","structured_incentive,structured_load,structured_normal,random","2,1,3,4,2,3","1,3,2,4","false","","",""
"null","","html-keyboard-response","17","11959","0.0-17.0","","","","","<img src=""img/set1/S2.jpg"" width=""540"" height = ""360"">","null","","","","","","","","","",""
"null","","html-keyboard-response","18","12161","0.0-18.0","","","","","","null","","","","","","","","","",""
"null","","image-keyboard-response","19","12173","0.0-19.0","","","","","img/set1/S1.jpg","null","1","structured_incentive","83","structured_incentive,structured_load,structured_normal,random","2,1,3,4,2,3","1,3,2,4","false","","",""
"null","","html-keyboard-response","20","12525","0.0-20.0","","","","","<img src=""img/set1/S1.jpg"" width=""540"" height = ""360"">","null","","","","","","","","","",""
"null","","html-keyboard-response","21","12726","0.0-21.0","","","","","","null","","","","","","","","","",""
"null","","image-keyboard-response","22","12738","0.0-22.0","","","","","img/set1/S4.jpg","null","4","structured_incentive","74","structured_incentive,structured_load,structured_normal,random","2,1,3,4,2,3","1,3,2,4","false","","",""
"null","","html-keyboard-response","23","13091","0.0-23.0","","","","","<img src=""img/set1/S4.jpg"" width=""540"" height = ""360"">","null","","","","","","","","","",""
"null","","html-keyboard-response","24","13292","0.0-24.0","","","","","","null","","","","","","","","","",""
"null","","image-keyboard-response","25","13304","0.0-25.0","","","","","img/set1/S4.jpg","null","4","structured_incentive","74","structured_incentive,structured_load,structured_normal,random","2,1,3,4,2,3","1,3,2,4","false","","",""
"null","","html-keyboard-response","26","13658","0.0-26.0","","","","","<img src=""img/set1/S4.jpg"" width=""540"" height = ""360"">","null","","","","","","","","","",""
"null","","html-keyboard-response","27","13859","0.0-27.0","","","","","","null","","","","","","","","","",""
"null","","image-keyboard-response","28","13872","0.0-28.0","","","","","img/set1/S4.jpg","null","4","structured_incentive","74","structured_incentive,structured_load,structured_normal,random","2,1,3,4,2,3","1,3,2,4","false","","",""
"null","","html-keyboard-response","29","14225","0.0-29.0","","","","","<img src=""img/set1/S4.jpg"" width=""540"" height = ""360"">","null","","","","","","","","","",""
"null","","html-keyboard-response","30","14426","0.0-30.0","","","","","","null","","","","","","","","","",""
"null","","image-keyboard-response","31","14440","0.0-31.0","","","","","img/set1/S4.jpg","null","4","structured_incentive","74","structured_incentive,structured_load,structured_normal,random","2,1,3,4,2,3","1,3,2,4","false","","",""
"null","","html-keyboard-response","32","14792","0.0-32.0","","","","","<img src=""img/set1/S4.jpg"" width=""540"" height = ""360"">","null","","","","","","","","","",""
"null","","html-keyboard-response","33","14993","0.0-33.0","","","","","","null","","","","","","","","","",""
"null","","image-keyboard-response","34","15007","0.0-34.0","","","","","img/set1/S3.jpg","null","3","structured_incentive","72","structured_incentive,structured_load,structured_normal,random","2,1,3,4,2,3","1,3,2,4","false","","",""
"null","","html-keyboard-response","35","15359","0.0-35.0","","","","","<img src=""img/set1/S3.jpg"" width=""540"" height = ""360"">","null","","","","","","","","","",""
"null","","html-keyboard-response","36","15561","0.0-36.0","","","","","","null","","","","","","","","","",""
"null","","image-keyboard-response","37","15573","0.0-37.0","","","","","img/set1/S3.jpg","null","3","structured_incentive","72","structured_incentive,structured_load,structured_normal,random","2,1,3,4,2,3","1,3,2,4","false","","",""
"null","","html-keyboard-response","38","15925","0.0-38.0","","","","","<img src=""img/set1/S3.jpg"" width=""540"" height = ""360"">","null","","","","","","","","","",""
"null","","html-keyboard-response","39","16126","0.0-39.0","","","","","","null","","","","","","","","","",""
"null","","image-keyboard-response","40","16140","0.0-40.0","","","","","img/set1/S3.jpg","null","3","structured_incentive","72","structured_incentive,structured_load,structured_normal,random","2,1,3,4,2,3","1,3,2,4","false","","",""
"null","","html-keyboard-response","41","16493","0.0-41.0","","","","","<img src=""img/set1/S3.jpg"" width=""540"" height = ""360"">","null","","","","","","","","","",""
"null","","html-keyboard-response","42","16694","0.0-42.0","","","","","","null","","","","","","","","","",""
"null","","image-keyboard-response","43","16706","0.0-43.0","","","","","img/set1/S2.jpg","null","2","structured_incentive","68","structured_incentive,structured_load,structured_normal,random","2,1,3,4,2,3","1,3,2,4","false","","",""
"null","","html-keyboard-response","44","17059","0.0-44.0","","","","","<img src=""img/set1/S2.jpg"" width=""540"" height = ""360"">","null","","","","","","","","","",""
"null","","html-keyboard-response","45","17260","0.0-45.0","","","","","","null","","","","","","","","","",""
"null","","image-keyboard-response","46","17274","0.0-46.0","","","","","img/set1/S1.jpg","null","1","structured_incentive","83","structured_incentive,structured_load,structured_normal,random","2,1,3,4,2,3","1,3,2,4","false","","",""
"null","","html-keyboard-response","47","17626","0.0-47.0","","","","","<img src=""img/set1/S1.jpg"" width=""540"" height = ""360"">","null","","","","","","","","","",""
"null","","html-keyboard-response","48","17828","0.0-48.0","","","","","","null","","","","","","","","","",""
"null","","image-keyboard-response","49","17841","0.0-49.0","","","","","img/set1/S3.jpg","null","3","structured_incentive","72","structured_incentive,structured_load,structured_normal,random","2,1,3,4,2,3","1,3,2,4","false","","",""
"null","","html-keyboard-response","50","18193","0.0-50.0","","","","","<img src=""img/set1/S3.jpg"" width=""540"" height = ""360"">","null","","","","","","","","","",""
"null","","html-keyboard-response","51","18395","0.0-51.0","","","","","","null","","","","","","","","","",""
"null","","image-keyboard-response","52","18407","0.0-52.0","","","","","img/set1/S3.jpg","null","3","structured_incentive","72","structured_incentive,structured_load,structured_normal,random","2,1,3,4,2,3","1,3,2,4","false","","",""
"null","","html-keyboard-response","53","18759","0.0-53.0","","","","","<img src=""img/set1/S3.jpg"" width=""540"" height = ""360"">","null","","","","","","","","","",""
"null","","html-keyboard-response","54","18961","0.0-54.0","","","","","","null","","","","","","","","","",""
"null","","image-keyboard-response","55","18975","0.0-55.0","","","","","img/set1/S4.jpg","null","4","structured_incentive","74","structured_incentive,structured_load,structured_normal,random","2,1,3,4,2,3","1,3,2,4","false","","",""
"null","","html-keyboard-response","56","19327","0.0-56.0","","","","","<img src=""img/set1/S4.jpg"" width=""540"" height = ""360"">","null","","","","","","","","","",""
"null","","html-keyboard-response","57","19529","0.0-57.0","","","","","","null","","","","","","","","","",""
"null","","image-keyboard-response","58","19541","0.0-58.0","","","","","img/set1/S4.jpg","null","4","structured_incentive","74","structured_incentive,structured_load,structured_normal,random","2,1,3,4,2,3","1,3,2,4","false","","",""
"null","","html-keyboard-response","59","19893","0.0-59.0","","","","","<img src=""img/set1/S4.jpg"" width=""540"" height = ""360"">","null","","","","","","","","","",""
"null","","html-keyboard-response","60","20095","0.0-60.0","","","","","","null","","","","","","","","","",""
"null","","image-keyboard-response","61","20108","0.0-61.0","","","","","img/set1/S4.jpg","null","4","structured_incentive","74","structured_incentive,structured_load,structured_normal,random","2,1,3,4,2,3","1,3,2,4","false","","",""
"null","","html-keyboard-response","62","20460","0.0-62.0","","","","","<img src=""img/set1/S4.jpg"" width=""540"" height = ""360"">","null","","","","","","","","","",""
"null","","html-keyboard-response","63","20662","0.0-63.0","","","","","","null","","","","","","","","","",""
"null","","image-keyboard-response","64","20674","0.0-64.0","","","","","img/set1/S3.jpg","null","3","structured_incentive","72","structured_incentive,structured_load,structured_normal,random","2,1,3,4,2,3","1,3,2,4","false","","",""
"null","","html-keyboard-response","65","21026","0.0-65.0","","","","","<img src=""img/set1/S3.jpg"" width=""540"" height = ""360"">","null","","","","","","","","","",""
"null","","html-keyboard-response","66","21227","0.0-66.0","","","","","","null","","","","","","","","","",""
"null","","image-keyboard-response","67","21241","0.0-67.0","","","","","img/set1/S3.jpg","null","3","structured_incentive","72","structured_incentive,structured_load,structured_normal,random","2,1,3,4,2,3","1,3,2,4","false","","",""
"null","","html-keyboard-response","68","21594","0.0-68.0","","","","","<img src=""img/set1/S3.jpg"" width=""540"" height = ""360"">","null","","","","","","","","","",""
"null","","html-keyboard-response","69","21795","0.0-69.0","","","","","","null","","","","","","","","","",""
"null","","image-keyboard-response","70","21808","0.0-70.0","","","","","img/set1/S2.jpg","null","2","structured_incentive","68","structured_incentive,structured_load,structured_normal,random","2,1,3,4,2,3","1,3,2,4","false","","",""
"null","","html-keyboard-response","71","22161","0.0-71.0","","","","","<img src=""img/set1/S2.jpg"" width=""540"" height = ""360"">","null","","","","","","","","","",""
"null","","html-keyboard-response","72","22362","0.0-72.0","","","","","","null","","","","","","","","","",""
"null","","image-keyboard-response","73","22374","0.0-73.0","","","","","img/set1/S1.jpg","null","1","structured_incentive","83","structured_incentive,structured_load,structured_normal,random","2,1,3,4,2,3","1,3,2,4","false","","",""
"null","","html-keyboard-response","74","22726","0.0-74.0","","","","","<img src=""img/set1/S1.jpg"" width=""540"" height = ""360"">","null","","","","","","","","","",""
"null","","html-keyboard-response","75","22928","0.0-75.0","","","","","","null","","","","","","","","","",""
"null","","image-keyboard-response","76","22941","0.0-76.0","","","","","img/set1/S2.jpg","null","2","structured_incentive","68","structured_incentive,structured_load,structured_normal,random","2,1,3,4,2,3","1,3,2,4","false","","",""
"null","","html-keyboard-response","77","23293","0.0-77.0","","","","","<img src=""img/set1/S2.jpg"" width=""540"" height = ""360"">","null","","","","","","","","","",""
"null","","html-keyboard-response","78","23495","0.0-78.0","","","","","","null","","","","","","","","","",""
"null","","image-keyboard-response","79","23508","0.0-79.0","","","","","img/set1/S1.jpg","null","1","structured_incentive","83","structured_incentive,structured_load,structured_normal,random","2,1,3,4,2,3","1,3,2,4","false","","",""
"null","","html-keyboard-response","80","23860","0.0-80.0","","","","","<img src=""img/set1/S1.jpg"" width=""540"" height = ""360"">","null","","","","","","","","","",""
"null","","html-keyboard-response","81","24061","0.0-81.0","","","","","","null","","","","","","","","","",""
"null","","image-keyboard-response","82","24076","0.0-82.0","","","","","img/set1/S4.jpg","null","4","structured_incentive","74","structured_incentive,structured_load,structured_normal,random","2,1,3,4,2,3","1,3,2,4","false","","",""
"null","","html-keyboard-response","83","24429","0.0-83.0","","","","","<img src=""img/set1/S4.jpg"" width=""540"" height = ""360"">","null","","","","","","","","","",""
"null","","html-keyboard-response","84","24631","0.0-84.0","","","","","","null","","","","","","","","","",""
"null","","image-keyboard-response","85","24643","0.0-85.0","","","","","img/set1/S4.jpg","null","4","structured_incentive","74","structured_incentive,structured_load,structured_normal,random","2,1,3,4,2,3","1,3,2,4","false","","",""
"null","","html-keyboard-response","86","24995","0.0-86.0","","","","","<img src=""img/set1/S4.jpg"" width=""540"" height = ""360"">","null","","","","","","","","","",""
"null","","html-keyboard-response","87","25197","0.0-87.0","","","","","","null","","","","","","","","","",""
"null","","image-keyboard-response","88","25209","0.0-88.0","","","","","img/set1/S2.jpg","null","2","structured_incentive","68","structured_incentive,structured_load,structured_normal,random","2,1,3,4,2,3","1,3,2,4","false","","",""
"null","","html-keyboard-response","89","25562","0.0-89.0","","","","","<img src=""img/set1/S2.jpg"" width=""540"" height = ""360"">","null","","","","","","","","","",""
"null","","html-keyboard-response","90","25765","0.0-90.0","","","","","","null","","","","","","","","","",""
"null","","image-keyboard-response","91","25776","0.0-91.0","","","","","img/set1/S1.jpg","null","1","structured_incentive","83","structured_incentive,structured_load,structured_normal,random","2,1,3,4,2,3","1,3,2,4","false","","",""
"null","","html-keyboard-response","92","26129","0.0-92.0","","","","","<img src=""img/set1/S1.jpg"" width=""540"" height = ""360"">","null","","","","","","","","","",""
"null","","html-keyboard-response","93","26332","0.0-93.0","","","","","","null","","","","","","","","","",""
"null","","image-keyboard-response","94","26344","0.0-94.0","","","","","img/set1/S3.jpg","null","3","structured_incentive","72","structured_incentive,structured_load,structured_normal,random","2,1,3,4,2,3","1,3,2,4","false","","",""
"null","","html-keyboard-response","95","26696","0.0-95.0","","","","","<img src=""img/set1/S3.jpg"" width=""540"" height = ""360"">","null","","","","","","","","","",""
"null","","html-keyboard-response","96","26899","0.0-96.0","","","","","","null","","","","","","","","","",""
"null","","image-keyboard-response","97","26911","0.0-97.0","","","","","img/set1/S2.jpg","null","2","structured_incentive","68","structured_incentive,structured_load,structured_normal,random","2,1,3,4,2,3","1,3,2,4","false","","",""
"null","","html-keyboard-response","98","27264","0.0-98.0","","","","","<img src=""img/set1/S2.jpg"" width=""540"" height = ""360"">","null","","","","","","","","","",""
"null","","html-keyboard-response","99","27465","0.0-99.0","","","","","","null","","","","","","","","","",""
"null","","image-keyboard-response","100","27477","0.0-100.0","","","","","img/set1/S1.jpg","null","1","structured_incentive","83","structured_incentive,structured_load,structured_normal,random","2,1,3,4,2,3","1,3,2,4","false","","",""
"null","","html-keyboard-response","101","27830","0.0-101.0","","","","","<img src=""img/set1/S1.jpg"" width=""540"" height = ""360"">","null","","","","","","","","","",""
"null","","html-keyboard-response","102","28033","0.0-102.0","","","","","","null","","","","","","","","","",""
"null","","image-keyboard-response","103","28045","0.0-103.0","","","","","img/set1/S2.jpg","null","2","structured_incentive","68","structured_incentive,structured_load,structured_normal,random","2,1,3,4,2,3","1,3,2,4","false","","",""
"null","","html-keyboard-response","104","28397","0.0-104.0","","","","","<img src=""img/set1/S2.jpg"" width=""540"" height = ""360"">","null","","","","","","","","","",""
"null","","html-keyboard-response","105","28600","0.0-105.0","","","","","","null","","","","","","","","","",""
"null","","image-keyboard-response","106","28611","0.0-106.0","","","","","img/set1/S1.jpg","null","1","structured_incentive","83","structured_incentive,structured_load,structured_normal,random","2,1,3,4,2,3","1,3,2,4","false","","",""
"null","","html-keyboard-response","107","28964","0.0-107.0","","","","","<img src=""img/set1/S1.jpg"" width=""540"" height = ""360"">","null","","","","","","","","","",""
"null","","html-keyboard-response","108","29167","0.0-108.0","","","","","","null","","","","","","","","","",""
"null","","image-keyboard-response","109","29179","0.0-109.0","","","","","img/set1/S4.jpg","null","4","structured_incentive","74","structured_incentive,structured_load,structured_normal,random","2,1,3,4,2,3","1,3,2,4","false","","",""
"null","","html-keyboard-response","110","29531","0.0-110.0","","","","","<img src=""img/set1/S4.jpg"" width=""540"" height = ""360"">","null","","","","","","","","","",""
"null","","html-keyboard-response","111","29733","0.0-111.0","","","","","","null","","","","","","","","","",""
"null","","image-keyboard-response","112","29745","0.0-112.0","","","","","img/set1/S3.jpg","null","3","structured_incentive","72","structured_incentive,structured_load,structured_normal,random","2,1,3,4,2,3","1,3,2,4","false","","",""
"null","","html-keyboard-response","113","30096","0.0-113.0","","","","","<img src=""img/set1/S3.jpg"" width=""540"" height = ""360"">","null","","","","","","","","","",""
"null","","html-keyboard-response","114","30298","0.0-114.0","","","","","","null","","","","","","","","","",""
"null","","image-keyboard-response","115","30309","0.0-115.0","","","","","img/set1/S3.jpg","null","3","structured_incentive","72","structured_incentive,structured_load,structured_normal,random","2,1,3,4,2,3","1,3,2,4","false","","",""
"null","","html-keyboard-response","116","30661","0.0-116.0","","","","","<img src=""img/set1/S3.jpg"" width=""540"" height = ""360"">","null","","","","","","","","","",""
"null","","html-keyboard-response","117","30864","0.0-117.0","","","","","","null","","","","","","","","","",""
"null","","image-keyboard-response","118","30876","0.0-118.0","","","","","img/set1/S3.jpg","null","3","structured_incentive","72","structured_incentive,structured_load,structured_normal,random","2,1,3,4,2,3","1,3,2,4","false","","",""
"null","","html-keyboard-response","119","31229","0.0-119.0","","","","","<img src=""img/set1/S3.jpg"" width=""540"" height = ""360"">","null","","","","","","","","","",""
"null","","html-keyboard-response","120","31431","0.0-120.0","","","","","","null","","","","","","","","","",""
"null","","image-keyboard-response","121","31443","0.0-121.0","","","","","img/set1/S2.jpg","null","2","structured_incentive","68","structured_incentive,structured_load,structured_normal,random","2,1,3,4,2,3","1,3,2,4","false","","",""
"null","","html-keyboard-response","122","31795","0.0-122.0","","","","","<img src=""img/set1/S2.jpg"" width=""540"" height = ""360"">","null","","","","","","","","","",""
"null","","html-keyboard-response","123","31997","0.0-123.0","","","","","","null","","","","","","","","","",""
"null","","image-keyboard-response","124","32009","0.0-124.0","","","","","img/set1/S1.jpg","null","1","structured_incentive","83","structured_incentive,structured_load,structured_normal,random","2,1,3,4,2,3","1,3,2,4","false","","",""
"null","","html-keyboard-response","125","32361","0.0-125.0","","","","","<img src=""img/set1/S1.jpg"" width=""540"" height = ""360"">","null","","","","","","","","","",""
"null","","html-keyboard-response","126","32563","0.0-126.0","","","","","","null","","","","","","","","","",""
"null","","image-keyboard-response","127","32576","0.0-127.0","","","","","img/set1/S4.jpg","null","4","structured_incentive","74","structured_incentive,structured_load,structured_normal,random","2,1,3,4,2,3","1,3,2,4","false","","",""
"null","","html-keyboard-response","128","32928","0.0-128.0","","","","","<img src=""img/set1/S4.jpg"" width=""540"" height = ""360"">","null","","","","","","","","","",""
"null","","html-keyboard-response","129","33130","0.0-129.0","","","","","","null","","","","","","","","","",""
"null","","image-keyboard-response","130","33143","0.0-130.0","","","","","img/set1/S2.jpg","null","2","structured_incentive","68","structured_incentive,structured_load,structured_normal,random","2,1,3,4,2,3","1,3,2,4","false","","",""
"null","","html-keyboard-response","131","33495","0.0-131.0","","","","","<img src=""img/set1/S2.jpg"" width=""540"" height = ""360"">","null","","","","","","","","","",""
"null","","html-keyboard-response","132","33697","0.0-132.0","","","","","","null","","","","","","","","","",""
"null","","image-keyboard-response","133","33709","0.0-133.0","","","","","img/set1/S1.jpg","null","1","structured_incentive","83","structured_incentive,structured_load,structured_normal,random","2,1,3,4,2,3","1,3,2,4","false","","",""
"null","","html-keyboard-response","134","34062","0.0-134.0","","","","","<img src=""img/set1/S1.jpg"" width=""540"" height = ""360"">","null","","","","","","","","","",""
"null","","html-keyboard-response","135","34264","0.0-135.0","","","","","","null","","","","","","","","","",""
"null","","image-keyboard-response","136","34276","0.0-136.0","","","","","img/set1/S3.jpg","null","3","structured_incentive","72","structured_incentive,structured_load,structured_normal,random","2,1,3,4,2,3","1,3,2,4","false","","",""
"null","","html-keyboard-response","137","34630","0.0-137.0","","","","","<img src=""img/set1/S3.jpg"" width=""540"" height = ""360"">","null","","","","","","","","","",""
"null","","html-keyboard-response","138","34831","0.0-138.0","","","","","","null","","","","","","","","","",""
"null","","image-keyboard-response","139","34843","0.0-139.0","","","","","img/set1/S2.jpg","null","2","structured_incentive","68","structured_incentive,structured_load,structured_normal,random","2,1,3,4,2,3","1,3,2,4","false","","",""
"null","","html-keyboard-response","140","35196","0.0-140.0","","","","","<img src=""img/set1/S2.jpg"" width=""540"" height = ""360"">","null","","","","","","","","","",""
"null","","html-keyboard-response","141","35399","0.0-141.0","","","","","","null","","","","","","","","","",""
"null","","image-keyboard-response","142","35411","0.0-142.0","","","","","img/set1/S1.jpg","null","1","structured_incentive","83","structured_incentive,structured_load,structured_normal,random","2,1,3,4,2,3","1,3,2,4","false","","",""
"null","","html-keyboard-response","143","35764","0.0-143.0","","","","","<img src=""img/set1/S1.jpg"" width=""540"" height = ""360"">","null","","","","","","","","","",""
"null","","html-keyboard-response","144","35967","0.0-144.0","","","","","","null","","","","","","","","","",""
"null","","image-keyboard-response","145","35979","0.0-145.0","","","","","img/set1/S2.jpg","null","2","structured_incentive","68","structured_incentive,structured_load,structured_normal,random","2,1,3,4,2,3","1,3,2,4","false","","",""
"null","","html-keyboard-response","146","36332","0.0-146.0","","","","","<img src=""img/set1/S2.jpg"" width=""540"" height = ""360"">","null","","","","","","","","","",""
"null","","html-keyboard-response","147","36534","0.0-147.0","","","","","","null","","","","","","","","","",""
"null","","image-keyboard-response","148","36546","0.0-148.0","","","","","img/set1/S1.jpg","null","1","structured_incentive","83","structured_incentive,structured_load,structured_normal,random","2,1,3,4,2,3","1,3,2,4","false","","",""
"null","","html-keyboard-response","149","36900","0.0-149.0","","","","","<img src=""img/set1/S1.jpg"" width=""540"" height = ""360"">","null","","","","","","","","","",""
"null","","html-keyboard-response","150","37104","0.0-150.0","","","","","","null","","","","","","","","","",""
"null","","image-keyboard-response","151","37116","0.0-151.0","","","","","img/set1/S3.jpg","null","3","structured_incentive","72","structured_incentive,structured_load,structured_normal,random","2,1,3,4,2,3","1,3,2,4","false","","",""
"null","","html-keyboard-response","152","37470","0.0-152.0","","","","","<img src=""img/set1/S3.jpg"" width=""540"" height = ""360"">","null","","","","","","","","","",""
"null","","html-keyboard-response","153","37674","0.0-153.0","","","","","","null","","","","","","","","","",""
"null","","image-keyboard-response","154","37686","0.0-154.0","","","","","img/set1/S4.jpg","null","4","structured_incentive","74","structured_incentive,structured_load,structured_normal,random","2,1,3,4,2,3","1,3,2,4","false","","",""
"null","","html-keyboard-response","155","38041","0.0-155.0","","","","","<img src=""img/set1/S4.jpg"" width=""540"" height = ""360"">","null","","","","","","","","","",""
"null","","html-keyboard-response","156","38242","0.0-156.0","","","","","","null","","","","","","","","","",""
"null","","image-keyboard-response","157","38255","0.0-157.0","","","","","img/set1/S4.jpg","null","4","structured_incentive","74","structured_incentive,structured_load,structured_normal,random","2,1,3,4,2,3","1,3,2,4","false","","",""
"null","","html-keyboard-response","158","38608","0.0-158.0","","","","","<img src=""img/set1/S4.jpg"" width=""540"" height = ""360"">","null","","","","","","","","","",""
"null","","html-keyboard-response","159","38810","0.0-159.0","","","","","","null","","","","","","","","","",""
"null","","image-keyboard-response","160","38822","0.0-160.0","","","","","img/set1/S3.jpg","null","3","structured_incentive","72","structured_incentive,structured_load,structured_normal,random","2,1,3,4,2,3","1,3,2,4","false","","",""
"null","","html-keyboard-response","161","39175","0.0-161.0","","","","","<img src=""img/set1/S3.jpg"" width=""540"" height = ""360"">","null","","","","","","","","","",""
"null","","html-keyboard-response","162","39376","0.0-162.0","","","","","","null","","","","","","","","","",""
"null","","image-keyboard-response","163","39388","0.0-163.0","","","","","img/set1/S2.jpg","null","2","structured_incentive","68","structured_incentive,structured_load,structured_normal,random","2,1,3,4,2,3","1,3,2,4","false","","",""
"null","","html-keyboard-response","164","39742","0.0-164.0","","","","","<img src=""img/set1/S2.jpg"" width=""540"" height = ""360"">","null","","","","","","","","","",""
"null","","html-keyboard-response","165","39943","0.0-165.0","","","","","","null","","","","","","","","","",""
"null","","image-keyboard-response","166","39955","0.0-166.0","","","","","img/set1/S1.jpg","null","1","structured_incentive","83","structured_incentive,structured_load,structured_normal,random","2,1,3,4,2,3","1,3,2,4","false","","",""
"null","","html-keyboard-response","167","40308","0.0-167.0","","","","","<img src=""img/set1/S1.jpg"" width=""540"" height = ""360"">","null","","","","","","","","","",""
"null","","html-keyboard-response","168","40510","0.0-168.0","","","","","","null","","","","","","","","","",""
"null","","image-keyboard-response","169","40522","0.0-169.0","","","","","img/set1/S4.jpg","null","4","structured_incentive","74","structured_incentive,structured_load,structured_normal,random","2,1,3,4,2,3","1,3,2,4","false","","",""
"null","","html-keyboard-response","170","40876","0.0-170.0","","","","","<img src=""img/set1/S4.jpg"" width=""540"" height = ""360"">","null","","","","","","","","","",""
"null","","html-keyboard-response","171","41077","0.0-171.0","","","","","","null","","","","","","","","","",""
"null","","image-keyboard-response","172","41090","0.0-172.0","","","","","img/set1/S4.jpg","null","4","structured_incentive","74","structured_incentive,structured_load,structured_normal,random","2,1,3,4,2,3","1,3,2,4","false","","",""
"null","","html-keyboard-response","173","41442","0.0-173.0","","","","","<img src=""img/set1/S4.jpg"" width=""540"" height = ""360"">","null","","","","","","","","","",""
"null","","html-keyboard-response","174","41644","0.0-174.0","","","","","","null","","","","","","","","","",""
"null","","image-keyboard-response","175","41657","0.0-175.0","","","","","img/set1/S4.jpg","null","4","structured_incentive","74","structured_incentive,structured_load,structured_normal,random","2,1,3,4,2,3","1,3,2,4","false","","",""
"null","","html-keyboard-response","176","42009","0.0-176.0","","","","","<img src=""img/set1/S4.jpg"" width=""540"" height = ""360"">","null","","","","","","","","","",""
"null","","html-keyboard-response","177","42211","0.0-177.0","","","","","","null","","","","","","","","","",""
"null","","image-keyboard-response","178","42224","0.0-178.0","","","","","img/set1/S3.jpg","null","3","structured_incentive","72","structured_incentive,structured_load,structured_normal,random","2,1,3,4,2,3","1,3,2,4","false","","",""
"null","","html-keyboard-response","179","42576","0.0-179.0","","","","","<img src=""img/set1/S3.jpg"" width=""540"" height = ""360"">","null","","","","","","","","","",""
"null","","html-keyboard-response","180","42777","0.0-180.0","","","","","","null","","","","","","","","","",""
"null","","image-keyboard-response","181","42792","0.0-181.0","","","","","img/set1/S3.jpg","null","3","structured_incentive","72","structured_incentive,structured_load,structured_normal,random","2,1,3,4,2,3","1,3,2,4","false","","",""
"null","","html-keyboard-response","182","43144","0.0-182.0","","","","","<img src=""img/set1/S3.jpg"" width=""540"" height = ""360"">","null","","","","","","","","","",""
"null","","html-keyboard-response","183","43347","0.0-183.0","","","","","","null","","","","","","","","","",""
"null","","image-keyboard-response","184","43358","0.0-184.0","","","","","img/set1/S3.jpg","null","3","structured_incentive","72","structured_incentive,structured_load,structured_normal,random","2,1,3,4,2,3","1,3,2,4","false","","",""
"null","","html-keyboard-response","185","43711","0.0-185.0","","","","","<img src=""img/set1/S3.jpg"" width=""540"" height = ""360"">","null","","","","","","","","","",""
"null","","html-keyboard-response","186","43913","0.0-186.0","","","","","","null","","","","","","","","","",""
"null","","image-keyboard-response","187","43926","0.0-187.0","","","","","img/set1/S4.jpg","null","4","structured_incentive","74","structured_incentive,structured_load,structured_normal,random","2,1,3,4,2,3","1,3,2,4","false","","",""
"null","","html-keyboard-response","188","44280","0.0-188.0","","","","","<img src=""img/set1/S4.jpg"" width=""540"" height = ""360"">","null","","","","","","","","","",""
"null","","html-keyboard-response","189","44483","0.0-189.0","","","","","","null","","","","","","","","","",""
"null","","image-keyboard-response","190","44494","0.0-190.0","","","","","img/set1/S3.jpg","null","3","structured_incentive","72","structured_incentive,structured_load,structured_normal,random","2,1,3,4,2,3","1,3,2,4","false","","",""
"null","","html-keyboard-response","191","44848","0.0-191.0","","","","","<img src=""img/set1/S3.jpg"" width=""540"" height = ""360"">","null","","","","","","","","","",""
"null","","html-keyboard-response","192","45052","0.0-192.0","","","","","","null","","","","","","","","","",""
"null","","image-keyboard-response","193","45064","0.0-193.0","","","","","img/set1/S3.jpg","null","3","structured_incentive","72","structured_incentive,structured_load,structured_normal,random","2,1,3,4,2,3","1,3,2,4","false","","",""
"null","","html-keyboard-response","194","45418","0.0-194.0","","","","","<img src=""img/set1/S3.jpg"" width=""540"" height = ""360"">","null","","","","","","","","","",""
"null","","html-keyboard-response","195","45620","0.0-195.0","","","","","","null","","","","","","","","","",""
"null","","image-keyboard-response","196","45632","0.0-196.0","","","","","img/set1/S3.jpg","null","3","structured_incentive","72","structured_incentive,structured_load,structured_normal,random","2,1,3,4,2,3","1,3,2,4","false","","",""
"null","","html-keyboard-response","197","45985","0.0-197.0","","","","","<img src=""img/set1/S3.jpg"" width=""540"" height = ""360"">","null","","","","","","","","","",""
"null","","html-keyboard-response","198","46188","0.0-198.0","","","","","","null","","","","","","","","","",""
"null","","image-keyboard-response","199","46202","0.0-199.0","","","","","img/set1/S3.jpg","null","3","structured_incentive","72","structured_incentive,structured_load,structured_normal,random","2,1,3,4,2,3","1,3,2,4","false","","",""
"null","","html-keyboard-response","200","46554","0.0-200.0","","","","","<img src=""img/set1/S3.jpg"" width=""540"" height = ""360"">","null","","","","","","","","","",""
"null","","html-keyboard-response","201","46756","0.0-201.0","","","","","","null","","","","","","","","","",""
"null","","image-keyboard-response","202","46769","0.0-202.0","","","","","img/set1/S3.jpg","null","3","structured_incentive","72","structured_incentive,structured_load,structured_normal,random","2,1,3,4,2,3","1,3,2,4","false","","",""
"null","","html-keyboard-response","203","47123","0.0-203.0","","","","","<img src=""img/set1/S3.jpg"" width=""540"" height = ""360"">","null","","","","","","","","","",""
"null","","html-keyboard-response","204","47325","0.0-204.0","","","","","","null","","","","","","","","","",""
"null","","image-keyboard-response","205","47337","0.0-205.0","","","","","img/set1/S2.jpg","null","2","structured_incentive","68","structured_incentive,structured_load,structured_normal,random","2,1,3,4,2,3","1,3,2,4","false","","",""
"null","","html-keyboard-response","206","47692","0.0-206.0","","","","","<img src=""img/set1/S2.jpg"" width=""540"" height = ""360"">","null","","","","","","","","","",""
"null","","html-keyboard-response","207","47894","0.0-207.0","","","","","","null","","","","","","","","","",""
"null","","image-keyboard-response","208","47907","0.0-208.0","","","","","img/set1/S1.jpg","null","1","structured_incentive","83","structured_incentive,structured_load,structured_normal,random","2,1,3,4,2,3","1,3,2,4","false","","",""
"null","","html-keyboard-response","209","48260","0.0-209.0","","","","","<img src=""img/set1/S1.jpg"" width=""540"" height = ""360"">","null","","","","","","","","","",""
"null","","html-keyboard-response","210","48461","0.0-210.0","","","","","","null","","","","","","","","","",""
"null","","image-keyboard-response","211","48474","0.0-211.0","","","","","img/set1/S2.jpg","null","2","structured_incentive","68","structured_incentive,structured_load,structured_normal,random","2,1,3,4,2,3","1,3,2,4","false","","",""
"null","","html-keyboard-response","212","48827","0.0-212.0","","","","","<img src=""img/set1/S2.jpg"" width=""540"" height = ""360"">","null","","","","","","","","","",""
"null","","html-keyboard-response","213","49028","0.0-213.0","","","","","","null","","","","","","","","","",""
"null","","image-keyboard-response","214","49043","0.0-214.0","","","","","img/set1/S1.jpg","null","1","structured_incentive","83","structured_incentive,structured_load,structured_normal,random","2,1,3,4,2,3","1,3,2,4","false","","",""
"null","","html-keyboard-response","215","49396","0.0-215.0","","","","","<img src=""img/set1/S1.jpg"" width=""540"" height = ""360"">","null","","","","","","","","","",""
"null","","html-keyboard-response","216","49599","0.0-216.0","","","","","","null","","","","","","","","","",""
"null","","image-keyboard-response","217","49610","0.0-217.0","","","","","img/set1/S4.jpg","null","4","structured_incentive","74","structured_incentive,structured_load,structured_normal,random","2,1,3,4,2,3","1,3,2,4","false","","",""
"null","","html-keyboard-response","218","49964","0.0-218.0","","","","","<img src=""img/set1/S4.jpg"" width=""540"" height = ""360"">","null","","","","","","","","","",""
"null","","html-keyboard-response","219","50166","0.0-219.0","","","","","","null","","","","","","","","","",""
"null","","image-keyboard-response","220","50178","0.0-220.0","","","","","img/set1/S2.jpg","null","2","structured_incentive","68","structured_incentive,structured_load,structured_normal,random","2,1,3,4,2,3","1,3,2,4","false","","",""
"null","","html-keyboard-response","221","50532","0.0-221.0","","","","","<img src=""img/set1/S2.jpg"" width=""540"" height = ""360"">","null","","","","","","","","","",""
"null","","html-keyboard-response","222","50735","0.0-222.0","","","","","","null","","","","","","","","","",""
"null","","image-keyboard-response","223","50747","0.0-223.0","","","","","img/set1/S1.jpg","null","1","structured_incentive","83","structured_incentive,structured_load,structured_normal,random","2,1,3,4,2,3","1,3,2,4","false","","",""
"null","","html-keyboard-response","224","51101","0.0-224.0","","","","","<img src=""img/set1/S1.jpg"" width=""540"" height = ""360"">","null","","","","","","","","","",""
"null","","html-keyboard-response","225","51302","0.0-225.0","","","","","","null","","","","","","","","","",""
"null","","image-keyboard-response","226","51314","0.0-226.0","","","","","img/set1/S3.jpg","null","3","structured_incentive","72","structured_incentive,structured_load,structured_normal,random","2,1,3,4,2,3","1,3,2,4","false","","",""
"null","","html-keyboard-response","227","51667","0.0-227.0","","","","","<img src=""img/set1/S3.jpg"" width=""540"" height = ""360"">","null","","","","","","","","","",""
"null","","html-keyboard-response","228","51868","0.0-228.0","","","","","","null","","","","","","","","","",""
"null","","image-keyboard-response","229","51880","0.0-229.0","","","","","img/set1/S3.jpg","null","3","structured_incentive","72","structured_incentive,structured_load,structured_normal,random","2,1,3,4,2,3","1,3,2,4","false","","",""
"null","","html-keyboard-response","230","52233","0.0-230.0","","","","","<img src=""img/set1/S3.jpg"" width=""540"" height = ""360"">","null","","","","","","","","","",""
"null","","html-keyboard-response","231","52438","0.0-231.0","","","","","","null","","","","","","","","","",""
"null","","image-keyboard-response","232","52451","0.0-232.0","","","","","img/set1/S4.jpg","null","4","structured_incentive","74","structured_incentive,structured_load,structured_normal,random","2,1,3,4,2,3","1,3,2,4","false","","",""
"null","","html-keyboard-response","233","52804","0.0-233.0","","","","","<img src=""img/set1/S4.jpg"" width=""540"" height = ""360"">","null","","","","","","","","","",""
"null","","html-keyboard-response","234","53007","0.0-234.0","","","","","","null","","","","","","","","","",""
"null","","image-keyboard-response","235","53021","0.0-235.0","","","","","img/set1/S4.jpg","null","4","structured_incentive","74","structured_incentive,structured_load,structured_normal,random","2,1,3,4,2,3","1,3,2,4","false","","",""
"null","","html-keyboard-response","236","53374","0.0-236.0","","","","","<img src=""img/set1/S4.jpg"" width=""540"" height = ""360"">","null","","","","","","","","","",""
"null","","html-keyboard-response","237","53576","0.0-237.0","","","","","","null","","","","","","","","","",""
"null","","image-keyboard-response","238","53590","0.0-238.0","","","","","img/set1/S2.jpg","null","2","structured_incentive","68","structured_incentive,structured_load,structured_normal,random","2,1,3,4,2,3","1,3,2,4","false","","",""
"null","","html-keyboard-response","239","53943","0.0-239.0","","","","","<img src=""img/set1/S2.jpg"" width=""540"" height = ""360"">","null","","","","","","","","","",""
"null","","html-keyboard-response","240","54145","0.0-240.0","","","","","","null","","","","","","","","","",""
"null","","image-keyboard-response","241","54158","0.0-241.0","","","","","img/set1/S1.jpg","null","1","structured_incentive","83","structured_incentive,structured_load,structured_normal,random","2,1,3,4,2,3","1,3,2,4","false","","",""
"null","","html-keyboard-response","242","54512","0.0-242.0","","","","","<img src=""img/set1/S1.jpg"" width=""540"" height = ""360"">","null","","","","","","","","","",""
"null","","html-keyboard-response","243","54714","0.0-243.0","","","","","","null","","","","","","","","","",""
"null","","image-keyboard-response","244","54726","0.0-244.0","","","","","img/set1/S3.jpg","null","3","structured_incentive","72","structured_incentive,structured_load,structured_normal,random","2,1,3,4,2,3","1,3,2,4","false","","",""
"null","","html-keyboard-response","245","55079","0.0-245.0","","","","","<img src=""img/set1/S3.jpg"" width=""540"" height = ""360"">","null","","","","","","","","","",""
"null","","html-keyboard-response","246","55281","0.0-246.0","","","","","","null","","","","","","","","","",""
"null","","image-keyboard-response","247","55293","0.0-247.0","","","","","img/set1/S2.jpg","null","2","structured_incentive","68","structured_incentive,structured_load,structured_normal,random","2,1,3,4,2,3","1,3,2,4","false","","",""
"null","","html-keyboard-response","248","55646","0.0-248.0","","","","","<img src=""img/set1/S2.jpg"" width=""540"" height = ""360"">","null","","","","","","","","","",""
"null","","html-keyboard-response","249","55849","0.0-249.0","","","","","","null","","","","","","","","","",""
"null","","image-keyboard-response","250","55861","0.0-250.0","","","","","img/set1/S1.jpg","null","1","structured_incentive","83","structured_incentive,structured_load,structured_normal,random","2,1,3,4,2,3","1,3,2,4","false","","",""
"null","","html-keyboard-response","251","56214","0.0-251.0","","","","","<img src=""img/set1/S1.jpg"" width=""540"" height = ""360"">","null","","","","","","","","","",""
"null","","html-keyboard-response","252","56417","0.0-252.0","","","","","","null","","","","","","","","","",""
"null","","image-keyboard-response","253","56429","0.0-253.0","","","","","img/set1/S3.jpg","null","3","structured_incentive","72","structured_incentive,structured_load,structured_normal,random","2,1,3,4,2,3","1,3,2,4","false","","",""
"null","","html-keyboard-response","254","56783","0.0-254.0","","","","","<img src=""img/set1/S3.jpg"" width=""540"" height = ""360"">","null","","","","","","","","","",""
"null","","html-keyboard-response","255","56987","0.0-255.0","","","","","","null","","","","","","","","","",""
"null","","image-keyboard-response","256","57000","0.0-256.0","","","","","img/set1/S2.jpg","null","2","structured_incentive","68","structured_incentive,structured_load,structured_normal,random","2,1,3,4,2,3","1,3,2,4","false","","",""
"null","","html-keyboard-response","257","57355","0.0-257.0","","","","","<img src=""img/set1/S2.jpg"" width=""540"" height = ""360"">","null","","","","","","","","","",""
"null","","html-keyboard-response","258","57558","0.0-258.0","","","","","","null","","","","","","","","","",""
"null","","image-keyboard-response","259","57569","0.0-259.0","","","","","img/set1/S1.jpg","null","1","structured_incentive","83","structured_incentive,structured_load,structured_normal,random","2,1,3,4,2,3","1,3,2,4","false","","",""
"null","","html-keyboard-response","260","57925","0.0-260.0","","","","","<img src=""img/set1/S1.jpg"" width=""540"" height = ""360"">","null","","","","","","","","","",""
"null","","html-keyboard-response","261","58126","0.0-261.0","","","","","","null","","","","","","","","","",""
"null","","image-keyboard-response","262","58139","0.0-262.0","","","","","img/set1/S4.jpg","null","4","structured_incentive","74","structured_incentive,structured_load,structured_normal,random","2,1,3,4,2,3","1,3,2,4","false","","",""
"null","","html-keyboard-response","263","58491","0.0-263.0","","","","","<img src=""img/set1/S4.jpg"" width=""540"" height = ""360"">","null","","","","","","","","","",""
"null","","html-keyboard-response","264","58693","0.0-264.0","","","","","","null","","","","","","","","","",""
"null","","image-keyboard-response","265","58706","0.0-265.0","","","","","img/set1/S2.jpg","null","2","structured_incentive","68","structured_incentive,structured_load,structured_normal,random","2,1,3,4,2,3","1,3,2,4","false","","",""
"null","","html-keyboard-response","266","59059","0.0-266.0","","","","","<img src=""img/set1/S2.jpg"" width=""540"" height = ""360"">","null","","","","","","","","","",""
"null","","html-keyboard-response","267","59261","0.0-267.0","","","","","","null","","","","","","","","","",""
"null","","image-keyboard-response","268","59276","0.0-268.0","","","","","img/set1/S1.jpg","null","1","structured_incentive","83","structured_incentive,structured_load,structured_normal,random","2,1,3,4,2,3","1,3,2,4","false","","",""
"null","","html-keyboard-response","269","59629","0.0-269.0","","","","","<img src=""img/set1/S1.jpg"" width=""540"" height = ""360"">","null","","","","","","","","","",""
"null","","html-keyboard-response","270","59831","0.0-270.0","","","","","","null","","","","","","","","","",""
"null","","image-keyboard-response","271","59843","0.0-271.0","","","","","img/set1/S3.jpg","null","3","structured_incentive","72","structured_incentive,structured_load,structured_normal,random","2,1,3,4,2,3","1,3,2,4","false","","",""
"null","","html-keyboard-response","272","60197","0.0-272.0","","","","","<img src=""img/set1/S3.jpg"" width=""540"" height = ""360"">","null","","","","","","","","","",""
"null","","html-keyboard-response","273","60400","0.0-273.0","","","","","","null","","","","","","","","","",""
"null","","image-keyboard-response","274","60412","0.0-274.0","","","","","img/set1/S4.jpg","null","4","structured_incentive","74","structured_incentive,structured_load,structured_normal,random","2,1,3,4,2,3","1,3,2,4","false","","",""
"null","","html-keyboard-response","275","60765","0.0-275.0","","","","","<img src=""img/set1/S4.jpg"" width=""540"" height = ""360"">","null","","","","","","","","","",""
"null","","html-keyboard-response","276","60967","0.0-276.0","","","","","","null","","","","","","","","","",""
"null","","image-keyboard-response","277","60979","0.0-277.0","","","","","img/set1/S2.jpg","null","2","structured_incentive","68","structured_incentive,structured_load,structured_normal,random","2,1,3,4,2,3","1,3,2,4","false","","",""
"null","","html-keyboard-response","278","61331","0.0-278.0","","","","","<img src=""img/set1/S2.jpg"" width=""540"" height = ""360"">","null","","","","","","","","","",""
"null","","html-keyboard-response","279","61535","0.0-279.0","","","","","","null","","","","","","","","","",""
"null","","image-keyboard-response","280","61547","0.0-280.0","","","","","img/set1/S1.jpg","null","1","structured_incentive","83","structured_incentive,structured_load,structured_normal,random","2,1,3,4,2,3","1,3,2,4","false","","",""
"null","","html-keyboard-response","281","61901","0.0-281.0","","","","","<img src=""img/set1/S1.jpg"" width=""540"" height = ""360"">","null","","","","","","","","","",""
"null","","html-keyboard-response","282","62104","0.0-282.0","","","","","","null","","","","","","","","","",""
"null","","image-keyboard-response","283","62116","0.0-283.0","","","","","img/set1/S4.jpg","null","4","structured_incentive","74","structured_incentive,structured_load,structured_normal,random","2,1,3,4,2,3","1,3,2,4","false","","",""
"null","","html-keyboard-response","284","62471","0.0-284.0","","","","","<img src=""img/set1/S4.jpg"" width=""540"" height = ""360"">","null","","","","","","","","","",""
"null","","html-keyboard-response","285","62673","0.0-285.0","","","","","","null","","","","","","","","","",""
"null","","image-keyboard-response","286","62685","0.0-286.0","","","","","img/set1/S4.jpg","null","4","structured_incentive","74","structured_incentive,structured_load,structured_normal,random","2,1,3,4,2,3","1,3,2,4","false","","",""
"null","","html-keyboard-response","287","63040","0.0-287.0","","","","","<img src=""img/set1/S4.jpg"" width=""540"" height = ""360"">","null","","","","","","","","","",""
"null","","html-keyboard-response","288","63242","0.0-288.0","","","","","","null","","","","","","","","","",""
"null","","image-keyboard-response","289","63256","0.0-289.0","","","","","img/set1/S2.jpg","null","2","structured_incentive","68","structured_incentive,structured_load,structured_normal,random","2,1,3,4,2,3","1,3,2,4","false","","",""
"null","","html-keyboard-response","290","63609","0.0-290.0","","","","","<img src=""img/set1/S2.jpg"" width=""540"" height = ""360"">","null","","","","","","","","","",""
"null","","html-keyboard-response","291","63811","0.0-291.0","","","","","","null","","","","","","","","","",""
"null","","image-keyboard-response","292","63823","0.0-292.0","","","","","img/set1/S1.jpg","null","1","structured_incentive","83","structured_incentive,structured_load,structured_normal,random","2,1,3,4,2,3","1,3,2,4","false","","",""
"null","","html-keyboard-response","293","64176","0.0-293.0","","","","","<img src=""img/set1/S1.jpg"" width=""540"" height = ""360"">","null","","","","","","","","","",""
"null","","html-keyboard-response","294","64378","0.0-294.0","","","","","","null","","","","","","","","","",""
"null","","image-keyboard-response","295","64391","0.0-295.0","","","","","img/set1/S3.jpg","null","3","structured_incentive","72","structured_incentive,structured_load,structured_normal,random","2,1,3,4,2,3","1,3,2,4","false","","",""
"null","","html-keyboard-response","296","64744","0.0-296.0","","","","","<img src=""img/set1/S3.jpg"" width=""540"" height = ""360"">","null","","","","","","","","","",""
"null","","html-keyboard-response","297","64946","0.0-297.0","","","","","","null","","","","","","","","","",""
"null","","image-keyboard-response","298","64960","0.0-298.0","","","","","img/set1/S4.jpg","null","4","structured_incentive","74","structured_incentive,structured_load,structured_normal,random","2,1,3,4,2,3","1,3,2,4","false","","",""
"null","","html-keyboard-response","299","65313","0.0-299.0","","","","","<img src=""img/set1/S4.jpg"" width=""540"" height = ""360"">","null","","","","","","","","","",""
"null","","html-keyboard-response","300","65516","0.0-300.0","","","","","","null","","","","","","","","","",""
"null","","image-keyboard-response","301","65528","0.0-301.0","","","","","img/set1/S2.jpg","null","2","structured_incentive","68","structured_incentive,structured_load,structured_normal,random","2,1,3,4,2,3","1,3,2,4","false","","",""
"null","","html-keyboard-response","302","65881","0.0-302.0","","","","","<img src=""img/set1/S2.jpg"" width=""540"" height = ""360"">","null","","","","","","","","","",""
"null","","html-keyboard-response","303","66083","0.0-303.0","","","","","","null","","","","","","","","","",""
"null","","image-keyboard-response","304","66095","0.0-304.0","","","","","img/set1/S1.jpg","null","1","structured_incentive","83","structured_incentive,structured_load,structured_normal,random","2,1,3,4,2,3","1,3,2,4","false","","",""
"null","","html-keyboard-response","305","66448","0.0-305.0","","","","","<img src=""img/set1/S1.jpg"" width=""540"" height = ""360"">","null","","","","","","","","","",""
"null","","html-keyboard-response","306","66651","0.0-306.0","","","","","","null","","","","","","","","","",""
"null","","image-keyboard-response","307","66663","0.0-307.0","","","","","img/set1/S2.jpg","null","2","structured_incentive","68","structured_incentive,structured_load,structured_normal,random","2,1,3,4,2,3","1,3,2,4","false","","",""
"null","","html-keyboard-response","308","67015","0.0-308.0","","","","","<img src=""img/set1/S2.jpg"" width=""540"" height = ""360"">","null","","","","","","","","","",""
"null","","html-keyboard-response","309","67219","0.0-309.0","","","","","","null","","","","","","","","","",""
"null","","image-keyboard-response","310","67231","0.0-310.0","","","","","img/set1/S1.jpg","null","1","structured_incentive","83","structured_incentive,structured_load,structured_normal,random","2,1,3,4,2,3","1,3,2,4","false","","",""
"null","","html-keyboard-response","311","67583","0.0-311.0","","","","","<img src=""img/set1/S1.jpg"" width=""540"" height = ""360"">","null","","","","","","","","","",""
"null","","html-keyboard-response","312","67787","0.0-312.0","","","","","","null","","","","","","","","","",""
"null","","image-keyboard-response","313","67800","0.0-313.0","","","","","img/set1/S4.jpg","null","4","structured_incentive","74","structured_incentive,structured_load,structured_normal,random","2,1,3,4,2,3","1,3,2,4","false","","",""
"null","","html-keyboard-response","314","68154","0.0-314.0","","","","","<img src=""img/set1/S4.jpg"" width=""540"" height = ""360"">","null","","","","","","","","","",""
"null","","html-keyboard-response","315","68359","0.0-315.0","","","","","","null","","","","","","","","","",""
"null","","image-keyboard-response","316","68373","0.0-316.0","","","","","img/set1/S3.jpg","null","3","structured_incentive","72","structured_incentive,structured_load,structured_normal,random","2,1,3,4,2,3","1,3,2,4","false","","",""
"null","","html-keyboard-response","317","68725","0.0-317.0","","","","","<img src=""img/set1/S3.jpg"" width=""540"" height = ""360"">","null","","","","","","","","","",""
"null","","html-keyboard-response","318","68928","0.0-318.0","","","","","","null","","","","","","","","","",""
"null","","image-keyboard-response","319","68940","0.0-319.0","","","","","img/set1/S4.jpg","null","4","structured_incentive","74","structured_incentive,structured_load,structured_normal,random","2,1,3,4,2,3","1,3,2,4","false","","",""
"null","","html-keyboard-response","320","69293","0.0-320.0","","","","","<img src=""img/set1/S4.jpg"" width=""540"" height = ""360"">","null","","","","","","","","","",""
"null","","html-keyboard-response","321","69495","0.0-321.0","","","","","","null","","","","","","","","","",""
"null","","image-keyboard-response","322","69509","0.0-322.0","","","","","img/set1/S2.jpg","null","2","structured_incentive","68","structured_incentive,structured_load,structured_normal,random","2,1,3,4,2,3","1,3,2,4","false","","",""
"null","","html-keyboard-response","323","69862","0.0-323.0","","","","","<img src=""img/set1/S2.jpg"" width=""540"" height = ""360"">","null","","","","","","","","","",""
"null","","html-keyboard-response","324","70066","0.0-324.0","","","","","","null","","","","","","","","","",""
"null","","image-keyboard-response","325","70078","0.0-325.0","","","","","img/set1/S1.jpg","null","1","structured_incentive","83","structured_incentive,structured_load,structured_normal,random","2,1,3,4,2,3","1,3,2,4","false","","",""
"null","","html-keyboard-response","326","70431","0.0-326.0","","","","","<img src=""img/set1/S1.jpg"" width=""540"" height = ""360"">","null","","","","","","","","","",""
"null","","html-keyboard-response","327","70635","0.0-327.0","","","","","","null","","","","","","","","","",""
"null","","image-keyboard-response","328","70647","0.0-328.0","","","","","img/set1/S2.jpg","null","2","structured_incentive","68","structured_incentive,structured_load,structured_normal,random","2,1,3,4,2,3","1,3,2,4","false","","",""
"null","","html-keyboard-response","329","71000","0.0-329.0","","","","","<img src=""img/set1/S2.jpg"" width=""540"" height = ""360"">","null","","","","","","","","","",""
"null","","html-keyboard-response","330","71202","0.0-330.0","","","","","","null","","","","","","","","","",""
"null","","image-keyboard-response","331","71214","0.0-331.0","","","","","img/set1/S1.jpg","null","1","structured_incentive","83","structured_incentive,structured_load,structured_normal,random","2,1,3,4,2,3","1,3,2,4","false","","",""
"null","","html-keyboard-response","332","71568","0.0-332.0","","","","","<img src=""img/set1/S1.jpg"" width=""540"" height = ""360"">","null","","","","","","","","","",""
"null","","html-keyboard-response","333","71771","0.0-333.0","","","","","","null","","","","","","","","","",""
"null","","image-keyboard-response","334","71783","0.0-334.0","","","","","img/set1/S2.jpg","null","2","structured_incentive","68","structured_incentive,structured_load,structured_normal,random","2,1,3,4,2,3","1,3,2,4","false","","",""
"null","","html-keyboard-response","335","72138","0.0-335.0","","","","","<img src=""img/set1/S2.jpg"" width=""540"" height = ""360"">","null","","","","","","","","","",""
"null","","html-keyboard-response","336","72341","0.0-336.0","","","","","","null","","","","","","","","","",""
"null","","image-keyboard-response","337","72355","0.0-337.0","","","","","img/set1/S1.jpg","null","1","structured_incentive","83","structured_incentive,structured_load,structured_normal,random","2,1,3,4,2,3","1,3,2,4","false","","",""
"null","","html-keyboard-response","338","72708","0.0-338.0","","","","","<img src=""img/set1/S1.jpg"" width=""540"" height = ""360"">","null","","","","","","","","","",""
"null","","html-keyboard-response","339","72910","0.0-339.0","","","","","","null","","","","","","","","","",""
"null","","image-keyboard-response","340","72924","0.0-340.0","","","","","img/set1/S2.jpg","null","2","structured_incentive","68","structured_incentive,structured_load,structured_normal,random","2,1,3,4,2,3","1,3,2,4","false","","",""
"null","","html-keyboard-response","341","73277","0.0-341.0","","","","","<img src=""img/set1/S2.jpg"" width=""540"" height = ""360"">","null","","","","","","","","","",""
"null","","html-keyboard-response","342","73479","0.0-342.0","","","","","","null","","","","","","","","","",""
"null","","image-keyboard-response","343","73492","0.0-343.0","","","","","img/set1/S1.jpg","null","1","structured_incentive","83","structured_incentive,structured_load,structured_normal,random","2,1,3,4,2,3","1,3,2,4","false","","",""
"null","","html-keyboard-response","344","73845","0.0-344.0","","","","","<img src=""img/set1/S1.jpg"" width=""540"" height = ""360"">","null","","","","","","","","","",""
"null","","html-keyboard-response","345","74048","0.0-345.0","","","","","","null","","","","","","","","","",""
"null","","image-keyboard-response","346","74060","0.0-346.0","","","","","img/set1/S3.jpg","null","3","structured_incentive","72","structured_incentive,structured_load,structured_normal,random","2,1,3,4,2,3","1,3,2,4","false","","",""
"null","","html-keyboard-response","347","74413","0.0-347.0","","","","","<img src=""img/set1/S3.jpg"" width=""540"" height = ""360"">","null","","","","","","","","","",""
"null","","html-keyboard-response","348","74617","0.0-348.0","","","","","","null","","","","","","","","","",""
"null","","image-keyboard-response","349","74629","0.0-349.0","","","","","img/set1/S4.jpg","null","4","structured_incentive","74","structured_incentive,structured_load,structured_normal,random","2,1,3,4,2,3","1,3,2,4","false","","",""
"null","","html-keyboard-response","350","74983","0.0-350.0","","","","","<img src=""img/set1/S4.jpg"" width=""540"" height = ""360"">","null","","","","","","","","","",""
"null","","html-keyboard-response","351","75186","0.0-351.0","","","","","","null","","","","","","","","","",""
"null","","image-keyboard-response","352","75198","0.0-352.0","","","","","img/set1/S2.jpg","null","2","structured_incentive","68","structured_incentive,structured_load,structured_normal,random","2,1,3,4,2,3","1,3,2,4","false","","",""
"null","","html-keyboard-response","353","75553","0.0-353.0","","","","","<img src=""img/set1/S2.jpg"" width=""540"" height = ""360"">","null","","","","","","","","","",""
"null","","html-keyboard-response","354","75755","0.0-354.0","","","","","","null","","","","","","","","","",""
"null","","image-keyboard-response","355","75768","0.0-355.0","","","","","img/set1/S1.jpg","null","1","structured_incentive","83","structured_incentive,structured_load,structured_normal,random","2,1,3,4,2,3","1,3,2,4","false","","",""
"null","","html-keyboard-response","356","76121","0.0-356.0","","","","","<img src=""img/set1/S1.jpg"" width=""540"" height = ""360"">","null","","","","","","","","","",""
"null","","html-keyboard-response","357","76323","0.0-357.0","","","","","","null","","","","","","","","","",""
"null","","image-keyboard-response","358","76337","0.0-358.0","","","","","img/set1/S2.jpg","null","2","structured_incentive","68","structured_incentive,structured_load,structured_normal,random","2,1,3,4,2,3","1,3,2,4","false","","",""
"null","","html-keyboard-response","359","76689","0.0-359.0","","","","","<img src=""img/set1/S2.jpg"" width=""540"" height = ""360"">","null","","","","","","","","","",""
"null","","html-keyboard-response","360","76892","0.0-360.0","","","","","","null","","","","","","","","","",""
"null","","image-keyboard-response","361","76907","0.0-361.0","","","","","img/set1/S1.jpg","null","1","structured_incentive","83","structured_incentive,structured_load,structured_normal,random","2,1,3,4,2,3","1,3,2,4","false","","",""
"null","","html-keyboard-response","362","77260","0.0-362.0","","","","","<img src=""img/set1/S1.jpg"" width=""540"" height = ""360"">","null","","","","","","","","","",""
"null","","html-keyboard-response","363","77462","0.0-363.0","","","","","","null","","","","","","","","","",""
"14567.400000095367","","html-keyboard-response","364","92031","0.0-364.0","","","","","<p class=""center-content"">You have completed a block! </p><p class=""center-content"">Press any key on the keyboard to continue, </p><p class=""center-content"">or wait for the automatic progression to the next block after one minute.</p>","32","","","","","","","","","",""
"1618.5999999046326","","instructions","365","93650","0.0-365.0","","","","[{""page_index"":0,""viewing_time"":1618.3000001907349}]","","","","","","","","","","","",""
"1358.8000001907349","","instructions","366","95010","0.0-366.0","","","","[{""page_index"":0,""viewing_time"":645.5},{""page_index"":1,""viewing_time"":713}]","","","","","","","","","","","",""
"null","","image-keyboard-response","367","95023","0.0-367.0","","","","","img/set2/S2.jpg","null","2","structured_load","68","structured_incentive,structured_load,structured_normal,random","2,1,3,4,2,3","1,3,2,4","false","","",""
"null","","html-keyboard-response","368","95376","0.0-368.0","","","","","<img src=""img/set2/S2.jpg"" width=""540"" height = ""360"">","null","","","","","","","","","",""
"null","","html-keyboard-response","369","95577","0.0-369.0","","","","","","null","","","","","","","","","",""
"null","","image-keyboard-response","370","95589","0.0-370.0","","","","","img/set2/S2.jpg","null","2","structured_load","68","structured_incentive,structured_load,structured_normal,random","2,1,3,4,2,3","1,3,2,4","false","","",""
"null","","html-keyboard-response","371","95942","0.0-371.0","","","","","<img src=""img/set2/S2.jpg"" width=""540"" height = ""360"">","null","","","","","","","","","",""
"null","","html-keyboard-response","372","96143","0.0-372.0","","","","","","null","","","","","","","","","",""
"null","","image-keyboard-response","373","96155","0.0-373.0","","","","","img/set2/S2.jpg","null","2","structured_load","68","structured_incentive,structured_load,structured_normal,random","2,1,3,4,2,3","1,3,2,4","false","","",""
"null","","html-keyboard-response","374","96509","0.0-374.0","","","","","<img src=""img/set2/S2.jpg"" width=""540"" height = ""360"">","null","","","","","","","","","",""
"null","","html-keyboard-response","375","96710","0.0-375.0","","","","","","null","","","","","","","","","",""
"null","","image-keyboard-response","376","96724","0.0-376.0","","","","","img/set2/S2.jpg","null","2","structured_load","68","structured_incentive,structured_load,structured_normal,random","2,1,3,4,2,3","1,3,2,4","false","","",""
"null","","html-keyboard-response","377","97076","0.0-377.0","","","","","<img src=""img/set2/S2.jpg"" width=""540"" height = ""360"">","null","","","","","","","","","",""
"null","","html-keyboard-response","378","97277","0.0-378.0","","","","","","null","","","","","","","","","",""
"null","","image-keyboard-response","379","97290","0.0-379.0","","","","","img/set2/S3.jpg","null","3","structured_load","72","structured_incentive,structured_load,structured_normal,random","2,1,3,4,2,3","1,3,2,4","false","","",""
"null","","html-keyboard-response","380","97642","0.0-380.0","","","","","<img src=""img/set2/S3.jpg"" width=""540"" height = ""360"">","null","","","","","","","","","",""
"null","","html-keyboard-response","381","97843","0.0-381.0","","","","","","null","","","","","","","","","",""
"null","","image-keyboard-response","382","97854","0.0-382.0","","","","","img/set2/S4.jpg","null","4","structured_load","74","structured_incentive,structured_load,structured_normal,random","2,1,3,4,2,3","1,3,2,4","false","","",""
"null","","html-keyboard-response","383","98208","0.0-383.0","","","","","<img src=""img/set2/S4.jpg"" width=""540"" height = ""360"">","null","","","","","","","","","",""
"null","","html-keyboard-response","384","98409","0.0-384.0","","","","","","null","","","","","","","","","",""
"null","","image-keyboard-response","385","98423","0.0-385.0","","","","","img/set2/S1.jpg","null","1","structured_load","83","structured_incentive,structured_load,structured_normal,random","2,1,3,4,2,3","1,3,2,4","false","","",""
"null","","html-keyboard-response","386","98775","0.0-386.0","","","","","<img src=""img/set2/S1.jpg"" width=""540"" height = ""360"">","null","","","","","","","","","",""
"null","","html-keyboard-response","387","98977","0.0-387.0","","","","","","null","","","","","","","","","",""
"null","","image-keyboard-response","388","98991","0.0-388.0","","","","","img/set2/S3.jpg","null","3","structured_load","72","structured_incentive,structured_load,structured_normal,random","2,1,3,4,2,3","1,3,2,4","false","","",""
"null","","html-keyboard-response","389","99342","0.0-389.0","","","","","<img src=""img/set2/S3.jpg"" width=""540"" height = ""360"">","null","","","","","","","","","",""
"null","","html-keyboard-response","390","99544","0.0-390.0","","","","","","null","","","","","","","","","",""
"null","","image-keyboard-response","391","99558","0.0-391.0","","","","","img/set2/S4.jpg","null","4","structured_load","74","structured_incentive,structured_load,structured_normal,random","2,1,3,4,2,3","1,3,2,4","false","","",""
"null","","html-keyboard-response","392","99910","0.0-392.0","","","","","<img src=""img/set2/S4.jpg"" width=""540"" height = ""360"">","null","","","","","","","","","",""
"null","","html-keyboard-response","393","100112","0.0-393.0","","","","","","null","","","","","","","","","",""
"null","","image-keyboard-response","394","100124","0.0-394.0","","","","","img/set2/S3.jpg","null","3","structured_load","72","structured_incentive,structured_load,structured_normal,random","2,1,3,4,2,3","1,3,2,4","false","","",""
"null","","html-keyboard-response","395","100476","0.0-395.0","","","","","<img src=""img/set2/S3.jpg"" width=""540"" height = ""360"">","null","","","","","","","","","",""
"null","","html-keyboard-response","396","100678","0.0-396.0","","","","","","null","","","","","","","","","",""
"null","","image-keyboard-response","397","100690","0.0-397.0","","","","","img/set2/S4.jpg","null","4","structured_load","74","structured_incentive,structured_load,structured_normal,random","2,1,3,4,2,3","1,3,2,4","false","","",""
"null","","html-keyboard-response","398","101043","0.0-398.0","","","","","<img src=""img/set2/S4.jpg"" width=""540"" height = ""360"">","null","","","","","","","","","",""
"null","","html-keyboard-response","399","101245","0.0-399.0","","","","","","null","","","","","","","","","",""
"null","","image-keyboard-response","400","101257","0.0-400.0","","","","","img/set2/S2.jpg","null","2","structured_load","68","structured_incentive,structured_load,structured_normal,random","2,1,3,4,2,3","1,3,2,4","false","","",""
"null","","html-keyboard-response","401","101609","0.0-401.0","","","","","<img src=""img/set2/S2.jpg"" width=""540"" height = ""360"">","null","","","","","","","","","",""
"null","","html-keyboard-response","402","101811","0.0-402.0","","","","","","null","","","","","","","","","",""
"null","","image-keyboard-response","403","101822","0.0-403.0","","","","","img/set2/S3.jpg","null","3","structured_load","72","structured_incentive,structured_load,structured_normal,random","2,1,3,4,2,3","1,3,2,4","false","","",""
"null","","html-keyboard-response","404","102174","0.0-404.0","","","","","<img src=""img/set2/S3.jpg"" width=""540"" height = ""360"">","null","","","","","","","","","",""
"null","","html-keyboard-response","405","102375","0.0-405.0","","","","","","null","","","","","","","","","",""
"null","","image-keyboard-response","406","102387","0.0-406.0","","","","","img/set2/S4.jpg","null","4","structured_load","74","structured_incentive,structured_load,structured_normal,random","2,1,3,4,2,3","1,3,2,4","false","","",""
"null","","html-keyboard-response","407","102742","0.0-407.0","","","","","<img src=""img/set2/S4.jpg"" width=""540"" height = ""360"">","null","","","","","","","","","",""
"null","","html-keyboard-response","408","102943","0.0-408.0","","","","","","null","","","","","","","","","",""
"null","","image-keyboard-response","409","102955","0.0-409.0","","","","","img/set2/S3.jpg","null","3","structured_load","72","structured_incentive,structured_load,structured_normal,random","2,1,3,4,2,3","1,3,2,4","false","","",""
"null","","html-keyboard-response","410","103307","0.0-410.0","","","","","<img src=""img/set2/S3.jpg"" width=""540"" height = ""360"">","null","","","","","","","","","",""
"null","","html-keyboard-response","411","103508","0.0-411.0","","","","","","null","","","","","","","","","",""
"null","","image-keyboard-response","412","103520","0.0-412.0","","","","","img/set2/S4.jpg","null","4","structured_load","74","structured_incentive,structured_load,structured_normal,random","2,1,3,4,2,3","1,3,2,4","false","","",""
"null","","html-keyboard-response","413","103874","0.0-413.0","","","","","<img src=""img/set2/S4.jpg"" width=""540"" height = ""360"">","null","","","","","","","","","",""
"null","","html-keyboard-response","414","104075","0.0-414.0","","","","","","null","","","","","","","","","",""
"null","","image-keyboard-response","415","104089","0.0-415.0","","","","","img/set2/S1.jpg","null","1","structured_load","83","structured_incentive,structured_load,structured_normal,random","2,1,3,4,2,3","1,3,2,4","false","","",""
"null","","html-keyboard-response","416","104442","0.0-416.0","","","","","<img src=""img/set2/S1.jpg"" width=""540"" height = ""360"">","null","","","","","","","","","",""
"null","","html-keyboard-response","417","104644","0.0-417.0","","","","","","null","","","","","","","","","",""
"null","","image-keyboard-response","418","104657","0.0-418.0","","","","","img/set2/S2.jpg","null","2","structured_load","68","structured_incentive,structured_load,structured_normal,random","2,1,3,4,2,3","1,3,2,4","false","","",""
"null","","html-keyboard-response","419","105009","0.0-419.0","","","","","<img src=""img/set2/S2.jpg"" width=""540"" height = ""360"">","null","","","","","","","","","",""
"null","","html-keyboard-response","420","105210","0.0-420.0","","","","","","null","","","","","","","","","",""
"null","","image-keyboard-response","421","105221","0.0-421.0","","","","","img/set2/S2.jpg","null","2","structured_load","68","structured_incentive,structured_load,structured_normal,random","2,1,3,4,2,3","1,3,2,4","false","","",""
"null","","html-keyboard-response","422","105574","0.0-422.0","","","","","<img src=""img/set2/S2.jpg"" width=""540"" height = ""360"">","null","","","","","","","","","",""
"null","","html-keyboard-response","423","105776","0.0-423.0","","","","","","null","","","","","","","","","",""
"null","","image-keyboard-response","424","105789","0.0-424.0","","","","","img/set2/S1.jpg","null","1","structured_load","83","structured_incentive,structured_load,structured_normal,random","2,1,3,4,2,3","1,3,2,4","false","","",""
"null","","html-keyboard-response","425","106141","0.0-425.0","","","","","<img src=""img/set2/S1.jpg"" width=""540"" height = ""360"">","null","","","","","","","","","",""
"null","","html-keyboard-response","426","106342","0.0-426.0","","","","","","null","","","","","","","","","",""
"null","","image-keyboard-response","427","106356","0.0-427.0","","","","","img/set2/S3.jpg","null","3","structured_load","72","structured_incentive,structured_load,structured_normal,random","2,1,3,4,2,3","1,3,2,4","false","","",""
"null","","html-keyboard-response","428","106709","0.0-428.0","","","","","<img src=""img/set2/S3.jpg"" width=""540"" height = ""360"">","null","","","","","","","","","",""
"null","","html-keyboard-response","429","106910","0.0-429.0","","","","","","null","","","","","","","","","",""
"null","","image-keyboard-response","430","106924","0.0-430.0","","","","","img/set2/S4.jpg","null","4","structured_load","74","structured_incentive,structured_load,structured_normal,random","2,1,3,4,2,3","1,3,2,4","false","","",""
"null","","html-keyboard-response","431","107277","0.0-431.0","","","","","<img src=""img/set2/S4.jpg"" width=""540"" height = ""360"">","null","","","","","","","","","",""
"null","","html-keyboard-response","432","107479","0.0-432.0","","","","","","null","","","","","","","","","",""
"null","","image-keyboard-response","433","107492","0.0-433.0","","","","","img/set2/S3.jpg","null","3","structured_load","72","structured_incentive,structured_load,structured_normal,random","2,1,3,4,2,3","1,3,2,4","false","","",""
"null","","html-keyboard-response","434","107844","0.0-434.0","","","","","<img src=""img/set2/S3.jpg"" width=""540"" height = ""360"">","null","","","","","","","","","",""
"null","","html-keyboard-response","435","108046","0.0-435.0","","","","","","null","","","","","","","","","",""
"null","","image-keyboard-response","436","108057","0.0-436.0","","","","","img/set2/S4.jpg","null","4","structured_load","74","structured_incentive,structured_load,structured_normal,random","2,1,3,4,2,3","1,3,2,4","false","","",""
"null","","html-keyboard-response","437","108410","0.0-437.0","","","","","<img src=""img/set2/S4.jpg"" width=""540"" height = ""360"">","null","","","","","","","","","",""
"null","","html-keyboard-response","438","108612","0.0-438.0","","","","","","null","","","","","","","","","",""
"null","","image-keyboard-response","439","108625","0.0-439.0","","","","","img/set2/S1.jpg","null","1","structured_load","83","structured_incentive,structured_load,structured_normal,random","2,1,3,4,2,3","1,3,2,4","false","","",""
"null","","html-keyboard-response","440","108978","0.0-440.0","","","","","<img src=""img/set2/S1.jpg"" width=""540"" height = ""360"">","null","","","","","","","","","",""
"null","","html-keyboard-response","441","109180","0.0-441.0","","","","","","null","","","","","","","","","",""
"null","","image-keyboard-response","442","109193","0.0-442.0","","","","","img/set2/S3.jpg","null","3","structured_load","72","structured_incentive,structured_load,structured_normal,random","2,1,3,4,2,3","1,3,2,4","false","","",""
"null","","html-keyboard-response","443","109545","0.0-443.0","","","","","<img src=""img/set2/S3.jpg"" width=""540"" height = ""360"">","null","","","","","","","","","",""
"null","","html-keyboard-response","444","109748","0.0-444.0","","","","","","null","","","","","","","","","",""
"null","","image-keyboard-response","445","109760","0.0-445.0","","","","","img/set2/S4.jpg","null","4","structured_load","74","structured_incentive,structured_load,structured_normal,random","2,1,3,4,2,3","1,3,2,4","false","","",""
"null","","html-keyboard-response","446","110112","0.0-446.0","","","","","<img src=""img/set2/S4.jpg"" width=""540"" height = ""360"">","null","","","","","","","","","",""
"null","","html-keyboard-response","447","110315","0.0-447.0","","","","","","null","","","","","","","","","",""
"null","","image-keyboard-response","448","110326","0.0-448.0","","","","","img/set2/S2.jpg","null","2","structured_load","68","structured_incentive,structured_load,structured_normal,random","2,1,3,4,2,3","1,3,2,4","false","","",""
"null","","html-keyboard-response","449","110679","0.0-449.0","","","","","<img src=""img/set2/S2.jpg"" width=""540"" height = ""360"">","null","","","","","","","","","",""
"null","","html-keyboard-response","450","110882","0.0-450.0","","","","","","null","","","","","","","","","",""
"null","","image-keyboard-response","451","110893","0.0-451.0","","","","","img/set2/S3.jpg","null","3","structured_load","72","structured_incentive,structured_load,structured_normal,random","2,1,3,4,2,3","1,3,2,4","false","","",""
"null","","html-keyboard-response","452","111246","0.0-452.0","","","","","<img src=""img/set2/S3.jpg"" width=""540"" height = ""360"">","null","","","","","","","","","",""
"null","","html-keyboard-response","453","111448","0.0-453.0","","","","","","null","","","","","","","","","",""
"null","","image-keyboard-response","454","111460","0.0-454.0","","","","","img/set2/S4.jpg","null","4","structured_load","74","structured_incentive,structured_load,structured_normal,random","2,1,3,4,2,3","1,3,2,4","false","","",""
"null","","html-keyboard-response","455","111813","0.0-455.0","","","","","<img src=""img/set2/S4.jpg"" width=""540"" height = ""360"">","null","","","","","","","","","",""
"null","","html-keyboard-response","456","112015","0.0-456.0","","","","","","null","","","","","","","","","",""
"null","","image-keyboard-response","457","112027","0.0-457.0","","","","","img/set2/S1.jpg","null","1","structured_load","83","structured_incentive,structured_load,structured_normal,random","2,1,3,4,2,3","1,3,2,4","false","","",""
"null","","html-keyboard-response","458","112380","0.0-458.0","","","","","<img src=""img/set2/S1.jpg"" width=""540"" height = ""360"">","null","","","","","","","","","",""
"null","","html-keyboard-response","459","112582","0.0-459.0","","","","","","null","","","","","","","","","",""
"null","","image-keyboard-response","460","112594","0.0-460.0","","","","","img/set2/S2.jpg","null","2","structured_load","68","structured_incentive,structured_load,structured_normal,random","2,1,3,4,2,3","1,3,2,4","false","","",""
"null","","html-keyboard-response","461","112947","0.0-461.0","","","","","<img src=""img/set2/S2.jpg"" width=""540"" height = ""360"">","null","","","","","","","","","",""
"null","","html-keyboard-response","462","113148","0.0-462.0","","","","","","null","","","","","","","","","",""
"null","","image-keyboard-response","463","113160","0.0-463.0","","","","","img/set2/S2.jpg","null","2","structured_load","68","structured_incentive,structured_load,structured_normal,random","2,1,3,4,2,3","1,3,2,4","false","","",""
"null","","html-keyboard-response","464","113512","0.0-464.0","","","","","<img src=""img/set2/S2.jpg"" width=""540"" height = ""360"">","null","","","","","","","","","",""
"null","","html-keyboard-response","465","113715","0.0-465.0","","","","","","null","","","","","","","","","",""
"null","","image-keyboard-response","466","113726","0.0-466.0","","","","","img/set2/S1.jpg","null","1","structured_load","83","structured_incentive,structured_load,structured_normal,random","2,1,3,4,2,3","1,3,2,4","false","","",""
"null","","html-keyboard-response","467","114078","0.0-467.0","","","","","<img src=""img/set2/S1.jpg"" width=""540"" height = ""360"">","null","","","","","","","","","",""
"null","","html-keyboard-response","468","114280","0.0-468.0","","","","","","null","","","","","","","","","",""
"null","","image-keyboard-response","469","114292","0.0-469.0","","","","","img/set2/S3.jpg","null","3","structured_load","72","structured_incentive,structured_load,structured_normal,random","2,1,3,4,2,3","1,3,2,4","false","","",""
"null","","html-keyboard-response","470","114645","0.0-470.0","","","","","<img src=""img/set2/S3.jpg"" width=""540"" height = ""360"">","null","","","","","","","","","",""
"null","","html-keyboard-response","471","114846","0.0-471.0","","","","","","null","","","","","","","","","",""
"null","","image-keyboard-response","472","114859","0.0-472.0","","","","","img/set2/S4.jpg","null","4","structured_load","74","structured_incentive,structured_load,structured_normal,random","2,1,3,4,2,3","1,3,2,4","false","","",""
"null","","html-keyboard-response","473","115212","0.0-473.0","","","","","<img src=""img/set2/S4.jpg"" width=""540"" height = ""360"">","null","","","","","","","","","",""
"null","","html-keyboard-response","474","115414","0.0-474.0","","","","","","null","","","","","","","","","",""
"null","","image-keyboard-response","475","115426","0.0-475.0","","","","","img/set2/S1.jpg","null","1","structured_load","83","structured_incentive,structured_load,structured_normal,random","2,1,3,4,2,3","1,3,2,4","false","","",""
"null","","html-keyboard-response","476","115778","0.0-476.0","","","","","<img src=""img/set2/S1.jpg"" width=""540"" height = ""360"">","null","","","","","","","","","",""
"null","","html-keyboard-response","477","115981","0.0-477.0","","","","","","null","","","","","","","","","",""
"null","","image-keyboard-response","478","115992","0.0-478.0","","","","","img/set2/S3.jpg","null","3","structured_load","72","structured_incentive,structured_load,structured_normal,random","2,1,3,4,2,3","1,3,2,4","false","","",""
"null","","html-keyboard-response","479","116345","0.0-479.0","","","","","<img src=""img/set2/S3.jpg"" width=""540"" height = ""360"">","null","","","","","","","","","",""
"null","","html-keyboard-response","480","116547","0.0-480.0","","","","","","null","","","","","","","","","",""
"null","","image-keyboard-response","481","116559","0.0-481.0","","","","","img/set2/S4.jpg","null","4","structured_load","74","structured_incentive,structured_load,structured_normal,random","2,1,3,4,2,3","1,3,2,4","false","","",""
"null","","html-keyboard-response","482","116912","0.0-482.0","","","","","<img src=""img/set2/S4.jpg"" width=""540"" height = ""360"">","null","","","","","","","","","",""
"null","","html-keyboard-response","483","117115","0.0-483.0","","","","","","null","","","","","","","","","",""
"null","","image-keyboard-response","484","117127","0.0-484.0","","","","","img/set2/S1.jpg","null","1","structured_load","83","structured_incentive,structured_load,structured_normal,random","2,1,3,4,2,3","1,3,2,4","false","","",""
"null","","html-keyboard-response","485","117480","0.0-485.0","","","","","<img src=""img/set2/S1.jpg"" width=""540"" height = ""360"">","null","","","","","","","","","",""
"null","","html-keyboard-response","486","117682","0.0-486.0","","","","","","null","","","","","","","","","",""
"null","","image-keyboard-response","487","117694","0.0-487.0","","","","","img/set2/S2.jpg","null","2","structured_load","68","structured_incentive,structured_load,structured_normal,random","2,1,3,4,2,3","1,3,2,4","false","","",""
"null","","html-keyboard-response","488","118047","0.0-488.0","","","","","<img src=""img/set2/S2.jpg"" width=""540"" height = ""360"">","null","","","","","","","","","",""
"null","","html-keyboard-response","489","118250","0.0-489.0","","","","","","null","","","","","","","","","",""
"null","","image-keyboard-response","490","118262","0.0-490.0","","","","","img/set2/S3.jpg","null","3","structured_load","72","structured_incentive,structured_load,structured_normal,random","2,1,3,4,2,3","1,3,2,4","false","","",""
"null","","html-keyboard-response","491","118616","0.0-491.0","","","","","<img src=""img/set2/S3.jpg"" width=""540"" height = ""360"">","null","","","","","","","","","",""
"null","","html-keyboard-response","492","118819","0.0-492.0","","","","","","null","","","","","","","","","",""
"null","","image-keyboard-response","493","118831","0.0-493.0","","","","","img/set2/S4.jpg","null","4","structured_load","74","structured_incentive,structured_load,structured_normal,random","2,1,3,4,2,3","1,3,2,4","false","","",""
"null","","html-keyboard-response","494","119185","0.0-494.0","","","","","<img src=""img/set2/S4.jpg"" width=""540"" height = ""360"">","null","","","","","","","","","",""
"null","","html-keyboard-response","495","119389","0.0-495.0","","","","","","null","","","","","","","","","",""
"null","","image-keyboard-response","496","119402","0.0-496.0","","","","","img/set2/S3.jpg","null","3","structured_load","72","structured_incentive,structured_load,structured_normal,random","2,1,3,4,2,3","1,3,2,4","false","","",""
"null","","html-keyboard-response","497","119754","0.0-497.0","","","","","<img src=""img/set2/S3.jpg"" width=""540"" height = ""360"">","null","","","","","","","","","",""
"null","","html-keyboard-response","498","119955","0.0-498.0","","","","","","null","","","","","","","","","",""
"null","","image-keyboard-response","499","119968","0.0-499.0","","","","","img/set2/S4.jpg","null","4","structured_load","74","structured_incentive,structured_load,structured_normal,random","2,1,3,4,2,3","1,3,2,4","false","","",""
"null","","html-keyboard-response","500","120323","0.0-500.0","","","","","<img src=""img/set2/S4.jpg"" width=""540"" height = ""360"">","null","","","","","","","","","",""
"null","","html-keyboard-response","501","120525","0.0-501.0","","","","","","null","","","","","","","","","",""
"null","","image-keyboard-response","502","120538","0.0-502.0","","","","","img/set2/S3.jpg","null","3","structured_load","72","structured_incentive,structured_load,structured_normal,random","2,1,3,4,2,3","1,3,2,4","false","","",""
"null","","html-keyboard-response","503","120892","0.0-503.0","","","","","<img src=""img/set2/S3.jpg"" width=""540"" height = ""360"">","null","","","","","","","","","",""
"null","","html-keyboard-response","504","121094","0.0-504.0","","","","","","null","","","","","","","","","",""
"null","","image-keyboard-response","505","121108","0.0-505.0","","","","","img/set2/S4.jpg","null","4","structured_load","74","structured_incentive,structured_load,structured_normal,random","2,1,3,4,2,3","1,3,2,4","false","","",""
"null","","html-keyboard-response","506","121460","0.0-506.0","","","","","<img src=""img/set2/S4.jpg"" width=""540"" height = ""360"">","null","","","","","","","","","",""
"null","","html-keyboard-response","507","121663","0.0-507.0","","","","","","null","","","","","","","","","",""
"null","","image-keyboard-response","508","121675","0.0-508.0","","","","","img/set2/S1.jpg","null","1","structured_load","83","structured_incentive,structured_load,structured_normal,random","2,1,3,4,2,3","1,3,2,4","false","","",""
"null","","html-keyboard-response","509","122027","0.0-509.0","","","","","<img src=""img/set2/S1.jpg"" width=""540"" height = ""360"">","null","","","","","","","","","",""
"null","","html-keyboard-response","510","122230","0.0-510.0","","","","","","null","","","","","","","","","",""
"null","","image-keyboard-response","511","122242","0.0-511.0","","","","","img/set2/S2.jpg","null","2","structured_load","68","structured_incentive,structured_load,structured_normal,random","2,1,3,4,2,3","1,3,2,4","false","","",""
"null","","html-keyboard-response","512","122595","0.0-512.0","","","","","<img src=""img/set2/S2.jpg"" width=""540"" height = ""360"">","null","","","","","","","","","",""
"null","","html-keyboard-response","513","122797","0.0-513.0","","","","","","null","","","","","","","","","",""
"null","","image-keyboard-response","514","122809","0.0-514.0","","","","","img/set2/S1.jpg","null","1","structured_load","83","structured_incentive,structured_load,structured_normal,random","2,1,3,4,2,3","1,3,2,4","false","","",""
"null","","html-keyboard-response","515","123162","0.0-515.0","","","","","<img src=""img/set2/S1.jpg"" width=""540"" height = ""360"">","null","","","","","","","","","",""
"null","","html-keyboard-response","516","123365","0.0-516.0","","","","","","null","","","","","","","","","",""
"null","","image-keyboard-response","517","123377","0.0-517.0","","","","","img/set2/S3.jpg","null","3","structured_load","72","structured_incentive,structured_load,structured_normal,random","2,1,3,4,2,3","1,3,2,4","false","","",""
"null","","html-keyboard-response","518","123730","0.0-518.0","","","","","<img src=""img/set2/S3.jpg"" width=""540"" height = ""360"">","null","","","","","","","","","",""
"null","","html-keyboard-response","519","123932","0.0-519.0","","","","","","null","","","","","","","","","",""
"null","","image-keyboard-response","520","123944","0.0-520.0","","","","","img/set2/S4.jpg","null","4","structured_load","74","structured_incentive,structured_load,structured_normal,random","2,1,3,4,2,3","1,3,2,4","false","","",""
"null","","html-keyboard-response","521","124297","0.0-521.0","","","","","<img src=""img/set2/S4.jpg"" width=""540"" height = ""360"">","null","","","","","","","","","",""
"null","","html-keyboard-response","522","124500","0.0-522.0","","","","","","null","","","","","","","","","",""
"null","","image-keyboard-response","523","124512","0.0-523.0","","","","","img/set2/S3.jpg","null","3","structured_load","72","structured_incentive,structured_load,structured_normal,random","2,1,3,4,2,3","1,3,2,4","false","","",""
"null","","html-keyboard-response","524","124864","0.0-524.0","","","","","<img src=""img/set2/S3.jpg"" width=""540"" height = ""360"">","null","","","","","","","","","",""
"null","","html-keyboard-response","525","125066","0.0-525.0","","","","","","null","","","","","","","","","",""
"null","","image-keyboard-response","526","125078","0.0-526.0","","","","","img/set2/S4.jpg","null","4","structured_load","74","structured_incentive,structured_load,structured_normal,random","2,1,3,4,2,3","1,3,2,4","false","","",""
"null","","html-keyboard-response","527","125431","0.0-527.0","","","","","<img src=""img/set2/S4.jpg"" width=""540"" height = ""360"">","null","","","","","","","","","",""
"null","","html-keyboard-response","528","125635","0.0-528.0","","","","","","null","","","","","","","","","",""
"null","","image-keyboard-response","529","125647","0.0-529.0","","","","","img/set2/S2.jpg","null","2","structured_load","68","structured_incentive,structured_load,structured_normal,random","2,1,3,4,2,3","1,3,2,4","false","","",""
"null","","html-keyboard-response","530","126001","0.0-530.0","","","","","<img src=""img/set2/S2.jpg"" width=""540"" height = ""360"">","null","","","","","","","","","",""
"null","","html-keyboard-response","531","126204","0.0-531.0","","","","","","null","","","","","","","","","",""
"null","","image-keyboard-response","532","126217","0.0-532.0","","","","","img/set2/S2.jpg","null","2","structured_load","68","structured_incentive,structured_load,structured_normal,random","2,1,3,4,2,3","1,3,2,4","false","","",""
"null","","html-keyboard-response","533","126571","0.0-533.0","","","","","<img src=""img/set2/S2.jpg"" width=""540"" height = ""360"">","null","","","","","","","","","",""
"null","","html-keyboard-response","534","126775","0.0-534.0","","","","","","null","","","","","","","","","",""
"null","","image-keyboard-response","535","126787","0.0-535.0","","","","","img/set2/S3.jpg","null","3","structured_load","72","structured_incentive,structured_load,structured_normal,random","2,1,3,4,2,3","1,3,2,4","false","","",""
"null","","html-keyboard-response","536","127141","0.0-536.0","","","","","<img src=""img/set2/S3.jpg"" width=""540"" height = ""360"">","null","","","","","","","","","",""
"null","","html-keyboard-response","537","127343","0.0-537.0","","","","","","null","","","","","","","","","",""
"null","","image-keyboard-response","538","127355","0.0-538.0","","","","","img/set2/S4.jpg","null","4","structured_load","74","structured_incentive,structured_load,structured_normal,random","2,1,3,4,2,3","1,3,2,4","false","","",""
"null","","html-keyboard-response","539","127709","0.0-539.0","","","","","<img src=""img/set2/S4.jpg"" width=""540"" height = ""360"">","null","","","","","","","","","",""
"null","","html-keyboard-response","540","127910","0.0-540.0","","","","","","null","","","","","","","","","",""
"null","","image-keyboard-response","541","127924","0.0-541.0","","","","","img/set2/S3.jpg","null","3","structured_load","72","structured_incentive,structured_load,structured_normal,random","2,1,3,4,2,3","1,3,2,4","false","","",""
"null","","html-keyboard-response","542","128277","0.0-542.0","","","","","<img src=""img/set2/S3.jpg"" width=""540"" height = ""360"">","null","","","","","","","","","",""
"null","","html-keyboard-response","543","128479","0.0-543.0","","","","","","null","","","","","","","","","",""
"null","","image-keyboard-response","544","128492","0.0-544.0","","","","","img/set2/S4.jpg","null","4","structured_load","74","structured_incentive,structured_load,structured_normal,random","2,1,3,4,2,3","1,3,2,4","false","","",""
"null","","html-keyboard-response","545","128845","0.0-545.0","","","","","<img src=""img/set2/S4.jpg"" width=""540"" height = ""360"">","null","","","","","","","","","",""
"null","","html-keyboard-response","546","129048","0.0-546.0","","","","","","null","","","","","","","","","",""
"null","","image-keyboard-response","547","129059","0.0-547.0","","","","","img/set2/S2.jpg","null","2","structured_load","68","structured_incentive,structured_load,structured_normal,random","2,1,3,4,2,3","1,3,2,4","false","","",""
"null","","html-keyboard-response","548","129412","0.0-548.0","","","","","<img src=""img/set2/S2.jpg"" width=""540"" height = ""360"">","null","","","","","","","","","",""
"null","","html-keyboard-response","549","129615","0.0-549.0","","","","","","null","","","","","","","","","",""
"null","","image-keyboard-response","550","129627","0.0-550.0","","","","","img/set2/S1.jpg","null","1","structured_load","83","structured_incentive,structured_load,structured_normal,random","2,1,3,4,2,3","1,3,2,4","false","","",""
"null","","html-keyboard-response","551","129980","0.0-551.0","","","","","<img src=""img/set2/S1.jpg"" width=""540"" height = ""360"">","null","","","","","","","","","",""
"null","","html-keyboard-response","552","130183","0.0-552.0","","","","","","null","","","","","","","","","",""
"null","","image-keyboard-response","553","130195","0.0-553.0","","","","","img/set2/S1.jpg","null","1","structured_load","83","structured_incentive,structured_load,structured_normal,random","2,1,3,4,2,3","1,3,2,4","false","","",""
"null","","html-keyboard-response","554","130548","0.0-554.0","","","","","<img src=""img/set2/S1.jpg"" width=""540"" height = ""360"">","null","","","","","","","","","",""
"null","","html-keyboard-response","555","130751","0.0-555.0","","","","","","null","","","","","","","","","",""
"null","","image-keyboard-response","556","130763","0.0-556.0","","","","","img/set2/S1.jpg","null","1","structured_load","83","structured_incentive,structured_load,structured_normal,random","2,1,3,4,2,3","1,3,2,4","false","","",""
"null","","html-keyboard-response","557","131117","0.0-557.0","","","","","<img src=""img/set2/S1.jpg"" width=""540"" height = ""360"">","null","","","","","","","","","",""
"null","","html-keyboard-response","558","131321","0.0-558.0","","","","","","null","","","","","","","","","",""
"null","","image-keyboard-response","559","131332","0.0-559.0","","","","","img/set2/S1.jpg","null","1","structured_load","83","structured_incentive,structured_load,structured_normal,random","2,1,3,4,2,3","1,3,2,4","false","","",""
"null","","html-keyboard-response","560","131686","0.0-560.0","","","","","<img src=""img/set2/S1.jpg"" width=""540"" height = ""360"">","null","","","","","","","","","",""
"null","","html-keyboard-response","561","131889","0.0-561.0","","","","","","null","","","","","","","","","",""
"null","","image-keyboard-response","562","131902","0.0-562.0","","","","","img/set2/S1.jpg","null","1","structured_load","83","structured_incentive,structured_load,structured_normal,random","2,1,3,4,2,3","1,3,2,4","false","","",""
"null","","html-keyboard-response","563","132255","0.0-563.0","","","","","<img src=""img/set2/S1.jpg"" width=""540"" height = ""360"">","null","","","","","","","","","",""
"null","","html-keyboard-response","564","132459","0.0-564.0","","","","","","null","","","","","","","","","",""
"null","","image-keyboard-response","565","132473","0.0-565.0","","","","","img/set2/S1.jpg","null","1","structured_load","83","structured_incentive,structured_load,structured_normal,random","2,1,3,4,2,3","1,3,2,4","false","","",""
"null","","html-keyboard-response","566","132826","0.0-566.0","","","","","<img src=""img/set2/S1.jpg"" width=""540"" height = ""360"">","null","","","","","","","","","",""
"null","","html-keyboard-response","567","133028","0.0-567.0","","","","","","null","","","","","","","","","",""
"null","","image-keyboard-response","568","133040","0.0-568.0","","","","","img/set2/S1.jpg","null","1","structured_load","83","structured_incentive,structured_load,structured_normal,random","2,1,3,4,2,3","1,3,2,4","false","","",""
