"rt","url","trial_type","trial_index","time_elapsed","internal_node_id","assignmentID","mturkID","hitID","view_history","stimulus","key_press","state","test_part","correct_response","order_block","order_chunk","order_freq","correct","responses","question_order","bonus"
"4054.9000000953674","consent.html","external-html","0","4089","0.0-0.0","","","","","","","","","","","","","","","",""
"4955.699999809265","","instructions","1","9049","0.0-1.0","","","","[{""page_index"":0,""viewing_time"":997.9000000953674},{""page_index"":1,""viewing_time"":412.3999996185303},{""page_index"":2,""viewing_time"":405.90000009536743},{""page_index"":3,""viewing_time"":898},{""page_index"":4,""viewing_time"":832.9000000953674},{""page_index"":5,""viewing_time"":727.9000000953674},{""page_index"":6,""viewing_time"":679.9000000953674}]","","","","","","","","","","","",""
"920.5999999046326","","instructions","2","9970","0.0-2.0","","","","[{""page_index"":0,""viewing_time"":920.3000001907349}]","","","","","","","","","","","",""
"1665.6999998092651","","instructions","3","11637","0.0-3.0","","","","[{""page_index"":0,""viewing_time"":984.8000001907349},{""page_index"":1,""viewing_time"":680.5999999046326}]","","","","","","","","","","","",""
"null","","image-keyboard-response","4","14142","0.0-4.0","","","","","img/set1/S3.jpg","null","3","structured_load","72","structured_load,random,structured_normal,structured_incentive","3,4,2,3,2,1","2,1,4,3","false","","",""
"null","","html-keyboard-response","5","14494","0.0-5.0","","","","","<img src=""img/set1/S3.jpg"" width=""540"" height = ""360"">","null","","","","","","","","","",""
"null","","html-keyboard-response","6","14695","0.0-6.0","","","","","","null","","","","","","","","","",""
"null","","image-keyboard-response","7","18518","0.0-7.0","","","","","img/set1/S4.jpg","null","4","structured_load","74","structured_load,random,structured_normal,structured_incentive","3,4,2,3,2,1","2,1,4,3","false","","",""
"null","","html-keyboard-response","8","19283","0.0-8.0","","","","","<img src=""img/set1/S4.jpg"" width=""540"" height = ""360"">","null","","","","","","","","","",""
"null","","html-keyboard-response","9","20195","0.0-9.0","","","","","","null","","","","","","","","","",""
"null","","image-keyboard-response","10","23163","0.0-10.0","","","","","img/set1/S3.jpg","null","3","structured_load","72","structured_load,random,structured_normal,structured_incentive","3,4,2,3,2,1","2,1,4,3","false","","",""
"null","","html-keyboard-response","11","24441","0.0-11.0","","","","","<img src=""img/set1/S3.jpg"" width=""540"" height = ""360"">","null","","","","","","","","","",""
"null","","html-keyboard-response","12","25214","0.0-12.0","","","","","","null","","","","","","","","","",""
"null","","image-keyboard-response","13","28451","0.0-13.0","","","","","img/set1/S4.jpg","null","4","structured_load","74","structured_load,random,structured_normal,structured_incentive","3,4,2,3,2,1","2,1,4,3","false","","",""
"null","","html-keyboard-response","14","29246","0.0-14.0","","","","","<img src=""img/set1/S4.jpg"" width=""540"" height = ""360"">","null","","","","","","","","","",""
"null","","html-keyboard-response","15","30092","0.0-15.0","","","","","","null","","","","","","","","","",""
"null","","image-keyboard-response","16","33092","0.0-16.0","","","","","img/set1/S1.jpg","null","1","structured_load","83","structured_load,random,structured_normal,structured_incentive","3,4,2,3,2,1","2,1,4,3","false","","",""
"null","","html-keyboard-response","17","34093","0.0-17.0","","","","","<img src=""img/set1/S1.jpg"" width=""540"" height = ""360"">","null","","","","","","","","","",""
"null","","html-keyboard-response","18","35093","0.0-18.0","","","","","","null","","","","","","","","","",""
"null","","image-keyboard-response","19","38093","0.0-19.0","","","","","img/set1/S1.jpg","null","1","structured_load","83","structured_load,random,structured_normal,structured_incentive","3,4,2,3,2,1","2,1,4,3","false","","",""
"null","","html-keyboard-response","20","39588","0.0-20.0","","","","","<img src=""img/set1/S1.jpg"" width=""540"" height = ""360"">","null","","","","","","","","","",""
"null","","html-keyboard-response","21","40092","0.0-21.0","","","","","","null","","","","","","","","","",""
"null","","image-keyboard-response","22","43559","0.0-22.0","","","","","img/set1/S2.jpg","null","2","structured_load","68","structured_load,random,structured_normal,structured_incentive","3,4,2,3,2,1","2,1,4,3","false","","",""
"null","","html-keyboard-response","23","44357","0.0-23.0","","","","","<img src=""img/set1/S2.jpg"" width=""540"" height = ""360"">","null","","","","","","","","","",""
"null","","html-keyboard-response","24","45300","0.0-24.0","","","","","","null","","","","","","","","","",""
"null","","image-keyboard-response","25","48588","0.0-25.0","","","","","img/set1/S2.jpg","null","2","structured_load","68","structured_load,random,structured_normal,structured_incentive","3,4,2,3,2,1","2,1,4,3","false","","",""
"null","","html-keyboard-response","26","49342","0.0-26.0","","","","","<img src=""img/set1/S2.jpg"" width=""540"" height = ""360"">","null","","","","","","","","","",""
"null","","html-keyboard-response","27","50277","0.0-27.0","","","","","","null","","","","","","","","","",""
"null","","image-keyboard-response","28","53442","0.0-28.0","","","","","img/set1/S2.jpg","null","2","structured_load","68","structured_load,random,structured_normal,structured_incentive","3,4,2,3,2,1","2,1,4,3","false","","",""
"null","","html-keyboard-response","29","54416","0.0-29.0","","","","","<img src=""img/set1/S2.jpg"" width=""540"" height = ""360"">","null","","","","","","","","","",""
"null","","html-keyboard-response","30","55411","0.0-30.0","","","","","","null","","","","","","","","","",""
"null","","image-keyboard-response","31","58425","0.0-31.0","","","","","img/set1/S2.jpg","null","2","structured_load","68","structured_load,random,structured_normal,structured_incentive","3,4,2,3,2,1","2,1,4,3","false","","",""
"null","","html-keyboard-response","32","59424","0.0-32.0","","","","","<img src=""img/set1/S2.jpg"" width=""540"" height = ""360"">","null","","","","","","","","","",""
"null","","html-keyboard-response","33","60335","0.0-33.0","","","","","","null","","","","","","","","","",""
"null","","image-keyboard-response","34","63432","0.0-34.0","","","","","img/set1/S1.jpg","null","1","structured_load","83","structured_load,random,structured_normal,structured_incentive","3,4,2,3,2,1","2,1,4,3","false","","",""
"null","","html-keyboard-response","35","64417","0.0-35.0","","","","","<img src=""img/set1/S1.jpg"" width=""540"" height = ""360"">","null","","","","","","","","","",""
"null","","html-keyboard-response","36","65274","0.0-36.0","","","","","","null","","","","","","","","","",""
"null","","image-keyboard-response","37","68446","0.0-37.0","","","","","img/set1/S3.jpg","null","3","structured_load","72","structured_load,random,structured_normal,structured_incentive","3,4,2,3,2,1","2,1,4,3","false","","",""
"null","","html-keyboard-response","38","69414","0.0-38.0","","","","","<img src=""img/set1/S3.jpg"" width=""540"" height = ""360"">","null","","","","","","","","","",""
"null","","html-keyboard-response","39","70093","0.0-39.0","","","","","","null","","","","","","","","","",""
"null","","image-keyboard-response","40","73465","0.0-40.0","","","","","img/set1/S4.jpg","null","4","structured_load","74","structured_load,random,structured_normal,structured_incentive","3,4,2,3,2,1","2,1,4,3","false","","",""
"null","","html-keyboard-response","41","74402","0.0-41.0","","","","","<img src=""img/set1/S4.jpg"" width=""540"" height = ""360"">","null","","","","","","","","","",""
"null","","html-keyboard-response","42","75385","0.0-42.0","","","","","","null","","","","","","","","","",""
"null","","image-keyboard-response","43","78422","0.0-43.0","","","","","img/set1/S3.jpg","null","3","structured_load","72","structured_load,random,structured_normal,structured_incentive","3,4,2,3,2,1","2,1,4,3","false","","",""
"null","","html-keyboard-response","44","79422","0.0-44.0","","","","","<img src=""img/set1/S3.jpg"" width=""540"" height = ""360"">","null","","","","","","","","","",""
"null","","html-keyboard-response","45","80420","0.0-45.0","","","","","","null","","","","","","","","","",""
"null","","image-keyboard-response","46","83418","0.0-46.0","","","","","img/set1/S4.jpg","null","4","structured_load","74","structured_load,random,structured_normal,structured_incentive","3,4,2,3,2,1","2,1,4,3","false","","",""
"null","","html-keyboard-response","47","84427","0.0-47.0","","","","","<img src=""img/set1/S4.jpg"" width=""540"" height = ""360"">","null","","","","","","","","","",""
"null","","html-keyboard-response","48","85424","0.0-48.0","","","","","","null","","","","","","","","","",""
"null","","image-keyboard-response","49","88424","0.0-49.0","","","","","img/set1/S2.jpg","null","2","structured_load","68","structured_load,random,structured_normal,structured_incentive","3,4,2,3,2,1","2,1,4,3","false","","",""
"null","","html-keyboard-response","50","89422","0.0-50.0","","","","","<img src=""img/set1/S2.jpg"" width=""540"" height = ""360"">","null","","","","","","","","","",""
"null","","html-keyboard-response","51","90424","0.0-51.0","","","","","","null","","","","","","","","","",""
"null","","image-keyboard-response","52","93422","0.0-52.0","","","","","img/set1/S2.jpg","null","2","structured_load","68","structured_load,random,structured_normal,structured_incentive","3,4,2,3,2,1","2,1,4,3","false","","",""
"null","","html-keyboard-response","53","94426","0.0-53.0","","","","","<img src=""img/set1/S2.jpg"" width=""540"" height = ""360"">","null","","","","","","","","","",""
"null","","html-keyboard-response","54","95429","0.0-54.0","","","","","","null","","","","","","","","","",""
"null","","image-keyboard-response","55","98430","0.0-55.0","","","","","img/set1/S2.jpg","null","2","structured_load","68","structured_load,random,structured_normal,structured_incentive","3,4,2,3,2,1","2,1,4,3","false","","",""
"null","","html-keyboard-response","56","99434","0.0-56.0","","","","","<img src=""img/set1/S2.jpg"" width=""540"" height = ""360"">","null","","","","","","","","","",""
"null","","html-keyboard-response","57","100107","0.0-57.0","","","","","","null","","","","","","","","","",""
"null","","image-keyboard-response","58","103483","0.0-58.0","","","","","img/set1/S2.jpg","null","2","structured_load","68","structured_load,random,structured_normal,structured_incentive","3,4,2,3,2,1","2,1,4,3","false","","",""
"null","","html-keyboard-response","59","104422","0.0-59.0","","","","","<img src=""img/set1/S2.jpg"" width=""540"" height = ""360"">","null","","","","","","","","","",""
"null","","html-keyboard-response","60","105410","0.0-60.0","","","","","","null","","","","","","","","","",""
"null","","image-keyboard-response","61","108440","0.0-61.0","","","","","img/set1/S3.jpg","null","3","structured_load","72","structured_load,random,structured_normal,structured_incentive","3,4,2,3,2,1","2,1,4,3","false","","",""
"null","","html-keyboard-response","62","109451","0.0-62.0","","","","","<img src=""img/set1/S3.jpg"" width=""540"" height = ""360"">","null","","","","","","","","","",""
"null","","html-keyboard-response","63","110442","0.0-63.0","","","","","","null","","","","","","","","","",""
"null","","image-keyboard-response","64","113452","0.0-64.0","","","","","img/set1/S4.jpg","null","4","structured_load","74","structured_load,random,structured_normal,structured_incentive","3,4,2,3,2,1","2,1,4,3","false","","",""
"null","","html-keyboard-response","65","114445","0.0-65.0","","","","","<img src=""img/set1/S4.jpg"" width=""540"" height = ""360"">","null","","","","","","","","","",""
"null","","html-keyboard-response","66","115445","0.0-66.0","","","","","","null","","","","","","","","","",""
"null","","image-keyboard-response","67","118447","0.0-67.0","","","","","img/set1/S3.jpg","null","3","structured_load","72","structured_load,random,structured_normal,structured_incentive","3,4,2,3,2,1","2,1,4,3","false","","",""
"null","","html-keyboard-response","68","119447","0.0-68.0","","","","","<img src=""img/set1/S3.jpg"" width=""540"" height = ""360"">","null","","","","","","","","","",""
"null","","html-keyboard-response","69","120175","0.0-69.0","","","","","","null","","","","","","","","","",""
"null","","image-keyboard-response","70","123449","0.0-70.0","","","","","img/set1/S4.jpg","null","4","structured_load","74","structured_load,random,structured_normal,structured_incentive","3,4,2,3,2,1","2,1,4,3","false","","",""
"null","","html-keyboard-response","71","124456","0.0-71.0","","","","","<img src=""img/set1/S4.jpg"" width=""540"" height = ""360"">","null","","","","","","","","","",""
"null","","html-keyboard-response","72","125450","0.0-72.0","","","","","","null","","","","","","","","","",""
"null","","image-keyboard-response","73","128450","0.0-73.0","","","","","img/set1/S3.jpg","null","3","structured_load","72","structured_load,random,structured_normal,structured_incentive","3,4,2,3,2,1","2,1,4,3","false","","",""
"null","","html-keyboard-response","74","129460","0.0-74.0","","","","","<img src=""img/set1/S3.jpg"" width=""540"" height = ""360"">","null","","","","","","","","","",""
"null","","html-keyboard-response","75","130127","0.0-75.0","","","","","","null","","","","","","","","","",""
"null","","image-keyboard-response","76","133500","0.0-76.0","","","","","img/set1/S4.jpg","null","4","structured_load","74","structured_load,random,structured_normal,structured_incentive","3,4,2,3,2,1","2,1,4,3","false","","",""
"null","","html-keyboard-response","77","134438","0.0-77.0","","","","","<img src=""img/set1/S4.jpg"" width=""540"" height = ""360"">","null","","","","","","","","","",""
"null","","html-keyboard-response","78","135424","0.0-78.0","","","","","","null","","","","","","","","","",""
"null","","image-keyboard-response","79","138461","0.0-79.0","","","","","img/set1/S1.jpg","null","1","structured_load","83","structured_load,random,structured_normal,structured_incentive","3,4,2,3,2,1","2,1,4,3","false","","",""
"null","","html-keyboard-response","80","139452","0.0-80.0","","","","","<img src=""img/set1/S1.jpg"" width=""540"" height = ""360"">","null","","","","","","","","","",""
"null","","html-keyboard-response","81","140452","0.0-81.0","","","","","","null","","","","","","","","","",""
"null","","image-keyboard-response","82","143453","0.0-82.0","","","","","img/set1/S1.jpg","null","1","structured_load","83","structured_load,random,structured_normal,structured_incentive","3,4,2,3,2,1","2,1,4,3","false","","",""
"null","","html-keyboard-response","83","144460","0.0-83.0","","","","","<img src=""img/set1/S1.jpg"" width=""540"" height = ""360"">","null","","","","","","","","","",""
"null","","html-keyboard-response","84","145454","0.0-84.0","","","","","","null","","","","","","","","","",""
"null","","image-keyboard-response","85","148574","0.0-85.0","","","","","img/set1/S1.jpg","null","1","structured_load","83","structured_load,random,structured_normal,structured_incentive","3,4,2,3,2,1","2,1,4,3","false","","",""
"null","","html-keyboard-response","86","149394","0.0-86.0","","","","","<img src=""img/set1/S1.jpg"" width=""540"" height = ""360"">","null","","","","","","","","","",""
"null","","html-keyboard-response","87","150336","0.0-87.0","","","","","","null","","","","","","","","","",""
"null","","image-keyboard-response","88","153470","0.0-88.0","","","","","img/set1/S3.jpg","null","3","structured_load","72","structured_load,random,structured_normal,structured_incentive","3,4,2,3,2,1","2,1,4,3","false","","",""
"null","","html-keyboard-response","89","154454","0.0-89.0","","","","","<img src=""img/set1/S3.jpg"" width=""540"" height = ""360"">","null","","","","","","","","","",""
"null","","html-keyboard-response","90","155454","0.0-90.0","","","","","","null","","","","","","","","","",""
"null","","image-keyboard-response","91","158454","0.0-91.0","","","","","img/set1/S4.jpg","null","4","structured_load","74","structured_load,random,structured_normal,structured_incentive","3,4,2,3,2,1","2,1,4,3","false","","",""
"null","","html-keyboard-response","92","159176","0.0-92.0","","","","","<img src=""img/set1/S4.jpg"" width=""540"" height = ""360"">","null","","","","","","","","","",""
"null","","html-keyboard-response","93","160131","0.0-93.0","","","","","","null","","","","","","","","","",""
"null","","image-keyboard-response","94","163503","0.0-94.0","","","","","img/set1/S3.jpg","null","3","structured_load","72","structured_load,random,structured_normal,structured_incentive","3,4,2,3,2,1","2,1,4,3","false","","",""
"null","","html-keyboard-response","95","164440","0.0-95.0","","","","","<img src=""img/set1/S3.jpg"" width=""540"" height = ""360"">","null","","","","","","","","","",""
"null","","html-keyboard-response","96","165427","0.0-96.0","","","","","","null","","","","","","","","","",""
"null","","image-keyboard-response","97","168455","0.0-97.0","","","","","img/set1/S4.jpg","null","4","structured_load","74","structured_load,random,structured_normal,structured_incentive","3,4,2,3,2,1","2,1,4,3","false","","",""
"null","","html-keyboard-response","98","169455","0.0-98.0","","","","","<img src=""img/set1/S4.jpg"" width=""540"" height = ""360"">","null","","","","","","","","","",""
"null","","html-keyboard-response","99","170466","0.0-99.0","","","","","","null","","","","","","","","","",""
"null","","image-keyboard-response","100","173455","0.0-100.0","","","","","img/set1/S2.jpg","null","2","structured_load","68","structured_load,random,structured_normal,structured_incentive","3,4,2,3,2,1","2,1,4,3","false","","",""
"null","","html-keyboard-response","101","174456","0.0-101.0","","","","","<img src=""img/set1/S2.jpg"" width=""540"" height = ""360"">","null","","","","","","","","","",""
"null","","html-keyboard-response","102","175455","0.0-102.0","","","","","","null","","","","","","","","","",""
"null","","image-keyboard-response","103","178455","0.0-103.0","","","","","img/set1/S1.jpg","null","1","structured_load","83","structured_load,random,structured_normal,structured_incentive","3,4,2,3,2,1","2,1,4,3","false","","",""
"null","","html-keyboard-response","104","179462","0.0-104.0","","","","","<img src=""img/set1/S1.jpg"" width=""540"" height = ""360"">","null","","","","","","","","","",""
"null","","html-keyboard-response","105","180456","0.0-105.0","","","","","","null","","","","","","","","","",""
"null","","image-keyboard-response","106","183464","0.0-106.0","","","","","img/set1/S2.jpg","null","2","structured_load","68","structured_load,random,structured_normal,structured_incentive","3,4,2,3,2,1","2,1,4,3","false","","",""
"null","","html-keyboard-response","107","184455","0.0-107.0","","","","","<img src=""img/set1/S2.jpg"" width=""540"" height = ""360"">","null","","","","","","","","","",""
"null","","html-keyboard-response","108","185458","0.0-108.0","","","","","","null","","","","","","","","","",""
"null","","image-keyboard-response","109","188455","0.0-109.0","","","","","img/set1/S3.jpg","null","3","structured_load","72","structured_load,random,structured_normal,structured_incentive","3,4,2,3,2,1","2,1,4,3","false","","",""
"null","","html-keyboard-response","110","189455","0.0-110.0","","","","","<img src=""img/set1/S3.jpg"" width=""540"" height = ""360"">","null","","","","","","","","","",""
"null","","html-keyboard-response","111","190132","0.0-111.0","","","","","","null","","","","","","","","","",""
"null","","image-keyboard-response","112","193504","0.0-112.0","","","","","img/set1/S4.jpg","null","4","structured_load","74","structured_load,random,structured_normal,structured_incentive","3,4,2,3,2,1","2,1,4,3","false","","",""
"null","","html-keyboard-response","113","194441","0.0-113.0","","","","","<img src=""img/set1/S4.jpg"" width=""540"" height = ""360"">","null","","","","","","","","","",""
"null","","html-keyboard-response","114","195422","0.0-114.0","","","","","","null","","","","","","","","","",""
"null","","image-keyboard-response","115","198455","0.0-115.0","","","","","img/set1/S2.jpg","null","2","structured_load","68","structured_load,random,structured_normal,structured_incentive","3,4,2,3,2,1","2,1,4,3","false","","",""
"null","","html-keyboard-response","116","199456","0.0-116.0","","","","","<img src=""img/set1/S2.jpg"" width=""540"" height = ""360"">","null","","","","","","","","","",""
"null","","html-keyboard-response","117","200460","0.0-117.0","","","","","","null","","","","","","","","","",""
"null","","image-keyboard-response","118","203465","0.0-118.0","","","","","img/set1/S2.jpg","null","2","structured_load","68","structured_load,random,structured_normal,structured_incentive","3,4,2,3,2,1","2,1,4,3","false","","",""
"null","","html-keyboard-response","119","204456","0.0-119.0","","","","","<img src=""img/set1/S2.jpg"" width=""540"" height = ""360"">","null","","","","","","","","","",""
"null","","html-keyboard-response","120","205455","0.0-120.0","","","","","","null","","","","","","","","","",""
"null","","image-keyboard-response","121","208455","0.0-121.0","","","","","img/set1/S1.jpg","null","1","structured_load","83","structured_load,random,structured_normal,structured_incentive","3,4,2,3,2,1","2,1,4,3","false","","",""
"null","","html-keyboard-response","122","209459","0.0-122.0","","","","","<img src=""img/set1/S1.jpg"" width=""540"" height = ""360"">","null","","","","","","","","","",""
"null","","html-keyboard-response","123","210461","0.0-123.0","","","","","","null","","","","","","","","","",""
"null","","image-keyboard-response","124","213465","0.0-124.0","","","","","img/set1/S1.jpg","null","1","structured_load","83","structured_load,random,structured_normal,structured_incentive","3,4,2,3,2,1","2,1,4,3","false","","",""
"null","","html-keyboard-response","125","214456","0.0-125.0","","","","","<img src=""img/set1/S1.jpg"" width=""540"" height = ""360"">","null","","","","","","","","","",""
"null","","html-keyboard-response","126","215456","0.0-126.0","","","","","","null","","","","","","","","","",""
"null","","image-keyboard-response","127","218456","0.0-127.0","","","","","img/set1/S1.jpg","null","1","structured_load","83","structured_load,random,structured_normal,structured_incentive","3,4,2,3,2,1","2,1,4,3","false","","",""
"null","","html-keyboard-response","128","219458","0.0-128.0","","","","","<img src=""img/set1/S1.jpg"" width=""540"" height = ""360"">","null","","","","","","","","","",""
"null","","html-keyboard-response","129","220132","0.0-129.0","","","","","","null","","","","","","","","","",""
"null","","image-keyboard-response","130","223505","0.0-130.0","","","","","img/set1/S1.jpg","null","1","structured_load","83","structured_load,random,structured_normal,structured_incentive","3,4,2,3,2,1","2,1,4,3","false","","",""
"null","","html-keyboard-response","131","224132","0.0-131.0","","","","","<img src=""img/set1/S1.jpg"" width=""540"" height = ""360"">","null","","","","","","","","","",""
"null","","html-keyboard-response","132","225343","0.0-132.0","","","","","","null","","","","","","","","","",""
"null","","image-keyboard-response","133","228382","0.0-133.0","","","","","img/set1/S1.jpg","null","1","structured_load","83","structured_load,random,structured_normal,structured_incentive","3,4,2,3,2,1","2,1,4,3","false","","",""
"null","","html-keyboard-response","134","229505","0.0-134.0","","","","","<img src=""img/set1/S1.jpg"" width=""540"" height = ""360"">","null","","","","","","","","","",""
"null","","html-keyboard-response","135","230442","0.0-135.0","","","","","","null","","","","","","","","","",""
"null","","image-keyboard-response","136","233222","0.0-136.0","","","","","img/set1/S1.jpg","null","1","structured_load","83","structured_load,random,structured_normal,structured_incentive","3,4,2,3,2,1","2,1,4,3","false","","",""
"null","","html-keyboard-response","137","234582","0.0-137.0","","","","","<img src=""img/set1/S1.jpg"" width=""540"" height = ""360"">","null","","","","","","","","","",""
"null","","html-keyboard-response","138","235405","0.0-138.0","","","","","","null","","","","","","","","","",""
"null","","image-keyboard-response","139","238456","0.0-139.0","","","","","img/set1/S3.jpg","null","3","structured_load","72","structured_load,random,structured_normal,structured_incentive","3,4,2,3,2,1","2,1,4,3","false","","",""
"null","","html-keyboard-response","140","239173","0.0-140.0","","","","","<img src=""img/set1/S3.jpg"" width=""540"" height = ""360"">","null","","","","","","","","","",""
"null","","html-keyboard-response","141","240349","0.0-141.0","","","","","","null","","","","","","","","","",""
"null","","image-keyboard-response","142","243133","0.0-142.0","","","","","img/set1/S4.jpg","null","4","structured_load","74","structured_load,random,structured_normal,structured_incentive","3,4,2,3,2,1","2,1,4,3","false","","",""
"null","","html-keyboard-response","143","244291","0.0-143.0","","","","","<img src=""img/set1/S4.jpg"" width=""540"" height = ""360"">","null","","","","","","","","","",""
"null","","html-keyboard-response","144","245335","0.0-144.0","","","","","","null","","","","","","","","","",""
"null","","image-keyboard-response","145","248419","0.0-145.0","","","","","img/set1/S3.jpg","null","3","structured_load","72","structured_load,random,structured_normal,structured_incentive","3,4,2,3,2,1","2,1,4,3","false","","",""
"null","","html-keyboard-response","146","249288","0.0-146.0","","","","","<img src=""img/set1/S3.jpg"" width=""540"" height = ""360"">","null","","","","","","","","","",""
"null","","html-keyboard-response","147","250133","0.0-147.0","","","","","","null","","","","","","","","","",""
"null","","image-keyboard-response","148","253381","0.0-148.0","","","","","img/set1/S4.jpg","null","4","structured_load","74","structured_load,random,structured_normal,structured_incentive","3,4,2,3,2,1","2,1,4,3","false","","",""
"null","","html-keyboard-response","149","254133","0.0-149.0","","","","","<img src=""img/set1/S4.jpg"" width=""540"" height = ""360"">","null","","","","","","","","","",""
"null","","html-keyboard-response","150","255140","0.0-150.0","","","","","","null","","","","","","","","","",""
"null","","image-keyboard-response","151","258614","0.0-151.0","","","","","img/set1/S3.jpg","null","3","structured_load","72","structured_load,random,structured_normal,structured_incentive","3,4,2,3,2,1","2,1,4,3","false","","",""
"null","","html-keyboard-response","152","259349","0.0-152.0","","","","","<img src=""img/set1/S3.jpg"" width=""540"" height = ""360"">","null","","","","","","","","","",""
"null","","html-keyboard-response","153","260324","0.0-153.0","","","","","","null","","","","","","","","","",""
"null","","image-keyboard-response","154","263473","0.0-154.0","","","","","img/set1/S4.jpg","null","4","structured_load","74","structured_load,random,structured_normal,structured_incentive","3,4,2,3,2,1","2,1,4,3","false","","",""
"null","","html-keyboard-response","155","264457","0.0-155.0","","","","","<img src=""img/set1/S4.jpg"" width=""540"" height = ""360"">","null","","","","","","","","","",""
"null","","html-keyboard-response","156","265456","0.0-156.0","","","","","","null","","","","","","","","","",""
"null","","image-keyboard-response","157","268466","0.0-157.0","","","","","img/set1/S3.jpg","null","3","structured_load","72","structured_load,random,structured_normal,structured_incentive","3,4,2,3,2,1","2,1,4,3","false","","",""
"null","","html-keyboard-response","158","269465","0.0-158.0","","","","","<img src=""img/set1/S3.jpg"" width=""540"" height = ""360"">","null","","","","","","","","","",""
"null","","html-keyboard-response","159","270461","0.0-159.0","","","","","","null","","","","","","","","","",""
"null","","image-keyboard-response","160","273457","0.0-160.0","","","","","img/set1/S4.jpg","null","4","structured_load","74","structured_load,random,structured_normal,structured_incentive","3,4,2,3,2,1","2,1,4,3","false","","",""
"null","","html-keyboard-response","161","274459","0.0-161.0","","","","","<img src=""img/set1/S4.jpg"" width=""540"" height = ""360"">","null","","","","","","","","","",""
"null","","html-keyboard-response","162","275461","0.0-162.0","","","","","","null","","","","","","","","","",""
"null","","image-keyboard-response","163","278457","0.0-163.0","","","","","img/set1/S2.jpg","null","2","structured_load","68","structured_load,random,structured_normal,structured_incentive","3,4,2,3,2,1","2,1,4,3","false","","",""
"null","","html-keyboard-response","164","279465","0.0-164.0","","","","","<img src=""img/set1/S2.jpg"" width=""540"" height = ""360"">","null","","","","","","","","","",""
"null","","html-keyboard-response","165","280133","0.0-165.0","","","","","","null","","","","","","","","","",""
"null","","image-keyboard-response","166","283506","0.0-166.0","","","","","img/set1/S1.jpg","null","1","structured_load","83","structured_load,random,structured_normal,structured_incentive","3,4,2,3,2,1","2,1,4,3","false","","",""
"null","","html-keyboard-response","167","284317","0.0-167.0","","","","","<img src=""img/set1/S1.jpg"" width=""540"" height = ""360"">","null","","","","","","","","","",""
"null","","html-keyboard-response","168","285373","0.0-168.0","","","","","","null","","","","","","","","","",""
"null","","image-keyboard-response","169","288554","0.0-169.0","","","","","img/set1/S2.jpg","null","2","structured_load","68","structured_load,random,structured_normal,structured_incentive","3,4,2,3,2,1","2,1,4,3","false","","",""
"null","","html-keyboard-response","170","289413","0.0-170.0","","","","","<img src=""img/set1/S2.jpg"" width=""540"" height = ""360"">","null","","","","","","","","","",""
"null","","html-keyboard-response","171","290403","0.0-171.0","","","","","","null","","","","","","","","","",""
"null","","image-keyboard-response","172","293467","0.0-172.0","","","","","img/set1/S3.jpg","null","3","structured_load","72","structured_load,random,structured_normal,structured_incentive","3,4,2,3,2,1","2,1,4,3","false","","",""
"null","","html-keyboard-response","173","294255","0.0-173.0","","","","","<img src=""img/set1/S3.jpg"" width=""540"" height = ""360"">","null","","","","","","","","","",""
"null","","html-keyboard-response","174","295348","0.0-174.0","","","","","","null","","","","","","","","","",""
"null","","image-keyboard-response","175","298539","0.0-175.0","","","","","img/set1/S4.jpg","null","4","structured_load","74","structured_load,random,structured_normal,structured_incentive","3,4,2,3,2,1","2,1,4,3","false","","",""
"null","","html-keyboard-response","176","299133","0.0-176.0","","","","","<img src=""img/set1/S4.jpg"" width=""540"" height = ""360"">","null","","","","","","","","","",""
"null","","html-keyboard-response","177","300165","0.0-177.0","","","","","","null","","","","","","","","","",""
"null","","image-keyboard-response","178","303447","0.0-178.0","","","","","img/set1/S3.jpg","null","3","structured_load","72","structured_load,random,structured_normal,structured_incentive","3,4,2,3,2,1","2,1,4,3","false","","",""
"null","","html-keyboard-response","179","304442","0.0-179.0","","","","","<img src=""img/set1/S3.jpg"" width=""540"" height = ""360"">","null","","","","","","","","","",""
"null","","html-keyboard-response","180","305136","0.0-180.0","","","","","","null","","","","","","","","","",""
"null","","image-keyboard-response","181","308506","0.0-181.0","","","","","img/set1/S4.jpg","null","4","structured_load","74","structured_load,random,structured_normal,structured_incentive","3,4,2,3,2,1","2,1,4,3","false","","",""
"null","","html-keyboard-response","182","309443","0.0-182.0","","","","","<img src=""img/set1/S4.jpg"" width=""540"" height = ""360"">","null","","","","","","","","","",""
"null","","html-keyboard-response","183","310134","0.0-183.0","","","","","","null","","","","","","","","","",""
"null","","image-keyboard-response","184","313506","0.0-184.0","","","","","img/set1/S1.jpg","null","1","structured_load","83","structured_load,random,structured_normal,structured_incentive","3,4,2,3,2,1","2,1,4,3","false","","",""
"null","","html-keyboard-response","185","314443","0.0-185.0","","","","","<img src=""img/set1/S1.jpg"" width=""540"" height = ""360"">","null","","","","","","","","","",""
"null","","html-keyboard-response","186","315431","0.0-186.0","","","","","","null","","","","","","","","","",""
"null","","image-keyboard-response","187","318374","0.0-187.0","","","","","img/set1/S1.jpg","null","1","structured_load","83","structured_load,random,structured_normal,structured_incentive","3,4,2,3,2,1","2,1,4,3","false","","",""
"null","","html-keyboard-response","188","319509","0.0-188.0","","","","","<img src=""img/set1/S1.jpg"" width=""540"" height = ""360"">","null","","","","","","","","","",""
"null","","html-keyboard-response","189","320167","0.0-189.0","","","","","","null","","","","","","","","","",""
"null","","image-keyboard-response","190","341134","0.0-190.0","","","","","img/set1/S2.jpg","null","2","structured_load","68","structured_load,random,structured_normal,structured_incentive","3,4,2,3,2,1","2,1,4,3","false","","",""
"null","","html-keyboard-response","191","401135","0.0-191.0","","","","","<img src=""img/set1/S2.jpg"" width=""540"" height = ""360"">","null","","","","","","","","","",""
"null","","html-keyboard-response","192","461136","0.0-192.0","","","","","","null","","","","","","","","","",""
"null","","image-keyboard-response","193","521138","0.0-193.0","","","","","img/set1/S2.jpg","null","2","structured_load","68","structured_load,random,structured_normal,structured_incentive","3,4,2,3,2,1","2,1,4,3","false","","",""
"null","","html-keyboard-response","194","581139","0.0-194.0","","","","","<img src=""img/set1/S2.jpg"" width=""540"" height = ""360"">","null","","","","","","","","","",""
"null","","html-keyboard-response","195","637784","0.0-195.0","","","","","","null","","","","","","","","","",""
"null","","image-keyboard-response","196","640287","0.0-196.0","","","","","img/set1/S1.jpg","null","1","structured_load","83","structured_load,random,structured_normal,structured_incentive","3,4,2,3,2,1","2,1,4,3","false","","",""
"null","","html-keyboard-response","197","640639","0.0-197.0","","","","","<img src=""img/set1/S1.jpg"" width=""540"" height = ""360"">","null","","","","","","","","","",""
"null","","html-keyboard-response","198","640840","0.0-198.0","","","","","","null","","","","","","","","","",""
"null","","image-keyboard-response","199","643566","0.0-199.0","","","","","img/set1/S3.jpg","null","3","structured_load","72","structured_load,random,structured_normal,structured_incentive","3,4,2,3,2,1","2,1,4,3","false","","",""
"null","","html-keyboard-response","200","644419","0.0-200.0","","","","","<img src=""img/set1/S3.jpg"" width=""540"" height = ""360"">","null","","","","","","","","","",""
"null","","html-keyboard-response","201","645139","0.0-201.0","","","","","","null","","","","","","","","","",""
"null","","image-keyboard-response","202","648611","0.0-202.0","","","","","img/set1/S4.jpg","null","4","structured_load","74","structured_load,random,structured_normal,structured_incentive","3,4,2,3,2,1","2,1,4,3","false","","",""
"null","","html-keyboard-response","203","649400","0.0-203.0","","","","","<img src=""img/set1/S4.jpg"" width=""540"" height = ""360"">","null","","","","","","","","","",""
"null","","html-keyboard-response","204","650171","0.0-204.0","","","","","","null","","","","","","","","","",""
"null","","image-keyboard-response","205","653458","0.0-205.0","","","","","img/set1/S2.jpg","null","2","structured_load","68","structured_load,random,structured_normal,structured_incentive","3,4,2,3,2,1","2,1,4,3","false","","",""
"null","","html-keyboard-response","206","654140","0.0-206.0","","","","","<img src=""img/set1/S2.jpg"" width=""540"" height = ""360"">","null","","","","","","","","","",""
"null","","html-keyboard-response","207","655394","0.0-207.0","","","","","","null","","","","","","","","","",""
"null","","image-keyboard-response","208","658479","0.0-208.0","","","","","img/set1/S1.jpg","null","1","structured_load","83","structured_load,random,structured_normal,structured_incentive","3,4,2,3,2,1","2,1,4,3","false","","",""
"null","","html-keyboard-response","209","659467","0.0-209.0","","","","","<img src=""img/set1/S1.jpg"" width=""540"" height = ""360"">","null","","","","","","","","","",""
"null","","html-keyboard-response","210","660464","0.0-210.0","","","","","","null","","","","","","","","","",""
"null","","image-keyboard-response","211","663275","0.0-211.0","","","","","img/set1/S3.jpg","null","3","structured_load","72","structured_load,random,structured_normal,structured_incentive","3,4,2,3,2,1","2,1,4,3","false","","",""
"null","","html-keyboard-response","212","664569","0.0-212.0","","","","","<img src=""img/set1/S3.jpg"" width=""540"" height = ""360"">","null","","","","","","","","","",""
"null","","html-keyboard-response","213","665212","0.0-213.0","","","","","","null","","","","","","","","","",""
"null","","image-keyboard-response","214","668442","0.0-214.0","","","","","img/set1/S4.jpg","null","4","structured_load","74","structured_load,random,structured_normal,structured_incentive","3,4,2,3,2,1","2,1,4,3","false","","",""
"null","","html-keyboard-response","215","669484","0.0-215.0","","","","","<img src=""img/set1/S4.jpg"" width=""540"" height = ""360"">","null","","","","","","","","","",""
"null","","html-keyboard-response","216","670140","0.0-216.0","","","","","","null","","","","","","","","","",""
"null","","image-keyboard-response","217","673406","0.0-217.0","","","","","img/set1/S1.jpg","null","1","structured_load","83","structured_load,random,structured_normal,structured_incentive","3,4,2,3,2,1","2,1,4,3","false","","",""
"null","","html-keyboard-response","218","674502","0.0-218.0","","","","","<img src=""img/set1/S1.jpg"" width=""540"" height = ""360"">","null","","","","","","","","","",""
"null","","html-keyboard-response","219","675457","0.0-219.0","","","","","","null","","","","","","","","","",""
"null","","image-keyboard-response","220","678528","0.0-220.0","","","","","img/set1/S2.jpg","null","2","structured_load","68","structured_load,random,structured_normal,structured_incentive","3,4,2,3,2,1","2,1,4,3","false","","",""
"null","","html-keyboard-response","221","679436","0.0-221.0","","","","","<img src=""img/set1/S2.jpg"" width=""540"" height = ""360"">","null","","","","","","","","","",""
"null","","html-keyboard-response","222","680419","0.0-222.0","","","","","","null","","","","","","","","","",""
"null","","image-keyboard-response","223","683472","0.0-223.0","","","","","img/set1/S3.jpg","null","3","structured_load","72","structured_load,random,structured_normal,structured_incentive","3,4,2,3,2,1","2,1,4,3","false","","",""
"null","","html-keyboard-response","224","684472","0.0-224.0","","","","","<img src=""img/set1/S3.jpg"" width=""540"" height = ""360"">","null","","","","","","","","","",""
"null","","html-keyboard-response","225","685472","0.0-225.0","","","","","","null","","","","","","","","","",""
"null","","image-keyboard-response","226","688638","0.0-226.0","","","","","img/set1/S4.jpg","null","4","structured_load","74","structured_load,random,structured_normal,structured_incentive","3,4,2,3,2,1","2,1,4,3","false","","",""
"null","","html-keyboard-response","227","689140","0.0-227.0","","","","","<img src=""img/set1/S4.jpg"" width=""540"" height = ""360"">","null","","","","","","","","","",""
"null","","html-keyboard-response","228","690355","0.0-228.0","","","","","","null","","","","","","","","","",""
"null","","image-keyboard-response","229","693155","0.0-229.0","","","","","img/set1/S3.jpg","null","3","structured_load","72","structured_load,random,structured_normal,structured_incentive","3,4,2,3,2,1","2,1,4,3","false","","",""
"null","","html-keyboard-response","230","694243","0.0-230.0","","","","","<img src=""img/set1/S3.jpg"" width=""540"" height = ""360"">","null","","","","","","","","","",""
"null","","html-keyboard-response","231","695158","0.0-231.0","","","","","","null","","","","","","","","","",""
"null","","image-keyboard-response","232","698301","0.0-232.0","","","","","img/set1/S4.jpg","null","4","structured_load","74","structured_load,random,structured_normal,structured_incentive","3,4,2,3,2,1","2,1,4,3","false","","",""
"null","","html-keyboard-response","233","699538","0.0-233.0","","","","","<img src=""img/set1/S4.jpg"" width=""540"" height = ""360"">","null","","","","","","","","","",""
"null","","html-keyboard-response","234","700141","0.0-234.0","","","","","","null","","","","","","","","","",""
"null","","image-keyboard-response","235","702643","0.0-235.0","","","","","img/set1/S3.jpg","null","3","structured_load","72","structured_load,random,structured_normal,structured_incentive","3,4,2,3,2,1","2,1,4,3","false","","",""
"null","","html-keyboard-response","236","702994","0.0-236.0","","","","","<img src=""img/set1/S3.jpg"" width=""540"" height = ""360"">","null","","","","","","","","","",""
"null","","html-keyboard-response","237","703195","0.0-237.0","","","","","","null","","","","","","","","","",""
"null","","image-keyboard-response","238","706607","0.0-238.0","","","","","img/set1/S4.jpg","null","4","structured_load","74","structured_load,random,structured_normal,structured_incentive","3,4,2,3,2,1","2,1,4,3","false","","",""
"null","","html-keyboard-response","239","707390","0.0-239.0","","","","","<img src=""img/set1/S4.jpg"" width=""540"" height = ""360"">","null","","","","","","","","","",""
"null","","html-keyboard-response","240","708206","0.0-240.0","","","","","","null","","","","","","","","","",""
"null","","image-keyboard-response","241","711505","0.0-241.0","","","","","img/set1/S2.jpg","null","2","structured_load","68","structured_load,random,structured_normal,structured_incentive","3,4,2,3,2,1","2,1,4,3","false","","",""
"null","","html-keyboard-response","242","712141","0.0-242.0","","","","","<img src=""img/set1/S2.jpg"" width=""540"" height = ""360"">","null","","","","","","","","","",""
"null","","html-keyboard-response","243","713355","0.0-243.0","","","","","","null","","","","","","","","","",""
"null","","image-keyboard-response","244","715856","0.0-244.0","","","","","img/set1/S3.jpg","null","3","structured_load","72","structured_load,random,structured_normal,structured_incentive","3,4,2,3,2,1","2,1,4,3","false","","",""
"null","","html-keyboard-response","245","717181","0.0-245.0","","","","","<img src=""img/set1/S3.jpg"" width=""540"" height = ""360"">","null","","","","","","","","","",""
"null","","html-keyboard-response","246","718608","0.0-246.0","","","","","","null","","","","","","","","","",""
"null","","image-keyboard-response","247","721523","0.0-247.0","","","","","img/set1/S4.jpg","null","4","structured_load","74","structured_load,random,structured_normal,structured_incentive","3,4,2,3,2,1","2,1,4,3","false","","",""
"null","","html-keyboard-response","248","722431","0.0-248.0","","","","","<img src=""img/set1/S4.jpg"" width=""540"" height = ""360"">","null","","","","","","","","","",""
"null","","html-keyboard-response","249","723422","0.0-249.0","","","","","","null","","","","","","","","","",""
"null","","image-keyboard-response","250","727559","0.0-250.0","","","","","img/set1/S3.jpg","null","3","structured_load","72","structured_load,random,structured_normal,structured_incentive","3,4,2,3,2,1","2,1,4,3","false","","",""
"null","","html-keyboard-response","251","728405","0.0-251.0","","","","","<img src=""img/set1/S3.jpg"" width=""540"" height = ""360"">","null","","","","","","","","","",""
"null","","html-keyboard-response","252","729316","0.0-252.0","","","","","","null","","","","","","","","","",""
"null","","image-keyboard-response","253","732391","0.0-253.0","","","","","img/set1/S4.jpg","null","4","structured_load","74","structured_load,random,structured_normal,structured_incentive","3,4,2,3,2,1","2,1,4,3","false","","",""
"null","","html-keyboard-response","254","733223","0.0-254.0","","","","","<img src=""img/set1/S4.jpg"" width=""540"" height = ""360"">","null","","","","","","","","","",""
"null","","html-keyboard-response","255","734506","0.0-255.0","","","","","","null","","","","","","","","","",""
"null","","image-keyboard-response","256","737465","0.0-256.0","","","","","img/set1/S1.jpg","null","1","structured_load","83","structured_load,random,structured_normal,structured_incentive","3,4,2,3,2,1","2,1,4,3","false","","",""
"null","","html-keyboard-response","257","738473","0.0-257.0","","","","","<img src=""img/set1/S1.jpg"" width=""540"" height = ""360"">","null","","","","","","","","","",""
"null","","html-keyboard-response","258","739469","0.0-258.0","","","","","","null","","","","","","","","","",""
"null","","image-keyboard-response","259","742384","0.0-259.0","","","","","img/set1/S3.jpg","null","3","structured_load","72","structured_load,random,structured_normal,structured_incentive","3,4,2,3,2,1","2,1,4,3","false","","",""
"null","","html-keyboard-response","260","743221","0.0-260.0","","","","","<img src=""img/set1/S3.jpg"" width=""540"" height = ""360"">","null","","","","","","","","","",""
"null","","html-keyboard-response","261","744491","0.0-261.0","","","","","","null","","","","","","","","","",""
"null","","image-keyboard-response","262","747368","0.0-262.0","","","","","img/set1/S4.jpg","null","4","structured_load","74","structured_load,random,structured_normal,structured_incentive","3,4,2,3,2,1","2,1,4,3","false","","",""
"null","","html-keyboard-response","263","748521","0.0-263.0","","","","","<img src=""img/set1/S4.jpg"" width=""540"" height = ""360"">","null","","","","","","","","","",""
"null","","html-keyboard-response","264","749451","0.0-264.0","","","","","","null","","","","","","","","","",""
"null","","image-keyboard-response","265","752587","0.0-265.0","","","","","img/set1/S3.jpg","null","3","structured_load","72","structured_load,random,structured_normal,structured_incentive","3,4,2,3,2,1","2,1,4,3","false","","",""
"null","","html-keyboard-response","266","753414","0.0-266.0","","","","","<img src=""img/set1/S3.jpg"" width=""540"" height = ""360"">","null","","","","","","","","","",""
"null","","html-keyboard-response","267","754374","0.0-267.0","","","","","","null","","","","","","","","","",""
"null","","image-keyboard-response","268","757623","0.0-268.0","","","","","img/set1/S4.jpg","null","4","structured_load","74","structured_load,random,structured_normal,structured_incentive","3,4,2,3,2,1","2,1,4,3","false","","",""
"null","","html-keyboard-response","269","758255","0.0-269.0","","","","","<img src=""img/set1/S4.jpg"" width=""540"" height = ""360"">","null","","","","","","","","","",""
"null","","html-keyboard-response","270","759142","0.0-270.0","","","","","","null","","","","","","","","","",""
"null","","image-keyboard-response","271","762392","0.0-271.0","","","","","img/set1/S1.jpg","null","1","structured_load","83","structured_load,random,structured_normal,structured_incentive","3,4,2,3,2,1","2,1,4,3","false","","",""
"null","","html-keyboard-response","272","763513","0.0-272.0","","","","","<img src=""img/set1/S1.jpg"" width=""540"" height = ""360"">","null","","","","","","","","","",""
"null","","html-keyboard-response","273","764191","0.0-273.0","","","","","","null","","","","","","","","","",""
"null","","image-keyboard-response","274","767514","0.0-274.0","","","","","img/set1/S3.jpg","null","3","structured_load","72","structured_load,random,structured_normal,structured_incentive","3,4,2,3,2,1","2,1,4,3","false","","",""
"null","","html-keyboard-response","275","768451","0.0-275.0","","","","","<img src=""img/set1/S3.jpg"" width=""540"" height = ""360"">","null","","","","","","","","","",""
"null","","html-keyboard-response","276","769434","0.0-276.0","","","","","","null","","","","","","","","","",""
"null","","image-keyboard-response","277","772474","0.0-277.0","","","","","img/set1/S4.jpg","null","4","structured_load","74","structured_load,random,structured_normal,structured_incentive","3,4,2,3,2,1","2,1,4,3","false","","",""
"null","","html-keyboard-response","278","773466","0.0-278.0","","","","","<img src=""img/set1/S4.jpg"" width=""540"" height = ""360"">","null","","","","","","","","","",""
"null","","html-keyboard-response","279","774466","0.0-279.0","","","","","","null","","","","","","","","","",""
"null","","image-keyboard-response","280","777392","0.0-280.0","","","","","img/set1/S2.jpg","null","2","structured_load","68","structured_load,random,structured_normal,structured_incentive","3,4,2,3,2,1","2,1,4,3","false","","",""
"null","","html-keyboard-response","281","778515","0.0-281.0","","","","","<img src=""img/set1/S2.jpg"" width=""540"" height = ""360"">","null","","","","","","","","","",""
"null","","html-keyboard-response","282","779451","0.0-282.0","","","","","","null","","","","","","","","","",""
"null","","image-keyboard-response","283","782627","0.0-283.0","","","","","img/set1/S2.jpg","null","2","structured_load","68","structured_load,random,structured_normal,structured_incentive","3,4,2,3,2,1","2,1,4,3","false","","",""
"null","","html-keyboard-response","284","783269","0.0-284.0","","","","","<img src=""img/set1/S2.jpg"" width=""540"" height = ""360"">","null","","","","","","","","","",""
"null","","html-keyboard-response","285","784309","0.0-285.0","","","","","","null","","","","","","","","","",""
"null","","image-keyboard-response","286","787492","0.0-286.0","","","","","img/set1/S2.jpg","null","2","structured_load","68","structured_load,random,structured_normal,structured_incentive","3,4,2,3,2,1","2,1,4,3","false","","",""
"null","","html-keyboard-response","287","788465","0.0-287.0","","","","","<img src=""img/set1/S2.jpg"" width=""540"" height = ""360"">","null","","","","","","","","","",""
"null","","html-keyboard-response","288","789461","0.0-288.0","","","","","","null","","","","","","","","","",""
"null","","image-keyboard-response","289","792391","0.0-289.0","","","","","img/set1/S2.jpg","null","2","structured_load","68","structured_load,random,structured_normal,structured_incentive","3,4,2,3,2,1","2,1,4,3","false","","",""
"null","","html-keyboard-response","290","793515","0.0-290.0","","","","","<img src=""img/set1/S2.jpg"" width=""540"" height = ""360"">","null","","","","","","","","","",""
"null","","html-keyboard-response","291","794452","0.0-291.0","","","","","","null","","","","","","","","","",""
"null","","image-keyboard-response","292","797477","0.0-292.0","","","","","img/set1/S1.jpg","null","1","structured_load","83","structured_load,random,structured_normal,structured_incentive","3,4,2,3,2,1","2,1,4,3","false","","",""
"null","","html-keyboard-response","293","798466","0.0-293.0","","","","","<img src=""img/set1/S1.jpg"" width=""540"" height = ""360"">","null","","","","","","","","","",""
"null","","html-keyboard-response","294","799466","0.0-294.0","","","","","","null","","","","","","","","","",""
"null","","image-keyboard-response","295","802472","0.0-295.0","","","","","img/set1/S1.jpg","null","1","structured_load","83","structured_load,random,structured_normal,structured_incentive","3,4,2,3,2,1","2,1,4,3","false","","",""
"null","","html-keyboard-response","296","803471","0.0-296.0","","","","","<img src=""img/set1/S1.jpg"" width=""540"" height = ""360"">","null","","","","","","","","","",""
"null","","html-keyboard-response","297","804474","0.0-297.0","","","","","","null","","","","","","","","","",""
"null","","image-keyboard-response","298","807638","0.0-298.0","","","","","img/set1/S1.jpg","null","1","structured_load","83","structured_load,random,structured_normal,structured_incentive","3,4,2,3,2,1","2,1,4,3","false","","",""
"null","","html-keyboard-response","299","808393","0.0-299.0","","","","","<img src=""img/set1/S1.jpg"" width=""540"" height = ""360"">","null","","","","","","","","","",""
"null","","html-keyboard-response","300","809357","0.0-300.0","","","","","","null","","","","","","","","","",""
"null","","image-keyboard-response","301","812603","0.0-301.0","","","","","img/set1/S3.jpg","null","3","structured_load","72","structured_load,random,structured_normal,structured_incentive","3,4,2,3,2,1","2,1,4,3","false","","",""
"null","","html-keyboard-response","302","813408","0.0-302.0","","","","","<img src=""img/set1/S3.jpg"" width=""540"" height = ""360"">","null","","","","","","","","","",""
"null","","html-keyboard-response","303","814355","0.0-303.0","","","","","","null","","","","","","","","","",""
"null","","image-keyboard-response","304","817143","0.0-304.0","","","","","img/set1/S4.jpg","null","4","structured_load","74","structured_load,random,structured_normal,structured_incentive","3,4,2,3,2,1","2,1,4,3","false","","",""
"null","","html-keyboard-response","305","818282","0.0-305.0","","","","","<img src=""img/set1/S4.jpg"" width=""540"" height = ""360"">","null","","","","","","","","","",""
"null","","html-keyboard-response","306","819567","0.0-306.0","","","","","","null","","","","","","","","","",""
"null","","image-keyboard-response","307","822393","0.0-307.0","","","","","img/set1/S1.jpg","null","1","structured_load","83","structured_load,random,structured_normal,structured_incentive","3,4,2,3,2,1","2,1,4,3","false","","",""
"null","","html-keyboard-response","308","823515","0.0-308.0","","","","","<img src=""img/set1/S1.jpg"" width=""540"" height = ""360"">","null","","","","","","","","","",""
"null","","html-keyboard-response","309","824453","0.0-309.0","","","","","","null","","","","","","","","","",""
"null","","image-keyboard-response","310","827474","0.0-310.0","","","","","img/set1/S2.jpg","null","2","structured_load","68","structured_load,random,structured_normal,structured_incentive","3,4,2,3,2,1","2,1,4,3","false","","",""
"null","","html-keyboard-response","311","828468","0.0-311.0","","","","","<img src=""img/set1/S2.jpg"" width=""540"" height = ""360"">","null","","","","","","","","","",""
"null","","html-keyboard-response","312","829467","0.0-312.0","","","","","","null","","","","","","","","","",""
"null","","image-keyboard-response","313","832467","0.0-313.0","","","","","img/set1/S1.jpg","null","1","structured_load","83","structured_load,random,structured_normal,structured_incentive","3,4,2,3,2,1","2,1,4,3","false","","",""
"null","","html-keyboard-response","314","833473","0.0-314.0","","","","","<img src=""img/set1/S1.jpg"" width=""540"" height = ""360"">","null","","","","","","","","","",""
"null","","html-keyboard-response","315","834467","0.0-315.0","","","","","","null","","","","","","","","","",""
"null","","image-keyboard-response","316","837471","0.0-316.0","","","","","img/set1/S1.jpg","null","1","structured_load","83","structured_load,random,structured_normal,structured_incentive","3,4,2,3,2,1","2,1,4,3","false","","",""
"null","","html-keyboard-response","317","838467","0.0-317.0","","","","","<img src=""img/set1/S1.jpg"" width=""540"" height = ""360"">","null","","","","","","","","","",""
"null","","html-keyboard-response","318","839471","0.0-318.0","","","","","","null","","","","","","","","","",""
"null","","image-keyboard-response","319","842475","0.0-319.0","","","","","img/set1/S3.jpg","null","3","structured_load","72","structured_load,random,structured_normal,structured_incentive","3,4,2,3,2,1","2,1,4,3","false","","",""
"null","","html-keyboard-response","320","843475","0.0-320.0","","","","","<img src=""img/set1/S3.jpg"" width=""540"" height = ""360"">","null","","","","","","","","","",""
"null","","html-keyboard-response","321","844475","0.0-321.0","","","","","","null","","","","","","","","","",""
"null","","image-keyboard-response","322","847476","0.0-322.0","","","","","img/set1/S4.jpg","null","4","structured_load","74","structured_load,random,structured_normal,structured_incentive","3,4,2,3,2,1","2,1,4,3","false","","",""
"null","","html-keyboard-response","323","848472","0.0-323.0","","","","","<img src=""img/set1/S4.jpg"" width=""540"" height = ""360"">","null","","","","","","","","","",""
"null","","html-keyboard-response","324","849474","0.0-324.0","","","","","","null","","","","","","","","","",""
"null","","image-keyboard-response","325","852392","0.0-325.0","","","","","img/set1/S3.jpg","null","3","structured_load","72","structured_load,random,structured_normal,structured_incentive","3,4,2,3,2,1","2,1,4,3","false","","",""
"null","","html-keyboard-response","326","853516","0.0-326.0","","","","","<img src=""img/set1/S3.jpg"" width=""540"" height = ""360"">","null","","","","","","","","","",""
"null","","html-keyboard-response","327","854453","0.0-327.0","","","","","","null","","","","","","","","","",""
"null","","image-keyboard-response","328","857477","0.0-328.0","","","","","img/set1/S4.jpg","null","4","structured_load","74","structured_load,random,structured_normal,structured_incentive","3,4,2,3,2,1","2,1,4,3","false","","",""
"null","","html-keyboard-response","329","858470","0.0-329.0","","","","","<img src=""img/set1/S4.jpg"" width=""540"" height = ""360"">","null","","","","","","","","","",""
"null","","html-keyboard-response","330","859467","0.0-330.0","","","","","","null","","","","","","","","","",""
"null","","image-keyboard-response","331","862476","0.0-331.0","","","","","img/set1/S1.jpg","null","1","structured_load","83","structured_load,random,structured_normal,structured_incentive","3,4,2,3,2,1","2,1,4,3","false","","",""
"null","","html-keyboard-response","332","863143","0.0-332.0","","","","","<img src=""img/set1/S1.jpg"" width=""540"" height = ""360"">","null","","","","","","","","","",""
"null","","html-keyboard-response","333","864334","0.0-333.0","","","","","","null","","","","","","","","","",""
"null","","image-keyboard-response","334","867486","0.0-334.0","","","","","img/set1/S2.jpg","null","2","structured_load","68","structured_load,random,structured_normal,structured_incentive","3,4,2,3,2,1","2,1,4,3","false","","",""
"null","","html-keyboard-response","335","868466","0.0-335.0","","","","","<img src=""img/set1/S2.jpg"" width=""540"" height = ""360"">","null","","","","","","","","","",""
"null","","html-keyboard-response","336","869467","0.0-336.0","","","","","","null","","","","","","","","","",""
"null","","image-keyboard-response","337","872426","0.0-337.0","","","","","img/set1/S2.jpg","null","2","structured_load","68","structured_load,random,structured_normal,structured_incentive","3,4,2,3,2,1","2,1,4,3","false","","",""
"null","","html-keyboard-response","338","873492","0.0-338.0","","","","","<img src=""img/set1/S2.jpg"" width=""540"" height = ""360"">","null","","","","","","","","","",""
"null","","html-keyboard-response","339","874468","0.0-339.0","","","","","","null","","","","","","","","","",""
"null","","image-keyboard-response","340","877468","0.0-340.0","","","","","img/set1/S1.jpg","null","1","structured_load","83","structured_load,random,structured_normal,structured_incentive","3,4,2,3,2,1","2,1,4,3","false","","",""
"null","","html-keyboard-response","341","878474","0.0-341.0","","","","","<img src=""img/set1/S1.jpg"" width=""540"" height = ""360"">","null","","","","","","","","","",""
"null","","html-keyboard-response","342","879477","0.0-342.0","","","","","","null","","","","","","","","","",""
"null","","image-keyboard-response","343","882384","0.0-343.0","","","","","img/set1/S2.jpg","null","2","structured_load","68","structured_load,random,structured_normal,structured_incentive","3,4,2,3,2,1","2,1,4,3","false","","",""
"null","","html-keyboard-response","344","883520","0.0-344.0","","","","","<img src=""img/set1/S2.jpg"" width=""540"" height = ""360"">","null","","","","","","","","","",""
"null","","html-keyboard-response","345","884454","0.0-345.0","","","","","","null","","","","","","","","","",""
"null","","image-keyboard-response","346","887473","0.0-346.0","","","","","img/set1/S2.jpg","null","2","structured_load","68","structured_load,random,structured_normal,structured_incentive","3,4,2,3,2,1","2,1,4,3","false","","",""
"null","","html-keyboard-response","347","888467","0.0-347.0","","","","","<img src=""img/set1/S2.jpg"" width=""540"" height = ""360"">","null","","","","","","","","","",""
"null","","html-keyboard-response","348","889468","0.0-348.0","","","","","","null","","","","","","","","","",""
"null","","image-keyboard-response","349","892472","0.0-349.0","","","","","img/set1/S1.jpg","null","1","structured_load","83","structured_load,random,structured_normal,structured_incentive","3,4,2,3,2,1","2,1,4,3","false","","",""
"null","","html-keyboard-response","350","893474","0.0-350.0","","","","","<img src=""img/set1/S1.jpg"" width=""540"" height = ""360"">","null","","","","","","","","","",""
"null","","html-keyboard-response","351","894476","0.0-351.0","","","","","","null","","","","","","","","","",""
"null","","image-keyboard-response","352","897251","0.0-352.0","","","","","img/set1/S1.jpg","null","1","structured_load","83","structured_load,random,structured_normal,structured_incentive","3,4,2,3,2,1","2,1,4,3","false","","",""
"null","","html-keyboard-response","353","898588","0.0-353.0","","","","","<img src=""img/set1/S1.jpg"" width=""540"" height = ""360"">","null","","","","","","","","","",""
"null","","html-keyboard-response","354","899412","0.0-354.0","","","","","","null","","","","","","","","","",""
"null","","image-keyboard-response","355","902486","0.0-355.0","","","","","img/set1/S2.jpg","null","2","structured_load","68","structured_load,random,structured_normal,structured_incentive","3,4,2,3,2,1","2,1,4,3","false","","",""
"null","","html-keyboard-response","356","903468","0.0-356.0","","","","","<img src=""img/set1/S2.jpg"" width=""540"" height = ""360"">","null","","","","","","","","","",""
"null","","html-keyboard-response","357","904468","0.0-357.0","","","","","","null","","","","","","","","","",""
"null","","image-keyboard-response","358","907439","0.0-358.0","","","","","img/set1/S3.jpg","null","3","structured_load","72","structured_load,random,structured_normal,structured_incentive","3,4,2,3,2,1","2,1,4,3","false","","",""
"null","","html-keyboard-response","359","908492","0.0-359.0","","","","","<img src=""img/set1/S3.jpg"" width=""540"" height = ""360"">","null","","","","","","","","","",""
"null","","html-keyboard-response","360","909468","0.0-360.0","","","","","","null","","","","","","","","","",""
"null","","image-keyboard-response","361","912395","0.0-361.0","","","","","img/set1/S4.jpg","null","4","structured_load","74","structured_load,random,structured_normal,structured_incentive","3,4,2,3,2,1","2,1,4,3","false","","",""
"null","","html-keyboard-response","362","913516","0.0-362.0","","","","","<img src=""img/set1/S4.jpg"" width=""540"" height = ""360"">","null","","","","","","","","","",""
"null","","html-keyboard-response","363","914455","0.0-363.0","","","","","","null","","","","","","","","","",""
"128399.2000002861","","survey-multi-choice","364","1042861","0.0-364.0","","","","","","","","","","","","","","{""Q0"":""They had the same number of occurrences""}","[0]",""
"1453.7000002861023","","html-keyboard-response","365","1044320","0.0-365.0","","","","","<p class=""center-content"">Underfortunately, the answer you selected was incorrect. </p><p class=""center-content"">Please press any key to continue. </p>","32","","","","","","","","","",""
"1526.5","","html-keyboard-response","366","1045847","0.0-366.0","","","","","<p class=""center-content"">You have completed a block! </p><p class=""center-content"">Press any key on the keyboard to continue, </p><p class=""center-content"">or wait for the automatic progression to the next block after one minute.</p>","32","","","","","","","","","",""
"1096.5","","instructions","367","1046944","0.0-367.0","","","","[{""page_index"":0,""viewing_time"":1096.0999999046326}]","","","","","","","","","","","",""
"726.0999999046326","","instructions","368","1047671","0.0-368.0","","","","[{""page_index"":0,""viewing_time"":725.9000000953674}]","","","","","","","","","","","",""
"null","","image-keyboard-response","369","1051553","0.0-369.0","","","","","img/set2/S2.jpg","null","2","random","68","structured_load,random,structured_normal,structured_incentive","3,4,2,3,2,1","2,1,4,3","false","","",""
"null","","html-keyboard-response","370","1052161","0.0-370.0","","","","","<img src=""img/set2/S2.jpg"" width=""540"" height = ""360"">","null","","","","","","","","","",""
"null","","html-keyboard-response","371","1053284","0.0-371.0","","","","","","null","","","","","","","","","",""
"null","","image-keyboard-response","372","1056147","0.0-372.0","","","","","img/set2/S3.jpg","null","3","random","72","structured_load,random,structured_normal,structured_incentive","3,4,2,3,2,1","2,1,4,3","false","","",""
"null","","html-keyboard-response","373","1057440","0.0-373.0","","","","","<img src=""img/set2/S3.jpg"" width=""540"" height = ""360"">","null","","","","","","","","","",""
"null","","html-keyboard-response","374","1058495","0.0-374.0","","","","","","null","","","","","","","","","",""
"null","","image-keyboard-response","375","1061644","0.0-375.0","","","","","img/set2/S1.jpg","null","1","random","83","structured_load,random,structured_normal,structured_incentive","3,4,2,3,2,1","2,1,4,3","false","","",""
"null","","html-keyboard-response","376","1062397","0.0-376.0","","","","","<img src=""img/set2/S1.jpg"" width=""540"" height = ""360"">","null","","","","","","","","","",""
"null","","html-keyboard-response","377","1063337","0.0-377.0","","","","","","null","","","","","","","","","",""
"null","","image-keyboard-response","378","1065840","0.0-378.0","","","","","img/set2/S3.jpg","null","3","random","72","structured_load,random,structured_normal,structured_incentive","3,4,2,3,2,1","2,1,4,3","false","","",""
"null","","html-keyboard-response","379","1066192","0.0-379.0","","","","","<img src=""img/set2/S3.jpg"" width=""540"" height = ""360"">","null","","","","","","","","","",""
"null","","html-keyboard-response","380","1066395","0.0-380.0","","","","","","null","","","","","","","","","",""
"null","","image-keyboard-response","381","1069280","0.0-381.0","","","","","img/set2/S2.jpg","null","2","random","68","structured_load,random,structured_normal,structured_incentive","3,4,2,3,2,1","2,1,4,3","false","","",""
"null","","html-keyboard-response","382","1070055","0.0-382.0","","","","","<img src=""img/set2/S2.jpg"" width=""540"" height = ""360"">","null","","","","","","","","","",""
"null","","html-keyboard-response","383","1070258","0.0-383.0","","","","","","null","","","","","","","","","",""
"null","","image-keyboard-response","384","1073298","0.0-384.0","","","","","img/set2/S4.jpg","null","4","random","74","structured_load,random,structured_normal,structured_incentive","3,4,2,3,2,1","2,1,4,3","false","","",""
"null","","html-keyboard-response","385","1074565","0.0-385.0","","","","","<img src=""img/set2/S4.jpg"" width=""540"" height = ""360"">","null","","","","","","","","","",""
"null","","html-keyboard-response","386","1075430","0.0-386.0","","","","","","null","","","","","","","","","",""
"null","","image-keyboard-response","387","1078346","0.0-387.0","","","","","img/set2/S4.jpg","null","4","random","74","structured_load,random,structured_normal,structured_incentive","3,4,2,3,2,1","2,1,4,3","false","","",""
"null","","html-keyboard-response","388","1079204","0.0-388.0","","","","","<img src=""img/set2/S4.jpg"" width=""540"" height = ""360"">","null","","","","","","","","","",""
"null","","html-keyboard-response","389","1080214","0.0-389.0","","","","","","null","","","","","","","","","",""
"null","","image-keyboard-response","390","1083367","0.0-390.0","","","","","img/set2/S4.jpg","null","4","random","74","structured_load,random,structured_normal,structured_incentive","3,4,2,3,2,1","2,1,4,3","false","","",""
"null","","html-keyboard-response","391","1084531","0.0-391.0","","","","","<img src=""img/set2/S4.jpg"" width=""540"" height = ""360"">","null","","","","","","","","","",""
"null","","html-keyboard-response","392","1085453","0.0-392.0","","","","","","null","","","","","","","","","",""
"null","","image-keyboard-response","393","1088216","0.0-393.0","","","","","img/set2/S1.jpg","null","1","random","83","structured_load,random,structured_normal,structured_incentive","3,4,2,3,2,1","2,1,4,3","false","","",""
"null","","html-keyboard-response","394","1089603","0.0-394.0","","","","","<img src=""img/set2/S1.jpg"" width=""540"" height = ""360"">","null","","","","","","","","","",""
"null","","html-keyboard-response","395","1090147","0.0-395.0","","","","","","null","","","","","","","","","",""
"null","","image-keyboard-response","396","1093172","0.0-396.0","","","","","img/set2/S2.jpg","null","2","random","68","structured_load,random,structured_normal,structured_incentive","3,4,2,3,2,1","2,1,4,3","false","","",""
"null","","html-keyboard-response","397","1093891","0.0-397.0","","","","","<img src=""img/set2/S2.jpg"" width=""540"" height = ""360"">","null","","","","","","","","","",""
"null","","html-keyboard-response","398","1094093","0.0-398.0","","","","","","null","","","","","","","","","",""
"null","","image-keyboard-response","399","1097168","0.0-399.0","","","","","img/set2/S4.jpg","null","4","random","74","structured_load,random,structured_normal,structured_incentive","3,4,2,3,2,1","2,1,4,3","false","","",""
"null","","html-keyboard-response","400","1098387","0.0-400.0","","","","","<img src=""img/set2/S4.jpg"" width=""540"" height = ""360"">","null","","","","","","","","","",""
"null","","html-keyboard-response","401","1099524","0.0-401.0","","","","","","null","","","","","","","","","",""
"null","","image-keyboard-response","402","1102148","0.0-402.0","","","","","img/set2/S1.jpg","null","1","random","83","structured_load,random,structured_normal,structured_incentive","3,4,2,3,2,1","2,1,4,3","false","","",""
"null","","html-keyboard-response","403","1103466","0.0-403.0","","","","","<img src=""img/set2/S1.jpg"" width=""540"" height = ""360"">","null","","","","","","","","","",""
"null","","html-keyboard-response","404","1104483","0.0-404.0","","","","","","null","","","","","","","","","",""
"null","","image-keyboard-response","405","1106984","0.0-405.0","","","","","img/set2/S4.jpg","null","4","random","74","structured_load,random,structured_normal,structured_incentive","3,4,2,3,2,1","2,1,4,3","false","","",""
"null","","html-keyboard-response","406","1107336","0.0-406.0","","","","","<img src=""img/set2/S4.jpg"" width=""540"" height = ""360"">","null","","","","","","","","","",""
"null","","html-keyboard-response","407","1107537","0.0-407.0","","","","","","null","","","","","","","","","",""
"null","","image-keyboard-response","408","1110268","0.0-408.0","","","","","img/set2/S3.jpg","null","3","random","72","structured_load,random,structured_normal,structured_incentive","3,4,2,3,2,1","2,1,4,3","false","","",""
"null","","html-keyboard-response","409","1111585","0.0-409.0","","","","","<img src=""img/set2/S3.jpg"" width=""540"" height = ""360"">","null","","","","","","","","","",""
"null","","html-keyboard-response","410","1112427","0.0-410.0","","","","","","null","","","","","","","","","",""
"null","","image-keyboard-response","411","1115350","0.0-411.0","","","","","img/set2/S1.jpg","null","1","random","83","structured_load,random,structured_normal,structured_incentive","3,4,2,3,2,1","2,1,4,3","false","","",""
"null","","html-keyboard-response","412","1116308","0.0-412.0","","","","","<img src=""img/set2/S1.jpg"" width=""540"" height = ""360"">","null","","","","","","","","","",""
"null","","html-keyboard-response","413","1117530","0.0-413.0","","","","","","null","","","","","","","","","",""
"null","","image-keyboard-response","414","1120149","0.0-414.0","","","","","img/set2/S4.jpg","null","4","random","74","structured_load,random,structured_normal,structured_incentive","3,4,2,3,2,1","2,1,4,3","false","","",""
"null","","html-keyboard-response","415","1121643","0.0-415.0","","","","","<img src=""img/set2/S4.jpg"" width=""540"" height = ""360"">","null","","","","","","","","","",""
"null","","html-keyboard-response","416","1122398","0.0-416.0","","","","","","null","","","","","","","","","",""
"null","","image-keyboard-response","417","1125148","0.0-417.0","","","","","img/set2/S1.jpg","null","1","random","83","structured_load,random,structured_normal,structured_incentive","3,4,2,3,2,1","2,1,4,3","false","","",""
"null","","html-keyboard-response","418","1126178","0.0-418.0","","","","","<img src=""img/set2/S1.jpg"" width=""540"" height = ""360"">","null","","","","","","","","","",""
"null","","html-keyboard-response","419","1127629","0.0-419.0","","","","","","null","","","","","","","","","",""
"null","","image-keyboard-response","420","1130428","0.0-420.0","","","","","img/set2/S2.jpg","null","2","random","68","structured_load,random,structured_normal,structured_incentive","3,4,2,3,2,1","2,1,4,3","false","","",""
"null","","html-keyboard-response","421","1131506","0.0-421.0","","","","","<img src=""img/set2/S2.jpg"" width=""540"" height = ""360"">","null","","","","","","","","","",""
"null","","html-keyboard-response","422","1132466","0.0-422.0","","","","","","null","","","","","","","","","",""
"null","","image-keyboard-response","423","1135475","0.0-423.0","","","","","img/set2/S2.jpg","null","2","random","68","structured_load,random,structured_normal,structured_incentive","3,4,2,3,2,1","2,1,4,3","false","","",""
"null","","html-keyboard-response","424","1136475","0.0-424.0","","","","","<img src=""img/set2/S2.jpg"" width=""540"" height = ""360"">","null","","","","","","","","","",""
"null","","html-keyboard-response","425","1137481","0.0-425.0","","","","","","null","","","","","","","","","",""
"null","","image-keyboard-response","426","1139982","0.0-426.0","","","","","img/set2/S2.jpg","null","2","random","68","structured_load,random,structured_normal,structured_incentive","3,4,2,3,2,1","2,1,4,3","false","","",""
"null","","html-keyboard-response","427","1140334","0.0-427.0","","","","","<img src=""img/set2/S2.jpg"" width=""540"" height = ""360"">","null","","","","","","","","","",""
"null","","html-keyboard-response","428","1140537","0.0-428.0","","","","","","null","","","","","","","","","",""
"null","","image-keyboard-response","429","1143042","0.0-429.0","","","","","img/set2/S3.jpg","null","3","random","72","structured_load,random,structured_normal,structured_incentive","3,4,2,3,2,1","2,1,4,3","false","","",""
"null","","html-keyboard-response","430","1143394","0.0-430.0","","","","","<img src=""img/set2/S3.jpg"" width=""540"" height = ""360"">","null","","","","","","","","","",""
"null","","html-keyboard-response","431","1143595","0.0-431.0","","","","","","null","","","","","","","","","",""
"null","","image-keyboard-response","432","1146097","0.0-432.0","","","","","img/set2/S1.jpg","null","1","random","83","structured_load,random,structured_normal,structured_incentive","3,4,2,3,2,1","2,1,4,3","false","","",""
"null","","html-keyboard-response","433","1146449","0.0-433.0","","","","","<img src=""img/set2/S1.jpg"" width=""540"" height = ""360"">","null","","","","","","","","","",""
"null","","html-keyboard-response","434","1146652","0.0-434.0","","","","","","null","","","","","","","","","",""
"null","","image-keyboard-response","435","1149155","0.0-435.0","","","","","img/set2/S2.jpg","null","2","random","68","structured_load,random,structured_normal,structured_incentive","3,4,2,3,2,1","2,1,4,3","false","","",""
"null","","html-keyboard-response","436","1149510","0.0-436.0","","","","","<img src=""img/set2/S2.jpg"" width=""540"" height = ""360"">","null","","","","","","","","","",""
"null","","html-keyboard-response","437","1149711","0.0-437.0","","","","","","null","","","","","","","","","",""
"null","","image-keyboard-response","438","1152213","0.0-438.0","","","","","img/set2/S4.jpg","null","4","random","74","structured_load,random,structured_normal,structured_incentive","3,4,2,3,2,1","2,1,4,3","false","","",""
"null","","html-keyboard-response","439","1152566","0.0-439.0","","","","","<img src=""img/set2/S4.jpg"" width=""540"" height = ""360"">","null","","","","","","","","","",""
"null","","html-keyboard-response","440","1152768","0.0-440.0","","","","","","null","","","","","","","","","",""
"null","","image-keyboard-response","441","1155270","0.0-441.0","","","","","img/set2/S4.jpg","null","4","random","74","structured_load,random,structured_normal,structured_incentive","3,4,2,3,2,1","2,1,4,3","false","","",""
"null","","html-keyboard-response","442","1155625","0.0-442.0","","","","","<img src=""img/set2/S4.jpg"" width=""540"" height = ""360"">","null","","","","","","","","","",""
"null","","html-keyboard-response","443","1155826","0.0-443.0","","","","","","null","","","","","","","","","",""
"null","","image-keyboard-response","444","1158329","0.0-444.0","","","","","img/set2/S3.jpg","null","3","random","72","structured_load,random,structured_normal,structured_incentive","3,4,2,3,2,1","2,1,4,3","false","","",""
"null","","html-keyboard-response","445","1158682","0.0-445.0","","","","","<img src=""img/set2/S3.jpg"" width=""540"" height = ""360"">","null","","","","","","","","","",""
"null","","html-keyboard-response","446","1158884","0.0-446.0","","","","","","null","","","","","","","","","",""
"null","","image-keyboard-response","447","1161387","0.0-447.0","","","","","img/set2/S1.jpg","null","1","random","83","structured_load,random,structured_normal,structured_incentive","3,4,2,3,2,1","2,1,4,3","false","","",""
"null","","html-keyboard-response","448","1161742","0.0-448.0","","","","","<img src=""img/set2/S1.jpg"" width=""540"" height = ""360"">","null","","","","","","","","","",""
"null","","html-keyboard-response","449","1161946","0.0-449.0","","","","","","null","","","","","","","","","",""
"null","","image-keyboard-response","450","1164448","0.0-450.0","","","","","img/set2/S1.jpg","null","1","random","83","structured_load,random,structured_normal,structured_incentive","3,4,2,3,2,1","2,1,4,3","false","","",""
"null","","html-keyboard-response","451","1164801","0.0-451.0","","","","","<img src=""img/set2/S1.jpg"" width=""540"" height = ""360"">","null","","","","","","","","","",""
"null","","html-keyboard-response","452","1165004","0.0-452.0","","","","","","null","","","","","","","","","",""
"null","","image-keyboard-response","453","1167508","0.0-453.0","","","","","img/set2/S4.jpg","null","4","random","74","structured_load,random,structured_normal,structured_incentive","3,4,2,3,2,1","2,1,4,3","false","","",""
"null","","html-keyboard-response","454","1167863","0.0-454.0","","","","","<img src=""img/set2/S4.jpg"" width=""540"" height = ""360"">","null","","","","","","","","","",""
"null","","html-keyboard-response","455","1168064","0.0-455.0","","","","","","null","","","","","","","","","",""
"null","","image-keyboard-response","456","1170567","0.0-456.0","","","","","img/set2/S1.jpg","null","1","random","83","structured_load,random,structured_normal,structured_incentive","3,4,2,3,2,1","2,1,4,3","false","","",""
"null","","html-keyboard-response","457","1170921","0.0-457.0","","","","","<img src=""img/set2/S1.jpg"" width=""540"" height = ""360"">","null","","","","","","","","","",""
"null","","html-keyboard-response","458","1171125","0.0-458.0","","","","","","null","","","","","","","","","",""
"null","","image-keyboard-response","459","1173629","0.0-459.0","","","","","img/set2/S3.jpg","null","3","random","72","structured_load,random,structured_normal,structured_incentive","3,4,2,3,2,1","2,1,4,3","false","","",""
"null","","html-keyboard-response","460","1173982","0.0-460.0","","","","","<img src=""img/set2/S3.jpg"" width=""540"" height = ""360"">","null","","","","","","","","","",""
"null","","html-keyboard-response","461","1174185","0.0-461.0","","","","","","null","","","","","","","","","",""
"null","","image-keyboard-response","462","1176688","0.0-462.0","","","","","img/set2/S3.jpg","null","3","random","72","structured_load,random,structured_normal,structured_incentive","3,4,2,3,2,1","2,1,4,3","false","","",""
"null","","html-keyboard-response","463","1177043","0.0-463.0","","","","","<img src=""img/set2/S3.jpg"" width=""540"" height = ""360"">","null","","","","","","","","","",""
"null","","html-keyboard-response","464","1177247","0.0-464.0","","","","","","null","","","","","","","","","",""
"null","","image-keyboard-response","465","1179749","0.0-465.0","","","","","img/set2/S4.jpg","null","4","random","74","structured_load,random,structured_normal,structured_incentive","3,4,2,3,2,1","2,1,4,3","false","","",""
"null","","html-keyboard-response","466","1180101","0.0-466.0","","","","","<img src=""img/set2/S4.jpg"" width=""540"" height = ""360"">","null","","","","","","","","","",""
"null","","html-keyboard-response","467","1180305","0.0-467.0","","","","","","null","","","","","","","","","",""
"null","","image-keyboard-response","468","1182809","0.0-468.0","","","","","img/set2/S3.jpg","null","3","random","72","structured_load,random,structured_normal,structured_incentive","3,4,2,3,2,1","2,1,4,3","false","","",""
"null","","html-keyboard-response","469","1183163","0.0-469.0","","","","","<img src=""img/set2/S3.jpg"" width=""540"" height = ""360"">","null","","","","","","","","","",""
"null","","html-keyboard-response","470","1183366","0.0-470.0","","","","","","null","","","","","","","","","",""
"null","","image-keyboard-response","471","1185869","0.0-471.0","","","","","img/set2/S4.jpg","null","4","random","74","structured_load,random,structured_normal,structured_incentive","3,4,2,3,2,1","2,1,4,3","false","","",""
"null","","html-keyboard-response","472","1186224","0.0-472.0","","","","","<img src=""img/set2/S4.jpg"" width=""540"" height = ""360"">","null","","","","","","","","","",""
"null","","html-keyboard-response","473","1186428","0.0-473.0","","","","","","null","","","","","","","","","",""
"null","","image-keyboard-response","474","1188931","0.0-474.0","","","","","img/set2/S3.jpg","null","3","random","72","structured_load,random,structured_normal,structured_incentive","3,4,2,3,2,1","2,1,4,3","false","","",""
"null","","html-keyboard-response","475","1189284","0.0-475.0","","","","","<img src=""img/set2/S3.jpg"" width=""540"" height = ""360"">","null","","","","","","","","","",""
"null","","html-keyboard-response","476","1189487","0.0-476.0","","","","","","null","","","","","","","","","",""
"null","","image-keyboard-response","477","1191991","0.0-477.0","","","","","img/set2/S3.jpg","null","3","random","72","structured_load,random,structured_normal,structured_incentive","3,4,2,3,2,1","2,1,4,3","false","","",""
"null","","html-keyboard-response","478","1192345","0.0-478.0","","","","","<img src=""img/set2/S3.jpg"" width=""540"" height = ""360"">","null","","","","","","","","","",""
"null","","html-keyboard-response","479","1192547","0.0-479.0","","","","","","null","","","","","","","","","",""
"null","","image-keyboard-response","480","1195050","0.0-480.0","","","","","img/set2/S3.jpg","null","3","random","72","structured_load,random,structured_normal,structured_incentive","3,4,2,3,2,1","2,1,4,3","false","","",""
"null","","html-keyboard-response","481","1195404","0.0-481.0","","","","","<img src=""img/set2/S3.jpg"" width=""540"" height = ""360"">","null","","","","","","","","","",""
"null","","html-keyboard-response","482","1195606","0.0-482.0","","","","","","null","","","","","","","","","",""
"null","","image-keyboard-response","483","1198110","0.0-483.0","","","","","img/set2/S1.jpg","null","1","random","83","structured_load,random,structured_normal,structured_incentive","3,4,2,3,2,1","2,1,4,3","false","","",""
"null","","html-keyboard-response","484","1198462","0.0-484.0","","","","","<img src=""img/set2/S1.jpg"" width=""540"" height = ""360"">","null","","","","","","","","","",""
"null","","html-keyboard-response","485","1198664","0.0-485.0","","","","","","null","","","","","","","","","",""
"null","","image-keyboard-response","486","1201168","0.0-486.0","","","","","img/set2/S1.jpg","null","1","random","83","structured_load,random,structured_normal,structured_incentive","3,4,2,3,2,1","2,1,4,3","false","","",""
"null","","html-keyboard-response","487","1201521","0.0-487.0","","","","","<img src=""img/set2/S1.jpg"" width=""540"" height = ""360"">","null","","","","","","","","","",""
"null","","html-keyboard-response","488","1201724","0.0-488.0","","","","","","null","","","","","","","","","",""
"null","","image-keyboard-response","489","1204229","0.0-489.0","","","","","img/set2/S2.jpg","null","2","random","68","structured_load,random,structured_normal,structured_incentive","3,4,2,3,2,1","2,1,4,3","false","","",""
"null","","html-keyboard-response","490","1204582","0.0-490.0","","","","","<img src=""img/set2/S2.jpg"" width=""540"" height = ""360"">","null","","","","","","","","","",""
"null","","html-keyboard-response","491","1204785","0.0-491.0","","","","","","null","","","","","","","","","",""
"null","","image-keyboard-response","492","1207289","0.0-492.0","","","","","img/set2/S4.jpg","null","4","random","74","structured_load,random,structured_normal,structured_incentive","3,4,2,3,2,1","2,1,4,3","false","","",""
"null","","html-keyboard-response","493","1207642","0.0-493.0","","","","","<img src=""img/set2/S4.jpg"" width=""540"" height = ""360"">","null","","","","","","","","","",""
"null","","html-keyboard-response","494","1207846","0.0-494.0","","","","","","null","","","","","","","","","",""
"null","","image-keyboard-response","495","1210385","0.0-495.0","","","","","img/set2/S1.jpg","null","1","random","83","structured_load,random,structured_normal,structured_incentive","3,4,2,3,2,1","2,1,4,3","false","","",""
"null","","html-keyboard-response","496","1210829","0.0-496.0","","","","","<img src=""img/set2/S1.jpg"" width=""540"" height = ""360"">","null","","","","","","","","","",""
"null","","html-keyboard-response","497","1211033","0.0-497.0","","","","","","null","","","","","","","","","",""
"null","","image-keyboard-response","498","1213535","0.0-498.0","","","","","img/set2/S1.jpg","null","1","random","83","structured_load,random,structured_normal,structured_incentive","3,4,2,3,2,1","2,1,4,3","false","","",""
"null","","html-keyboard-response","499","1213887","0.0-499.0","","","","","<img src=""img/set2/S1.jpg"" width=""540"" height = ""360"">","null","","","","","","","","","",""
"null","","html-keyboard-response","500","1214091","0.0-500.0","","","","","","null","","","","","","","","","",""
"null","","image-keyboard-response","501","1216595","0.0-501.0","","","","","img/set2/S3.jpg","null","3","random","72","structured_load,random,structured_normal,structured_incentive","3,4,2,3,2,1","2,1,4,3","false","","",""
"null","","html-keyboard-response","502","1216948","0.0-502.0","","","","","<img src=""img/set2/S3.jpg"" width=""540"" height = ""360"">","null","","","","","","","","","",""
"null","","html-keyboard-response","503","1217151","0.0-503.0","","","","","","null","","","","","","","","","",""
"null","","image-keyboard-response","504","1219655","0.0-504.0","","","","","img/set2/S1.jpg","null","1","random","83","structured_load,random,structured_normal,structured_incentive","3,4,2,3,2,1","2,1,4,3","false","","",""
"null","","html-keyboard-response","505","1220010","0.0-505.0","","","","","<img src=""img/set2/S1.jpg"" width=""540"" height = ""360"">","null","","","","","","","","","",""
"null","","html-keyboard-response","506","1220214","0.0-506.0","","","","","","null","","","","","","","","","",""
"null","","image-keyboard-response","507","1222717","0.0-507.0","","","","","img/set2/S2.jpg","null","2","random","68","structured_load,random,structured_normal,structured_incentive","3,4,2,3,2,1","2,1,4,3","false","","",""
"null","","html-keyboard-response","508","1223071","0.0-508.0","","","","","<img src=""img/set2/S2.jpg"" width=""540"" height = ""360"">","null","","","","","","","","","",""
"null","","html-keyboard-response","509","1223275","0.0-509.0","","","","","","null","","","","","","","","","",""
"null","","image-keyboard-response","510","1225780","0.0-510.0","","","","","img/set2/S1.jpg","null","1","random","83","structured_load,random,structured_normal,structured_incentive","3,4,2,3,2,1","2,1,4,3","false","","",""
"null","","html-keyboard-response","511","1226133","0.0-511.0","","","","","<img src=""img/set2/S1.jpg"" width=""540"" height = ""360"">","null","","","","","","","","","",""
"null","","html-keyboard-response","512","1226336","0.0-512.0","","","","","","null","","","","","","","","","",""
"null","","image-keyboard-response","513","1228840","0.0-513.0","","","","","img/set2/S2.jpg","null","2","random","68","structured_load,random,structured_normal,structured_incentive","3,4,2,3,2,1","2,1,4,3","false","","",""
"null","","html-keyboard-response","514","1229192","0.0-514.0","","","","","<img src=""img/set2/S2.jpg"" width=""540"" height = ""360"">","null","","","","","","","","","",""
"null","","html-keyboard-response","515","1229395","0.0-515.0","","","","","","null","","","","","","","","","",""
"null","","image-keyboard-response","516","1231898","0.0-516.0","","","","","img/set2/S4.jpg","null","4","random","74","structured_load,random,structured_normal,structured_incentive","3,4,2,3,2,1","2,1,4,3","false","","",""
"null","","html-keyboard-response","517","1232251","0.0-517.0","","","","","<img src=""img/set2/S4.jpg"" width=""540"" height = ""360"">","null","","","","","","","","","",""
"null","","html-keyboard-response","518","1232454","0.0-518.0","","","","","","null","","","","","","","","","",""
"null","","image-keyboard-response","519","1234960","0.0-519.0","","","","","img/set2/S4.jpg","null","4","random","74","structured_load,random,structured_normal,structured_incentive","3,4,2,3,2,1","2,1,4,3","false","","",""
"null","","html-keyboard-response","520","1235314","0.0-520.0","","","","","<img src=""img/set2/S4.jpg"" width=""540"" height = ""360"">","null","","","","","","","","","",""
"null","","html-keyboard-response","521","1235516","0.0-521.0","","","","","","null","","","","","","","","","",""
"null","","image-keyboard-response","522","1238019","0.0-522.0","","","","","img/set2/S2.jpg","null","2","random","68","structured_load,random,structured_normal,structured_incentive","3,4,2,3,2,1","2,1,4,3","false","","",""
"null","","html-keyboard-response","523","1238374","0.0-523.0","","","","","<img src=""img/set2/S2.jpg"" width=""540"" height = ""360"">","null","","","","","","","","","",""
"null","","html-keyboard-response","524","1238579","0.0-524.0","","","","","","null","","","","","","","","","",""
"null","","image-keyboard-response","525","1241082","0.0-525.0","","","","","img/set2/S4.jpg","null","4","random","74","structured_load,random,structured_normal,structured_incentive","3,4,2,3,2,1","2,1,4,3","false","","",""
"null","","html-keyboard-response","526","1241436","0.0-526.0","","","","","<img src=""img/set2/S4.jpg"" width=""540"" height = ""360"">","null","","","","","","","","","",""
"null","","html-keyboard-response","527","1241640","0.0-527.0","","","","","","null","","","","","","","","","",""
"null","","image-keyboard-response","528","1244142","0.0-528.0","","","","","img/set2/S3.jpg","null","3","random","72","structured_load,random,structured_normal,structured_incentive","3,4,2,3,2,1","2,1,4,3","false","","",""
"null","","html-keyboard-response","529","1244495","0.0-529.0","","","","","<img src=""img/set2/S3.jpg"" width=""540"" height = ""360"">","null","","","","","","","","","",""
"null","","html-keyboard-response","530","1244696","0.0-530.0","","","","","","null","","","","","","","","","",""
"null","","image-keyboard-response","531","1247197","0.0-531.0","","","","","img/set2/S1.jpg","null","1","random","83","structured_load,random,structured_normal,structured_incentive","3,4,2,3,2,1","2,1,4,3","false","","",""
"null","","html-keyboard-response","532","1247549","0.0-532.0","","","","","<img src=""img/set2/S1.jpg"" width=""540"" height = ""360"">","null","","","","","","","","","",""
"null","","html-keyboard-response","533","1247751","0.0-533.0","","","","","","null","","","","","","","","","",""
"null","","image-keyboard-response","534","1250253","0.0-534.0","","","","","img/set2/S3.jpg","null","3","random","72","structured_load,random,structured_normal,structured_incentive","3,4,2,3,2,1","2,1,4,3","false","","",""
"null","","html-keyboard-response","535","1250606","0.0-535.0","","","","","<img src=""img/set2/S3.jpg"" width=""540"" height = ""360"">","null","","","","","","","","","",""
"null","","html-keyboard-response","536","1250808","0.0-536.0","","","","","","null","","","","","","","","","",""
"null","","image-keyboard-response","537","1253310","0.0-537.0","","","","","img/set2/S3.jpg","null","3","random","72","structured_load,random,structured_normal,structured_incentive","3,4,2,3,2,1","2,1,4,3","false","","",""
"null","","html-keyboard-response","538","1253663","0.0-538.0","","","","","<img src=""img/set2/S3.jpg"" width=""540"" height = ""360"">","null","","","","","","","","","",""
"null","","html-keyboard-response","539","1253864","0.0-539.0","","","","","","null","","","","","","","","","",""
"null","","image-keyboard-response","540","1256366","0.0-540.0","","","","","img/set2/S4.jpg","null","4","random","74","structured_load,random,structured_normal,structured_incentive","3,4,2,3,2,1","2,1,4,3","false","","",""
"null","","html-keyboard-response","541","1256717","0.0-541.0","","","","","<img src=""img/set2/S4.jpg"" width=""540"" height = ""360"">","null","","","","","","","","","",""
"null","","html-keyboard-response","542","1256919","0.0-542.0","","","","","","null","","","","","","","","","",""
"null","","image-keyboard-response","543","1259423","0.0-543.0","","","","","img/set2/S2.jpg","null","2","random","68","structured_load,random,structured_normal,structured_incentive","3,4,2,3,2,1","2,1,4,3","false","","",""
"null","","html-keyboard-response","544","1259778","0.0-544.0","","","","","<img src=""img/set2/S2.jpg"" width=""540"" height = ""360"">","null","","","","","","","","","",""
"null","","html-keyboard-response","545","1259980","0.0-545.0","","","","","","null","","","","","","","","","",""
"null","","image-keyboard-response","546","1262482","0.0-546.0","","","","","img/set2/S4.jpg","null","4","random","74","structured_load,random,structured_normal,structured_incentive","3,4,2,3,2,1","2,1,4,3","false","","",""
"null","","html-keyboard-response","547","1262834","0.0-547.0","","","","","<img src=""img/set2/S4.jpg"" width=""540"" height = ""360"">","null","","","","","","","","","",""
"null","","html-keyboard-response","548","1263037","0.0-548.0","","","","","","null","","","","","","","","","",""
"null","","image-keyboard-response","549","1265540","0.0-549.0","","","","","img/set2/S4.jpg","null","4","random","74","structured_load,random,structured_normal,structured_incentive","3,4,2,3,2,1","2,1,4,3","false","","",""
"null","","html-keyboard-response","550","1265895","0.0-550.0","","","","","<img src=""img/set2/S4.jpg"" width=""540"" height = ""360"">","null","","","","","","","","","",""
"null","","html-keyboard-response","551","1266096","0.0-551.0","","","","","","null","","","","","","","","","",""
"null","","image-keyboard-response","552","1268598","0.0-552.0","","","","","img/set2/S3.jpg","null","3","random","72","structured_load,random,structured_normal,structured_incentive","3,4,2,3,2,1","2,1,4,3","false","","",""
"null","","html-keyboard-response","553","1268950","0.0-553.0","","","","","<img src=""img/set2/S3.jpg"" width=""540"" height = ""360"">","null","","","","","","","","","",""
"null","","html-keyboard-response","554","1269152","0.0-554.0","","","","","","null","","","","","","","","","",""
"null","","image-keyboard-response","555","1271655","0.0-555.0","","","","","img/set2/S2.jpg","null","2","random","68","structured_load,random,structured_normal,structured_incentive","3,4,2,3,2,1","2,1,4,3","false","","",""
"null","","html-keyboard-response","556","1272009","0.0-556.0","","","","","<img src=""img/set2/S2.jpg"" width=""540"" height = ""360"">","null","","","","","","","","","",""
"null","","html-keyboard-response","557","1272212","0.0-557.0","","","","","","null","","","","","","","","","",""
"null","","image-keyboard-response","558","1274714","0.0-558.0","","","","","img/set2/S3.jpg","null","3","random","72","structured_load,random,structured_normal,structured_incentive","3,4,2,3,2,1","2,1,4,3","false","","",""
"null","","html-keyboard-response","559","1275067","0.0-559.0","","","","","<img src=""img/set2/S3.jpg"" width=""540"" height = ""360"">","null","","","","","","","","","",""
"null","","html-keyboard-response","560","1275269","0.0-560.0","","","","","","null","","","","","","","","","",""
"null","","image-keyboard-response","561","1277772","0.0-561.0","","","","","img/set2/S2.jpg","null","2","random","68","structured_load,random,structured_normal,structured_incentive","3,4,2,3,2,1","2,1,4,3","false","","",""
"null","","html-keyboard-response","562","1278127","0.0-562.0","","","","","<img src=""img/set2/S2.jpg"" width=""540"" height = ""360"">","null","","","","","","","","","",""
"null","","html-keyboard-response","563","1278330","0.0-563.0","","","","","","null","","","","","","","","","",""
"null","","image-keyboard-response","564","1280832","0.0-564.0","","","","","img/set2/S3.jpg","null","3","random","72","structured_load,random,structured_normal,structured_incentive","3,4,2,3,2,1","2,1,4,3","false","","",""
"null","","html-keyboard-response","565","1281184","0.0-565.0","","","","","<img src=""img/set2/S3.jpg"" width=""540"" height = ""360"">","null","","","","","","","","","",""
"null","","html-keyboard-response","566","1281387","0.0-566.0","","","","","","null","","","","","","","","","",""
"null","","image-keyboard-response","567","1283889","0.0-567.0","","","","","img/set2/S1.jpg","null","1","random","83","structured_load,random,structured_normal,structured_incentive","3,4,2,3,2,1","2,1,4,3","false","","",""
"null","","html-keyboard-response","568","1284244","0.0-568.0","","","","","<img src=""img/set2/S1.jpg"" width=""540"" height = ""360"">","null","","","","","","","","","",""
"null","","html-keyboard-response","569","1284446","0.0-569.0","","","","","","null","","","","","","","","","",""
"null","","image-keyboard-response","570","1286948","0.0-570.0","","","","","img/set2/S1.jpg","null","1","random","83","structured_load,random,structured_normal,structured_incentive","3,4,2,3,2,1","2,1,4,3","false","","",""
"null","","html-keyboard-response","571","1287300","0.0-571.0","","","","","<img src=""img/set2/S1.jpg"" width=""540"" height = ""360"">","null","","","","","","","","","",""
