"rt","url","trial_type","trial_index","time_elapsed","internal_node_id","view_history","stimulus","key_press","state","test_part","correct_response","correct","bonus","responses"
"10134.554999996908","consent.html","external-html","0","10254","0.0-0.0","","","","","","","","",""
"17341.55999997165","","instructions","1","27598","0.0-1.0","[{""page_index"":0,""viewing_time"":2098.5599999548867},{""page_index"":1,""viewing_time"":1799.9950000084937},{""page_index"":2,""viewing_time"":3181.9649999961257},{""page_index"":3,""viewing_time"":2006.0500000836328},{""page_index"":2,""viewing_time"":1889.7799999685958},{""page_index"":3,""viewing_time"":1050.2299999352545},{""page_index"":4,""viewing_time"":1463.97500007879},{""page_index"":5,""viewing_time"":2333.920000004582},{""page_index"":6,""viewing_time"":1515.7899999758229}]","","","","","","","",""
"1403.8799999980256","","image-keyboard-response","2","29005","0.0-2.0-0.0","","img/nature/S2.jpg","49","2","practice","50","false","",""
"null","","html-keyboard-response","3","29509","0.0-2.0-1.0","","<img src=""img/nature/S2.jpg"" width=""540"" height = ""360"">","null","","","","","",""
"null","","html-keyboard-response","4","29614","0.0-2.0-2.0","","","null","","","","","",""
"19.81500000692904","","image-keyboard-response","5","29636","0.0-2.0-0.1","","img/nature/S1.jpg","49","1","practice","49","true","",""
"null","","html-keyboard-response","6","30141","0.0-2.0-1.1","","<img src=""img/nature/S1.jpg"" width=""540"" height = ""360"" style=""border:14px solid orange"">","null","","","","","",""
"null","","html-keyboard-response","7","30247","0.0-2.0-2.1","","","null","","","","","",""
"699.0900000091642","","image-keyboard-response","8","30948","0.0-2.0-0.2","","img/nature/S3.jpg","51","3","practice","51","true","",""
"null","","html-keyboard-response","9","31451","0.0-2.0-1.2","","<img src=""img/nature/S3.jpg"" width=""540"" height = ""360"" style=""border:14px solid orange"">","null","","","","","",""
"null","","html-keyboard-response","10","31556","0.0-2.0-2.2","","","null","","","","","",""
"726.3000000966713","","image-keyboard-response","11","32284","0.0-2.0-0.3","","img/nature/S2.jpg","50","2","practice","50","true","",""
"null","","html-keyboard-response","12","32788","0.0-2.0-1.3","","<img src=""img/nature/S2.jpg"" width=""540"" height = ""360"" style=""border:14px solid orange"">","null","","","","","",""
"null","","html-keyboard-response","13","32894","0.0-2.0-2.3","","","null","","","","","",""
"835.700000054203","","image-keyboard-response","14","33732","0.0-2.0-0.4","","img/nature/S3.jpg","49","3","practice","51","false","",""
"null","","html-keyboard-response","15","34234","0.0-2.0-1.4","","<img src=""img/nature/S3.jpg"" width=""540"" height = ""360"">","null","","","","","",""
"null","","html-keyboard-response","16","34336","0.0-2.0-2.4","","","null","","","","","",""
"706.4000000245869","","image-keyboard-response","17","35044","0.0-2.0-0.5","","img/nature/S1.jpg","49","1","practice","49","true","",""
"null","","html-keyboard-response","18","35548","0.0-2.0-1.5","","<img src=""img/nature/S1.jpg"" width=""540"" height = ""360"" style=""border:14px solid orange"">","null","","","","","",""
"null","","html-keyboard-response","19","35654","0.0-2.0-2.5","","","null","","","","","",""
"564.0000000130385","","image-keyboard-response","20","36219","0.0-2.0-0.6","","img/nature/S2.jpg","51","2","practice","50","false","",""
"null","","html-keyboard-response","21","36721","0.0-2.0-1.6","","<img src=""img/nature/S2.jpg"" width=""540"" height = ""360"">","null","","","","","",""
"null","","html-keyboard-response","22","36823","0.0-2.0-2.6","","","null","","","","","",""
"731.6600000485778","","image-keyboard-response","23","37556","0.0-2.0-0.7","","img/nature/S1.jpg","50","1","practice","49","false","",""
"null","","html-keyboard-response","24","38059","0.0-2.0-1.7","","<img src=""img/nature/S1.jpg"" width=""540"" height = ""360"">","null","","","","","",""
"null","","html-keyboard-response","25","38166","0.0-2.0-2.7","","","null","","","","","",""
"596.9099999638274","","image-keyboard-response","26","38764","0.0-2.0-0.8","","img/nature/S3.jpg","49","3","practice","51","false","",""
"null","","html-keyboard-response","27","39269","0.0-2.0-1.8","","<img src=""img/nature/S3.jpg"" width=""540"" height = ""360"">","null","","","","","",""
"null","","html-keyboard-response","28","39375","0.0-2.0-2.8","","","null","","","","","",""
"1035.1800000062212","","image-keyboard-response","29","40412","0.0-2.0-0.9","","img/nature/S2.jpg","51","2","practice","50","false","",""
"null","","html-keyboard-response","30","40915","0.0-2.0-1.9","","<img src=""img/nature/S2.jpg"" width=""540"" height = ""360"">","null","","","","","",""
"null","","html-keyboard-response","31","41020","0.0-2.0-2.9","","","null","","","","","",""
"765.8999999985099","","image-keyboard-response","32","41788","0.0-2.0-0.10","","img/nature/S1.jpg","49","1","practice","49","true","",""
"null","","html-keyboard-response","33","42293","0.0-2.0-1.10","","<img src=""img/nature/S1.jpg"" width=""540"" height = ""360"" style=""border:14px solid orange"">","null","","","","","",""
"null","","html-keyboard-response","34","42398","0.0-2.0-2.10","","","null","","","","","",""
"915.9699999727309","","image-keyboard-response","35","43316","0.0-2.0-0.11","","img/nature/S3.jpg","51","3","practice","51","true","",""
"null","","html-keyboard-response","36","43818","0.0-2.0-1.11","","<img src=""img/nature/S3.jpg"" width=""540"" height = ""360"" style=""border:14px solid orange"">","null","","","","","",""
"null","","html-keyboard-response","37","43922","0.0-2.0-2.11","","","null","","","","","",""
"2103.650000062771","","instructions","38","46027","0.0-3.0","[{""page_index"":0,""viewing_time"":2103.330000070855}]","","","","","","","",""
"966.9299999950454","","image-keyboard-response","39","46996","0.0-4.0","","img/nature/S3.jpg","51","3","Ns3,train","51","true","",""
"null","","html-keyboard-response","40","47350","0.0-5.0","","<img src=""img/nature/S3.jpg"" width=""540"" height = ""360"" style=""border:14px solid orange"">","null","","","","","",""
"null","","html-keyboard-response","41","47433","0.0-6.0","","","null","","","","","",""
"1233.9299999875948","","image-keyboard-response","42","48668","0.0-7.0","","img/nature/S2.jpg","50","2","Ns3,train","50","true","",""
"null","","html-keyboard-response","43","49023","0.0-8.0","","<img src=""img/nature/S2.jpg"" width=""540"" height = ""360"" style=""border:14px solid orange"">","null","","","","","",""
"null","","html-keyboard-response","44","49107","0.0-9.0","","","null","","","","","",""
"447.15999998152256","","image-keyboard-response","45","49556","0.0-10.0","","img/nature/S1.jpg","49","1","Ns3,train","49","true","",""
"null","","html-keyboard-response","46","49908","0.0-11.0","","<img src=""img/nature/S1.jpg"" width=""540"" height = ""360"" style=""border:14px solid orange"">","null","","","","","",""
"null","","html-keyboard-response","47","49995","0.0-12.0","","","null","","","","","",""
"911.4550000522286","","image-keyboard-response","48","50908","0.0-13.0","","img/nature/S2.jpg","50","2","Ns3,train","50","true","",""
"null","","html-keyboard-response","49","51261","0.0-14.0","","<img src=""img/nature/S2.jpg"" width=""540"" height = ""360"" style=""border:14px solid orange"">","null","","","","","",""
"null","","html-keyboard-response","50","51344","0.0-15.0","","","null","","","","","",""
"802.2249999921769","","image-keyboard-response","51","52148","0.0-16.0","","img/nature/S1.jpg","49","1","Ns3,train","49","true","",""
"null","","html-keyboard-response","52","52500","0.0-17.0","","<img src=""img/nature/S1.jpg"" width=""540"" height = ""360"" style=""border:14px solid orange"">","null","","","","","",""
"null","","html-keyboard-response","53","52582","0.0-18.0","","","null","","","","","",""
"987.8749999916181","","image-keyboard-response","54","53572","0.0-19.0","","img/nature/S2.jpg","50","2","Ns3,train","50","true","",""
"null","","html-keyboard-response","55","53928","0.0-20.0","","<img src=""img/nature/S2.jpg"" width=""540"" height = ""360"" style=""border:14px solid orange"">","null","","","","","",""
"null","","html-keyboard-response","56","54010","0.0-21.0","","","null","","","","","",""
"599.724999978207","","image-keyboard-response","57","54612","0.0-22.0","","img/nature/S1.jpg","49","1","Ns3,train","49","true","",""
"null","","html-keyboard-response","58","54968","0.0-23.0","","<img src=""img/nature/S1.jpg"" width=""540"" height = ""360"" style=""border:14px solid orange"">","null","","","","","",""
"null","","html-keyboard-response","59","55049","0.0-24.0","","","null","","","","","",""
"648.8200000021607","","image-keyboard-response","60","55700","0.0-25.0","","img/nature/S3.jpg","51","3","Ns3,train","51","true","",""
"null","","html-keyboard-response","61","56056","0.0-26.0","","<img src=""img/nature/S3.jpg"" width=""540"" height = ""360"" style=""border:14px solid orange"">","null","","","","","",""
"null","","html-keyboard-response","62","56142","0.0-27.0","","","null","","","","","",""
"531.8649999098852","","image-keyboard-response","63","56676","0.0-28.0","","img/nature/S3.jpg","51","3","Ns3,train","51","true","",""
"null","","html-keyboard-response","64","57029","0.0-29.0","","<img src=""img/nature/S3.jpg"" width=""540"" height = ""360"" style=""border:14px solid orange"">","null","","","","","",""
"null","","html-keyboard-response","65","57110","0.0-30.0","","","null","","","","","",""
"620.0399999506772","","image-keyboard-response","66","57732","0.0-31.0","","img/nature/S2.jpg","50","2","Ns3,train","50","true","",""
"null","","html-keyboard-response","67","58089","0.0-32.0","","<img src=""img/nature/S2.jpg"" width=""540"" height = ""360"" style=""border:14px solid orange"">","null","","","","","",""
"null","","html-keyboard-response","68","58174","0.0-33.0","","","null","","","","","",""
"355.77000002376735","","image-keyboard-response","69","58532","0.0-34.0","","img/nature/S1.jpg","49","1","Ns3,train","49","true","",""
"null","","html-keyboard-response","70","58887","0.0-35.0","","<img src=""img/nature/S1.jpg"" width=""540"" height = ""360"" style=""border:14px solid orange"">","null","","","","","",""
"null","","html-keyboard-response","71","58971","0.0-36.0","","","null","","","","","",""
"607.190000009723","","image-keyboard-response","72","59580","0.0-37.0","","img/nature/S3.jpg","51","3","Ns3,train","51","true","",""
"null","","html-keyboard-response","73","59937","0.0-38.0","","<img src=""img/nature/S3.jpg"" width=""540"" height = ""360"" style=""border:14px solid orange"">","null","","","","","",""
"null","","html-keyboard-response","74","60019","0.0-39.0","","","null","","","","","",""
"383.2399999955669","","image-keyboard-response","75","60404","0.0-40.0","","img/nature/S2.jpg","50","2","Ns3,train","50","true","",""
"null","","html-keyboard-response","76","60758","0.0-41.0","","<img src=""img/nature/S2.jpg"" width=""540"" height = ""360"" style=""border:14px solid orange"">","null","","","","","",""
"null","","html-keyboard-response","77","60840","0.0-42.0","","","null","","","","","",""
"289.2649999121204","","image-keyboard-response","78","61131","0.0-43.0","","img/nature/S1.jpg","49","1","Ns3,train","49","true","",""
"null","","html-keyboard-response","79","61484","0.0-44.0","","<img src=""img/nature/S1.jpg"" width=""540"" height = ""360"" style=""border:14px solid orange"">","null","","","","","",""
"null","","html-keyboard-response","80","61568","0.0-45.0","","","null","","","","","",""
"378.1899999594316","","image-keyboard-response","81","61948","0.0-46.0","","img/nature/S2.jpg","51","2","Ns3,train","50","false","",""
"null","","html-keyboard-response","82","62305","0.0-47.0","","<img src=""img/nature/S2.jpg"" width=""540"" height = ""360"">","null","","","","","",""
"null","","html-keyboard-response","83","62388","0.0-48.0","","","null","","","","","",""
"566.675000009127","","image-keyboard-response","84","62956","0.0-49.0","","img/nature/S1.jpg","49","1","Ns3,train","49","true","",""
"null","","html-keyboard-response","85","63309","0.0-50.0","","<img src=""img/nature/S1.jpg"" width=""540"" height = ""360"" style=""border:14px solid orange"">","null","","","","","",""
"null","","html-keyboard-response","86","63395","0.0-51.0","","","null","","","","","",""
"591.2900000112131","","image-keyboard-response","87","63988","0.0-52.0","","img/nature/S2.jpg","50","2","Ns3,train","50","true","",""
"null","","html-keyboard-response","88","64344","0.0-53.0","","<img src=""img/nature/S2.jpg"" width=""540"" height = ""360"" style=""border:14px solid orange"">","null","","","","","",""
"null","","html-keyboard-response","89","64429","0.0-54.0","","","null","","","","","",""
"365.74999999720603","","image-keyboard-response","90","64796","0.0-55.0","","img/nature/S1.jpg","49","1","Ns3,train","49","true","",""
"null","","html-keyboard-response","91","65153","0.0-56.0","","<img src=""img/nature/S1.jpg"" width=""540"" height = ""360"" style=""border:14px solid orange"">","null","","","","","",""
"null","","html-keyboard-response","92","65239","0.0-57.0","","","null","","","","","",""
"499.3100001011044","","image-keyboard-response","93","65740","0.0-58.0","","img/nature/S3.jpg","51","3","Ns3,train","51","true","",""
"null","","html-keyboard-response","94","66094","0.0-59.0","","<img src=""img/nature/S3.jpg"" width=""540"" height = ""360"" style=""border:14px solid orange"">","null","","","","","",""
"null","","html-keyboard-response","95","66179","0.0-60.0","","","null","","","","","",""
"383.765000035055","","image-keyboard-response","96","66564","0.0-61.0","","img/nature/S2.jpg","50","2","Ns3,train","50","true","",""
"null","","html-keyboard-response","97","66920","0.0-62.0","","<img src=""img/nature/S2.jpg"" width=""540"" height = ""360"" style=""border:14px solid orange"">","null","","","","","",""
"null","","html-keyboard-response","98","67005","0.0-63.0","","","null","","","","","",""
"293.67000004276633","","image-keyboard-response","99","67300","0.0-64.0","","img/nature/S2.jpg","49","2","Ns3,train","50","false","",""
"null","","html-keyboard-response","100","67656","0.0-65.0","","<img src=""img/nature/S2.jpg"" width=""540"" height = ""360"">","null","","","","","",""
"null","","html-keyboard-response","101","67741","0.0-66.0","","","null","","","","","",""
"676.8849999643862","","image-keyboard-response","102","68420","0.0-67.0","","img/nature/S1.jpg","49","1","Ns3,train","49","true","",""
"null","","html-keyboard-response","103","68774","0.0-68.0","","<img src=""img/nature/S1.jpg"" width=""540"" height = ""360"" style=""border:14px solid orange"">","null","","","","","",""
"null","","html-keyboard-response","104","68856","0.0-69.0","","","null","","","","","",""
"458.24499998707324","","image-keyboard-response","105","69316","0.0-70.0","","img/nature/S2.jpg","50","2","Ns3,train","50","true","",""
"null","","html-keyboard-response","106","69669","0.0-71.0","","<img src=""img/nature/S2.jpg"" width=""540"" height = ""360"" style=""border:14px solid orange"">","null","","","","","",""
"null","","html-keyboard-response","107","69755","0.0-72.0","","","null","","","","","",""
"399.71499994862825","","image-keyboard-response","108","70156","0.0-73.0","","img/nature/S1.jpg","49","1","Ns3,train","49","true","",""
"null","","html-keyboard-response","109","70511","0.0-74.0","","<img src=""img/nature/S1.jpg"" width=""540"" height = ""360"" style=""border:14px solid orange"">","null","","","","","",""
"null","","html-keyboard-response","110","70597","0.0-75.0","","","null","","","","","",""
"444.8750000447035","","image-keyboard-response","111","71044","0.0-76.0","","img/nature/S2.jpg","50","2","Ns3,train","50","true","",""
"null","","html-keyboard-response","112","71400","0.0-77.0","","<img src=""img/nature/S2.jpg"" width=""540"" height = ""360"" style=""border:14px solid orange"">","null","","","","","",""
"null","","html-keyboard-response","113","71487","0.0-78.0","","","null","","","","","",""
"323.8050000509247","","image-keyboard-response","114","71812","0.0-79.0","","img/nature/S1.jpg","49","1","Ns3,train","49","true","",""
"null","","html-keyboard-response","115","72167","0.0-80.0","","<img src=""img/nature/S1.jpg"" width=""540"" height = ""360"" style=""border:14px solid orange"">","null","","","","","",""
"null","","html-keyboard-response","116","72249","0.0-81.0","","","null","","","","","",""
"385.74499997776","","image-keyboard-response","117","72636","0.0-82.0","","img/nature/S2.jpg","50","2","Ns3,train","50","true","",""
"null","","html-keyboard-response","118","72991","0.0-83.0","","<img src=""img/nature/S2.jpg"" width=""540"" height = ""360"" style=""border:14px solid orange"">","null","","","","","",""
"null","","html-keyboard-response","119","73077","0.0-84.0","","","null","","","","","",""
"389.3099999986589","","image-keyboard-response","120","73468","0.0-85.0","","img/nature/S1.jpg","49","1","Ns3,train","49","true","",""
"null","","html-keyboard-response","121","73822","0.0-86.0","","<img src=""img/nature/S1.jpg"" width=""540"" height = ""360"" style=""border:14px solid orange"">","null","","","","","",""
"null","","html-keyboard-response","122","73909","0.0-87.0","","","null","","","","","",""
"357.70499997306615","","image-keyboard-response","123","74268","0.0-88.0","","img/nature/S3.jpg","50","3","Ns3,train","51","false","",""
"null","","html-keyboard-response","124","74623","0.0-89.0","","<img src=""img/nature/S3.jpg"" width=""540"" height = ""360"">","null","","","","","",""
"null","","html-keyboard-response","125","74709","0.0-90.0","","","null","","","","","",""
"709.5149999950081","","image-keyboard-response","126","75420","0.0-91.0","","img/nature/S2.jpg","51","2","Ns3,train","50","false","",""
"null","","html-keyboard-response","127","75775","0.0-92.0","","<img src=""img/nature/S2.jpg"" width=""540"" height = ""360"">","null","","","","","",""
"null","","html-keyboard-response","128","75856","0.0-93.0","","","null","","","","","",""
"null","","image-keyboard-response","129","78363","0.0-94.0","","img/nature/S1.jpg","null","1","Ns3,train","49","false","",""
"null","","html-keyboard-response","130","78720","0.0-95.0","","<img src=""img/nature/S1.jpg"" width=""540"" height = ""360"">","null","","","","","",""
"null","","html-keyboard-response","131","78801","0.0-96.0","","","null","","","","","",""
"null","","image-keyboard-response","132","81308","0.0-97.0","","img/nature/S3.jpg","null","3","Ns3,train","51","false","",""
"null","","html-keyboard-response","133","81660","0.0-98.0","","<img src=""img/nature/S3.jpg"" width=""540"" height = ""360"">","null","","","","","",""
"null","","html-keyboard-response","134","81743","0.0-99.0","","","null","","","","","",""
"null","","image-keyboard-response","135","84248","0.0-100.0","","img/nature/S2.jpg","null","2","Ns3,train","50","false","",""
"null","","html-keyboard-response","136","84605","0.0-101.0","","<img src=""img/nature/S2.jpg"" width=""540"" height = ""360"">","null","","","","","",""
"null","","html-keyboard-response","137","84689","0.0-102.0","","","null","","","","","",""
"null","","image-keyboard-response","138","87191","0.0-103.0","","img/nature/S1.jpg","null","1","Ns3,train","49","false","",""
"null","","html-keyboard-response","139","87547","0.0-104.0","","<img src=""img/nature/S1.jpg"" width=""540"" height = ""360"">","null","","","","","",""
"null","","html-keyboard-response","140","87975","0.0-105.0","","","null","","","","","",""
"null","","image-keyboard-response","141","90922","0.0-106.0","","img/nature/S3.jpg","null","3","Ns3,train","51","false","",""
"null","","html-keyboard-response","142","92092","0.0-107.0","","<img src=""img/nature/S3.jpg"" width=""540"" height = ""360"">","null","","","","","",""
"null","","html-keyboard-response","143","93328","0.0-108.0","","","null","","","","","",""
"null","","image-keyboard-response","144","95922","0.0-109.0","","img/nature/S3.jpg","null","3","Ns3,train","51","false","",""
"null","","html-keyboard-response","145","97004","0.0-110.0","","<img src=""img/nature/S3.jpg"" width=""540"" height = ""360"">","null","","","","","",""
"null","","html-keyboard-response","146","97936","0.0-111.0","","","null","","","","","",""
"null","","image-keyboard-response","147","101828","0.0-112.0","","img/nature/S3.jpg","null","3","Ns3,train","51","false","",""
"null","","html-keyboard-response","148","102463","0.0-113.0","","<img src=""img/nature/S3.jpg"" width=""540"" height = ""360"">","null","","","","","",""
"null","","html-keyboard-response","149","102545","0.0-114.0","","","null","","","","","",""
"null","","image-keyboard-response","150","105048","0.0-115.0","","img/nature/S2.jpg","null","2","Ns3,train","50","false","",""
"null","","html-keyboard-response","151","105402","0.0-116.0","","<img src=""img/nature/S2.jpg"" width=""540"" height = ""360"">","null","","","","","",""
"null","","html-keyboard-response","152","105483","0.0-117.0","","","null","","","","","",""
"null","","image-keyboard-response","153","107985","0.0-118.0","","img/nature/S1.jpg","null","1","Ns3,train","49","false","",""
"null","","html-keyboard-response","154","108340","0.0-119.0","","<img src=""img/nature/S1.jpg"" width=""540"" height = ""360"">","null","","","","","",""
"null","","html-keyboard-response","155","108426","0.0-120.0","","","null","","","","","",""
"null","","image-keyboard-response","156","110929","0.0-121.0","","img/nature/S2.jpg","null","2","Ns3,train","50","false","",""
"null","","html-keyboard-response","157","111282","0.0-122.0","","<img src=""img/nature/S2.jpg"" width=""540"" height = ""360"">","null","","","","","",""
"null","","html-keyboard-response","158","111363","0.0-123.0","","","null","","","","","",""
"null","","image-keyboard-response","159","113865","0.0-124.0","","img/nature/S1.jpg","null","1","Ns3,train","49","false","",""
"null","","html-keyboard-response","160","114217","0.0-125.0","","<img src=""img/nature/S1.jpg"" width=""540"" height = ""360"">","null","","","","","",""
"null","","html-keyboard-response","161","114298","0.0-126.0","","","null","","","","","",""
"null","","image-keyboard-response","162","116801","0.0-127.0","","img/nature/S2.jpg","null","2","Ns3,train","50","false","",""
"null","","html-keyboard-response","163","117156","0.0-128.0","","<img src=""img/nature/S2.jpg"" width=""540"" height = ""360"">","null","","","","","",""
"null","","html-keyboard-response","164","117238","0.0-129.0","","","null","","","","","",""
"null","","image-keyboard-response","165","119744","0.0-130.0","","img/nature/S2.jpg","null","2","Ns3,train","50","false","",""
"null","","html-keyboard-response","166","120096","0.0-131.0","","<img src=""img/nature/S2.jpg"" width=""540"" height = ""360"">","null","","","","","",""
"null","","html-keyboard-response","167","120179","0.0-132.0","","","null","","","","","",""
"null","","image-keyboard-response","168","122686","0.0-133.0","","img/nature/S1.jpg","null","1","Ns3,train","49","false","",""
"null","","html-keyboard-response","169","123038","0.0-134.0","","<img src=""img/nature/S1.jpg"" width=""540"" height = ""360"">","null","","","","","",""
"null","","html-keyboard-response","170","123119","0.0-135.0","","","null","","","","","",""
"null","","image-keyboard-response","171","125621","0.0-136.0","","img/nature/S3.jpg","null","3","Ns3,train","51","false","",""
"null","","html-keyboard-response","172","125972","0.0-137.0","","<img src=""img/nature/S3.jpg"" width=""540"" height = ""360"">","null","","","","","",""
"null","","html-keyboard-response","173","126055","0.0-138.0","","","null","","","","","",""
"null","","image-keyboard-response","174","128559","0.0-139.0","","img/nature/S3.jpg","null","3","Ns3,train","51","false","",""
"null","","html-keyboard-response","175","128912","0.0-140.0","","<img src=""img/nature/S3.jpg"" width=""540"" height = ""360"">","null","","","","","",""
"null","","html-keyboard-response","176","128996","0.0-141.0","","","null","","","","","",""
"null","","image-keyboard-response","177","131499","0.0-142.0","","img/nature/S3.jpg","null","3","Ns3,train","51","false","",""
"null","","html-keyboard-response","178","131851","0.0-143.0","","<img src=""img/nature/S3.jpg"" width=""540"" height = ""360"">","null","","","","","",""
"null","","html-keyboard-response","179","131937","0.0-144.0","","","null","","","","","",""
"null","","image-keyboard-response","180","134439","0.0-145.0","","img/nature/S2.jpg","null","2","Ns3,train","50","false","",""
"null","","html-keyboard-response","181","134795","0.0-146.0","","<img src=""img/nature/S2.jpg"" width=""540"" height = ""360"">","null","","","","","",""
"null","","html-keyboard-response","182","134879","0.0-147.0","","","null","","","","","",""
"null","","image-keyboard-response","183","137381","0.0-148.0","","img/nature/S1.jpg","null","1","Ns3,train","49","false","",""
"null","","html-keyboard-response","184","137734","0.0-149.0","","<img src=""img/nature/S1.jpg"" width=""540"" height = ""360"">","null","","","","","",""
"null","","html-keyboard-response","185","137815","0.0-150.0","","","null","","","","","",""
"null","","image-keyboard-response","186","140317","0.0-151.0","","img/nature/S3.jpg","null","3","Ns3,train","51","false","",""
"null","","html-keyboard-response","187","140669","0.0-152.0","","<img src=""img/nature/S3.jpg"" width=""540"" height = ""360"">","null","","","","","",""
"null","","html-keyboard-response","188","140753","0.0-153.0","","","null","","","","","",""
"null","","image-keyboard-response","189","143255","0.0-154.0","","img/nature/S3.jpg","null","3","Ns3,train","51","false","",""
"null","","html-keyboard-response","190","143612","0.0-155.0","","<img src=""img/nature/S3.jpg"" width=""540"" height = ""360"">","null","","","","","",""
"null","","html-keyboard-response","191","143697","0.0-156.0","","","null","","","","","",""
"null","","image-keyboard-response","192","146199","0.0-157.0","","img/nature/S3.jpg","null","3","Ns3,train","51","false","",""
"null","","html-keyboard-response","193","146555","0.0-158.0","","<img src=""img/nature/S3.jpg"" width=""540"" height = ""360"">","null","","","","","",""
"null","","html-keyboard-response","194","146637","0.0-159.0","","","null","","","","","",""
"null","","image-keyboard-response","195","149139","0.0-160.0","","img/nature/S3.jpg","null","3","Ns3,train","51","false","",""
"null","","html-keyboard-response","196","149496","0.0-161.0","","<img src=""img/nature/S3.jpg"" width=""540"" height = ""360"">","null","","","","","",""
"null","","html-keyboard-response","197","149579","0.0-162.0","","","null","","","","","",""
"null","","image-keyboard-response","198","152082","0.0-163.0","","img/nature/S2.jpg","null","2","Ns3,train","50","false","",""
"null","","html-keyboard-response","199","152437","0.0-164.0","","<img src=""img/nature/S2.jpg"" width=""540"" height = ""360"">","null","","","","","",""
"null","","html-keyboard-response","200","152522","0.0-165.0","","","null","","","","","",""
"null","","image-keyboard-response","201","155028","0.0-166.0","","img/nature/S3.jpg","null","3","Ns3,train","51","false","",""
"null","","html-keyboard-response","202","155382","0.0-167.0","","<img src=""img/nature/S3.jpg"" width=""540"" height = ""360"">","null","","","","","",""
"null","","html-keyboard-response","203","155463","0.0-168.0","","","null","","","","","",""
"null","","image-keyboard-response","204","157966","0.0-169.0","","img/nature/S3.jpg","null","3","Ns3,train","51","false","",""
"null","","html-keyboard-response","205","158318","0.0-170.0","","<img src=""img/nature/S3.jpg"" width=""540"" height = ""360"">","null","","","","","",""
"null","","html-keyboard-response","206","158399","0.0-171.0","","","null","","","","","",""
"null","","image-keyboard-response","207","160901","0.0-172.0","","img/nature/S2.jpg","null","2","Ns3,train","50","false","",""
"null","","html-keyboard-response","208","161256","0.0-173.0","","<img src=""img/nature/S2.jpg"" width=""540"" height = ""360"">","null","","","","","",""
"null","","html-keyboard-response","209","161337","0.0-174.0","","","null","","","","","",""
"null","","image-keyboard-response","210","163839","0.0-175.0","","img/nature/S1.jpg","null","1","Ns3,train","49","false","",""
"null","","html-keyboard-response","211","164192","0.0-176.0","","<img src=""img/nature/S1.jpg"" width=""540"" height = ""360"">","null","","","","","",""
"null","","html-keyboard-response","212","164279","0.0-177.0","","","null","","","","","",""
"null","","image-keyboard-response","213","166782","0.0-178.0","","img/nature/S2.jpg","null","2","Ns3,train","50","false","",""
"null","","html-keyboard-response","214","167133","0.0-179.0","","<img src=""img/nature/S2.jpg"" width=""540"" height = ""360"">","null","","","","","",""
"null","","html-keyboard-response","215","167215","0.0-180.0","","","null","","","","","",""
"null","","image-keyboard-response","216","169717","0.0-181.0","","img/nature/S1.jpg","null","1","Ns3,train","49","false","",""
"null","","html-keyboard-response","217","170069","0.0-182.0","","<img src=""img/nature/S1.jpg"" width=""540"" height = ""360"">","null","","","","","",""
"null","","html-keyboard-response","218","170150","0.0-183.0","","","null","","","","","",""
"null","","image-keyboard-response","219","172652","0.0-184.0","","img/nature/S2.jpg","null","2","Ns3,train","50","false","",""
"null","","html-keyboard-response","220","173003","0.0-185.0","","<img src=""img/nature/S2.jpg"" width=""540"" height = ""360"">","null","","","","","",""
"null","","html-keyboard-response","221","173084","0.0-186.0","","","null","","","","","",""
"null","","image-keyboard-response","222","175586","0.0-187.0","","img/nature/S1.jpg","null","1","Ns3,train","49","false","",""
"null","","html-keyboard-response","223","175939","0.0-188.0","","<img src=""img/nature/S1.jpg"" width=""540"" height = ""360"">","null","","","","","",""
"null","","html-keyboard-response","224","176020","0.0-189.0","","","null","","","","","",""
"null","","image-keyboard-response","225","178521","0.0-190.0","","img/nature/S2.jpg","null","2","Ns3,train","50","false","",""
"null","","html-keyboard-response","226","178873","0.0-191.0","","<img src=""img/nature/S2.jpg"" width=""540"" height = ""360"">","null","","","","","",""
"null","","html-keyboard-response","227","178956","0.0-192.0","","","null","","","","","",""
"null","","image-keyboard-response","228","181462","0.0-193.0","","img/nature/S1.jpg","null","1","Ns3,train","49","false","",""
"null","","html-keyboard-response","229","181814","0.0-194.0","","<img src=""img/nature/S1.jpg"" width=""540"" height = ""360"">","null","","","","","",""
"null","","html-keyboard-response","230","181898","0.0-195.0","","","null","","","","","",""
"null","","image-keyboard-response","231","184400","0.0-196.0","","img/nature/S2.jpg","null","2","Ns3,train","50","false","",""
"null","","html-keyboard-response","232","184755","0.0-197.0","","<img src=""img/nature/S2.jpg"" width=""540"" height = ""360"">","null","","","","","",""
"null","","html-keyboard-response","233","184836","0.0-198.0","","","null","","","","","",""
"null","","image-keyboard-response","234","187338","0.0-199.0","","img/nature/S1.jpg","null","1","Ns3,train","49","false","",""
"null","","html-keyboard-response","235","187690","0.0-200.0","","<img src=""img/nature/S1.jpg"" width=""540"" height = ""360"">","null","","","","","",""
"null","","html-keyboard-response","236","187772","0.0-201.0","","","null","","","","","",""
"null","","image-keyboard-response","237","190279","0.0-202.0","","img/nature/S2.jpg","null","2","Ns3,train","50","false","",""
"null","","html-keyboard-response","238","190631","0.0-203.0","","<img src=""img/nature/S2.jpg"" width=""540"" height = ""360"">","null","","","","","",""
"null","","html-keyboard-response","239","190715","0.0-204.0","","","null","","","","","",""
"null","","image-keyboard-response","240","193217","0.0-205.0","","img/nature/S1.jpg","null","1","Ns3,train","49","false","",""
"null","","html-keyboard-response","241","193568","0.0-206.0","","<img src=""img/nature/S1.jpg"" width=""540"" height = ""360"">","null","","","","","",""
"null","","html-keyboard-response","242","193652","0.0-207.0","","","null","","","","","",""
"null","","image-keyboard-response","243","196155","0.0-208.0","","img/nature/S2.jpg","null","2","Ns3,train","50","false","",""
"null","","html-keyboard-response","244","196512","0.0-209.0","","<img src=""img/nature/S2.jpg"" width=""540"" height = ""360"">","null","","","","","",""
"null","","html-keyboard-response","245","196596","0.0-210.0","","","null","","","","","",""
"null","","image-keyboard-response","246","199099","0.0-211.0","","img/nature/S1.jpg","null","1","Ns3,train","49","false","",""
"null","","html-keyboard-response","247","199451","0.0-212.0","","<img src=""img/nature/S1.jpg"" width=""540"" height = ""360"">","null","","","","","",""
"null","","html-keyboard-response","248","199533","0.0-213.0","","","null","","","","","",""
"null","","image-keyboard-response","249","202035","0.0-214.0","","img/nature/S3.jpg","null","3","Ns3,train","51","false","",""
"null","","html-keyboard-response","250","202388","0.0-215.0","","<img src=""img/nature/S3.jpg"" width=""540"" height = ""360"">","null","","","","","",""
"null","","html-keyboard-response","251","202469","0.0-216.0","","","null","","","","","",""
"null","","image-keyboard-response","252","204972","0.0-217.0","","img/nature/S2.jpg","null","2","Ns3,train","50","false","",""
"null","","html-keyboard-response","253","205329","0.0-218.0","","<img src=""img/nature/S2.jpg"" width=""540"" height = ""360"">","null","","","","","",""
"null","","html-keyboard-response","254","205414","0.0-219.0","","","null","","","","","",""
"null","","image-keyboard-response","255","207917","0.0-220.0","","img/nature/S1.jpg","null","1","Ns3,train","49","false","",""
"null","","html-keyboard-response","256","208268","0.0-221.0","","<img src=""img/nature/S1.jpg"" width=""540"" height = ""360"">","null","","","","","",""
"null","","html-keyboard-response","257","208349","0.0-222.0","","","null","","","","","",""
"null","","image-keyboard-response","258","210851","0.0-223.0","","img/nature/S2.jpg","null","2","Ns3,train","50","false","",""
"null","","html-keyboard-response","259","211203","0.0-224.0","","<img src=""img/nature/S2.jpg"" width=""540"" height = ""360"">","null","","","","","",""
"null","","html-keyboard-response","260","211284","0.0-225.0","","","null","","","","","",""
"null","","image-keyboard-response","261","213788","0.0-226.0","","img/nature/S1.jpg","null","1","Ns3,train","49","false","",""
"null","","html-keyboard-response","262","214145","0.0-227.0","","<img src=""img/nature/S1.jpg"" width=""540"" height = ""360"">","null","","","","","",""
"null","","html-keyboard-response","263","214229","0.0-228.0","","","null","","","","","",""
"null","","image-keyboard-response","264","216731","0.0-229.0","","img/nature/S3.jpg","null","3","Ns3,train","51","false","",""
"null","","html-keyboard-response","265","217084","0.0-230.0","","<img src=""img/nature/S3.jpg"" width=""540"" height = ""360"">","null","","","","","",""
"null","","html-keyboard-response","266","217165","0.0-231.0","","","null","","","","","",""
"null","","image-keyboard-response","267","219669","0.0-232.0","","img/nature/S3.jpg","null","3","Ns3,train","51","false","",""
"null","","html-keyboard-response","268","220022","0.0-233.0","","<img src=""img/nature/S3.jpg"" width=""540"" height = ""360"">","null","","","","","",""
"null","","html-keyboard-response","269","220103","0.0-234.0","","","null","","","","","",""
"null","","image-keyboard-response","270","222604","0.0-235.0","","img/nature/S2.jpg","null","2","Ns3,train","50","false","",""
"null","","html-keyboard-response","271","222956","0.0-236.0","","<img src=""img/nature/S2.jpg"" width=""540"" height = ""360"">","null","","","","","",""
"null","","html-keyboard-response","272","223038","0.0-237.0","","","null","","","","","",""
"null","","image-keyboard-response","273","225545","0.0-238.0","","img/nature/S1.jpg","null","1","Ns3,train","49","false","",""
"null","","html-keyboard-response","274","225898","0.0-239.0","","<img src=""img/nature/S1.jpg"" width=""540"" height = ""360"">","null","","","","","",""
"null","","html-keyboard-response","275","225982","0.0-240.0","","","null","","","","","",""
"null","","image-keyboard-response","276","228484","0.0-241.0","","img/nature/S1.jpg","null","1","Ns3,train","49","false","",""
"null","","html-keyboard-response","277","228836","0.0-242.0","","<img src=""img/nature/S1.jpg"" width=""540"" height = ""360"">","null","","","","","",""
"null","","html-keyboard-response","278","228917","0.0-243.0","","","null","","","","","",""
"null","","image-keyboard-response","279","231420","0.0-244.0","","img/nature/S2.jpg","null","2","Ns3,train","50","false","",""
"null","","html-keyboard-response","280","231777","0.0-245.0","","<img src=""img/nature/S2.jpg"" width=""540"" height = ""360"">","null","","","","","",""
"null","","html-keyboard-response","281","231861","0.0-246.0","","","null","","","","","",""
"null","","image-keyboard-response","282","234363","0.0-247.0","","img/nature/S1.jpg","null","1","Ns3,train","49","false","",""
"null","","html-keyboard-response","283","234717","0.0-248.0","","<img src=""img/nature/S1.jpg"" width=""540"" height = ""360"">","null","","","","","",""
"null","","html-keyboard-response","284","234798","0.0-249.0","","","null","","","","","",""
"null","","image-keyboard-response","285","237300","0.0-250.0","","img/nature/S2.jpg","null","2","Ns3,train","50","false","",""
"null","","html-keyboard-response","286","237656","0.0-251.0","","<img src=""img/nature/S2.jpg"" width=""540"" height = ""360"">","null","","","","","",""
"null","","html-keyboard-response","287","237737","0.0-252.0","","","null","","","","","",""
"null","","image-keyboard-response","288","240244","0.0-253.0","","img/nature/S1.jpg","null","1","Ns3,train","49","false","",""
"null","","html-keyboard-response","289","240598","0.0-254.0","","<img src=""img/nature/S1.jpg"" width=""540"" height = ""360"">","null","","","","","",""
"null","","html-keyboard-response","290","240679","0.0-255.0","","","null","","","","","",""
"null","","image-keyboard-response","291","243184","0.0-256.0","","img/nature/S3.jpg","null","3","Ns3,train","51","false","",""
"null","","html-keyboard-response","292","243535","0.0-257.0","","<img src=""img/nature/S3.jpg"" width=""540"" height = ""360"">","null","","","","","",""
"null","","html-keyboard-response","293","243618","0.0-258.0","","","null","","","","","",""
"null","","image-keyboard-response","294","246121","0.0-259.0","","img/nature/S3.jpg","null","3","Ns3,train","51","false","",""
"null","","html-keyboard-response","295","246472","0.0-260.0","","<img src=""img/nature/S3.jpg"" width=""540"" height = ""360"">","null","","","","","",""
"null","","html-keyboard-response","296","246556","0.0-261.0","","","null","","","","","",""
"null","","image-keyboard-response","297","249062","0.0-262.0","","img/nature/S3.jpg","null","3","Ns3,train","51","false","",""
"null","","html-keyboard-response","298","249414","0.0-263.0","","<img src=""img/nature/S3.jpg"" width=""540"" height = ""360"">","null","","","","","",""
"null","","html-keyboard-response","299","249496","0.0-264.0","","","null","","","","","",""
"null","","image-keyboard-response","300","251998","0.0-265.0","","img/nature/S2.jpg","null","2","Ns3,train","50","false","",""
"null","","html-keyboard-response","301","252350","0.0-266.0","","<img src=""img/nature/S2.jpg"" width=""540"" height = ""360"">","null","","","","","",""
"null","","html-keyboard-response","302","252431","0.0-267.0","","","null","","","","","",""
"null","","image-keyboard-response","303","254934","0.0-268.0","","img/nature/S2.jpg","null","2","Ns3,train","50","false","",""
"null","","html-keyboard-response","304","255286","0.0-269.0","","<img src=""img/nature/S2.jpg"" width=""540"" height = ""360"">","null","","","","","",""
"null","","html-keyboard-response","305","255369","0.0-270.0","","","null","","","","","",""
"null","","image-keyboard-response","306","257871","0.0-271.0","","img/nature/S1.jpg","null","1","Ns3,train","49","false","",""
"null","","html-keyboard-response","307","258225","0.0-272.0","","<img src=""img/nature/S1.jpg"" width=""540"" height = ""360"">","null","","","","","",""
"null","","html-keyboard-response","308","258311","0.0-273.0","","","null","","","","","",""
"null","","image-keyboard-response","309","260814","0.0-274.0","","img/nature/S1.jpg","null","1","Ns3,train","49","false","",""
"null","","html-keyboard-response","310","261166","0.0-275.0","","<img src=""img/nature/S1.jpg"" width=""540"" height = ""360"">","null","","","","","",""
"null","","html-keyboard-response","311","261249","0.0-276.0","","","null","","","","","",""
"null","","image-keyboard-response","312","263751","0.0-277.0","","img/nature/S3.jpg","null","3","Ns3,train","51","false","",""
"null","","html-keyboard-response","313","264102","0.0-278.0","","<img src=""img/nature/S3.jpg"" width=""540"" height = ""360"">","null","","","","","",""
"null","","html-keyboard-response","314","264183","0.0-279.0","","","null","","","","","",""
"null","","image-keyboard-response","315","266685","0.0-280.0","","img/nature/S2.jpg","null","2","Ns3,train","50","false","",""
"null","","html-keyboard-response","316","267037","0.0-281.0","","<img src=""img/nature/S2.jpg"" width=""540"" height = ""360"">","null","","","","","",""
"null","","html-keyboard-response","317","267119","0.0-282.0","","","null","","","","","",""
"null","","image-keyboard-response","318","269621","0.0-283.0","","img/nature/S1.jpg","null","1","Ns3,train","49","false","",""
"null","","html-keyboard-response","319","269976","0.0-284.0","","<img src=""img/nature/S1.jpg"" width=""540"" height = ""360"">","null","","","","","",""
"null","","html-keyboard-response","320","270061","0.0-285.0","","","null","","","","","",""
"null","","image-keyboard-response","321","272567","0.0-286.0","","img/nature/S3.jpg","null","3","Ns3,train","51","false","",""
"null","","html-keyboard-response","322","272923","0.0-287.0","","<img src=""img/nature/S3.jpg"" width=""540"" height = ""360"">","null","","","","","",""
"null","","html-keyboard-response","323","273004","0.0-288.0","","","null","","","","","",""
"null","","image-keyboard-response","324","275511","0.0-289.0","","img/nature/S3.jpg","null","3","Ns3,train","51","false","",""
"null","","html-keyboard-response","325","275863","0.0-290.0","","<img src=""img/nature/S3.jpg"" width=""540"" height = ""360"">","null","","","","","",""
"null","","html-keyboard-response","326","275948","0.0-291.0","","","null","","","","","",""
"null","","image-keyboard-response","327","278450","0.0-292.0","","img/nature/S2.jpg","null","2","Ns3,train","50","false","",""
"null","","html-keyboard-response","328","278802","0.0-293.0","","<img src=""img/nature/S2.jpg"" width=""540"" height = ""360"">","null","","","","","",""
"null","","html-keyboard-response","329","278886","0.0-294.0","","","null","","","","","",""
"null","","image-keyboard-response","330","281388","0.0-295.0","","img/nature/S1.jpg","null","1","Ns3,train","49","false","",""
"null","","html-keyboard-response","331","281744","0.0-296.0","","<img src=""img/nature/S1.jpg"" width=""540"" height = ""360"">","null","","","","","",""
"null","","html-keyboard-response","332","281828","0.0-297.0","","","null","","","","","",""
"null","","image-keyboard-response","333","284331","0.0-298.0","","img/nature/S3.jpg","null","3","Ns3,train","51","false","",""
"null","","html-keyboard-response","334","284683","0.0-299.0","","<img src=""img/nature/S3.jpg"" width=""540"" height = ""360"">","null","","","","","",""
"null","","html-keyboard-response","335","284765","0.0-300.0","","","null","","","","","",""
"null","","image-keyboard-response","336","287267","0.0-301.0","","img/nature/S3.jpg","null","3","Ns3,train","51","false","",""
"null","","html-keyboard-response","337","287618","0.0-302.0","","<img src=""img/nature/S3.jpg"" width=""540"" height = ""360"">","null","","","","","",""
"null","","html-keyboard-response","338","287700","0.0-303.0","","","null","","","","","",""
"null","","image-keyboard-response","339","290203","0.0-304.0","","img/nature/S2.jpg","null","2","Ns3,train","50","false","",""
"null","","html-keyboard-response","340","290557","0.0-305.0","","<img src=""img/nature/S2.jpg"" width=""540"" height = ""360"">","null","","","","","",""
"null","","html-keyboard-response","341","290641","0.0-306.0","","","null","","","","","",""
"null","","image-keyboard-response","342","293144","0.0-307.0","","img/nature/S1.jpg","null","1","Ns3,train","49","false","",""
"null","","html-keyboard-response","343","293497","0.0-308.0","","<img src=""img/nature/S1.jpg"" width=""540"" height = ""360"">","null","","","","","",""
"null","","html-keyboard-response","344","293582","0.0-309.0","","","null","","","","","",""
"null","","image-keyboard-response","345","296083","0.0-310.0","","img/nature/S1.jpg","null","1","Ns3,train","49","false","",""
"null","","html-keyboard-response","346","296436","0.0-311.0","","<img src=""img/nature/S1.jpg"" width=""540"" height = ""360"">","null","","","","","",""
"null","","html-keyboard-response","347","296518","0.0-312.0","","","null","","","","","",""
"null","","image-keyboard-response","348","299019","0.0-313.0","","img/nature/S3.jpg","null","3","Ns3,train","51","false","",""
"null","","html-keyboard-response","349","299371","0.0-314.0","","<img src=""img/nature/S3.jpg"" width=""540"" height = ""360"">","null","","","","","",""
"null","","html-keyboard-response","350","299456","0.0-315.0","","","null","","","","","",""
"null","","image-keyboard-response","351","301961","0.0-316.0","","img/nature/S1.jpg","null","1","Ns3,train","49","false","",""
"null","","html-keyboard-response","352","302314","0.0-317.0","","<img src=""img/nature/S1.jpg"" width=""540"" height = ""360"">","null","","","","","",""
"null","","html-keyboard-response","353","302397","0.0-318.0","","","null","","","","","",""
"null","","image-keyboard-response","354","304899","0.0-319.0","","img/nature/S2.jpg","null","2","Ns3,train","50","false","",""
"null","","html-keyboard-response","355","305250","0.0-320.0","","<img src=""img/nature/S2.jpg"" width=""540"" height = ""360"">","null","","","","","",""
"null","","html-keyboard-response","356","305332","0.0-321.0","","","null","","","","","",""
"null","","image-keyboard-response","357","307834","0.0-322.0","","img/nature/S1.jpg","null","1","Ns3,train","49","false","",""
"null","","html-keyboard-response","358","308186","0.0-323.0","","<img src=""img/nature/S1.jpg"" width=""540"" height = ""360"">","null","","","","","",""
"null","","html-keyboard-response","359","308267","0.0-324.0","","","null","","","","","",""
"null","","image-keyboard-response","360","310770","0.0-325.0","","img/nature/S3.jpg","null","3","Ns3,train","51","false","",""
"null","","html-keyboard-response","361","311127","0.0-326.0","","<img src=""img/nature/S3.jpg"" width=""540"" height = ""360"">","null","","","","","",""
"null","","html-keyboard-response","362","311211","0.0-327.0","","","null","","","","","",""
"null","","image-keyboard-response","363","313714","0.0-328.0","","img/nature/S2.jpg","null","2","Ns3,train","50","false","",""
"null","","html-keyboard-response","364","314066","0.0-329.0","","<img src=""img/nature/S2.jpg"" width=""540"" height = ""360"">","null","","","","","",""
"null","","html-keyboard-response","365","314149","0.0-330.0","","","null","","","","","",""
"null","","image-keyboard-response","366","316650","0.0-331.0","","img/nature/S3.jpg","null","3","Ns3,train","51","false","",""
"null","","html-keyboard-response","367","317003","0.0-332.0","","<img src=""img/nature/S3.jpg"" width=""540"" height = ""360"">","null","","","","","",""
"null","","html-keyboard-response","368","317084","0.0-333.0","","","null","","","","","",""
"null","","image-keyboard-response","369","319587","0.0-334.0","","img/nature/S3.jpg","null","3","Ns3,train","51","false","",""
"null","","html-keyboard-response","370","319943","0.0-335.0","","<img src=""img/nature/S3.jpg"" width=""540"" height = ""360"">","null","","","","","",""
"null","","html-keyboard-response","371","320029","0.0-336.0","","","null","","","","","",""
"null","","image-keyboard-response","372","322531","0.0-337.0","","img/nature/S3.jpg","null","3","Ns3,train","51","false","",""
"null","","html-keyboard-response","373","322883","0.0-338.0","","<img src=""img/nature/S3.jpg"" width=""540"" height = ""360"">","null","","","","","",""
"null","","html-keyboard-response","374","322965","0.0-339.0","","","null","","","","","",""
"null","","image-keyboard-response","375","325466","0.0-340.0","","img/nature/S2.jpg","null","2","Ns3,train","50","false","",""
"null","","html-keyboard-response","376","325818","0.0-341.0","","<img src=""img/nature/S2.jpg"" width=""540"" height = ""360"">","null","","","","","",""
"null","","html-keyboard-response","377","325900","0.0-342.0","","","null","","","","","",""
"null","","image-keyboard-response","378","328403","0.0-343.0","","img/nature/S1.jpg","null","1","Ns3,train","49","false","",""
"null","","html-keyboard-response","379","328757","0.0-344.0","","<img src=""img/nature/S1.jpg"" width=""540"" height = ""360"">","null","","","","","",""
"null","","html-keyboard-response","380","328838","0.0-345.0","","","null","","","","","",""
"null","","image-keyboard-response","381","331344","0.0-346.0","","img/nature/S3.jpg","null","3","Ns3,train","51","false","",""
"null","","html-keyboard-response","382","331697","0.0-347.0","","<img src=""img/nature/S3.jpg"" width=""540"" height = ""360"">","null","","","","","",""
"null","","html-keyboard-response","383","331779","0.0-348.0","","","null","","","","","",""
"null","","image-keyboard-response","384","334282","0.0-349.0","","img/nature/S2.jpg","null","2","Ns3,train","50","false","",""
"null","","html-keyboard-response","385","334633","0.0-350.0","","<img src=""img/nature/S2.jpg"" width=""540"" height = ""360"">","null","","","","","",""
"null","","html-keyboard-response","386","334715","0.0-351.0","","","null","","","","","",""
"null","","image-keyboard-response","387","337217","0.0-352.0","","img/nature/S1.jpg","null","1","Ns3,train","49","false","",""
"null","","html-keyboard-response","388","337569","0.0-353.0","","<img src=""img/nature/S1.jpg"" width=""540"" height = ""360"">","null","","","","","",""
"null","","html-keyboard-response","389","337650","0.0-354.0","","","null","","","","","",""
"null","","image-keyboard-response","390","340157","0.0-355.0","","img/nature/S3.jpg","null","3","Ns3,train","51","false","",""
"null","","html-keyboard-response","391","340511","0.0-356.0","","<img src=""img/nature/S3.jpg"" width=""540"" height = ""360"">","null","","","","","",""
"null","","html-keyboard-response","392","340594","0.0-357.0","","","null","","","","","",""
"null","","image-keyboard-response","393","343097","0.0-358.0","","img/nature/S2.jpg","null","2","Ns3,train","50","false","",""
"null","","html-keyboard-response","394","343448","0.0-359.0","","<img src=""img/nature/S2.jpg"" width=""540"" height = ""360"">","null","","","","","",""
"null","","html-keyboard-response","395","343530","0.0-360.0","","","null","","","","","",""
"null","","image-keyboard-response","396","346033","0.0-361.0","","img/nature/S3.jpg","null","3","Ns3,train","51","false","",""
"null","","html-keyboard-response","397","346385","0.0-362.0","","<img src=""img/nature/S3.jpg"" width=""540"" height = ""360"">","null","","","","","",""
"null","","html-keyboard-response","398","346466","0.0-363.0","","","null","","","","","",""
"null","","image-keyboard-response","399","348971","0.0-364.0","","img/nature/S3.jpg","null","3","Ns3,train","51","false","",""
"null","","html-keyboard-response","400","349327","0.0-365.0","","<img src=""img/nature/S3.jpg"" width=""540"" height = ""360"">","null","","","","","",""
"null","","html-keyboard-response","401","349411","0.0-366.0","","","null","","","","","",""
"null","","image-keyboard-response","402","351913","0.0-367.0","","img/nature/S3.jpg","null","3","Ns3,train","51","false","",""
"null","","html-keyboard-response","403","352265","0.0-368.0","","<img src=""img/nature/S3.jpg"" width=""540"" height = ""360"">","null","","","","","",""
"null","","html-keyboard-response","404","352349","0.0-369.0","","","null","","","","","",""
"null","","image-keyboard-response","405","354851","0.0-370.0","","img/nature/S3.jpg","null","3","Ns3,train","51","false","",""
"null","","html-keyboard-response","406","355203","0.0-371.0","","<img src=""img/nature/S3.jpg"" width=""540"" height = ""360"">","null","","","","","",""
"null","","html-keyboard-response","407","355284","0.0-372.0","","","null","","","","","",""
"null","","image-keyboard-response","408","357786","0.0-373.0","","img/nature/S3.jpg","null","3","Ns3,train","51","false","",""
"null","","html-keyboard-response","409","358143","0.0-374.0","","<img src=""img/nature/S3.jpg"" width=""540"" height = ""360"">","null","","","","","",""
"null","","html-keyboard-response","410","358228","0.0-375.0","","","null","","","","","",""
"null","","image-keyboard-response","411","360730","0.0-376.0","","img/nature/S1.jpg","null","1","Ns3,train","49","false","",""
"null","","html-keyboard-response","412","361083","0.0-377.0","","<img src=""img/nature/S1.jpg"" width=""540"" height = ""360"">","null","","","","","",""
"null","","html-keyboard-response","413","361164","0.0-378.0","","","null","","","","","",""
"null","","image-keyboard-response","414","363666","0.0-379.0","","img/nature/S2.jpg","null","2","Ns3,train","50","false","",""
"null","","html-keyboard-response","415","364018","0.0-380.0","","<img src=""img/nature/S2.jpg"" width=""540"" height = ""360"">","null","","","","","",""
"null","","html-keyboard-response","416","364101","0.0-381.0","","","null","","","","","",""
"null","","image-keyboard-response","417","366603","0.0-382.0","","img/nature/S1.jpg","null","1","Ns3,train","49","false","",""
"null","","html-keyboard-response","418","366957","0.0-383.0","","<img src=""img/nature/S1.jpg"" width=""540"" height = ""360"">","null","","","","","",""
"null","","html-keyboard-response","419","367041","0.0-384.0","","","null","","","","","",""
"null","","image-keyboard-response","420","369544","0.0-385.0","","img/nature/S3.jpg","null","3","Ns3,train","51","false","",""
"null","","html-keyboard-response","421","369897","0.0-386.0","","<img src=""img/nature/S3.jpg"" width=""540"" height = ""360"">","null","","","","","",""
"null","","html-keyboard-response","422","369978","0.0-387.0","","","null","","","","","",""
"null","","image-keyboard-response","423","372485","0.0-388.0","","img/nature/S2.jpg","null","2","Ns3,train","50","false","",""
"null","","html-keyboard-response","424","372836","0.0-389.0","","<img src=""img/nature/S2.jpg"" width=""540"" height = ""360"">","null","","","","","",""
"null","","html-keyboard-response","425","372918","0.0-390.0","","","null","","","","","",""
"null","","image-keyboard-response","426","376357","0.0-391.0","","img/nature/S1.jpg","null","1","Ns3,train","49","false","",""
"null","","html-keyboard-response","427","377204","0.0-392.0","","<img src=""img/nature/S1.jpg"" width=""540"" height = ""360"">","null","","","","","",""
"null","","html-keyboard-response","428","378157","0.0-393.0","","","null","","","","","",""
"null","","image-keyboard-response","429","381454","0.0-394.0","","img/nature/S2.jpg","null","2","Ns3,train","50","false","",""
"null","","html-keyboard-response","430","382148","0.0-395.0","","<img src=""img/nature/S2.jpg"" width=""540"" height = ""360"">","null","","","","","",""
"null","","html-keyboard-response","431","383079","0.0-396.0","","","null","","","","","",""
"null","","image-keyboard-response","432","385935","0.0-397.0","","img/nature/S1.jpg","null","1","Ns3,train","49","false","",""
"null","","html-keyboard-response","433","386923","0.0-398.0","","<img src=""img/nature/S1.jpg"" width=""540"" height = ""360"">","null","","","","","",""
"null","","html-keyboard-response","434","387939","0.0-399.0","","","null","","","","","",""
"null","","image-keyboard-response","435","390929","0.0-400.0","","img/nature/S3.jpg","null","3","Ns3,train","51","false","",""
"null","","html-keyboard-response","436","392386","0.0-401.0","","<img src=""img/nature/S3.jpg"" width=""540"" height = ""360"">","null","","","","","",""
"null","","html-keyboard-response","437","393179","0.0-402.0","","","null","","","","","",""
"null","","image-keyboard-response","438","396179","0.0-403.0","","img/nature/S3.jpg","null","3","Ns3,train","51","false","",""
"null","","html-keyboard-response","439","397286","0.0-404.0","","<img src=""img/nature/S3.jpg"" width=""540"" height = ""360"">","null","","","","","",""
"null","","html-keyboard-response","440","398229","0.0-405.0","","","null","","","","","",""
"null","","image-keyboard-response","441","401080","0.0-406.0","","img/nature/S2.jpg","null","2","Ns3,train","50","false","",""
"null","","html-keyboard-response","442","401923","0.0-407.0","","<img src=""img/nature/S2.jpg"" width=""540"" height = ""360"">","null","","","","","",""
"null","","html-keyboard-response","443","403294","0.0-408.0","","","null","","","","","",""
"null","","image-keyboard-response","444","406286","0.0-409.0","","img/nature/S1.jpg","null","1","Ns3,train","49","false","",""
"null","","html-keyboard-response","445","407229","0.0-410.0","","<img src=""img/nature/S1.jpg"" width=""540"" height = ""360"">","null","","","","","",""
"null","","html-keyboard-response","446","408205","0.0-411.0","","","null","","","","","",""
"null","","image-keyboard-response","447","411306","0.0-412.0","","img/nature/S3.jpg","null","3","Ns3,train","51","false","",""
"null","","html-keyboard-response","448","412229","0.0-413.0","","<img src=""img/nature/S3.jpg"" width=""540"" height = ""360"">","null","","","","","",""
"null","","html-keyboard-response","449","413216","0.0-414.0","","","null","","","","","",""
"null","","image-keyboard-response","450","416205","0.0-415.0","","img/nature/S2.jpg","null","2","Ns3,train","50","false","",""
"null","","html-keyboard-response","451","417154","0.0-416.0","","<img src=""img/nature/S2.jpg"" width=""540"" height = ""360"">","null","","","","","",""
"null","","html-keyboard-response","452","418180","0.0-417.0","","","null","","","","","",""
"null","","image-keyboard-response","453","421679","0.0-418.0","","img/nature/S1.jpg","null","1","Ns3,train","49","false","",""
"null","","html-keyboard-response","454","423157","0.0-419.0","","<img src=""img/nature/S1.jpg"" width=""540"" height = ""360"">","null","","","","","",""
"null","","html-keyboard-response","455","423929","0.0-420.0","","","null","","","","","",""
"null","","image-keyboard-response","456","426929","0.0-421.0","","img/nature/S2.jpg","null","2","Ns3,train","50","false","",""
"null","","html-keyboard-response","457","428385","0.0-422.0","","<img src=""img/nature/S2.jpg"" width=""540"" height = ""360"">","null","","","","","",""
"null","","html-keyboard-response","458","429131","0.0-423.0","","","null","","","","","",""
"null","","image-keyboard-response","459","432101","0.0-424.0","","img/nature/S1.jpg","null","1","Ns3,train","49","false","",""
"null","","html-keyboard-response","460","432923","0.0-425.0","","<img src=""img/nature/S1.jpg"" width=""540"" height = ""360"">","null","","","","","",""
"null","","html-keyboard-response","461","434286","0.0-426.0","","","null","","","","","",""
"null","","image-keyboard-response","462","437281","0.0-427.0","","img/nature/S3.jpg","null","3","Ns3,train","51","false","",""
"null","","html-keyboard-response","463","438228","0.0-428.0","","<img src=""img/nature/S3.jpg"" width=""540"" height = ""360"">","null","","","","","",""
"null","","html-keyboard-response","464","439231","0.0-429.0","","","null","","","","","",""
"null","","image-keyboard-response","465","442291","0.0-430.0","","img/nature/S3.jpg","null","3","Ns3,train","51","false","",""
"null","","html-keyboard-response","466","442923","0.0-431.0","","<img src=""img/nature/S3.jpg"" width=""540"" height = ""360"">","null","","","","","",""
"null","","html-keyboard-response","467","444131","0.0-432.0","","","null","","","","","",""
"null","","image-keyboard-response","468","447358","0.0-433.0","","img/nature/S2.jpg","null","2","Ns3,train","50","false","",""
"null","","html-keyboard-response","469","447973","0.0-434.0","","<img src=""img/nature/S2.jpg"" width=""540"" height = ""360"">","null","","","","","",""
"null","","html-keyboard-response","470","449179","0.0-435.0","","","null","","","","","",""
"null","","image-keyboard-response","471","451682","0.0-436.0","","img/nature/S1.jpg","null","1","Ns3,train","49","false","",""
"null","","html-keyboard-response","472","452037","0.0-437.0","","<img src=""img/nature/S1.jpg"" width=""540"" height = ""360"">","null","","","","","",""
"null","","html-keyboard-response","473","452121","0.0-438.0","","","null","","","","","",""
"null","","image-keyboard-response","474","454622","0.0-439.0","","img/nature/S3.jpg","null","3","Ns3,train","51","false","",""
"null","","html-keyboard-response","475","454974","0.0-440.0","","<img src=""img/nature/S3.jpg"" width=""540"" height = ""360"">","null","","","","","",""
"null","","html-keyboard-response","476","455055","0.0-441.0","","","null","","","","","",""
"null","","image-keyboard-response","477","457559","0.0-442.0","","img/nature/S2.jpg","null","2","Ns3,train","50","false","",""
"null","","html-keyboard-response","478","457912","0.0-443.0","","<img src=""img/nature/S2.jpg"" width=""540"" height = ""360"">","null","","","","","",""
"null","","html-keyboard-response","479","457993","0.0-444.0","","","null","","","","","",""
"null","","image-keyboard-response","480","460494","0.0-445.0","","img/nature/S1.jpg","null","1","Ns3,train","49","false","",""
"null","","html-keyboard-response","481","460846","0.0-446.0","","<img src=""img/nature/S1.jpg"" width=""540"" height = ""360"">","null","","","","","",""
"null","","html-keyboard-response","482","460928","0.0-447.0","","","null","","","","","",""
"null","","image-keyboard-response","483","463433","0.0-448.0","","img/nature/S1.jpg","null","1","Ns3,train","49","false","",""
"null","","html-keyboard-response","484","463787","0.0-449.0","","<img src=""img/nature/S1.jpg"" width=""540"" height = ""360"">","null","","","","","",""
"null","","html-keyboard-response","485","463868","0.0-450.0","","","null","","","","","",""
"null","","image-keyboard-response","486","466373","0.0-451.0","","img/nature/S3.jpg","null","3","Ns3,train","51","false","",""
"null","","html-keyboard-response","487","466725","0.0-452.0","","<img src=""img/nature/S3.jpg"" width=""540"" height = ""360"">","null","","","","","",""
"null","","html-keyboard-response","488","466806","0.0-453.0","","","null","","","","","",""
"null","","html-keyboard-response","489","526808","0.0-454.0","","<p class=""center-content"">You have completed a block! </p><p class=""center-content"">Press any key on the keyboard to continue to the next block,</p><p class=""center-content"">or wait for the automatic progression to the next block after one minute.</p><p class=""center-content"">We will offer you a break after the completion of the next block! </p>","null","","","","","",""
"null","","image-keyboard-response","490","529312","0.0-455.0","","img/nature/S2.jpg","null","2","Ns3,test","50","false","",""
"null","","html-keyboard-response","491","529664","0.0-456.0","","<img src=""img/nature/S2.jpg"" width=""540"" height = ""360"">","null","","","","","",""
"null","","html-keyboard-response","492","529747","0.0-457.0","","","null","","","","","",""
"null","","image-keyboard-response","493","532249","0.0-458.0","","img/nature/S3.jpg","null","3","Ns3,test","51","false","",""
"null","","html-keyboard-response","494","532601","0.0-459.0","","<img src=""img/nature/S3.jpg"" width=""540"" height = ""360"">","null","","","","","",""
"null","","html-keyboard-response","495","532683","0.0-460.0","","","null","","","","","",""
"null","","image-keyboard-response","496","535189","0.0-461.0","","img/nature/S1.jpg","null","1","Ns3,test","49","false","",""
"null","","html-keyboard-response","497","535541","0.0-462.0","","<img src=""img/nature/S1.jpg"" width=""540"" height = ""360"">","null","","","","","",""
"null","","html-keyboard-response","498","535622","0.0-463.0","","","null","","","","","",""
"null","","image-keyboard-response","499","538124","0.0-464.0","","img/nature/S2.jpg","null","2","Ns3,test","50","false","",""
"null","","html-keyboard-response","500","538479","0.0-465.0","","<img src=""img/nature/S2.jpg"" width=""540"" height = ""360"">","null","","","","","",""
"null","","html-keyboard-response","501","538560","0.0-466.0","","","null","","","","","",""
"null","","image-keyboard-response","502","541065","0.0-467.0","","img/nature/S1.jpg","null","1","Ns3,test","49","false","",""
"null","","html-keyboard-response","503","541421","0.0-468.0","","<img src=""img/nature/S1.jpg"" width=""540"" height = ""360"">","null","","","","","",""
"null","","html-keyboard-response","504","541505","0.0-469.0","","","null","","","","","",""
"null","","image-keyboard-response","505","544006","0.0-470.0","","img/nature/S1.jpg","null","1","Ns3,test","49","false","",""
"null","","html-keyboard-response","506","544363","0.0-471.0","","<img src=""img/nature/S1.jpg"" width=""540"" height = ""360"">","null","","","","","",""
"null","","html-keyboard-response","507","544445","0.0-472.0","","","null","","","","","",""
"null","","image-keyboard-response","508","546947","0.0-473.0","","img/nature/S3.jpg","null","3","Ns3,test","51","false","",""
"null","","html-keyboard-response","509","547303","0.0-474.0","","<img src=""img/nature/S3.jpg"" width=""540"" height = ""360"">","null","","","","","",""
"null","","html-keyboard-response","510","547389","0.0-475.0","","","null","","","","","",""
"null","","image-keyboard-response","511","549890","0.0-476.0","","img/nature/S1.jpg","null","1","Ns3,test","49","false","",""
"null","","html-keyboard-response","512","550246","0.0-477.0","","<img src=""img/nature/S1.jpg"" width=""540"" height = ""360"">","null","","","","","",""
"null","","html-keyboard-response","513","550330","0.0-478.0","","","null","","","","","",""
"null","","image-keyboard-response","514","552837","0.0-479.0","","img/nature/S3.jpg","null","3","Ns3,test","51","false","",""
"null","","html-keyboard-response","515","553189","0.0-480.0","","<img src=""img/nature/S3.jpg"" width=""540"" height = ""360"">","null","","","","","",""
"null","","html-keyboard-response","516","553271","0.0-481.0","","","null","","","","","",""
"null","","image-keyboard-response","517","555777","0.0-482.0","","img/nature/S3.jpg","null","3","Ns3,test","51","false","",""
"null","","html-keyboard-response","518","556130","0.0-483.0","","<img src=""img/nature/S3.jpg"" width=""540"" height = ""360"">","null","","","","","",""
"null","","html-keyboard-response","519","556212","0.0-484.0","","","null","","","","","",""
"null","","image-keyboard-response","520","558713","0.0-485.0","","img/nature/S2.jpg","null","2","Ns3,test","50","false","",""
"null","","html-keyboard-response","521","559066","0.0-486.0","","<img src=""img/nature/S2.jpg"" width=""540"" height = ""360"">","null","","","","","",""
"null","","html-keyboard-response","522","559148","0.0-487.0","","","null","","","","","",""
"null","","image-keyboard-response","523","561654","0.0-488.0","","img/nature/S2.jpg","null","2","Ns3,test","50","false","",""
"null","","html-keyboard-response","524","562007","0.0-489.0","","<img src=""img/nature/S2.jpg"" width=""540"" height = ""360"">","null","","","","","",""
"null","","html-keyboard-response","525","562090","0.0-490.0","","","null","","","","","",""
"null","","image-keyboard-response","526","564594","0.0-491.0","","img/nature/S3.jpg","null","3","Ns3,test","51","false","",""
"null","","html-keyboard-response","527","564947","0.0-492.0","","<img src=""img/nature/S3.jpg"" width=""540"" height = ""360"">","null","","","","","",""
"null","","html-keyboard-response","528","565030","0.0-493.0","","","null","","","","","",""
"null","","image-keyboard-response","529","567532","0.0-494.0","","img/nature/S2.jpg","null","2","Ns3,test","50","false","",""
"null","","html-keyboard-response","530","567887","0.0-495.0","","<img src=""img/nature/S2.jpg"" width=""540"" height = ""360"">","null","","","","","",""
"null","","html-keyboard-response","531","567971","0.0-496.0","","","null","","","","","",""
"null","","image-keyboard-response","532","570477","0.0-497.0","","img/nature/S2.jpg","null","2","Ns3,test","50","false","",""
"null","","html-keyboard-response","533","570829","0.0-498.0","","<img src=""img/nature/S2.jpg"" width=""540"" height = ""360"">","null","","","","","",""
"null","","html-keyboard-response","534","570913","0.0-499.0","","","null","","","","","",""
"null","","image-keyboard-response","535","573421","0.0-500.0","","img/nature/S1.jpg","null","1","Ns3,test","49","false","",""
"null","","html-keyboard-response","536","573778","0.0-501.0","","<img src=""img/nature/S1.jpg"" width=""540"" height = ""360"">","null","","","","","",""
"null","","html-keyboard-response","537","573859","0.0-502.0","","","null","","","","","",""
"null","","image-keyboard-response","538","576363","0.0-503.0","","img/nature/S2.jpg","null","2","Ns3,test","50","false","",""
"null","","html-keyboard-response","539","576720","0.0-504.0","","<img src=""img/nature/S2.jpg"" width=""540"" height = ""360"">","null","","","","","",""
"null","","html-keyboard-response","540","576804","0.0-505.0","","","null","","","","","",""
"null","","image-keyboard-response","541","579307","0.0-506.0","","img/nature/S2.jpg","null","2","Ns3,test","50","false","",""
"null","","html-keyboard-response","542","579661","0.0-507.0","","<img src=""img/nature/S2.jpg"" width=""540"" height = ""360"">","null","","","","","",""
"null","","html-keyboard-response","543","579743","0.0-508.0","","","null","","","","","",""
"null","","image-keyboard-response","544","582247","0.0-509.0","","img/nature/S3.jpg","null","3","Ns3,test","51","false","",""
"null","","html-keyboard-response","545","582603","0.0-510.0","","<img src=""img/nature/S3.jpg"" width=""540"" height = ""360"">","null","","","","","",""
"null","","html-keyboard-response","546","582687","0.0-511.0","","","null","","","","","",""
"null","","image-keyboard-response","547","585190","0.0-512.0","","img/nature/S1.jpg","null","1","Ns3,test","49","false","",""
"null","","html-keyboard-response","548","585543","0.0-513.0","","<img src=""img/nature/S1.jpg"" width=""540"" height = ""360"">","null","","","","","",""
"null","","html-keyboard-response","549","585624","0.0-514.0","","","null","","","","","",""
"null","","image-keyboard-response","550","588129","0.0-515.0","","img/nature/S3.jpg","null","3","Ns3,test","51","false","",""
"null","","html-keyboard-response","551","588486","0.0-516.0","","<img src=""img/nature/S3.jpg"" width=""540"" height = ""360"">","null","","","","","",""
"null","","html-keyboard-response","552","588571","0.0-517.0","","","null","","","","","",""
"null","","image-keyboard-response","553","591073","0.0-518.0","","img/nature/S3.jpg","null","3","Ns3,test","51","false","",""
"null","","html-keyboard-response","554","591425","0.0-519.0","","<img src=""img/nature/S3.jpg"" width=""540"" height = ""360"">","null","","","","","",""
"null","","html-keyboard-response","555","591507","0.0-520.0","","","null","","","","","",""
"null","","image-keyboard-response","556","594012","0.0-521.0","","img/nature/S3.jpg","null","3","Ns3,test","51","false","",""
"null","","html-keyboard-response","557","594366","0.0-522.0","","<img src=""img/nature/S3.jpg"" width=""540"" height = ""360"">","null","","","","","",""
"null","","html-keyboard-response","558","594448","0.0-523.0","","","null","","","","","",""
"null","","image-keyboard-response","559","596950","0.0-524.0","","img/nature/S3.jpg","null","3","Ns3,test","51","false","",""
"null","","html-keyboard-response","560","597304","0.0-525.0","","<img src=""img/nature/S3.jpg"" width=""540"" height = ""360"">","null","","","","","",""
"null","","html-keyboard-response","561","597387","0.0-526.0","","","null","","","","","",""
"null","","image-keyboard-response","562","599889","0.0-527.0","","img/nature/S3.jpg","null","3","Ns3,test","51","false","",""
"null","","html-keyboard-response","563","600244","0.0-528.0","","<img src=""img/nature/S3.jpg"" width=""540"" height = ""360"">","null","","","","","",""
"null","","html-keyboard-response","564","600330","0.0-529.0","","","null","","","","","",""
"null","","image-keyboard-response","565","602837","0.0-530.0","","img/nature/S3.jpg","null","3","Ns3,test","51","false","",""
"null","","html-keyboard-response","566","603189","0.0-531.0","","<img src=""img/nature/S3.jpg"" width=""540"" height = ""360"">","null","","","","","",""
"null","","html-keyboard-response","567","603271","0.0-532.0","","","null","","","","","",""
"null","","image-keyboard-response","568","605774","0.0-533.0","","img/nature/S1.jpg","null","1","Ns3,test","49","false","",""
"null","","html-keyboard-response","569","606129","0.0-534.0","","<img src=""img/nature/S1.jpg"" width=""540"" height = ""360"">","null","","","","","",""
"null","","html-keyboard-response","570","606213","0.0-535.0","","","null","","","","","",""
"null","","image-keyboard-response","571","608715","0.0-536.0","","img/nature/S1.jpg","null","1","Ns3,test","49","false","",""
"null","","html-keyboard-response","572","609071","0.0-537.0","","<img src=""img/nature/S1.jpg"" width=""540"" height = ""360"">","null","","","","","",""
"null","","html-keyboard-response","573","609153","0.0-538.0","","","null","","","","","",""
"null","","image-keyboard-response","574","611656","0.0-539.0","","img/nature/S1.jpg","null","1","Ns3,test","49","false","",""
"null","","html-keyboard-response","575","612009","0.0-540.0","","<img src=""img/nature/S1.jpg"" width=""540"" height = ""360"">","null","","","","","",""
"null","","html-keyboard-response","576","612090","0.0-541.0","","","null","","","","","",""
"null","","image-keyboard-response","577","614594","0.0-542.0","","img/nature/S3.jpg","null","3","Ns3,test","51","false","",""
"null","","html-keyboard-response","578","614946","0.0-543.0","","<img src=""img/nature/S3.jpg"" width=""540"" height = ""360"">","null","","","","","",""
"null","","html-keyboard-response","579","615029","0.0-544.0","","","null","","","","","",""
"null","","image-keyboard-response","580","617531","0.0-545.0","","img/nature/S3.jpg","null","3","Ns3,test","51","false","",""
"null","","html-keyboard-response","581","617887","0.0-546.0","","<img src=""img/nature/S3.jpg"" width=""540"" height = ""360"">","null","","","","","",""
"null","","html-keyboard-response","582","617970","0.0-547.0","","","null","","","","","",""
"null","","image-keyboard-response","583","620476","0.0-548.0","","img/nature/S3.jpg","null","3","Ns3,test","51","false","",""
"null","","html-keyboard-response","584","620830","0.0-549.0","","<img src=""img/nature/S3.jpg"" width=""540"" height = ""360"">","null","","","","","",""
"null","","html-keyboard-response","585","620912","0.0-550.0","","","null","","","","","",""
"null","","image-keyboard-response","586","623414","0.0-551.0","","img/nature/S3.jpg","null","3","Ns3,test","51","false","",""
"null","","html-keyboard-response","587","623769","0.0-552.0","","<img src=""img/nature/S3.jpg"" width=""540"" height = ""360"">","null","","","","","",""
"null","","html-keyboard-response","588","623853","0.0-553.0","","","null","","","","","",""
"null","","image-keyboard-response","589","626357","0.0-554.0","","img/nature/S1.jpg","null","1","Ns3,test","49","false","",""
"null","","html-keyboard-response","590","626711","0.0-555.0","","<img src=""img/nature/S1.jpg"" width=""540"" height = ""360"">","null","","","","","",""
"null","","html-keyboard-response","591","626792","0.0-556.0","","","null","","","","","",""
"null","","image-keyboard-response","592","629294","0.0-557.0","","img/nature/S2.jpg","null","2","Ns3,test","50","false","",""
"null","","html-keyboard-response","593","629647","0.0-558.0","","<img src=""img/nature/S2.jpg"" width=""540"" height = ""360"">","null","","","","","",""
"null","","html-keyboard-response","594","629729","0.0-559.0","","","null","","","","","",""
"null","","image-keyboard-response","595","632231","0.0-560.0","","img/nature/S2.jpg","null","2","Ns3,test","50","false","",""
"null","","html-keyboard-response","596","632586","0.0-561.0","","<img src=""img/nature/S2.jpg"" width=""540"" height = ""360"">","null","","","","","",""
"null","","html-keyboard-response","597","632670","0.0-562.0","","","null","","","","","",""
"null","","image-keyboard-response","598","635174","0.0-563.0","","img/nature/S3.jpg","null","3","Ns3,test","51","false","",""
"null","","html-keyboard-response","599","635530","0.0-564.0","","<img src=""img/nature/S3.jpg"" width=""540"" height = ""360"">","null","","","","","",""
"null","","html-keyboard-response","600","635614","0.0-565.0","","","null","","","","","",""
"null","","image-keyboard-response","601","638119","0.0-566.0","","img/nature/S3.jpg","null","3","Ns3,test","51","false","",""
"null","","html-keyboard-response","602","638472","0.0-567.0","","<img src=""img/nature/S3.jpg"" width=""540"" height = ""360"">","null","","","","","",""
"null","","html-keyboard-response","603","638557","0.0-568.0","","","null","","","","","",""
"null","","image-keyboard-response","604","641061","0.0-569.0","","img/nature/S3.jpg","null","3","Ns3,test","51","false","",""
"null","","html-keyboard-response","605","641413","0.0-570.0","","<img src=""img/nature/S3.jpg"" width=""540"" height = ""360"">","null","","","","","",""
"null","","html-keyboard-response","606","641494","0.0-571.0","","","null","","","","","",""
"null","","image-keyboard-response","607","643997","0.0-572.0","","img/nature/S2.jpg","null","2","Ns3,test","50","false","",""
"null","","html-keyboard-response","608","644354","0.0-573.0","","<img src=""img/nature/S2.jpg"" width=""540"" height = ""360"">","null","","","","","",""
"null","","html-keyboard-response","609","644438","0.0-574.0","","","null","","","","","",""
"null","","image-keyboard-response","610","646944","0.0-575.0","","img/nature/S2.jpg","null","2","Ns3,test","50","false","",""
"null","","html-keyboard-response","611","647296","0.0-576.0","","<img src=""img/nature/S2.jpg"" width=""540"" height = ""360"">","null","","","","","",""
"null","","html-keyboard-response","612","647382","0.0-577.0","","","null","","","","","",""
"null","","image-keyboard-response","613","649934","0.0-578.0","","img/nature/S3.jpg","null","3","Ns3,test","51","false","",""
"null","","html-keyboard-response","614","650980","0.0-579.0","","<img src=""img/nature/S3.jpg"" width=""540"" height = ""360"">","null","","","","","",""
"null","","html-keyboard-response","615","651923","0.0-580.0","","","null","","","","","",""
"null","","image-keyboard-response","616","654959","0.0-581.0","","img/nature/S1.jpg","null","1","Ns3,test","49","false","",""
"null","","html-keyboard-response","617","656389","0.0-582.0","","<img src=""img/nature/S1.jpg"" width=""540"" height = ""360"">","null","","","","","",""
"null","","html-keyboard-response","618","657180","0.0-583.0","","","null","","","","","",""
"null","","image-keyboard-response","619","660178","0.0-584.0","","img/nature/S3.jpg","null","3","Ns3,test","51","false","",""
"null","","html-keyboard-response","620","661212","0.0-585.0","","<img src=""img/nature/S3.jpg"" width=""540"" height = ""360"">","null","","","","","",""
"null","","html-keyboard-response","621","662256","0.0-586.0","","","null","","","","","",""
"null","","image-keyboard-response","622","665252","0.0-587.0","","img/nature/S3.jpg","null","3","Ns3,test","51","false","",""
"null","","html-keyboard-response","623","666256","0.0-588.0","","<img src=""img/nature/S3.jpg"" width=""540"" height = ""360"">","null","","","","","",""
"null","","html-keyboard-response","624","667253","0.0-589.0","","","null","","","","","",""
"null","","image-keyboard-response","625","670071","0.0-590.0","","img/nature/S1.jpg","null","1","Ns3,test","49","false","",""
"null","","html-keyboard-response","626","671348","0.0-591.0","","<img src=""img/nature/S1.jpg"" width=""540"" height = ""360"">","null","","","","","",""
"null","","html-keyboard-response","627","672100","0.0-592.0","","","null","","","","","",""
"null","","image-keyboard-response","628","675238","0.0-593.0","","img/nature/S1.jpg","null","1","Ns3,test","49","false","",""
"null","","html-keyboard-response","629","676257","0.0-594.0","","<img src=""img/nature/S1.jpg"" width=""540"" height = ""360"">","null","","","","","",""
"null","","html-keyboard-response","630","677229","0.0-595.0","","","null","","","","","",""
"null","","image-keyboard-response","631","680703","0.0-596.0","","img/nature/S2.jpg","null","2","Ns3,test","50","false","",""
"null","","html-keyboard-response","632","681957","0.0-597.0","","<img src=""img/nature/S2.jpg"" width=""540"" height = ""360"">","null","","","","","",""
"null","","html-keyboard-response","633","683072","0.0-598.0","","","null","","","","","",""
"null","","image-keyboard-response","634","686345","0.0-599.0","","img/nature/S2.jpg","null","2","Ns3,test","50","false","",""
"null","","html-keyboard-response","635","687207","0.0-600.0","","<img src=""img/nature/S2.jpg"" width=""540"" height = ""360"">","null","","","","","",""
"null","","html-keyboard-response","636","688031","0.0-601.0","","","null","","","","","",""
"null","","image-keyboard-response","637","691482","0.0-602.0","","img/nature/S3.jpg","null","3","Ns3,test","51","false","",""
"null","","html-keyboard-response","638","691942","0.0-603.0","","<img src=""img/nature/S3.jpg"" width=""540"" height = ""360"">","null","","","","","",""
"null","","html-keyboard-response","639","692944","0.0-604.0","","","null","","","","","",""
"null","","image-keyboard-response","640","696203","0.0-605.0","","img/nature/S2.jpg","null","2","Ns3,test","50","false","",""
"null","","html-keyboard-response","641","696924","0.0-606.0","","<img src=""img/nature/S2.jpg"" width=""540"" height = ""360"">","null","","","","","",""
"null","","html-keyboard-response","642","697923","0.0-607.0","","","null","","","","","",""
"null","","image-keyboard-response","643","700426","0.0-608.0","","img/nature/S2.jpg","null","2","Ns3,test","50","false","",""
"null","","html-keyboard-response","644","700779","0.0-609.0","","<img src=""img/nature/S2.jpg"" width=""540"" height = ""360"">","null","","","","","",""
"null","","html-keyboard-response","645","700861","0.0-610.0","","","null","","","","","",""
"null","","image-keyboard-response","646","703368","0.0-611.0","","img/nature/S3.jpg","null","3","Ns3,test","51","false","",""
"null","","html-keyboard-response","647","703723","0.0-612.0","","<img src=""img/nature/S3.jpg"" width=""540"" height = ""360"">","null","","","","","",""
"null","","html-keyboard-response","648","703805","0.0-613.0","","","null","","","","","",""
"null","","image-keyboard-response","649","706307","0.0-614.0","","img/nature/S2.jpg","null","2","Ns3,test","50","false","",""
"null","","html-keyboard-response","650","706660","0.0-615.0","","<img src=""img/nature/S2.jpg"" width=""540"" height = ""360"">","null","","","","","",""
"null","","html-keyboard-response","651","706742","0.0-616.0","","","null","","","","","",""
"null","","image-keyboard-response","652","709244","0.0-617.0","","img/nature/S2.jpg","null","2","Ns3,test","50","false","",""
"null","","html-keyboard-response","653","709596","0.0-618.0","","<img src=""img/nature/S2.jpg"" width=""540"" height = ""360"">","null","","","","","",""
"null","","html-keyboard-response","654","709680","0.0-619.0","","","null","","","","","",""
"null","","image-keyboard-response","655","712186","0.0-620.0","","img/nature/S1.jpg","null","1","Ns3,test","49","false","",""
"null","","html-keyboard-response","656","712539","0.0-621.0","","<img src=""img/nature/S1.jpg"" width=""540"" height = ""360"">","null","","","","","",""
"null","","html-keyboard-response","657","712621","0.0-622.0","","","null","","","","","",""
"null","","image-keyboard-response","658","715124","0.0-623.0","","img/nature/S1.jpg","null","1","Ns3,test","49","false","",""
"null","","html-keyboard-response","659","715479","0.0-624.0","","<img src=""img/nature/S1.jpg"" width=""540"" height = ""360"">","null","","","","","",""
"null","","html-keyboard-response","660","715563","0.0-625.0","","","null","","","","","",""
"null","","image-keyboard-response","661","718070","0.0-626.0","","img/nature/S2.jpg","null","2","Ns3,test","50","false","",""
"null","","html-keyboard-response","662","718423","0.0-627.0","","<img src=""img/nature/S2.jpg"" width=""540"" height = ""360"">","null","","","","","",""
"null","","html-keyboard-response","663","718506","0.0-628.0","","","null","","","","","",""
"null","","image-keyboard-response","664","721010","0.0-629.0","","img/nature/S3.jpg","null","3","Ns3,test","51","false","",""
"null","","html-keyboard-response","665","721362","0.0-630.0","","<img src=""img/nature/S3.jpg"" width=""540"" height = ""360"">","null","","","","","",""
"null","","html-keyboard-response","666","721445","0.0-631.0","","","null","","","","","",""
"null","","image-keyboard-response","667","723952","0.0-632.0","","img/nature/S3.jpg","null","3","Ns3,test","51","false","",""
"null","","html-keyboard-response","668","724309","0.0-633.0","","<img src=""img/nature/S3.jpg"" width=""540"" height = ""360"">","null","","","","","",""
"null","","html-keyboard-response","669","724393","0.0-634.0","","","null","","","","","",""
"null","","image-keyboard-response","670","726896","0.0-635.0","","img/nature/S3.jpg","null","3","Ns3,test","51","false","",""
"null","","html-keyboard-response","671","727253","0.0-636.0","","<img src=""img/nature/S3.jpg"" width=""540"" height = ""360"">","null","","","","","",""
"null","","html-keyboard-response","672","727336","0.0-637.0","","","null","","","","","",""
"null","","image-keyboard-response","673","729840","0.0-638.0","","img/nature/S2.jpg","null","2","Ns3,test","50","false","",""
"null","","html-keyboard-response","674","730195","0.0-639.0","","<img src=""img/nature/S2.jpg"" width=""540"" height = ""360"">","null","","","","","",""
"null","","html-keyboard-response","675","730279","0.0-640.0","","","null","","","","","",""
"null","","image-keyboard-response","676","732786","0.0-641.0","","img/nature/S2.jpg","null","2","Ns3,test","50","false","",""
"null","","html-keyboard-response","677","733139","0.0-642.0","","<img src=""img/nature/S2.jpg"" width=""540"" height = ""360"">","null","","","","","",""
"null","","html-keyboard-response","678","733222","0.0-643.0","","","null","","","","","",""
"null","","image-keyboard-response","679","735727","0.0-644.0","","img/nature/S3.jpg","null","3","Ns3,test","51","false","",""
"null","","html-keyboard-response","680","736080","0.0-645.0","","<img src=""img/nature/S3.jpg"" width=""540"" height = ""360"">","null","","","","","",""
"null","","html-keyboard-response","681","736162","0.0-646.0","","","null","","","","","",""
"null","","image-keyboard-response","682","738667","0.0-647.0","","img/nature/S1.jpg","null","1","Ns3,test","49","false","",""
"null","","html-keyboard-response","683","739019","0.0-648.0","","<img src=""img/nature/S1.jpg"" width=""540"" height = ""360"">","null","","","","","",""
"null","","html-keyboard-response","684","739104","0.0-649.0","","","null","","","","","",""
"null","","image-keyboard-response","685","741606","0.0-650.0","","img/nature/S2.jpg","null","2","Ns3,test","50","false","",""
"null","","html-keyboard-response","686","741961","0.0-651.0","","<img src=""img/nature/S2.jpg"" width=""540"" height = ""360"">","null","","","","","",""
"null","","html-keyboard-response","687","742046","0.0-652.0","","","null","","","","","",""
"null","","image-keyboard-response","688","744552","0.0-653.0","","img/nature/S1.jpg","null","1","Ns3,test","49","false","",""
"null","","html-keyboard-response","689","744906","0.0-654.0","","<img src=""img/nature/S1.jpg"" width=""540"" height = ""360"">","null","","","","","",""
"null","","html-keyboard-response","690","744987","0.0-655.0","","","null","","","","","",""
"null","","image-keyboard-response","691","747490","0.0-656.0","","img/nature/S2.jpg","null","2","Ns3,test","50","false","",""
"null","","html-keyboard-response","692","747842","0.0-657.0","","<img src=""img/nature/S2.jpg"" width=""540"" height = ""360"">","null","","","","","",""
"null","","html-keyboard-response","693","747927","0.0-658.0","","","null","","","","","",""
"null","","image-keyboard-response","694","750430","0.0-659.0","","img/nature/S1.jpg","null","1","Ns3,test","49","false","",""
"null","","html-keyboard-response","695","750786","0.0-660.0","","<img src=""img/nature/S1.jpg"" width=""540"" height = ""360"">","null","","","","","",""
"null","","html-keyboard-response","696","750869","0.0-661.0","","","null","","","","","",""
"null","","image-keyboard-response","697","753375","0.0-662.0","","img/nature/S3.jpg","null","3","Ns3,test","51","false","",""
"null","","html-keyboard-response","698","753729","0.0-663.0","","<img src=""img/nature/S3.jpg"" width=""540"" height = ""360"">","null","","","","","",""
"null","","html-keyboard-response","699","753813","0.0-664.0","","","null","","","","","",""
"null","","image-keyboard-response","700","756317","0.0-665.0","","img/nature/S1.jpg","null","1","Ns3,test","49","false","",""
"null","","html-keyboard-response","701","756669","0.0-666.0","","<img src=""img/nature/S1.jpg"" width=""540"" height = ""360"">","null","","","","","",""
"null","","html-keyboard-response","702","756752","0.0-667.0","","","null","","","","","",""
"null","","image-keyboard-response","703","759258","0.0-668.0","","img/nature/S1.jpg","null","1","Ns3,test","49","false","",""
"null","","html-keyboard-response","704","759610","0.0-669.0","","<img src=""img/nature/S1.jpg"" width=""540"" height = ""360"">","null","","","","","",""
"null","","html-keyboard-response","705","759693","0.0-670.0","","","null","","","","","",""
"null","","image-keyboard-response","706","762195","0.0-671.0","","img/nature/S1.jpg","null","1","Ns3,test","49","false","",""
"null","","html-keyboard-response","707","762552","0.0-672.0","","<img src=""img/nature/S1.jpg"" width=""540"" height = ""360"">","null","","","","","",""
"null","","html-keyboard-response","708","762637","0.0-673.0","","","null","","","","","",""
"null","","image-keyboard-response","709","765139","0.0-674.0","","img/nature/S3.jpg","null","3","Ns3,test","51","false","",""
"null","","html-keyboard-response","710","765493","0.0-675.0","","<img src=""img/nature/S3.jpg"" width=""540"" height = ""360"">","null","","","","","",""
"null","","html-keyboard-response","711","765576","0.0-676.0","","","null","","","","","",""
"null","","image-keyboard-response","712","768080","0.0-677.0","","img/nature/S1.jpg","null","1","Ns3,test","49","false","",""
"null","","html-keyboard-response","713","768436","0.0-678.0","","<img src=""img/nature/S1.jpg"" width=""540"" height = ""360"">","null","","","","","",""
"null","","html-keyboard-response","714","768520","0.0-679.0","","","null","","","","","",""
"null","","image-keyboard-response","715","771022","0.0-680.0","","img/nature/S1.jpg","null","1","Ns3,test","49","false","",""
"null","","html-keyboard-response","716","771376","0.0-681.0","","<img src=""img/nature/S1.jpg"" width=""540"" height = ""360"">","null","","","","","",""
"null","","html-keyboard-response","717","771458","0.0-682.0","","","null","","","","","",""
"null","","image-keyboard-response","718","773962","0.0-683.0","","img/nature/S2.jpg","null","2","Ns3,test","50","false","",""
"null","","html-keyboard-response","719","774319","0.0-684.0","","<img src=""img/nature/S2.jpg"" width=""540"" height = ""360"">","null","","","","","",""
"null","","html-keyboard-response","720","774403","0.0-685.0","","","null","","","","","",""
"null","","image-keyboard-response","721","776905","0.0-686.0","","img/nature/S2.jpg","null","2","Ns3,test","50","false","",""
"null","","html-keyboard-response","722","777258","0.0-687.0","","<img src=""img/nature/S2.jpg"" width=""540"" height = ""360"">","null","","","","","",""
"null","","html-keyboard-response","723","777339","0.0-688.0","","","null","","","","","",""
"null","","image-keyboard-response","724","779843","0.0-689.0","","img/nature/S2.jpg","null","2","Ns3,test","50","false","",""
"null","","html-keyboard-response","725","780195","0.0-690.0","","<img src=""img/nature/S2.jpg"" width=""540"" height = ""360"">","null","","","","","",""
"null","","html-keyboard-response","726","780280","0.0-691.0","","","null","","","","","",""
"null","","image-keyboard-response","727","782785","0.0-692.0","","img/nature/S2.jpg","null","2","Ns3,test","50","false","",""
"null","","html-keyboard-response","728","783138","0.0-693.0","","<img src=""img/nature/S2.jpg"" width=""540"" height = ""360"">","null","","","","","",""
"null","","html-keyboard-response","729","783220","0.0-694.0","","","null","","","","","",""
"null","","image-keyboard-response","730","785726","0.0-695.0","","img/nature/S1.jpg","null","1","Ns3,test","49","false","",""
"null","","html-keyboard-response","731","786080","0.0-696.0","","<img src=""img/nature/S1.jpg"" width=""540"" height = ""360"">","null","","","","","",""
"null","","html-keyboard-response","732","786162","0.0-697.0","","","null","","","","","",""
"null","","image-keyboard-response","733","788669","0.0-698.0","","img/nature/S1.jpg","null","1","Ns3,test","49","false","",""
"null","","html-keyboard-response","734","789022","0.0-699.0","","<img src=""img/nature/S1.jpg"" width=""540"" height = ""360"">","null","","","","","",""
"null","","html-keyboard-response","735","789105","0.0-700.0","","","null","","","","","",""
"null","","image-keyboard-response","736","791609","0.0-701.0","","img/nature/S3.jpg","null","3","Ns3,test","51","false","",""
"null","","html-keyboard-response","737","791962","0.0-702.0","","<img src=""img/nature/S3.jpg"" width=""540"" height = ""360"">","null","","","","","",""
"null","","html-keyboard-response","738","792045","0.0-703.0","","","null","","","","","",""
"null","","image-keyboard-response","739","794552","0.0-704.0","","img/nature/S2.jpg","null","2","Ns3,test","50","false","",""
"null","","html-keyboard-response","740","794904","0.0-705.0","","<img src=""img/nature/S2.jpg"" width=""540"" height = ""360"">","null","","","","","",""
"null","","html-keyboard-response","741","794986","0.0-706.0","","","null","","","","","",""
"null","","image-keyboard-response","742","797489","0.0-707.0","","img/nature/S1.jpg","null","1","Ns3,test","49","false","",""
"null","","html-keyboard-response","743","797842","0.0-708.0","","<img src=""img/nature/S1.jpg"" width=""540"" height = ""360"">","null","","","","","",""
"null","","html-keyboard-response","744","797926","0.0-709.0","","","null","","","","","",""
"null","","image-keyboard-response","745","800431","0.0-710.0","","img/nature/S3.jpg","null","3","Ns3,test","51","false","",""
"null","","html-keyboard-response","746","800787","0.0-711.0","","<img src=""img/nature/S3.jpg"" width=""540"" height = ""360"">","null","","","","","",""
"null","","html-keyboard-response","747","800868","0.0-712.0","","","null","","","","","",""
"null","","image-keyboard-response","748","803371","0.0-713.0","","img/nature/S1.jpg","null","1","Ns3,test","49","false","",""
"null","","html-keyboard-response","749","803726","0.0-714.0","","<img src=""img/nature/S1.jpg"" width=""540"" height = ""360"">","null","","","","","",""
"null","","html-keyboard-response","750","803809","0.0-715.0","","","null","","","","","",""
"null","","image-keyboard-response","751","806312","0.0-716.0","","img/nature/S2.jpg","null","2","Ns3,test","50","false","",""
"null","","html-keyboard-response","752","806667","0.0-717.0","","<img src=""img/nature/S2.jpg"" width=""540"" height = ""360"">","null","","","","","",""
"null","","html-keyboard-response","753","806753","0.0-718.0","","","null","","","","","",""
"null","","image-keyboard-response","754","809258","0.0-719.0","","img/nature/S2.jpg","null","2","Ns3,test","50","false","",""
"null","","html-keyboard-response","755","809611","0.0-720.0","","<img src=""img/nature/S2.jpg"" width=""540"" height = ""360"">","null","","","","","",""
"null","","html-keyboard-response","756","809692","0.0-721.0","","","null","","","","","",""
"null","","image-keyboard-response","757","812194","0.0-722.0","","img/nature/S1.jpg","null","1","Ns3,test","49","false","",""
"null","","html-keyboard-response","758","812551","0.0-723.0","","<img src=""img/nature/S1.jpg"" width=""540"" height = ""360"">","null","","","","","",""
"null","","html-keyboard-response","759","812635","0.0-724.0","","","null","","","","","",""
"null","","image-keyboard-response","760","815142","0.0-725.0","","img/nature/S3.jpg","null","3","Ns3,test","51","false","",""
"null","","html-keyboard-response","761","815495","0.0-726.0","","<img src=""img/nature/S3.jpg"" width=""540"" height = ""360"">","null","","","","","",""
"null","","html-keyboard-response","762","815580","0.0-727.0","","","null","","","","","",""
"null","","image-keyboard-response","763","818086","0.0-728.0","","img/nature/S1.jpg","null","1","Ns3,test","49","false","",""
"null","","html-keyboard-response","764","818438","0.0-729.0","","<img src=""img/nature/S1.jpg"" width=""540"" height = ""360"">","null","","","","","",""
"null","","html-keyboard-response","765","818521","0.0-730.0","","","null","","","","","",""
"null","","image-keyboard-response","766","821026","0.0-731.0","","img/nature/S2.jpg","null","2","Ns3,test","50","false","",""
"null","","html-keyboard-response","767","821381","0.0-732.0","","<img src=""img/nature/S2.jpg"" width=""540"" height = ""360"">","null","","","","","",""
"null","","html-keyboard-response","768","821463","0.0-733.0","","","null","","","","","",""
"null","","image-keyboard-response","769","823969","0.0-734.0","","img/nature/S2.jpg","null","2","Ns3,test","50","false","",""
"null","","html-keyboard-response","770","824321","0.0-735.0","","<img src=""img/nature/S2.jpg"" width=""540"" height = ""360"">","null","","","","","",""
"null","","html-keyboard-response","771","824405","0.0-736.0","","","null","","","","","",""
"null","","image-keyboard-response","772","826907","0.0-737.0","","img/nature/S2.jpg","null","2","Ns3,test","50","false","",""
"null","","html-keyboard-response","773","827259","0.0-738.0","","<img src=""img/nature/S2.jpg"" width=""540"" height = ""360"">","null","","","","","",""
