"rt","url","trial_type","trial_index","time_elapsed","internal_node_id","view_history","stimulus","key_press","state","test_part","correct_response","correct","bonus","responses"
"4391.4000000059605","consent.html","external-html","0","4470","0.0-0.0","","","","","","","","",""
"52342.79999998212","","instructions","1","56814","0.0-1.0","[{""page_index"":0,""viewing_time"":3972.2999999821186},{""page_index"":1,""viewing_time"":5865.800000011921},{""page_index"":2,""viewing_time"":6393.9000000059605},{""page_index"":3,""viewing_time"":5698.0999999940395},{""page_index"":4,""viewing_time"":9821.90000000596},{""page_index"":5,""viewing_time"":6774.0999999940395},{""page_index"":6,""viewing_time"":3794},{""page_index"":7,""viewing_time"":10022}]","","","","","","","",""
"1320","","image-keyboard-response","2","58135","0.0-2.0-0.0","","img/animals/S1.jpg","49","1","practice","49","true","",""
"null","","html-keyboard-response","3","58437","0.0-2.0-1.0","","<img src=""img/animals/S1.jpg"" width=""540"" height = ""360"" style=""border:14px solid orange"">","null","","","","","",""
"null","","html-keyboard-response","4","58639","0.0-2.0-2.0","","","null","","","","","",""
"2519.5","","image-keyboard-response","5","61160","0.0-2.0-0.1","","img/animals/S4.jpg","52","4","practice","52","true","",""
"null","","html-keyboard-response","6","61462","0.0-2.0-1.1","","<img src=""img/animals/S4.jpg"" width=""540"" height = ""360"" style=""border:14px solid orange"">","null","","","","","",""
"null","","html-keyboard-response","7","61666","0.0-2.0-2.1","","","null","","","","","",""
"1116","","image-keyboard-response","8","62783","0.0-2.0-0.2","","img/animals/S3.jpg","51","3","practice","51","true","",""
"null","","html-keyboard-response","9","63085","0.0-2.0-1.2","","<img src=""img/animals/S3.jpg"" width=""540"" height = ""360"" style=""border:14px solid orange"">","null","","","","","",""
"null","","html-keyboard-response","10","63287","0.0-2.0-2.2","","","null","","","","","",""
"1503.0999999940395","","image-keyboard-response","11","64791","0.0-2.0-0.3","","img/animals/S5.jpg","53","5","practice","53","true","",""
"null","","html-keyboard-response","12","65093","0.0-2.0-1.3","","<img src=""img/animals/S5.jpg"" width=""540"" height = ""360"" style=""border:14px solid orange"">","null","","","","","",""
"null","","html-keyboard-response","13","65297","0.0-2.0-2.3","","","null","","","","","",""
"1173.4000000059605","","image-keyboard-response","14","66471","0.0-2.0-0.4","","img/animals/S2.jpg","50","2","practice","50","true","",""
"null","","html-keyboard-response","15","66773","0.0-2.0-1.4","","<img src=""img/animals/S2.jpg"" width=""540"" height = ""360"" style=""border:14px solid orange"">","null","","","","","",""
"null","","html-keyboard-response","16","66975","0.0-2.0-2.4","","","null","","","","","",""
"1593.2000000178814","","image-keyboard-response","17","68569","0.0-2.0-0.5","","img/animals/S6.jpg","54","6","practice","54","true","",""
"null","","html-keyboard-response","18","68872","0.0-2.0-1.5","","<img src=""img/animals/S6.jpg"" width=""540"" height = ""360"" style=""border:14px solid orange"">","null","","","","","",""
"null","","html-keyboard-response","19","69077","0.0-2.0-2.5","","","null","","","","","",""
"1153.699999988079","","image-keyboard-response","20","70231","0.0-2.0-0.6","","img/animals/S3.jpg","51","3","practice","51","true","",""
"null","","html-keyboard-response","21","70533","0.0-2.0-1.6","","<img src=""img/animals/S3.jpg"" width=""540"" height = ""360"" style=""border:14px solid orange"">","null","","","","","",""
"null","","html-keyboard-response","22","70734","0.0-2.0-2.6","","","null","","","","","",""
"1320.0999999940395","","image-keyboard-response","23","72055","0.0-2.0-0.7","","img/animals/S1.jpg","49","1","practice","49","true","",""
"null","","html-keyboard-response","24","72356","0.0-2.0-1.7","","<img src=""img/animals/S1.jpg"" width=""540"" height = ""360"" style=""border:14px solid orange"">","null","","","","","",""
"null","","html-keyboard-response","25","72558","0.0-2.0-2.7","","","null","","","","","",""
"1561","","image-keyboard-response","26","74119","0.0-2.0-0.8","","img/animals/S4.jpg","52","4","practice","52","true","",""
"null","","html-keyboard-response","27","74421","0.0-2.0-1.8","","<img src=""img/animals/S4.jpg"" width=""540"" height = ""360"" style=""border:14px solid orange"">","null","","","","","",""
"null","","html-keyboard-response","28","74624","0.0-2.0-2.8","","","null","","","","","",""
"1054.5","","image-keyboard-response","29","75679","0.0-2.0-0.9","","img/animals/S2.jpg","50","2","practice","50","true","",""
"null","","html-keyboard-response","30","75981","0.0-2.0-1.9","","<img src=""img/animals/S2.jpg"" width=""540"" height = ""360"" style=""border:14px solid orange"">","null","","","","","",""
"null","","html-keyboard-response","31","76184","0.0-2.0-2.9","","","null","","","","","",""
"1646.5","","image-keyboard-response","32","77831","0.0-2.0-0.10","","img/animals/S6.jpg","54","6","practice","54","true","",""
"null","","html-keyboard-response","33","78141","0.0-2.0-1.10","","<img src=""img/animals/S6.jpg"" width=""540"" height = ""360"" style=""border:14px solid orange"">","null","","","","","",""
"null","","html-keyboard-response","34","78343","0.0-2.0-2.10","","","null","","","","","",""
"1487.0999999940395","","image-keyboard-response","35","79831","0.0-2.0-0.11","","img/animals/S5.jpg","53","5","practice","53","true","",""
"null","","html-keyboard-response","36","80133","0.0-2.0-1.11","","<img src=""img/animals/S5.jpg"" width=""540"" height = ""360"" style=""border:14px solid orange"">","null","","","","","",""
"null","","html-keyboard-response","37","80334","0.0-2.0-2.11","","","null","","","","","",""
"967.9000000059605","","image-keyboard-response","38","81303","0.0-2.0-0.12","","img/animals/S2.jpg","50","2","practice","50","true","",""
"null","","html-keyboard-response","39","81604","0.0-2.0-1.12","","<img src=""img/animals/S2.jpg"" width=""540"" height = ""360"" style=""border:14px solid orange"">","null","","","","","",""
"null","","html-keyboard-response","40","81806","0.0-2.0-2.12","","","null","","","","","",""
"976.1999999880791","","image-keyboard-response","41","82783","0.0-2.0-0.13","","img/animals/S3.jpg","51","3","practice","51","true","",""
"null","","html-keyboard-response","42","83085","0.0-2.0-1.13","","<img src=""img/animals/S3.jpg"" width=""540"" height = ""360"" style=""border:14px solid orange"">","null","","","","","",""
"null","","html-keyboard-response","43","83287","0.0-2.0-2.13","","","null","","","","","",""
"1783.199999988079","","image-keyboard-response","44","85071","0.0-2.0-0.14","","img/animals/S4.jpg","52","4","practice","52","true","",""
"null","","html-keyboard-response","45","85373","0.0-2.0-1.14","","<img src=""img/animals/S4.jpg"" width=""540"" height = ""360"" style=""border:14px solid orange"">","null","","","","","",""
"null","","html-keyboard-response","46","85576","0.0-2.0-2.14","","","null","","","","","",""
"1014.5999999940395","","image-keyboard-response","47","86591","0.0-2.0-0.15","","img/animals/S1.jpg","49","1","practice","49","true","",""
"null","","html-keyboard-response","48","86901","0.0-2.0-1.15","","<img src=""img/animals/S1.jpg"" width=""540"" height = ""360"" style=""border:14px solid orange"">","null","","","","","",""
"null","","html-keyboard-response","49","87104","0.0-2.0-2.15","","","null","","","","","",""
"1687","","image-keyboard-response","50","88791","0.0-2.0-0.16","","img/animals/S6.jpg","54","6","practice","54","true","",""
"null","","html-keyboard-response","51","89092","0.0-2.0-1.16","","<img src=""img/animals/S6.jpg"" width=""540"" height = ""360"" style=""border:14px solid orange"">","null","","","","","",""
"null","","html-keyboard-response","52","89295","0.0-2.0-2.16","","","null","","","","","",""
"1241.300000011921","","image-keyboard-response","53","90537","0.0-2.0-0.17","","img/animals/S5.jpg","53","5","practice","53","true","",""
"null","","html-keyboard-response","54","90840","0.0-2.0-1.17","","<img src=""img/animals/S5.jpg"" width=""540"" height = ""360"" style=""border:14px solid orange"">","null","","","","","",""
"null","","html-keyboard-response","55","91041","0.0-2.0-2.17","","","null","","","","","",""
"1181.0999999940395","","image-keyboard-response","56","92223","0.0-2.0-0.18","","img/animals/S1.jpg","49","1","practice","49","true","",""
"null","","html-keyboard-response","57","92526","0.0-2.0-1.18","","<img src=""img/animals/S1.jpg"" width=""540"" height = ""360"" style=""border:14px solid orange"">","null","","","","","",""
"null","","html-keyboard-response","58","92728","0.0-2.0-2.18","","","null","","","","","",""
"1342.699999988079","","image-keyboard-response","59","94071","0.0-2.0-0.19","","img/animals/S6.jpg","54","6","practice","54","true","",""
"null","","html-keyboard-response","60","94373","0.0-2.0-1.19","","<img src=""img/animals/S6.jpg"" width=""540"" height = ""360"" style=""border:14px solid orange"">","null","","","","","",""
"null","","html-keyboard-response","61","94576","0.0-2.0-2.19","","","null","","","","","",""
"878.0999999940395","","image-keyboard-response","62","95455","0.0-2.0-0.20","","img/animals/S2.jpg","50","2","practice","50","true","",""
"null","","html-keyboard-response","63","95756","0.0-2.0-1.20","","<img src=""img/animals/S2.jpg"" width=""540"" height = ""360"" style=""border:14px solid orange"">","null","","","","","",""
"null","","html-keyboard-response","64","95958","0.0-2.0-2.20","","","null","","","","","",""
"1368.5","","image-keyboard-response","65","97327","0.0-2.0-0.21","","img/animals/S5.jpg","53","5","practice","53","true","",""
"null","","html-keyboard-response","66","97639","0.0-2.0-1.21","","<img src=""img/animals/S5.jpg"" width=""540"" height = ""360"" style=""border:14px solid orange"">","null","","","","","",""
"null","","html-keyboard-response","67","97841","0.0-2.0-2.21","","","null","","","","","",""
"894.5","","image-keyboard-response","68","98736","0.0-2.0-0.22","","img/animals/S3.jpg","51","3","practice","51","true","",""
"null","","html-keyboard-response","69","99038","0.0-2.0-1.22","","<img src=""img/animals/S3.jpg"" width=""540"" height = ""360"" style=""border:14px solid orange"">","null","","","","","",""
"null","","html-keyboard-response","70","99241","0.0-2.0-2.22","","","null","","","","","",""
"2917.9000000059605","","image-keyboard-response","71","102160","0.0-2.0-0.23","","img/animals/S4.jpg","52","4","practice","52","true","",""
"null","","html-keyboard-response","72","102463","0.0-2.0-1.23","","<img src=""img/animals/S4.jpg"" width=""540"" height = ""360"" style=""border:14px solid orange"">","null","","","","","",""
"null","","html-keyboard-response","73","102672","0.0-2.0-2.23","","","null","","","","","",""
"814","","image-keyboard-response","74","103487","0.0-2.0-0.24","","img/animals/S2.jpg","50","2","practice","50","true","",""
"null","","html-keyboard-response","75","103789","0.0-2.0-1.24","","<img src=""img/animals/S2.jpg"" width=""540"" height = ""360"" style=""border:14px solid orange"">","null","","","","","",""
"null","","html-keyboard-response","76","103991","0.0-2.0-2.24","","","null","","","","","",""
"1255.5","","image-keyboard-response","77","105247","0.0-2.0-0.25","","img/animals/S4.jpg","52","4","practice","52","true","",""
"null","","html-keyboard-response","78","105548","0.0-2.0-1.25","","<img src=""img/animals/S4.jpg"" width=""540"" height = ""360"" style=""border:14px solid orange"">","null","","","","","",""
"null","","html-keyboard-response","79","105750","0.0-2.0-2.25","","","null","","","","","",""
"1392.5","","image-keyboard-response","80","107143","0.0-2.0-0.26","","img/animals/S6.jpg","54","6","practice","54","true","",""
"null","","html-keyboard-response","81","107445","0.0-2.0-1.26","","<img src=""img/animals/S6.jpg"" width=""540"" height = ""360"" style=""border:14px solid orange"">","null","","","","","",""
"null","","html-keyboard-response","82","107647","0.0-2.0-2.26","","","null","","","","","",""
"1031.6000000238419","","image-keyboard-response","83","108679","0.0-2.0-0.27","","img/animals/S3.jpg","51","3","practice","51","true","",""
"null","","html-keyboard-response","84","108981","0.0-2.0-1.27","","<img src=""img/animals/S3.jpg"" width=""540"" height = ""360"" style=""border:14px solid orange"">","null","","","","","",""
"null","","html-keyboard-response","85","109184","0.0-2.0-2.27","","","null","","","","","",""
"1006.7000000178814","","image-keyboard-response","86","110191","0.0-2.0-0.28","","img/animals/S1.jpg","49","1","practice","49","true","",""
"null","","html-keyboard-response","87","110493","0.0-2.0-1.28","","<img src=""img/animals/S1.jpg"" width=""540"" height = ""360"" style=""border:14px solid orange"">","null","","","","","",""
"null","","html-keyboard-response","88","110696","0.0-2.0-2.28","","","null","","","","","",""
"1446.5","","image-keyboard-response","89","112143","0.0-2.0-0.29","","img/animals/S5.jpg","53","5","practice","53","true","",""
"null","","html-keyboard-response","90","112444","0.0-2.0-1.29","","<img src=""img/animals/S5.jpg"" width=""540"" height = ""360"" style=""border:14px solid orange"">","null","","","","","",""
"null","","html-keyboard-response","91","112646","0.0-2.0-2.29","","","null","","","","","",""
"2282","","instructions","92","114930","0.0-3.0","[{""page_index"":0,""viewing_time"":2281.9000000059605}]","","","","","","","",""
"2213.0999999940395","","image-keyboard-response","93","117143","0.0-4.0","","img/animals/S1.jpg","49","1","Ns6,baseline","49","true","",""
"null","","html-keyboard-response","94","117346","0.0-5.0","","","null","","","","","",""
"621.4000000059605","","image-keyboard-response","95","117968","0.0-6.0","","img/animals/S1.jpg","49","1","Ns6,baseline","49","true","",""
"null","","html-keyboard-response","96","118170","0.0-7.0","","","null","","","","","",""
"989.7999999821186","","image-keyboard-response","97","119160","0.0-8.0","","img/animals/S1.jpg","49","1","Ns6,baseline","49","true","",""
"null","","html-keyboard-response","98","119362","0.0-9.0","","","null","","","","","",""
"1077","","image-keyboard-response","99","120440","0.0-10.0","","img/animals/S2.jpg","50","2","Ns6,baseline","50","true","",""
"null","","html-keyboard-response","100","120641","0.0-11.0","","","null","","","","","",""
"null","","image-keyboard-response","101","123143","0.0-12.0","","img/animals/S6.jpg","null","6","Ns6,baseline","54","false","",""
"null","","html-keyboard-response","102","123345","0.0-13.0","","","null","","","","","",""
"966.3000000119209","","image-keyboard-response","103","124312","0.0-14.0","","img/animals/S2.jpg","50","2","Ns6,baseline","50","true","",""
"null","","html-keyboard-response","104","124513","0.0-15.0","","","null","","","","","",""
"760.4000000059605","","image-keyboard-response","105","125274","0.0-16.0","","img/animals/S2.jpg","50","2","Ns6,baseline","50","true","",""
"null","","html-keyboard-response","106","125476","0.0-17.0","","","null","","","","","",""
"978.5","","image-keyboard-response","107","126456","0.0-18.0","","img/animals/S5.jpg","53","5","Ns6,baseline","53","true","",""
"null","","html-keyboard-response","108","126671","0.0-19.0","","","null","","","","","",""
"1584","","image-keyboard-response","109","128256","0.0-20.0","","img/animals/S4.jpg","52","4","Ns6,baseline","52","true","",""
"null","","html-keyboard-response","110","128457","0.0-21.0","","","null","","","","","",""
"709.7999999821186","","image-keyboard-response","111","129168","0.0-22.0","","img/animals/S4.jpg","52","4","Ns6,baseline","52","true","",""
"null","","html-keyboard-response","112","129369","0.0-23.0","","","null","","","","","",""
"null","","image-keyboard-response","113","131871","0.0-24.0","","img/animals/S6.jpg","null","6","Ns6,baseline","54","false","",""
"null","","html-keyboard-response","114","132073","0.0-25.0","","","null","","","","","",""
"1022.3000000119209","","image-keyboard-response","115","133096","0.0-26.0","","img/animals/S2.jpg","50","2","Ns6,baseline","50","true","",""
"null","","html-keyboard-response","116","133297","0.0-27.0","","","null","","","","","",""
"1453.5999999940395","","image-keyboard-response","117","134752","0.0-28.0","","img/animals/S2.jpg","50","2","Ns6,baseline","50","true","",""
"null","","html-keyboard-response","118","134954","0.0-29.0","","","null","","","","","",""
"null","","image-keyboard-response","119","137456","0.0-30.0","","img/animals/S6.jpg","null","6","Ns6,baseline","54","false","",""
"null","","html-keyboard-response","120","137658","0.0-31.0","","","null","","","","","",""
"1204.5999999940395","","image-keyboard-response","121","138864","0.0-32.0","","img/animals/S1.jpg","49","1","Ns6,baseline","49","true","",""
"null","","html-keyboard-response","122","139066","0.0-33.0","","","null","","","","","",""
"1245.300000011921","","image-keyboard-response","123","140312","0.0-34.0","","img/animals/S4.jpg","52","4","Ns6,baseline","52","true","",""
"null","","html-keyboard-response","124","140514","0.0-35.0","","","null","","","","","",""
"581.3999999761581","","image-keyboard-response","125","141096","0.0-36.0","","img/animals/S4.jpg","52","4","Ns6,baseline","52","true","",""
"null","","html-keyboard-response","126","141298","0.0-37.0","","","null","","","","","",""
"null","","image-keyboard-response","127","143799","0.0-38.0","","img/animals/S6.jpg","null","6","Ns6,baseline","54","false","",""
"null","","html-keyboard-response","128","144001","0.0-39.0","","","null","","","","","",""
"1118.0999999940395","","image-keyboard-response","129","145120","0.0-40.0","","img/animals/S3.jpg","51","3","Ns6,baseline","51","true","",""
"null","","html-keyboard-response","130","145322","0.0-41.0","","","null","","","","","",""
"956.9000000059605","","image-keyboard-response","131","146280","0.0-42.0","","img/animals/S3.jpg","51","3","Ns6,baseline","51","true","",""
"null","","html-keyboard-response","132","146482","0.0-43.0","","","null","","","","","",""
"null","","image-keyboard-response","133","148985","0.0-44.0","","img/animals/S6.jpg","null","6","Ns6,baseline","54","false","",""
"null","","html-keyboard-response","134","149186","0.0-45.0","","","null","","","","","",""
"null","","image-keyboard-response","135","151688","0.0-46.0","","img/animals/S6.jpg","null","6","Ns6,baseline","54","false","",""
"null","","html-keyboard-response","136","151890","0.0-47.0","","","null","","","","","",""
"1077.199999988079","","image-keyboard-response","137","152968","0.0-48.0","","img/animals/S2.jpg","50","2","Ns6,baseline","50","true","",""
"null","","html-keyboard-response","138","153169","0.0-49.0","","","null","","","","","",""
"733.8999999761581","","image-keyboard-response","139","153904","0.0-50.0","","img/animals/S2.jpg","50","2","Ns6,baseline","50","true","",""
"null","","html-keyboard-response","140","154105","0.0-51.0","","","null","","","","","",""
"926","","image-keyboard-response","141","155032","0.0-52.0","","img/animals/S1.jpg","49","1","Ns6,baseline","49","true","",""
"null","","html-keyboard-response","142","155234","0.0-53.0","","","null","","","","","",""
"1637","","image-keyboard-response","143","156872","0.0-54.0","","img/animals/S3.jpg","51","3","Ns6,baseline","51","true","",""
"null","","html-keyboard-response","144","157073","0.0-55.0","","","null","","","","","",""
"1755.4000000059605","","image-keyboard-response","145","158829","0.0-56.0","","img/animals/S4.jpg","52","4","Ns6,baseline","52","true","",""
"null","","html-keyboard-response","146","159032","0.0-57.0","","","null","","","","","",""
"615.0999999940395","","image-keyboard-response","147","159648","0.0-58.0","","img/animals/S4.jpg","52","4","Ns6,baseline","52","true","",""
"null","","html-keyboard-response","148","159860","0.0-59.0","","","null","","","","","",""
"null","","image-keyboard-response","149","162362","0.0-60.0","","img/animals/S6.jpg","null","6","Ns6,baseline","54","false","",""
"null","","html-keyboard-response","150","162563","0.0-61.0","","","null","","","","","",""
"1363.699999988079","","image-keyboard-response","151","163928","0.0-62.0","","img/animals/S1.jpg","49","1","Ns6,baseline","49","true","",""
"null","","html-keyboard-response","152","164129","0.0-63.0","","","null","","","","","",""
"1445.5999999940395","","image-keyboard-response","153","165576","0.0-64.0","","img/animals/S4.jpg","52","4","Ns6,baseline","52","true","",""
"null","","html-keyboard-response","154","165778","0.0-65.0","","","null","","","","","",""
"709.0999999940395","","image-keyboard-response","155","166488","0.0-66.0","","img/animals/S4.jpg","52","4","Ns6,baseline","52","true","",""
"null","","html-keyboard-response","156","166689","0.0-67.0","","","null","","","","","",""
"null","","image-keyboard-response","157","169192","0.0-68.0","","img/animals/S6.jpg","null","6","Ns6,baseline","54","false","",""
"null","","html-keyboard-response","158","169393","0.0-69.0","","","null","","","","","",""
"1006.0999999940395","","image-keyboard-response","159","170400","0.0-70.0","","img/animals/S1.jpg","49","1","Ns6,baseline","49","true","",""
"null","","html-keyboard-response","160","170601","0.0-71.0","","","null","","","","","",""
"1238.0999999940395","","image-keyboard-response","161","171840","0.0-72.0","","img/animals/S3.jpg","51","3","Ns6,baseline","51","true","",""
"null","","html-keyboard-response","162","172041","0.0-73.0","","","null","","","","","",""
"1718.2000000178814","","image-keyboard-response","163","173760","0.0-74.0","","img/animals/S2.jpg","50","2","Ns6,baseline","50","true","",""
"null","","html-keyboard-response","164","173961","0.0-75.0","","","null","","","","","",""
"1006.0999999940395","","image-keyboard-response","165","174968","0.0-76.0","","img/animals/S5.jpg","53","5","Ns6,baseline","53","true","",""
"null","","html-keyboard-response","166","175170","0.0-77.0","","","null","","","","","",""
"1685.800000011921","","image-keyboard-response","167","176856","0.0-78.0","","img/animals/S5.jpg","53","5","Ns6,baseline","53","true","",""
"null","","html-keyboard-response","168","177059","0.0-79.0","","","null","","","","","",""
"1148.300000011921","","image-keyboard-response","169","178208","0.0-80.0","","img/animals/S3.jpg","51","3","Ns6,baseline","51","true","",""
"null","","html-keyboard-response","170","178409","0.0-81.0","","","null","","","","","",""
"886.5","","image-keyboard-response","171","179296","0.0-82.0","","img/animals/S2.jpg","50","2","Ns6,baseline","50","true","",""
"null","","html-keyboard-response","172","179498","0.0-83.0","","","null","","","","","",""
"1004.7999999821186","","image-keyboard-response","173","180504","0.0-84.0","","img/animals/S5.jpg","53","5","Ns6,baseline","53","true","",""
"null","","html-keyboard-response","174","180706","0.0-85.0","","","null","","","","","",""
"620.9000000059605","","image-keyboard-response","175","181328","0.0-86.0","","img/animals/S5.jpg","53","5","Ns6,baseline","53","true","",""
"null","","html-keyboard-response","176","181530","0.0-87.0","","","null","","","","","",""
"605.5999999940395","","image-keyboard-response","177","182136","0.0-88.0","","img/animals/S5.jpg","53","5","Ns6,baseline","53","true","",""
"null","","html-keyboard-response","178","182345","0.0-89.0","","","null","","","","","",""
"926.0999999940395","","image-keyboard-response","179","183272","0.0-90.0","","img/animals/S1.jpg","49","1","Ns6,baseline","49","true","",""
"null","","html-keyboard-response","180","183474","0.0-91.0","","","null","","","","","",""
"685.5999999940395","","image-keyboard-response","181","184160","0.0-92.0","","img/animals/S5.jpg","53","5","Ns6,baseline","53","true","",""
"null","","html-keyboard-response","182","184362","0.0-93.0","","","null","","","","","",""
"1429","","image-keyboard-response","183","185792","0.0-94.0","","img/animals/S4.jpg","52","4","Ns6,baseline","52","true","",""
"null","","html-keyboard-response","184","185993","0.0-95.0","","","null","","","","","",""
"1462.199999988079","","image-keyboard-response","185","187456","0.0-96.0","","img/animals/S1.jpg","49","1","Ns6,baseline","49","true","",""
"null","","html-keyboard-response","186","187658","0.0-97.0","","","null","","","","","",""
"1397.300000011921","","image-keyboard-response","187","189056","0.0-98.0","","img/animals/S3.jpg","51","3","Ns6,baseline","51","true","",""
"null","","html-keyboard-response","188","189257","0.0-99.0","","","null","","","","","",""
"749.7000000178814","","image-keyboard-response","189","190008","0.0-100.0","","img/animals/S5.jpg","53","5","Ns6,baseline","53","true","",""
"null","","html-keyboard-response","190","190210","0.0-101.0","","","null","","","","","",""
"1218.5999999940395","","image-keyboard-response","191","191430","0.0-102.0","","img/animals/S3.jpg","51","3","Ns6,baseline","51","true","",""
"null","","html-keyboard-response","192","191631","0.0-103.0","","","null","","","","","",""
"905","","image-keyboard-response","193","192537","0.0-104.0","","img/animals/S1.jpg","49","1","Ns6,baseline","49","true","",""
"null","","html-keyboard-response","194","192739","0.0-105.0","","","null","","","","","",""
"843.9000000059605","","image-keyboard-response","195","193584","0.0-106.0","","img/animals/S5.jpg","53","5","Ns6,baseline","53","true","",""
"null","","html-keyboard-response","196","193785","0.0-107.0","","","null","","","","","",""
"678.5999999940395","","image-keyboard-response","197","194465","0.0-108.0","","img/animals/S5.jpg","53","5","Ns6,baseline","53","true","",""
"null","","html-keyboard-response","198","194667","0.0-109.0","","","null","","","","","",""
"932.1999999880791","","image-keyboard-response","199","195600","0.0-110.0","","img/animals/S2.jpg","50","2","Ns6,baseline","50","true","",""
"null","","html-keyboard-response","200","195801","0.0-111.0","","","null","","","","","",""
"526.9000000059605","","image-keyboard-response","201","196328","0.0-112.0","","img/animals/S2.jpg","50","2","Ns6,baseline","50","true","",""
"null","","html-keyboard-response","202","196531","0.0-113.0","","","null","","","","","",""
"932.6000000238419","","image-keyboard-response","203","197464","0.0-114.0","","img/animals/S1.jpg","49","1","Ns6,baseline","49","true","",""
"null","","html-keyboard-response","204","197666","0.0-115.0","","","null","","","","","",""
"1389.4000000059605","","image-keyboard-response","205","199056","0.0-116.0","","img/animals/S5.jpg","53","5","Ns6,baseline","53","true","",""
"null","","html-keyboard-response","206","199258","0.0-117.0","","","null","","","","","",""
"1117.9000000059605","","image-keyboard-response","207","200377","0.0-118.0","","img/animals/S3.jpg","51","3","Ns6,baseline","51","true","",""
"null","","html-keyboard-response","208","200579","0.0-119.0","","","null","","","","","",""
"null","","image-keyboard-response","209","203081","0.0-120.0","","img/animals/S6.jpg","null","6","Ns6,baseline","54","false","",""
"null","","html-keyboard-response","210","203282","0.0-121.0","","","null","","","","","",""
"925.5999999940395","","image-keyboard-response","211","204209","0.0-122.0","","img/animals/S5.jpg","53","5","Ns6,baseline","53","true","",""
"null","","html-keyboard-response","212","204411","0.0-123.0","","","null","","","","","",""
"1819.800000011921","","image-keyboard-response","213","206232","0.0-124.0","","img/animals/S4.jpg","52","4","Ns6,baseline","52","true","",""
"null","","html-keyboard-response","214","206434","0.0-125.0","","","null","","","","","",""
"null","","image-keyboard-response","215","208936","0.0-126.0","","img/animals/S6.jpg","null","6","Ns6,baseline","54","false","",""
"null","","html-keyboard-response","216","209138","0.0-127.0","","","null","","","","","",""
"1100.4000000059605","","image-keyboard-response","217","210240","0.0-128.0","","img/animals/S2.jpg","50","2","Ns6,baseline","50","true","",""
"null","","html-keyboard-response","218","210442","0.0-129.0","","","null","","","","","",""
"null","","image-keyboard-response","219","212945","0.0-130.0","","img/animals/S6.jpg","null","6","Ns6,baseline","54","false","",""
"null","","html-keyboard-response","220","213146","0.0-131.0","","","null","","","","","",""
"null","","image-keyboard-response","221","215647","0.0-132.0","","img/animals/S6.jpg","null","6","Ns6,baseline","54","false","",""
"null","","html-keyboard-response","222","215849","0.0-133.0","","","null","","","","","",""
"null","","image-keyboard-response","223","218350","0.0-134.0","","img/animals/S6.jpg","null","6","Ns6,baseline","54","false","",""
"null","","html-keyboard-response","224","218553","0.0-135.0","","","null","","","","","",""
"895.0999999940395","","image-keyboard-response","225","219449","0.0-136.0","","img/animals/S2.jpg","50","2","Ns6,baseline","50","true","",""
"null","","html-keyboard-response","226","219651","0.0-137.0","","","null","","","","","",""
"908.0999999940395","","image-keyboard-response","227","220560","0.0-138.0","","img/animals/S3.jpg","51","3","Ns6,baseline","51","true","",""
"null","","html-keyboard-response","228","220762","0.0-139.0","","","null","","","","","",""
"1116.699999988079","","image-keyboard-response","229","221880","0.0-140.0","","img/animals/S3.jpg","51","3","Ns6,baseline","51","true","",""
"null","","html-keyboard-response","230","222082","0.0-141.0","","","null","","","","","",""
"2333.5","","image-keyboard-response","231","224416","0.0-142.0","","img/animals/S1.jpg","49","1","Ns6,baseline","49","true","",""
"null","","html-keyboard-response","232","224618","0.0-143.0","","","null","","","","","",""
"613.5","","image-keyboard-response","233","225232","0.0-144.0","","img/animals/S1.jpg","49","1","Ns6,baseline","49","true","",""
"null","","html-keyboard-response","234","225435","0.0-145.0","","","null","","","","","",""
"1724.9000000059605","","image-keyboard-response","235","227161","0.0-146.0","","img/animals/S4.jpg","52","4","Ns6,baseline","52","true","",""
"null","","html-keyboard-response","236","227362","0.0-147.0","","","null","","","","","",""
"1397.4000000059605","","image-keyboard-response","237","228760","0.0-148.0","","img/animals/S2.jpg","50","2","Ns6,baseline","50","true","",""
"null","","html-keyboard-response","238","228962","0.0-149.0","","","null","","","","","",""
"1157.0999999940395","","image-keyboard-response","239","230120","0.0-150.0","","img/animals/S3.jpg","51","3","Ns6,baseline","51","true","",""
"null","","html-keyboard-response","240","230322","0.0-151.0","","","null","","","","","",""
"829.1000000238419","","image-keyboard-response","241","231152","0.0-152.0","","img/animals/S1.jpg","49","1","Ns6,baseline","49","true","",""
"null","","html-keyboard-response","242","231355","0.0-153.0","","","null","","","","","",""
"639","","image-keyboard-response","243","231994","0.0-154.0","","img/animals/S1.jpg","49","1","Ns6,baseline","49","true","",""
"null","","html-keyboard-response","244","232197","0.0-155.0","","","null","","","","","",""
"1178.7000000178814","","image-keyboard-response","245","233376","0.0-156.0","","img/animals/S4.jpg","52","4","Ns6,baseline","52","true","",""
"null","","html-keyboard-response","246","233578","0.0-157.0","","","null","","","","","",""
"null","","image-keyboard-response","247","236080","0.0-158.0","","img/animals/S6.jpg","null","6","Ns6,baseline","54","false","",""
"null","","html-keyboard-response","248","236283","0.0-159.0","","","null","","","","","",""
"1245","","image-keyboard-response","249","237529","0.0-160.0","","img/animals/S2.jpg","50","2","Ns6,baseline","50","true","",""
"null","","html-keyboard-response","250","237730","0.0-161.0","","","null","","","","","",""
"1380.5","","image-keyboard-response","251","239112","0.0-162.0","","img/animals/S1.jpg","49","1","Ns6,baseline","49","true","",""
"null","","html-keyboard-response","252","239313","0.0-163.0","","","null","","","","","",""
"null","","image-keyboard-response","253","241816","0.0-164.0","","img/animals/S6.jpg","null","6","Ns6,baseline","54","false","",""
"null","","html-keyboard-response","254","242017","0.0-165.0","","","null","","","","","",""
"1048.6000000238419","","image-keyboard-response","255","243067","0.0-166.0","","img/animals/S2.jpg","50","2","Ns6,baseline","50","true","",""
"null","","html-keyboard-response","256","243268","0.0-167.0","","","null","","","","","",""
"595.3000000119209","","image-keyboard-response","257","243863","0.0-168.0","","img/animals/S2.jpg","50","2","Ns6,baseline","50","true","",""
"null","","html-keyboard-response","258","244064","0.0-169.0","","","null","","","","","",""
"678.3999999761581","","image-keyboard-response","259","244744","0.0-170.0","","img/animals/S2.jpg","50","2","Ns6,baseline","50","true","",""
"null","","html-keyboard-response","260","244945","0.0-171.0","","","null","","","","","",""
"1109.300000011921","","image-keyboard-response","261","246055","0.0-172.0","","img/animals/S5.jpg","53","5","Ns6,baseline","53","true","",""
"null","","html-keyboard-response","262","246258","0.0-173.0","","","null","","","","","",""
"757.2999999821186","","image-keyboard-response","263","247016","0.0-174.0","","img/animals/S2.jpg","50","2","Ns6,baseline","50","true","",""
"null","","html-keyboard-response","264","247218","0.0-175.0","","","null","","","","","",""
"516.9000000059605","","image-keyboard-response","265","247736","0.0-176.0","","img/animals/S2.jpg","50","2","Ns6,baseline","50","true","",""
"null","","html-keyboard-response","266","247937","0.0-177.0","","","null","","","","","",""
"1109.6000000238419","","image-keyboard-response","267","249048","0.0-178.0","","img/animals/S4.jpg","52","4","Ns6,baseline","52","true","",""
"null","","html-keyboard-response","268","249250","0.0-179.0","","","null","","","","","",""
"757.3000000119209","","image-keyboard-response","269","250008","0.0-180.0","","img/animals/S5.jpg","53","5","Ns6,baseline","53","true","",""
"null","","html-keyboard-response","270","250210","0.0-181.0","","","null","","","","","",""
"1028.699999988079","","image-keyboard-response","271","251240","0.0-182.0","","img/animals/S4.jpg","52","4","Ns6,baseline","52","true","",""
"null","","html-keyboard-response","272","251441","0.0-183.0","","","null","","","","","",""
"1198","","image-keyboard-response","273","252640","0.0-184.0","","img/animals/S1.jpg","49","1","Ns6,baseline","49","true","",""
"null","","html-keyboard-response","274","252842","0.0-185.0","","","null","","","","","",""
"1325.0999999940395","","image-keyboard-response","275","254168","0.0-186.0","","img/animals/S3.jpg","51","3","Ns6,baseline","51","true","",""
"null","","html-keyboard-response","276","254369","0.0-187.0","","","null","","","","","",""
"1062.300000011921","","image-keyboard-response","277","255432","0.0-188.0","","img/animals/S4.jpg","49","4","Ns6,baseline","52","false","",""
"null","","html-keyboard-response","278","255634","0.0-189.0","","","null","","","","","",""
"1565.0999999940395","","image-keyboard-response","279","257200","0.0-190.0","","img/animals/S1.jpg","49","1","Ns6,baseline","49","true","",""
"null","","html-keyboard-response","280","257401","0.0-191.0","","","null","","","","","",""
"1013.7000000178814","","image-keyboard-response","281","258416","0.0-192.0","","img/animals/S3.jpg","51","3","Ns6,baseline","51","true","",""
"null","","html-keyboard-response","282","258618","0.0-193.0","","","null","","","","","",""
"null","","image-keyboard-response","283","261120","0.0-194.0","","img/animals/S6.jpg","null","6","Ns6,baseline","54","false","",""
"null","","html-keyboard-response","284","261321","0.0-195.0","","","null","","","","","",""
"821.4000000059605","","image-keyboard-response","285","262143","0.0-196.0","","img/animals/S5.jpg","53","5","Ns6,baseline","53","true","",""
"null","","html-keyboard-response","286","262345","0.0-197.0","","","null","","","","","",""
"1126.0999999940395","","image-keyboard-response","287","263472","0.0-198.0","","img/animals/S3.jpg","51","3","Ns6,baseline","51","true","",""
"null","","html-keyboard-response","288","263673","0.0-199.0","","","null","","","","","",""
"832.1999999880791","","image-keyboard-response","289","264506","0.0-200.0","","img/animals/S5.jpg","53","5","Ns6,baseline","53","true","",""
"null","","html-keyboard-response","290","264708","0.0-201.0","","","null","","","","","",""
"938.5999999940395","","image-keyboard-response","291","265648","0.0-202.0","","img/animals/S3.jpg","51","3","Ns6,baseline","51","true","",""
"null","","html-keyboard-response","292","265849","0.0-203.0","","","null","","","","","",""
"1589.300000011921","","image-keyboard-response","293","267440","0.0-204.0","","img/animals/S4.jpg","52","4","Ns6,baseline","52","true","",""
"null","","html-keyboard-response","294","267640","0.0-205.0","","","null","","","","","",""
"null","","image-keyboard-response","295","270142","0.0-206.0","","img/animals/S6.jpg","null","6","Ns6,baseline","54","false","",""
"null","","html-keyboard-response","296","270343","0.0-207.0","","","null","","","","","",""
"1471.7000000178814","","image-keyboard-response","297","271816","0.0-208.0","","img/animals/S3.jpg","51","3","Ns6,baseline","51","true","",""
"null","","html-keyboard-response","298","272018","0.0-209.0","","","null","","","","","",""
"null","","image-keyboard-response","299","274520","0.0-210.0","","img/animals/S6.jpg","null","6","Ns6,baseline","54","false","",""
"null","","html-keyboard-response","300","274723","0.0-211.0","","","null","","","","","",""
"1282.4000000059605","","image-keyboard-response","301","276006","0.0-212.0","","img/animals/S4.jpg","52","4","Ns6,baseline","52","true","",""
"null","","html-keyboard-response","302","276220","0.0-213.0","","","null","","","","","",""
"547.1000000238419","","image-keyboard-response","303","276768","0.0-214.0","","img/animals/S4.jpg","52","4","Ns6,baseline","52","true","",""
"null","","html-keyboard-response","304","276971","0.0-215.0","","","null","","","","","",""
"1052.0999999940395","","image-keyboard-response","305","278024","0.0-216.0","","img/animals/S3.jpg","51","3","Ns6,baseline","51","true","",""
"null","","html-keyboard-response","306","278226","0.0-217.0","","","null","","","","","",""
"null","","image-keyboard-response","307","280729","0.0-218.0","","img/animals/S6.jpg","null","6","Ns6,baseline","54","false","",""
"null","","html-keyboard-response","308","280931","0.0-219.0","","","null","","","","","",""
"1044.0999999940395","","image-keyboard-response","309","281976","0.0-220.0","","img/animals/S3.jpg","52","3","Ns6,baseline","51","false","",""
"null","","html-keyboard-response","310","282177","0.0-221.0","","","null","","","","","",""
"1478","","image-keyboard-response","311","283656","0.0-222.0","","img/animals/S4.jpg","52","4","Ns6,baseline","52","true","",""
"null","","html-keyboard-response","312","283858","0.0-223.0","","","null","","","","","",""
"957.0999999940395","","image-keyboard-response","313","284816","0.0-224.0","","img/animals/S2.jpg","50","2","Ns6,baseline","50","true","",""
"null","","html-keyboard-response","314","285017","0.0-225.0","","","null","","","","","",""
"null","","image-keyboard-response","315","287519","0.0-226.0","","img/animals/S6.jpg","null","6","Ns6,baseline","54","false","",""
"null","","html-keyboard-response","316","287721","0.0-227.0","","","null","","","","","",""
"1092.5","","image-keyboard-response","317","288815","0.0-228.0","","img/animals/S5.jpg","53","5","Ns6,baseline","53","true","",""
"null","","html-keyboard-response","318","289017","0.0-229.0","","","null","","","","","",""
"1614.300000011921","","image-keyboard-response","319","290632","0.0-230.0","","img/animals/S4.jpg","52","4","Ns6,baseline","52","true","",""
"null","","html-keyboard-response","320","290834","0.0-231.0","","","null","","","","","",""
"525.1000000238419","","image-keyboard-response","321","291360","0.0-232.0","","img/animals/S4.jpg","52","4","Ns6,baseline","52","true","",""
"null","","html-keyboard-response","322","291562","0.0-233.0","","","null","","","","","",""
"732.7999999821186","","image-keyboard-response","323","292296","0.0-234.0","","img/animals/S5.jpg","53","5","Ns6,baseline","53","true","",""
"null","","html-keyboard-response","324","292498","0.0-235.0","","","null","","","","","",""
"null","","image-keyboard-response","325","295000","0.0-236.0","","img/animals/S6.jpg","null","6","Ns6,baseline","54","false","",""
"null","","html-keyboard-response","326","295202","0.0-237.0","","","null","","","","","",""
"null","","image-keyboard-response","327","297703","0.0-238.0","","img/animals/S6.jpg","null","6","Ns6,baseline","54","false","",""
"null","","html-keyboard-response","328","297906","0.0-239.0","","","null","","","","","",""
"661.1999999880791","","image-keyboard-response","329","298568","0.0-240.0","","img/animals/S5.jpg","53","5","Ns6,baseline","53","true","",""
"null","","html-keyboard-response","330","298769","0.0-241.0","","","null","","","","","",""
"1419.0999999940395","","image-keyboard-response","331","300189","0.0-242.0","","img/animals/S3.jpg","51","3","Ns6,baseline","51","true","",""
"null","","html-keyboard-response","332","300391","0.0-243.0","","","null","","","","","",""
"1183.800000011921","","image-keyboard-response","333","301575","0.0-244.0","","img/animals/S2.jpg","50","2","Ns6,baseline","50","true","",""
"null","","html-keyboard-response","334","301777","0.0-245.0","","","null","","","","","",""
"765.8000000119209","","image-keyboard-response","335","302544","0.0-246.0","","img/animals/S5.jpg","53","5","Ns6,baseline","53","true","",""
"null","","html-keyboard-response","336","302746","0.0-247.0","","","null","","","","","",""
"573.1999999880791","","image-keyboard-response","337","303320","0.0-248.0","","img/animals/S5.jpg","53","5","Ns6,baseline","53","true","",""
"null","","html-keyboard-response","338","303522","0.0-249.0","","","null","","","","","",""
"757","","image-keyboard-response","339","304280","0.0-250.0","","img/animals/S1.jpg","49","1","Ns6,baseline","49","true","",""
"null","","html-keyboard-response","340","304481","0.0-251.0","","","null","","","","","",""
"null","","image-keyboard-response","341","306984","0.0-252.0","","img/animals/S6.jpg","null","6","Ns6,baseline","54","false","",""
"null","","html-keyboard-response","342","307185","0.0-253.0","","","null","","","","","",""
"1237.699999988079","","image-keyboard-response","343","308424","0.0-254.0","","img/animals/S1.jpg","50","1","Ns6,baseline","49","false","",""
"null","","html-keyboard-response","344","308639","0.0-255.0","","","null","","","","","",""
"784","","image-keyboard-response","345","309424","0.0-256.0","","img/animals/S2.jpg","50","2","Ns6,baseline","50","true","",""
"null","","html-keyboard-response","346","309626","0.0-257.0","","","null","","","","","",""
"1020.4000000059605","","image-keyboard-response","347","310648","0.0-258.0","","img/animals/S5.jpg","53","5","Ns6,baseline","53","true","",""
"null","","html-keyboard-response","348","310849","0.0-259.0","","","null","","","","","",""
"1062.0999999940395","","image-keyboard-response","349","311912","0.0-260.0","","img/animals/S3.jpg","51","3","Ns6,baseline","51","true","",""
"null","","html-keyboard-response","350","312115","0.0-261.0","","","null","","","","","",""
"1708","","image-keyboard-response","351","313824","0.0-262.0","","img/animals/S2.jpg","50","2","Ns6,baseline","50","true","",""
"null","","html-keyboard-response","352","314026","0.0-263.0","","","null","","","","","",""
"1012.3999999761581","","image-keyboard-response","353","315040","0.0-264.0","","img/animals/S3.jpg","51","3","Ns6,baseline","51","true","",""
"null","","html-keyboard-response","354","315241","0.0-265.0","","","null","","","","","",""
"797.6000000238419","","image-keyboard-response","355","316040","0.0-266.0","","img/animals/S2.jpg","50","2","Ns6,baseline","50","true","",""
"null","","html-keyboard-response","356","316242","0.0-267.0","","","null","","","","","",""
"827.9000000059605","","image-keyboard-response","357","317072","0.0-268.0","","img/animals/S5.jpg","53","5","Ns6,baseline","53","true","",""
"null","","html-keyboard-response","358","317274","0.0-269.0","","","null","","","","","",""
"1541.0999999940395","","image-keyboard-response","359","318815","0.0-270.0","","img/animals/S4.jpg","52","4","Ns6,baseline","52","true","",""
"null","","html-keyboard-response","360","319018","0.0-271.0","","","null","","","","","",""
"1004.7999999821186","","image-keyboard-response","361","320024","0.0-272.0","","img/animals/S3.jpg","51","3","Ns6,baseline","51","true","",""
"null","","html-keyboard-response","362","320226","0.0-273.0","","","null","","","","","",""
"508.59999999403954","","image-keyboard-response","363","320736","0.0-274.0","","img/animals/S3.jpg","51","3","Ns6,baseline","51","true","",""
"null","","html-keyboard-response","364","320937","0.0-275.0","","","null","","","","","",""
"437.40000000596046","","image-keyboard-response","365","321376","0.0-276.0","","img/animals/S3.jpg","51","3","Ns6,baseline","51","true","",""
"null","","html-keyboard-response","366","321577","0.0-277.0","","","null","","","","","",""
"1310","","image-keyboard-response","367","322888","0.0-278.0","","img/animals/S1.jpg","49","1","Ns6,baseline","49","true","",""
"null","","html-keyboard-response","368","323090","0.0-279.0","","","null","","","","","",""
"572.8000000119209","","image-keyboard-response","369","323663","0.0-280.0","","img/animals/S1.jpg","49","1","Ns6,baseline","49","true","",""
"null","","html-keyboard-response","370","323865","0.0-281.0","","","null","","","","","",""
"1269.7000000178814","","image-keyboard-response","371","325136","0.0-282.0","","img/animals/S3.jpg","51","3","Ns6,baseline","51","true","",""
"null","","html-keyboard-response","372","325338","0.0-283.0","","","null","","","","","",""
"1052.800000011921","","image-keyboard-response","373","326392","0.0-284.0","","img/animals/S4.jpg","52","4","Ns6,baseline","52","true","",""
"null","","html-keyboard-response","374","326594","0.0-285.0","","","null","","","","","",""
"1877.0999999940395","","image-keyboard-response","375","328472","0.0-286.0","","img/animals/S1.jpg","49","1","Ns6,baseline","49","true","",""
"null","","html-keyboard-response","376","328673","0.0-287.0","","","null","","","","","",""
"null","","image-keyboard-response","377","331175","0.0-288.0","","img/animals/S6.jpg","null","6","Ns6,baseline","54","false","",""
"null","","html-keyboard-response","378","331378","0.0-289.0","","","null","","","","","",""
"1772","","image-keyboard-response","379","333151","0.0-290.0","","img/animals/S4.jpg","52","4","Ns6,baseline","52","true","",""
"null","","html-keyboard-response","380","333354","0.0-291.0","","","null","","","","","",""
"1301.0999999940395","","image-keyboard-response","381","334656","0.0-292.0","","img/animals/S1.jpg","49","1","Ns6,baseline","49","true","",""
"null","","html-keyboard-response","382","334858","0.0-293.0","","","null","","","","","",""
"733.2000000178814","","image-keyboard-response","383","335592","0.0-294.0","","img/animals/S5.jpg","53","5","Ns6,baseline","53","true","",""
"null","","html-keyboard-response","384","335794","0.0-295.0","","","null","","","","","",""
"684.7999999821186","","image-keyboard-response","385","336480","0.0-296.0","","img/animals/S1.jpg","49","1","Ns6,baseline","49","true","",""
"null","","html-keyboard-response","386","336681","0.0-297.0","","","null","","","","","",""
"null","","image-keyboard-response","387","339183","0.0-298.0","","img/animals/S6.jpg","null","6","Ns6,baseline","54","false","",""
"null","","html-keyboard-response","388","339384","0.0-299.0","","","null","","","","","",""
"726.5999999940395","","image-keyboard-response","389","340112","0.0-300.0","","img/animals/S5.jpg","53","5","Ns6,baseline","53","true","",""
"null","","html-keyboard-response","390","340326","0.0-301.0","","","null","","","","","",""
"1640.4000000059605","","image-keyboard-response","391","341968","0.0-302.0","","img/animals/S4.jpg","52","4","Ns6,baseline","52","true","",""
"null","","html-keyboard-response","392","342169","0.0-303.0","","","null","","","","","",""
"3300.4000000059605","","html-keyboard-response","393","345471","0.0-304.0","","<p class=""center-content"">You have completed a block! </p><p class=""center-content"">Press any key on the keyboard to continue to the next block,</p><p class=""center-content"">or wait for the automatic progression to the next block after one minute.</p>","32","","","","","",""
"null","","image-keyboard-response","394","347973","0.0-305.0","","img/animals/S6.jpg","null","6","Ns6,train","54","false","",""
"null","","html-keyboard-response","395","348174","0.0-306.0","","","null","","","","","",""
"1256.9000000059605","","image-keyboard-response","396","349432","0.0-307.0","","img/animals/S1.jpg","49","1","Ns6,train","49","true","",""
"null","","html-keyboard-response","397","349634","0.0-308.0","","","null","","","","","",""
"1276.5","","image-keyboard-response","398","350912","0.0-309.0","","img/animals/S3.jpg","51","3","Ns6,train","51","true","",""
"null","","html-keyboard-response","399","351113","0.0-310.0","","","null","","","","","",""
"613.5","","image-keyboard-response","400","351728","0.0-311.0","","img/animals/S3.jpg","51","3","Ns6,train","51","true","",""
"null","","html-keyboard-response","401","351930","0.0-312.0","","","null","","","","","",""
"733.0999999940395","","image-keyboard-response","402","352664","0.0-313.0","","img/animals/S5.jpg","53","5","Ns6,train","53","true","",""
"null","","html-keyboard-response","403","352867","0.0-314.0","","","null","","","","","",""
"null","","image-keyboard-response","404","355368","0.0-315.0","","img/animals/S6.jpg","null","6","Ns6,train","54","false","",""
"null","","html-keyboard-response","405","355570","0.0-316.0","","","null","","","","","",""
"null","","image-keyboard-response","406","358073","0.0-317.0","","img/animals/S6.jpg","null","6","Ns6,train","54","false","",""
"null","","html-keyboard-response","407","358275","0.0-318.0","","","null","","","","","",""
"811.4000000059605","","image-keyboard-response","408","359088","0.0-319.0","","img/animals/S3.jpg","51","3","Ns6,train","51","true","",""
"null","","html-keyboard-response","409","359290","0.0-320.0","","","null","","","","","",""
"1501.2999999821186","","image-keyboard-response","410","360792","0.0-321.0","","img/animals/S2.jpg","50","2","Ns6,train","50","true","",""
"null","","html-keyboard-response","411","360993","0.0-322.0","","","null","","","","","",""
"709.8000000119209","","image-keyboard-response","412","361704","0.0-323.0","","img/animals/S5.jpg","53","5","Ns6,train","53","true","",""
"null","","html-keyboard-response","413","361906","0.0-324.0","","","null","","","","","",""
"981.5999999940395","","image-keyboard-response","414","362888","0.0-325.0","","img/animals/S4.jpg","52","4","Ns6,train","52","true","",""
"null","","html-keyboard-response","415","363090","0.0-326.0","","","null","","","","","",""
"null","","image-keyboard-response","416","365593","0.0-327.0","","img/animals/S6.jpg","null","6","Ns6,train","54","false","",""
"null","","html-keyboard-response","417","365794","0.0-328.0","","","null","","","","","",""
"874.4000000059605","","image-keyboard-response","418","366670","0.0-329.0","","img/animals/S3.jpg","51","3","Ns6,train","51","true","",""
"null","","html-keyboard-response","419","366871","0.0-330.0","","","null","","","","","",""
"1375.3999999761581","","image-keyboard-response","420","368248","0.0-331.0","","img/animals/S2.jpg","50","2","Ns6,train","50","true","",""
"null","","html-keyboard-response","421","368449","0.0-332.0","","","null","","","","","",""
"517.4000000059605","","image-keyboard-response","422","368968","0.0-333.0","","img/animals/S2.jpg","50","2","Ns6,train","50","true","",""
"null","","html-keyboard-response","423","369169","0.0-334.0","","","null","","","","","",""
"605.5999999940395","","image-keyboard-response","424","369775","0.0-335.0","","img/animals/S1.jpg","49","1","Ns6,train","49","true","",""
"null","","html-keyboard-response","425","369977","0.0-336.0","","","null","","","","","",""
"798","","image-keyboard-response","426","370776","0.0-337.0","","img/animals/S3.jpg","51","3","Ns6,train","51","true","",""
"null","","html-keyboard-response","427","370978","0.0-338.0","","","null","","","","","",""
"716.3999999761581","","image-keyboard-response","428","371696","0.0-339.0","","img/animals/S2.jpg","50","2","Ns6,train","50","true","",""
"null","","html-keyboard-response","429","371897","0.0-340.0","","","null","","","","","",""
"1765.9000000059605","","image-keyboard-response","430","373664","0.0-341.0","","img/animals/S3.jpg","51","3","Ns6,train","51","true","",""
"null","","html-keyboard-response","431","373866","0.0-342.0","","","null","","","","","",""
"693.1999999880791","","image-keyboard-response","432","374560","0.0-343.0","","img/animals/S2.jpg","50","2","Ns6,train","50","true","",""
"null","","html-keyboard-response","433","374762","0.0-344.0","","","null","","","","","",""
"540.8000000119209","","image-keyboard-response","434","375304","0.0-345.0","","img/animals/S2.jpg","50","2","Ns6,train","50","true","",""
"null","","html-keyboard-response","435","375506","0.0-346.0","","","null","","","","","",""
"null","","image-keyboard-response","436","378007","0.0-347.0","","img/animals/S6.jpg","null","6","Ns6,train","54","false","",""
"null","","html-keyboard-response","437","378209","0.0-348.0","","","null","","","","","",""
"null","","image-keyboard-response","438","380712","0.0-349.0","","img/animals/S6.jpg","null","6","Ns6,train","54","false","",""
"null","","html-keyboard-response","439","380913","0.0-350.0","","","null","","","","","",""
"null","","image-keyboard-response","440","383416","0.0-351.0","","img/animals/S6.jpg","null","6","Ns6,train","54","false","",""
"null","","html-keyboard-response","441","383618","0.0-352.0","","","null","","","","","",""
"685","","image-keyboard-response","442","384304","0.0-353.0","","img/animals/S5.jpg","53","5","Ns6,train","53","true","",""
"null","","html-keyboard-response","443","384507","0.0-354.0","","","null","","","","","",""
"1052.0999999940395","","image-keyboard-response","444","385560","0.0-355.0","","img/animals/S4.jpg","52","4","Ns6,train","52","true","",""
"null","","html-keyboard-response","445","385761","0.0-356.0","","","null","","","","","",""
"1197.4000000059605","","image-keyboard-response","446","386960","0.0-357.0","","img/animals/S2.jpg","50","2","Ns6,train","50","true","",""
"null","","html-keyboard-response","447","387161","0.0-358.0","","","null","","","","","",""
"1390.5","","image-keyboard-response","448","388552","0.0-359.0","","img/animals/S3.jpg","51","3","Ns6,train","51","true","",""
"null","","html-keyboard-response","449","388754","0.0-360.0","","","null","","","","","",""
"null","","image-keyboard-response","450","391257","0.0-361.0","","img/animals/S6.jpg","null","6","Ns6,train","54","false","",""
"null","","html-keyboard-response","451","391457","0.0-362.0","","","null","","","","","",""
"701.9000000059605","","image-keyboard-response","452","392160","0.0-363.0","","img/animals/S5.jpg","53","5","Ns6,train","53","true","",""
"null","","html-keyboard-response","453","392373","0.0-364.0","","","null","","","","","",""
"857.6999999880791","","image-keyboard-response","454","393232","0.0-365.0","","img/animals/S4.jpg","52","4","Ns6,train","52","true","",""
"null","","html-keyboard-response","455","393433","0.0-366.0","","","null","","","","","",""
"1381.4000000059605","","image-keyboard-response","456","394816","0.0-367.0","","img/animals/S2.jpg","50","2","Ns6,train","50","true","",""
"null","","html-keyboard-response","457","395019","0.0-368.0","","","null","","","","","",""
"716.0999999940395","","image-keyboard-response","458","395736","0.0-369.0","","img/animals/S5.jpg","53","5","Ns6,train","53","true","",""
"null","","html-keyboard-response","459","395937","0.0-370.0","","","null","","","","","",""
"1037.9000000059605","","image-keyboard-response","460","396976","0.0-371.0","","img/animals/S4.jpg","52","4","Ns6,train","52","true","",""
"null","","html-keyboard-response","461","397178","0.0-372.0","","","null","","","","","",""
"709.0999999940395","","image-keyboard-response","462","397888","0.0-373.0","","img/animals/S5.jpg","53","5","Ns6,train","53","true","",""
"null","","html-keyboard-response","463","398095","0.0-374.0","","","null","","","","","",""
"1032.5","","image-keyboard-response","464","399128","0.0-375.0","","img/animals/S4.jpg","52","4","Ns6,train","52","true","",""
"null","","html-keyboard-response","465","399330","0.0-376.0","","","null","","","","","",""
"863.8000000119209","","image-keyboard-response","466","400195","0.0-377.0","","img/animals/S2.jpg","50","2","Ns6,train","50","true","",""
"null","","html-keyboard-response","467","400396","0.0-378.0","","","null","","","","","",""
"1155.0999999940395","","image-keyboard-response","468","401552","0.0-379.0","","img/animals/S3.jpg","51","3","Ns6,train","51","true","",""
"null","","html-keyboard-response","469","401753","0.0-380.0","","","null","","","","","",""
"669.7000000178814","","image-keyboard-response","470","402424","0.0-381.0","","img/animals/S3.jpg","51","3","Ns6,train","51","true","",""
"null","","html-keyboard-response","471","402626","0.0-382.0","","","null","","","","","",""
"1596.8999999761581","","image-keyboard-response","472","404224","0.0-383.0","","img/animals/S2.jpg","50","2","Ns6,train","50","true","",""
"null","","html-keyboard-response","473","404425","0.0-384.0","","","null","","","","","",""
"685.6999999880791","","image-keyboard-response","474","405112","0.0-385.0","","img/animals/S5.jpg","53","5","Ns6,train","53","true","",""
"null","","html-keyboard-response","475","405314","0.0-386.0","","","null","","","","","",""
"1021.3000000119209","","image-keyboard-response","476","406336","0.0-387.0","","img/animals/S2.jpg","50","2","Ns6,train","50","true","",""
"null","","html-keyboard-response","477","406537","0.0-388.0","","","null","","","","","",""
"1349.7000000178814","","image-keyboard-response","478","407888","0.0-389.0","","img/animals/S3.jpg","51","3","Ns6,train","51","true","",""
"null","","html-keyboard-response","479","408089","0.0-390.0","","","null","","","","","",""
"null","","image-keyboard-response","480","410590","0.0-391.0","","img/animals/S6.jpg","null","6","Ns6,train","54","false","",""
"null","","html-keyboard-response","481","410792","0.0-392.0","","","null","","","","","",""
"1257","","image-keyboard-response","482","412050","0.0-393.0","","img/animals/S2.jpg","50","2","Ns6,train","50","true","",""
"null","","html-keyboard-response","483","412252","0.0-394.0","","","null","","","","","",""
"546.8000000119209","","image-keyboard-response","484","412800","0.0-395.0","","img/animals/S2.jpg","50","2","Ns6,train","50","true","",""
"null","","html-keyboard-response","485","413001","0.0-396.0","","","null","","","","","",""
"773.5","","image-keyboard-response","486","413776","0.0-397.0","","img/animals/S3.jpg","51","3","Ns6,train","51","true","",""
"null","","html-keyboard-response","487","413977","0.0-398.0","","","null","","","","","",""
"557.7999999821186","","image-keyboard-response","488","414536","0.0-399.0","","img/animals/S3.jpg","51","3","Ns6,train","51","true","",""
"null","","html-keyboard-response","489","414749","0.0-400.0","","","null","","","","","",""
"905.7000000178814","","image-keyboard-response","490","415656","0.0-401.0","","img/animals/S1.jpg","49","1","Ns6,train","49","true","",""
"null","","html-keyboard-response","491","415858","0.0-402.0","","","null","","","","","",""
"532.8000000119209","","image-keyboard-response","492","416391","0.0-403.0","","img/animals/S1.jpg","49","1","Ns6,train","49","true","",""
"null","","html-keyboard-response","493","416593","0.0-404.0","","","null","","","","","",""
"null","","image-keyboard-response","494","419095","0.0-405.0","","img/animals/S6.jpg","null","6","Ns6,train","54","false","",""
"null","","html-keyboard-response","495","419296","0.0-406.0","","","null","","","","","",""
"null","","image-keyboard-response","496","421798","0.0-407.0","","img/animals/S6.jpg","null","6","Ns6,train","54","false","",""
"null","","html-keyboard-response","497","421999","0.0-408.0","","","null","","","","","",""
"1051.0999999940395","","image-keyboard-response","498","423051","0.0-409.0","","img/animals/S3.jpg","51","3","Ns6,train","51","true","",""
"null","","html-keyboard-response","499","423253","0.0-410.0","","","null","","","","","",""
"1433.699999988079","","image-keyboard-response","500","424688","0.0-411.0","","img/animals/S1.jpg","49","1","Ns6,train","49","true","",""
"null","","html-keyboard-response","501","424889","0.0-412.0","","","null","","","","","",""
"582.1999999880791","","image-keyboard-response","502","425472","0.0-413.0","","img/animals/S1.jpg","49","1","Ns6,train","49","true","",""
"null","","html-keyboard-response","503","425674","0.0-414.0","","","null","","","","","",""
"468.59999999403954","","image-keyboard-response","504","426144","0.0-415.0","","img/animals/S1.jpg","49","1","Ns6,train","49","true","",""
"null","","html-keyboard-response","505","426345","0.0-416.0","","","null","","","","","",""
"757.5","","image-keyboard-response","506","427104","0.0-417.0","","img/animals/S5.jpg","53","5","Ns6,train","53","true","",""
"null","","html-keyboard-response","507","427305","0.0-418.0","","","null","","","","","",""
"886.0999999940395","","image-keyboard-response","508","428192","0.0-419.0","","img/animals/S4.jpg","52","4","Ns6,train","52","true","",""
"null","","html-keyboard-response","509","428393","0.0-420.0","","","null","","","","","",""
"646","","image-keyboard-response","510","429040","0.0-421.0","","img/animals/S5.jpg","53","5","Ns6,train","53","true","",""
"null","","html-keyboard-response","511","429241","0.0-422.0","","","null","","","","","",""
"541.5","","image-keyboard-response","512","429784","0.0-423.0","","img/animals/S4.jpg","52","4","Ns6,train","52","true","",""
"null","","html-keyboard-response","513","429985","0.0-424.0","","","null","","","","","",""
"485.5","","image-keyboard-response","514","430472","0.0-425.0","","img/animals/S4.jpg","52","4","Ns6,train","52","true","",""
"null","","html-keyboard-response","515","430673","0.0-426.0","","","null","","","","","",""
"837.9000000059605","","image-keyboard-response","516","431512","0.0-427.0","","img/animals/S5.jpg","53","5","Ns6,train","53","true","",""
"null","","html-keyboard-response","517","431715","0.0-428.0","","","null","","","","","",""
"556.6999999880791","","image-keyboard-response","518","432272","0.0-429.0","","img/animals/S4.jpg","52","4","Ns6,train","52","true","",""
"null","","html-keyboard-response","519","432474","0.0-430.0","","","null","","","","","",""
"1549.699999988079","","image-keyboard-response","520","434024","0.0-431.0","","img/animals/S2.jpg","50","2","Ns6,train","50","true","",""
"null","","html-keyboard-response","521","434227","0.0-432.0","","","null","","","","","",""
"636.5","","image-keyboard-response","522","434865","0.0-433.0","","img/animals/S1.jpg","49","1","Ns6,train","49","true","",""
"null","","html-keyboard-response","523","435067","0.0-434.0","","","null","","","","","",""
"732","","image-keyboard-response","524","435800","0.0-435.0","","img/animals/S2.jpg","50","2","Ns6,train","50","true","",""
"null","","html-keyboard-response","525","436001","0.0-436.0","","","null","","","","","",""
"509.69999998807907","","image-keyboard-response","526","436512","0.0-437.0","","img/animals/S2.jpg","50","2","Ns6,train","50","true","",""
"null","","html-keyboard-response","527","436714","0.0-438.0","","","null","","","","","",""
"868.9000000059605","","image-keyboard-response","528","437584","0.0-439.0","","img/animals/S3.jpg","51","3","Ns6,train","51","true","",""
"null","","html-keyboard-response","529","437786","0.0-440.0","","","null","","","","","",""
"557.8000000119209","","image-keyboard-response","530","438344","0.0-441.0","","img/animals/S3.jpg","51","3","Ns6,train","51","true","",""
"null","","html-keyboard-response","531","438546","0.0-442.0","","","null","","","","","",""
"684.9000000059605","","image-keyboard-response","532","439232","0.0-443.0","","img/animals/S2.jpg","50","2","Ns6,train","50","true","",""
"null","","html-keyboard-response","533","439434","0.0-444.0","","","null","","","","","",""
"1972.9000000059605","","image-keyboard-response","534","441408","0.0-445.0","","img/animals/S5.jpg","53","5","Ns6,train","53","true","",""
"null","","html-keyboard-response","535","441609","0.0-446.0","","","null","","","","","",""
"806","","image-keyboard-response","536","442416","0.0-447.0","","img/animals/S4.jpg","52","4","Ns6,train","52","true","",""
"null","","html-keyboard-response","537","442618","0.0-448.0","","","null","","","","","",""
"516.9000000059605","","image-keyboard-response","538","443136","0.0-449.0","","img/animals/S4.jpg","52","4","Ns6,train","52","true","",""
"null","","html-keyboard-response","539","443338","0.0-450.0","","","null","","","","","",""
"1060","","image-keyboard-response","540","444399","0.0-451.0","","img/animals/S2.jpg","50","2","Ns6,train","50","true","",""
"null","","html-keyboard-response","541","444600","0.0-452.0","","","null","","","","","",""
"958.6999999880791","","image-keyboard-response","542","445560","0.0-453.0","","img/animals/S4.jpg","52","4","Ns6,train","52","true","",""
"null","","html-keyboard-response","543","445761","0.0-454.0","","","null","","","","","",""
"726.0999999940395","","image-keyboard-response","544","446488","0.0-455.0","","img/animals/S1.jpg","49","1","Ns6,train","49","true","",""
"null","","html-keyboard-response","545","446691","0.0-456.0","","","null","","","","","",""
"724.3000000119209","","image-keyboard-response","546","447416","0.0-457.0","","img/animals/S5.jpg","53","5","Ns6,train","53","true","",""
"null","","html-keyboard-response","547","447617","0.0-458.0","","","null","","","","","",""
"821.8999999761581","","image-keyboard-response","548","448440","0.0-459.0","","img/animals/S4.jpg","52","4","Ns6,train","52","true","",""
"null","","html-keyboard-response","549","448642","0.0-460.0","","","null","","","","","",""
"1765.3999999761581","","image-keyboard-response","550","450408","0.0-461.0","","img/animals/S1.jpg","50","1","Ns6,train","49","false","",""
"null","","html-keyboard-response","551","450609","0.0-462.0","","","null","","","","","",""
"870.2000000178814","","image-keyboard-response","552","451480","0.0-463.0","","img/animals/S1.jpg","49","1","Ns6,train","49","true","",""
"null","","html-keyboard-response","553","451682","0.0-464.0","","","null","","","","","",""
"860.7999999821186","","image-keyboard-response","554","452544","0.0-465.0","","img/animals/S2.jpg","50","2","Ns6,train","50","true","",""
"null","","html-keyboard-response","555","452746","0.0-466.0","","","null","","","","","",""
"693.0999999940395","","image-keyboard-response","556","453440","0.0-467.0","","img/animals/S1.jpg","49","1","Ns6,train","49","true","",""
"null","","html-keyboard-response","557","453641","0.0-468.0","","","null","","","","","",""
"981.5","","image-keyboard-response","558","454623","0.0-469.0","","img/animals/S2.jpg","50","2","Ns6,train","50","true","",""
"null","","html-keyboard-response","559","454825","0.0-470.0","","","null","","","","","",""
"686.2000000178814","","image-keyboard-response","560","455512","0.0-471.0","","img/animals/S1.jpg","49","1","Ns6,train","49","true","",""
"null","","html-keyboard-response","561","455715","0.0-472.0","","","null","","","","","",""
"724.1999999880791","","image-keyboard-response","562","456440","0.0-473.0","","img/animals/S5.jpg","53","5","Ns6,train","53","true","",""
"null","","html-keyboard-response","563","456641","0.0-474.0","","","null","","","","","",""
"487","","image-keyboard-response","564","457129","0.0-475.0","","img/animals/S5.jpg","53","5","Ns6,train","53","true","",""
"null","","html-keyboard-response","565","457331","0.0-476.0","","","null","","","","","",""
"620.2999999821186","","image-keyboard-response","566","457952","0.0-477.0","","img/animals/S4.jpg","52","4","Ns6,train","52","true","",""
"null","","html-keyboard-response","567","458154","0.0-478.0","","","null","","","","","",""
"null","","image-keyboard-response","568","460655","0.0-479.0","","img/animals/S6.jpg","null","6","Ns6,train","54","false","",""
"null","","html-keyboard-response","569","460857","0.0-480.0","","","null","","","","","",""
"null","","image-keyboard-response","570","463359","0.0-481.0","","img/animals/S6.jpg","null","6","Ns6,train","54","false","",""
"null","","html-keyboard-response","571","463561","0.0-482.0","","","null","","","","","",""
"null","","image-keyboard-response","572","466062","0.0-483.0","","img/animals/S6.jpg","null","6","Ns6,train","54","false","",""
"null","","html-keyboard-response","573","466263","0.0-484.0","","","null","","","","","",""
"null","","image-keyboard-response","574","468766","0.0-485.0","","img/animals/S6.jpg","null","6","Ns6,train","54","false","",""
"null","","html-keyboard-response","575","468967","0.0-486.0","","","null","","","","","",""
"1088.1000000238419","","image-keyboard-response","576","470056","0.0-487.0","","img/animals/S3.jpg","51","3","Ns6,train","51","true","",""
"null","","html-keyboard-response","577","470258","0.0-488.0","","","null","","","","","",""
"661.4000000059605","","image-keyboard-response","578","470920","0.0-489.0","","img/animals/S5.jpg","53","5","Ns6,train","53","true","",""
"null","","html-keyboard-response","579","471122","0.0-490.0","","","null","","","","","",""
"676.8000000119209","","image-keyboard-response","580","471800","0.0-491.0","","img/animals/S4.jpg","52","4","Ns6,train","52","true","",""
"null","","html-keyboard-response","581","472001","0.0-492.0","","","null","","","","","",""
"781.9000000059605","","image-keyboard-response","582","472784","0.0-493.0","","img/animals/S1.jpg","49","1","Ns6,train","49","true","",""
"null","","html-keyboard-response","583","472985","0.0-494.0","","","null","","","","","",""
"622","","image-keyboard-response","584","473608","0.0-495.0","","img/animals/S1.jpg","49","1","Ns6,train","49","true","",""
"null","","html-keyboard-response","585","473810","0.0-496.0","","","null","","","","","",""
"null","","image-keyboard-response","586","476312","0.0-497.0","","img/animals/S6.jpg","null","6","Ns6,train","54","false","",""
"null","","html-keyboard-response","587","476513","0.0-498.0","","","null","","","","","",""
"645.5999999940395","","image-keyboard-response","588","477160","0.0-499.0","","img/animals/S5.jpg","53","5","Ns6,train","53","true","",""
"null","","html-keyboard-response","589","477362","0.0-500.0","","","null","","","","","",""
"725.4000000059605","","image-keyboard-response","590","478088","0.0-501.0","","img/animals/S4.jpg","52","4","Ns6,train","52","true","",""
"null","","html-keyboard-response","591","478290","0.0-502.0","","","null","","","","","",""
"1429.300000011921","","image-keyboard-response","592","479720","0.0-503.0","","img/animals/S3.jpg","51","3","Ns6,train","51","true","",""
"null","","html-keyboard-response","593","479922","0.0-504.0","","","null","","","","","",""
"null","","image-keyboard-response","594","482424","0.0-505.0","","img/animals/S6.jpg","null","6","Ns6,train","54","false","",""
"null","","html-keyboard-response","595","482626","0.0-506.0","","","null","","","","","",""
"708.8000000119209","","image-keyboard-response","596","483335","0.0-507.0","","img/animals/S1.jpg","49","1","Ns6,train","49","true","",""
"null","","html-keyboard-response","597","483537","0.0-508.0","","","null","","","","","",""
"862.0999999940395","","image-keyboard-response","598","484400","0.0-509.0","","img/animals/S3.jpg","51","3","Ns6,train","51","true","",""
"null","","html-keyboard-response","599","484601","0.0-510.0","","","null","","","","","",""
"662.4000000059605","","image-keyboard-response","600","485264","0.0-511.0","","img/animals/S5.jpg","53","5","Ns6,train","53","true","",""
"null","","html-keyboard-response","601","485466","0.0-512.0","","","null","","","","","",""
"668.4000000059605","","image-keyboard-response","602","486135","0.0-513.0","","img/animals/S4.jpg","52","4","Ns6,train","52","true","",""
"null","","html-keyboard-response","603","486337","0.0-514.0","","","null","","","","","",""
"null","","image-keyboard-response","604","488840","0.0-515.0","","img/animals/S6.jpg","null","6","Ns6,train","54","false","",""
"null","","html-keyboard-response","605","489041","0.0-516.0","","","null","","","","","",""
"null","","image-keyboard-response","606","491542","0.0-517.0","","img/animals/S6.jpg","null","6","Ns6,train","54","false","",""
"null","","html-keyboard-response","607","491745","0.0-518.0","","","null","","","","","",""
"638.1999999880791","","image-keyboard-response","608","492384","0.0-519.0","","img/animals/S5.jpg","53","5","Ns6,train","53","true","",""
"null","","html-keyboard-response","609","492585","0.0-520.0","","","null","","","","","",""
"758.1000000238419","","image-keyboard-response","610","493344","0.0-521.0","","img/animals/S4.jpg","52","4","Ns6,train","52","true","",""
"null","","html-keyboard-response","611","493546","0.0-522.0","","","null","","","","","",""
"837","","image-keyboard-response","612","494384","0.0-523.0","","img/animals/S3.jpg","51","3","Ns6,train","51","true","",""
"null","","html-keyboard-response","613","494586","0.0-524.0","","","null","","","","","",""
"508.59999999403954","","image-keyboard-response","614","495095","0.0-525.0","","img/animals/S3.jpg","51","3","Ns6,train","51","true","",""
"null","","html-keyboard-response","615","495297","0.0-526.0","","","null","","","","","",""
"573.9000000059605","","image-keyboard-response","616","495871","0.0-527.0","","img/animals/S1.jpg","49","1","Ns6,train","49","true","",""
"null","","html-keyboard-response","617","496074","0.0-528.0","","","null","","","","","",""
"925.4000000059605","","image-keyboard-response","618","497000","0.0-529.0","","img/animals/S3.jpg","51","3","Ns6,train","51","true","",""
"null","","html-keyboard-response","619","497202","0.0-530.0","","","null","","","","","",""
"588.5999999940395","","image-keyboard-response","620","497791","0.0-531.0","","img/animals/S3.jpg","51","3","Ns6,train","51","true","",""
"null","","html-keyboard-response","621","497993","0.0-532.0","","","null","","","","","",""
"661.9000000059605","","image-keyboard-response","622","498656","0.0-533.0","","img/animals/S5.jpg","53","5","Ns6,train","53","true","",""
"null","","html-keyboard-response","623","498857","0.0-534.0","","","null","","","","","",""
"741.2000000178814","","image-keyboard-response","624","499599","0.0-535.0","","img/animals/S4.jpg","52","4","Ns6,train","52","true","",""
"null","","html-keyboard-response","625","499801","0.0-536.0","","","null","","","","","",""
"591.2000000178814","","image-keyboard-response","626","500393","0.0-537.0","","img/animals/S5.jpg","53","5","Ns6,train","53","true","",""
"null","","html-keyboard-response","627","500595","0.0-538.0","","","null","","","","","",""
"540","","image-keyboard-response","628","501136","0.0-539.0","","img/animals/S4.jpg","52","4","Ns6,train","52","true","",""
"null","","html-keyboard-response","629","501337","0.0-540.0","","","null","","","","","",""
"685.5","","image-keyboard-response","630","502024","0.0-541.0","","img/animals/S1.jpg","49","1","Ns6,train","49","true","",""
"null","","html-keyboard-response","631","502226","0.0-542.0","","","null","","","","","",""
"null","","image-keyboard-response","632","504728","0.0-543.0","","img/animals/S6.jpg","null","6","Ns6,train","54","false","",""
"null","","html-keyboard-response","633","504930","0.0-544.0","","","null","","","","","",""
"2205.2999999821186","","image-keyboard-response","634","507136","0.0-545.0","","img/animals/S1.jpg","49","1","Ns6,train","49","true","",""
"null","","html-keyboard-response","635","507337","0.0-546.0","","","null","","","","","",""
"445.2999999821186","","image-keyboard-response","636","507784","0.0-547.0","","img/animals/S1.jpg","49","1","Ns6,train","49","true","",""
"null","","html-keyboard-response","637","507986","0.0-548.0","","","null","","","","","",""
"null","","image-keyboard-response","638","510487","0.0-549.0","","img/animals/S6.jpg","null","6","Ns6,train","54","false","",""
"null","","html-keyboard-response","639","510688","0.0-550.0","","","null","","","","","",""
"1709.5999999940395","","image-keyboard-response","640","512399","0.0-551.0","","img/animals/S1.jpg","49","1","Ns6,train","49","true","",""
"null","","html-keyboard-response","641","512608","0.0-552.0","","","null","","","","","",""
"518.5999999940395","","image-keyboard-response","642","513128","0.0-553.0","","img/animals/S1.jpg","49","1","Ns6,train","49","true","",""
"null","","html-keyboard-response","643","513329","0.0-554.0","","","null","","","","","",""
"469.69999998807907","","image-keyboard-response","644","513800","0.0-555.0","","img/animals/S1.jpg","49","1","Ns6,train","49","true","",""
"null","","html-keyboard-response","645","514001","0.0-556.0","","","null","","","","","",""
"421.30000001192093","","image-keyboard-response","646","514424","0.0-557.0","","img/animals/S1.jpg","49","1","Ns6,train","49","true","",""
"null","","html-keyboard-response","647","514625","0.0-558.0","","","null","","","","","",""
"1094.4000000059605","","image-keyboard-response","648","515720","0.0-559.0","","img/animals/S2.jpg","50","2","Ns6,train","50","true","",""
"null","","html-keyboard-response","649","515922","0.0-560.0","","","null","","","","","",""
"668.6999999880791","","image-keyboard-response","650","516592","0.0-561.0","","img/animals/S1.jpg","49","1","Ns6,train","49","true","",""
"null","","html-keyboard-response","651","516794","0.0-562.0","","","null","","","","","",""
"692.2999999821186","","image-keyboard-response","652","517488","0.0-563.0","","img/animals/S5.jpg","53","5","Ns6,train","53","true","",""
"null","","html-keyboard-response","653","517690","0.0-564.0","","","null","","","","","",""
"637.9000000059605","","image-keyboard-response","654","518329","0.0-565.0","","img/animals/S4.jpg","52","4","Ns6,train","52","true","",""
"null","","html-keyboard-response","655","518531","0.0-566.0","","","null","","","","","",""
"548.1000000238419","","image-keyboard-response","656","519080","0.0-567.0","","img/animals/S2.jpg","53","2","Ns6,train","50","false","",""
"null","","html-keyboard-response","657","519282","0.0-568.0","","","null","","","","","",""
"null","","image-keyboard-response","658","521784","0.0-569.0","","img/animals/S6.jpg","null","6","Ns6,train","54","false","",""
"null","","html-keyboard-response","659","521985","0.0-570.0","","","null","","","","","",""
"716.4000000059605","","image-keyboard-response","660","522703","0.0-571.0","","img/animals/S5.jpg","53","5","Ns6,train","53","true","",""
"null","","html-keyboard-response","661","522904","0.0-572.0","","","null","","","","","",""
"775.3000000119209","","image-keyboard-response","662","523680","0.0-573.0","","img/animals/S4.jpg","52","4","Ns6,train","52","true","",""
"null","","html-keyboard-response","663","523881","0.0-574.0","","","null","","","","","",""
"645.4000000059605","","image-keyboard-response","664","524528","0.0-575.0","","img/animals/S5.jpg","53","5","Ns6,train","53","true","",""
"null","","html-keyboard-response","665","524730","0.0-576.0","","","null","","","","","",""
"645.2999999821186","","image-keyboard-response","666","525376","0.0-577.0","","img/animals/S4.jpg","52","4","Ns6,train","52","true","",""
"null","","html-keyboard-response","667","525579","0.0-578.0","","","null","","","","","",""
"588.3000000119209","","image-keyboard-response","668","526168","0.0-579.0","","img/animals/S5.jpg","53","5","Ns6,train","53","true","",""
"null","","html-keyboard-response","669","526370","0.0-580.0","","","null","","","","","",""
"476.90000000596046","","image-keyboard-response","670","526848","0.0-581.0","","img/animals/S4.jpg","52","4","Ns6,train","52","true","",""
"null","","html-keyboard-response","671","527061","0.0-582.0","","","null","","","","","",""
"null","","image-keyboard-response","672","529563","0.0-583.0","","img/animals/S6.jpg","null","6","Ns6,train","54","false","",""
"null","","html-keyboard-response","673","529765","0.0-584.0","","","null","","","","","",""
"null","","image-keyboard-response","674","532268","0.0-585.0","","img/animals/S6.jpg","null","6","Ns6,train","54","false","",""
"null","","html-keyboard-response","675","532469","0.0-586.0","","","null","","","","","",""
"1740.9000000059605","","image-keyboard-response","676","534211","0.0-587.0","","img/animals/S2.jpg","50","2","Ns6,train","50","true","",""
"null","","html-keyboard-response","677","534413","0.0-588.0","","","null","","","","","",""
"698","","image-keyboard-response","678","535112","0.0-589.0","","img/animals/S3.jpg","51","3","Ns6,train","51","true","",""
"null","","html-keyboard-response","679","535313","0.0-590.0","","","null","","","","","",""
"null","","image-keyboard-response","680","537816","0.0-591.0","","img/animals/S6.jpg","null","6","Ns6,train","54","false","",""
"null","","html-keyboard-response","681","538017","0.0-592.0","","","null","","","","","",""
"1461.7999999821186","","image-keyboard-response","682","539480","0.0-593.0","","img/animals/S2.jpg","50","2","Ns6,train","50","true","",""
"null","","html-keyboard-response","683","539682","0.0-594.0","","","null","","","","","",""
"661.3000000119209","","image-keyboard-response","684","540344","0.0-595.0","","img/animals/S3.jpg","51","3","Ns6,train","51","true","",""
"null","","html-keyboard-response","685","540545","0.0-596.0","","","null","","","","","",""
"853.1999999880791","","image-keyboard-response","686","541400","0.0-597.0","","img/animals/S5.jpg","53","5","Ns6,train","53","true","",""
"null","","html-keyboard-response","687","541602","0.0-598.0","","","null","","","","","",""
"493.40000000596046","","image-keyboard-response","688","542096","0.0-599.0","","img/animals/S4.jpg","52","4","Ns6,train","52","true","",""
"null","","html-keyboard-response","689","542297","0.0-600.0","","","null","","","","","",""
"870.6999999880791","","image-keyboard-response","690","543168","0.0-601.0","","img/animals/S3.jpg","51","3","Ns6,train","51","true","",""
"null","","html-keyboard-response","691","543371","0.0-602.0","","","null","","","","","",""
"884.2000000178814","","image-keyboard-response","692","544256","0.0-603.0","","img/animals/S2.jpg","50","2","Ns6,train","50","true","",""
"null","","html-keyboard-response","693","544458","0.0-604.0","","","null","","","","","",""
"2709.300000011921","","html-keyboard-response","694","547168","0.0-605.0","","<p class=""center-content"">You have completed a block! </p><p class=""center-content"">Press any key on the keyboard to continue to the next block,</p><p class=""center-content"">or wait for the automatic progression to the next block after one minute.</p>","32","","","","","",""
"null","","image-keyboard-response","695","549670","0.0-606.0","","img/animals/S6.jpg","null","6","Ns6,test","54","false","",""
"null","","html-keyboard-response","696","549873","0.0-607.0","","","null","","","","","",""
"1478","","image-keyboard-response","697","551351","0.0-608.0","","img/animals/S1.jpg","49","1","Ns6,test","49","true","",""
"null","","html-keyboard-response","698","551553","0.0-609.0","","","null","","","","","",""
"877.7999999821186","","image-keyboard-response","699","552432","0.0-610.0","","img/animals/S5.jpg","53","5","Ns6,test","53","true","",""
"null","","html-keyboard-response","700","552640","0.0-611.0","","","null","","","","","",""
"630.6999999880791","","image-keyboard-response","701","553272","0.0-612.0","","img/animals/S4.jpg","52","4","Ns6,test","52","true","",""
"null","","html-keyboard-response","702","553474","0.0-613.0","","","null","","","","","",""
"733.2000000178814","","image-keyboard-response","703","554208","0.0-614.0","","img/animals/S3.jpg","51","3","Ns6,test","51","true","",""
"null","","html-keyboard-response","704","554410","0.0-615.0","","","null","","","","","",""
"1170.9000000059605","","image-keyboard-response","705","555582","0.0-616.0","","img/animals/S4.jpg","52","4","Ns6,test","52","true","",""
"null","","html-keyboard-response","706","555784","0.0-617.0","","","null","","","","","",""
"655.2999999821186","","image-keyboard-response","707","556440","0.0-618.0","","img/animals/S5.jpg","53","5","Ns6,test","53","true","",""
"null","","html-keyboard-response","708","556643","0.0-619.0","","","null","","","","","",""
"null","","image-keyboard-response","709","559144","0.0-620.0","","img/animals/S6.jpg","null","6","Ns6,test","54","false","",""
"null","","html-keyboard-response","710","559345","0.0-621.0","","","null","","","","","",""
"null","","image-keyboard-response","711","561847","0.0-622.0","","img/animals/S6.jpg","null","6","Ns6,test","54","false","",""
"null","","html-keyboard-response","712","562048","0.0-623.0","","","null","","","","","",""
"854.4000000059605","","image-keyboard-response","713","562904","0.0-624.0","","img/animals/S1.jpg","49","1","Ns6,test","49","true","",""
"null","","html-keyboard-response","714","563105","0.0-625.0","","","null","","","","","",""
"1517.9000000059605","","image-keyboard-response","715","564624","0.0-626.0","","img/animals/S2.jpg","50","2","Ns6,test","50","true","",""
"null","","html-keyboard-response","716","564827","0.0-627.0","","","null","","","","","",""
"1075.8999999761581","","image-keyboard-response","717","565903","0.0-628.0","","img/animals/S3.jpg","51","3","Ns6,test","51","true","",""
"null","","html-keyboard-response","718","566111","0.0-629.0","","","null","","","","","",""
"703.7000000178814","","image-keyboard-response","719","566816","0.0-630.0","","img/animals/S5.jpg","53","5","Ns6,test","53","true","",""
"null","","html-keyboard-response","720","567030","0.0-631.0","","","null","","","","","",""
"497.7999999821186","","image-keyboard-response","721","567528","0.0-632.0","","img/animals/S5.jpg","53","5","Ns6,test","53","true","",""
"null","","html-keyboard-response","722","567731","0.0-633.0","","","null","","","","","",""
"null","","image-keyboard-response","723","570233","0.0-634.0","","img/animals/S6.jpg","null","6","Ns6,test","54","false","",""
"null","","html-keyboard-response","724","570434","0.0-635.0","","","null","","","","","",""
"1804.5","","image-keyboard-response","725","572240","0.0-636.0","","img/animals/S4.jpg","52","4","Ns6,test","52","true","",""
"null","","html-keyboard-response","726","572441","0.0-637.0","","","null","","","","","",""
"509.89999997615814","","image-keyboard-response","727","572952","0.0-638.0","","img/animals/S4.jpg","52","4","Ns6,test","52","true","",""
"null","","html-keyboard-response","728","573153","0.0-639.0","","","null","","","","","",""
"1149.800000011921","","image-keyboard-response","729","574304","0.0-640.0","","img/animals/S2.jpg","50","2","Ns6,test","50","true","",""
"null","","html-keyboard-response","730","574507","0.0-641.0","","","null","","","","","",""
"572.4000000059605","","image-keyboard-response","731","575080","0.0-642.0","","img/animals/S1.jpg","49","1","Ns6,test","49","true","",""
"null","","html-keyboard-response","732","575283","0.0-643.0","","","null","","","","","",""
"868.0999999940395","","image-keyboard-response","733","576152","0.0-644.0","","img/animals/S2.jpg","50","2","Ns6,test","50","true","",""
"null","","html-keyboard-response","734","576354","0.0-645.0","","","null","","","","","",""
"741.4000000059605","","image-keyboard-response","735","577096","0.0-646.0","","img/animals/S1.jpg","49","1","Ns6,test","49","true","",""
"null","","html-keyboard-response","736","577297","0.0-647.0","","","null","","","","","",""
"853.4000000059605","","image-keyboard-response","737","578152","0.0-648.0","","img/animals/S4.jpg","52","4","Ns6,test","52","true","",""
"null","","html-keyboard-response","738","578354","0.0-649.0","","","null","","","","","",""
"null","","image-keyboard-response","739","580857","0.0-650.0","","img/animals/S6.jpg","null","6","Ns6,test","54","false","",""
"null","","html-keyboard-response","740","581059","0.0-651.0","","","null","","","","","",""
"700.2999999821186","","image-keyboard-response","741","581760","0.0-652.0","","img/animals/S5.jpg","53","5","Ns6,test","53","true","",""
"null","","html-keyboard-response","742","581962","0.0-653.0","","","null","","","","","",""
"485.5","","image-keyboard-response","743","582448","0.0-654.0","","img/animals/S5.jpg","53","5","Ns6,test","53","true","",""
"null","","html-keyboard-response","744","582650","0.0-655.0","","","null","","","","","",""
"1181.2999999821186","","image-keyboard-response","745","583832","0.0-656.0","","img/animals/S4.jpg","52","4","Ns6,test","52","true","",""
"null","","html-keyboard-response","746","584033","0.0-657.0","","","null","","","","","",""
"725.9000000059605","","image-keyboard-response","747","584760","0.0-658.0","","img/animals/S1.jpg","49","1","Ns6,test","49","true","",""
"null","","html-keyboard-response","748","584962","0.0-659.0","","","null","","","","","",""
"661.2999999821186","","image-keyboard-response","749","585624","0.0-660.0","","img/animals/S5.jpg","53","5","Ns6,test","53","true","",""
"null","","html-keyboard-response","750","585839","0.0-661.0","","","null","","","","","",""
"808.9000000059605","","image-keyboard-response","751","586649","0.0-662.0","","img/animals/S3.jpg","51","3","Ns6,test","51","true","",""
"null","","html-keyboard-response","752","586851","0.0-663.0","","","null","","","","","",""
"843.5999999940395","","image-keyboard-response","753","587696","0.0-664.0","","img/animals/S4.jpg","52","4","Ns6,test","52","true","",""
"null","","html-keyboard-response","754","587898","0.0-665.0","","","null","","","","","",""
"1397.4000000059605","","image-keyboard-response","755","589296","0.0-666.0","","img/animals/S2.jpg","50","2","Ns6,test","50","true","",""
"null","","html-keyboard-response","756","589498","0.0-667.0","","","null","","","","","",""
"892.5","","image-keyboard-response","757","590392","0.0-668.0","","img/animals/S3.jpg","51","3","Ns6,test","51","true","",""
"null","","html-keyboard-response","758","590593","0.0-669.0","","","null","","","","","",""
"861.7000000178814","","image-keyboard-response","759","591456","0.0-670.0","","img/animals/S2.jpg","50","2","Ns6,test","50","true","",""
"null","","html-keyboard-response","760","591658","0.0-671.0","","","null","","","","","",""
"621.2999999821186","","image-keyboard-response","761","592280","0.0-672.0","","img/animals/S2.jpg","50","2","Ns6,test","50","true","",""
"null","","html-keyboard-response","762","592482","0.0-673.0","","","null","","","","","",""
"525.3999999761581","","image-keyboard-response","763","593008","0.0-674.0","","img/animals/S2.jpg","50","2","Ns6,test","50","true","",""
"null","","html-keyboard-response","764","593210","0.0-675.0","","","null","","","","","",""
"876.7999999821186","","image-keyboard-response","765","594088","0.0-676.0","","img/animals/S3.jpg","51","3","Ns6,test","51","true","",""
"null","","html-keyboard-response","766","594291","0.0-677.0","","","null","","","","","",""
"null","","image-keyboard-response","767","596793","0.0-678.0","","img/animals/S6.jpg","null","6","Ns6,test","54","false","",""
"null","","html-keyboard-response","768","596995","0.0-679.0","","","null","","","","","",""
"787.0999999940395","","image-keyboard-response","769","597783","0.0-680.0","","img/animals/S5.jpg","53","5","Ns6,test","53","true","",""
"null","","html-keyboard-response","770","597985","0.0-681.0","","","null","","","","","",""
"621.5999999940395","","image-keyboard-response","771","598608","0.0-682.0","","img/animals/S5.jpg","53","5","Ns6,test","53","true","",""
"null","","html-keyboard-response","772","598810","0.0-683.0","","","null","","","","","",""
"null","","image-keyboard-response","773","601312","0.0-684.0","","img/animals/S6.jpg","null","6","Ns6,test","54","false","",""
"null","","html-keyboard-response","774","601515","0.0-685.0","","","null","","","","","",""
"603.7999999821186","","image-keyboard-response","775","602120","0.0-686.0","","img/animals/S5.jpg","53","5","Ns6,test","53","true","",""
"null","","html-keyboard-response","776","602322","0.0-687.0","","","null","","","","","",""
"2173.0999999940395","","image-keyboard-response","777","604496","0.0-688.0","","img/animals/S2.jpg","50","2","Ns6,test","50","true","",""
"null","","html-keyboard-response","778","604698","0.0-689.0","","","null","","","","","",""
"717.2999999821186","","image-keyboard-response","779","605416","0.0-690.0","","img/animals/S3.jpg","51","3","Ns6,test","51","true","",""
"null","","html-keyboard-response","780","605618","0.0-691.0","","","null","","","","","",""
"null","","image-keyboard-response","781","608120","0.0-692.0","","img/animals/S6.jpg","null","6","Ns6,test","54","false","",""
"null","","html-keyboard-response","782","608321","0.0-693.0","","","null","","","","","",""
"null","","image-keyboard-response","783","610823","0.0-694.0","","img/animals/S6.jpg","null","6","Ns6,test","54","false","",""
"null","","html-keyboard-response","784","611024","0.0-695.0","","","null","","","","","",""
"902.6000000238419","","image-keyboard-response","785","611928","0.0-696.0","","img/animals/S3.jpg","51","3","Ns6,test","51","true","",""
"null","","html-keyboard-response","786","612130","0.0-697.0","","","null","","","","","",""
"677.4000000059605","","image-keyboard-response","787","612808","0.0-698.0","","img/animals/S4.jpg","52","4","Ns6,test","52","true","",""
"null","","html-keyboard-response","788","613010","0.0-699.0","","","null","","","","","",""
"629.5","","image-keyboard-response","789","613641","0.0-700.0","","img/animals/S5.jpg","53","5","Ns6,test","53","true","",""
"null","","html-keyboard-response","790","613843","0.0-701.0","","","null","","","","","",""
"1148.5999999940395","","image-keyboard-response","791","614992","0.0-702.0","","img/animals/S2.jpg","50","2","Ns6,test","50","true","",""
"null","","html-keyboard-response","792","615194","0.0-703.0","","","null","","","","","",""
"749.0999999940395","","image-keyboard-response","793","615944","0.0-704.0","","img/animals/S3.jpg","51","3","Ns6,test","51","true","",""
"null","","html-keyboard-response","794","616146","0.0-705.0","","","null","","","","","",""
"661","","image-keyboard-response","795","616808","0.0-706.0","","img/animals/S1.jpg","49","1","Ns6,test","49","true","",""
"null","","html-keyboard-response","796","617010","0.0-707.0","","","null","","","","","",""
"null","","image-keyboard-response","797","619511","0.0-708.0","","img/animals/S6.jpg","null","6","Ns6,test","54","false","",""
"null","","html-keyboard-response","798","619713","0.0-709.0","","","null","","","","","",""
"860","","image-keyboard-response","799","620575","0.0-710.0","","img/animals/S4.jpg","52","4","Ns6,test","52","true","",""
"null","","html-keyboard-response","800","620776","0.0-711.0","","","null","","","","","",""
"783.2000000178814","","image-keyboard-response","801","621561","0.0-712.0","","img/animals/S1.jpg","49","1","Ns6,test","49","true","",""
"null","","html-keyboard-response","802","621763","0.0-713.0","","","null","","","","","",""
"668.5","","image-keyboard-response","803","622432","0.0-714.0","","img/animals/S5.jpg","53","5","Ns6,test","53","true","",""
"null","","html-keyboard-response","804","622634","0.0-715.0","","","null","","","","","",""
"null","","image-keyboard-response","805","625136","0.0-716.0","","img/animals/S6.jpg","null","6","Ns6,test","54","false","",""
"null","","html-keyboard-response","806","625342","0.0-717.0","","","null","","","","","",""
"688.8000000119209","","image-keyboard-response","807","626032","0.0-718.0","","img/animals/S5.jpg","53","5","Ns6,test","53","true","",""
"null","","html-keyboard-response","808","626235","0.0-719.0","","","null","","","","","",""
"708.8000000119209","","image-keyboard-response","809","626945","0.0-720.0","","img/animals/S1.jpg","49","1","Ns6,test","49","true","",""
"null","","html-keyboard-response","810","627147","0.0-721.0","","","null","","","","","",""
"676.1999999880791","","image-keyboard-response","811","627824","0.0-722.0","","img/animals/S3.jpg","51","3","Ns6,test","51","true","",""
"null","","html-keyboard-response","812","628025","0.0-723.0","","","null","","","","","",""
"549.8000000119209","","image-keyboard-response","813","628576","0.0-724.0","","img/animals/S3.jpg","51","3","Ns6,test","51","true","",""
"null","","html-keyboard-response","814","628777","0.0-725.0","","","null","","","","","",""
"670.6999999880791","","image-keyboard-response","815","629449","0.0-726.0","","img/animals/S1.jpg","49","1","Ns6,test","49","true","",""
"null","","html-keyboard-response","816","629650","0.0-727.0","","","null","","","","","",""
"null","","image-keyboard-response","817","632151","0.0-728.0","","img/animals/S6.jpg","null","6","Ns6,test","54","false","",""
"null","","html-keyboard-response","818","632353","0.0-729.0","","","null","","","","","",""
"652.9000000059605","","image-keyboard-response","819","633006","0.0-730.0","","img/animals/S4.jpg","51","4","Ns6,test","52","false","",""
"null","","html-keyboard-response","820","633208","0.0-731.0","","","null","","","","","",""
"1694.7000000178814","","image-keyboard-response","821","634904","0.0-732.0","","img/animals/S1.jpg","49","1","Ns6,test","49","true","",""
"null","","html-keyboard-response","822","635106","0.0-733.0","","","null","","","","","",""
"1116.7999999821186","","image-keyboard-response","823","636224","0.0-734.0","","img/animals/S4.jpg","52","4","Ns6,test","52","true","",""
"null","","html-keyboard-response","824","636426","0.0-735.0","","","null","","","","","",""
"1077.2000000178814","","image-keyboard-response","825","637504","0.0-736.0","","img/animals/S2.jpg","50","2","Ns6,test","50","true","",""
"null","","html-keyboard-response","826","637705","0.0-737.0","","","null","","","","","",""
"797.6000000238419","","image-keyboard-response","827","638504","0.0-738.0","","img/animals/S3.jpg","51","3","Ns6,test","51","true","",""
"null","","html-keyboard-response","828","638707","0.0-739.0","","","null","","","","","",""
"556.4000000059605","","image-keyboard-response","829","639264","0.0-740.0","","img/animals/S3.jpg","51","3","Ns6,test","51","true","",""
"null","","html-keyboard-response","830","639465","0.0-741.0","","","null","","","","","",""
"null","","image-keyboard-response","831","641968","0.0-742.0","","img/animals/S6.jpg","null","6","Ns6,test","54","false","",""
"null","","html-keyboard-response","832","642169","0.0-743.0","","","null","","","","","",""
"1657.2999999821186","","image-keyboard-response","833","643827","0.0-744.0","","img/animals/S1.jpg","49","1","Ns6,test","49","true","",""
"null","","html-keyboard-response","834","644029","0.0-745.0","","","null","","","","","",""
